welcome.started,welcome.stopped,space_to_continue.keys,space_to_continue.rt,space_to_continue.duration,participant,session,date,expName,psychopyVersion,OS,frameRate,STUDY_ID,SESSION_ID,consent.consent,consent.consent_recontact,consent_check.started,consent_check.stopped,calibration_ready.started,calibration_ready.stopped,cal_ready.keys,cal_ready.rt,cal_ready.duration,calibration.started,calibration.stopped,mouse.x,mouse.y,mouse.leftButton,mouse.midButton,mouse.rightButton,mouse.time,mouse.clicked_name,move_on.keys,move_on.rt,move_on.duration,instructions.started,instructions.stopped,next.keys,next.rt,next.duration,practice_trial.started,practice_trial.stopped,practice_slider.response,practice_slider.rt,ready.started,ready.stopped,key_resp.keys,key_resp.rt,key_resp.duration,play_sound.started,play_sound.stopped,trials.thisRepN,trials.thisTrialN,trials.thisN,trials.thisIndex,trials.ran,orig_or_cover,rating.started,rating.stopped,slider.response,slider.rt,songs.thisRepN,songs.thisTrialN,songs.thisN,songs.thisIndex,songs.ran,song_id,short_break.started,short_break.stopped,space_to_move_on.keys,space_to_move_on.rt,space_to_move_on.duration,blocks.thisRepN,blocks.thisTrialN,blocks.thisN,blocks.thisIndex,blocks.ran,block,survey.age,survey.musician,survey.music_making,survey.listen_time,survey.medium,survey.music_seeking,survey.music_choice,survey.activities,survey.question1.Jazz,survey.question1.Disco,survey.question1.Country,survey.question1.Reggae,survey.question1.Classic rock,survey.question1.Folk/indie,survey.question1.Electronic (EDM),survey.question1.Pop,survey.question1.A cappella,survey.question1.Classical,survey.question1.Latin,survey.question1.Hip hop,survey.question1.Ambient,survey.question1.R&B,survey.question1.Metal,survey.question1.Alternative rock,survey.genres_ranked.text1,survey.genres_ranked.text2,survey.genres_ranked.text3,survey.habit_change,experiment.thisRepN,experiment.thisTrialN,experiment.thisN,experiment.thisIndex,experiment.ran,goodbye.started,goodbye.stopped
0.0008,1.7012,space,1.6489,,8106,1,2024-06-14_12h44.06.168,experiment,2024.1.5,Win32,60.24096386,666b5f73dbba3f0cd916b177,666c6e9109980915527cfe5b,,,,,,,,,,,,,,,,,,,,,,,,,,,,,,,,,,,,,,,,,,,,,,,,,,,,,,,,,,,,,,,,,,,,,,,,,,,,,,,,,,,,,,,,,,,,,,,,,,,
,,,,,8106,1,2024-06-14_12h44.06.168,experiment,2024.1.5,Win32,60.24096386,666b5f73dbba3f0cd916b177,666c6e9109980915527cfe5b,yes,yes,,,,,,,,,,,,,,,,,,,,,,,,,,,,,,,,,,,,,,,,,,,,,,,,,,,,,,,,,,,,,,,,,,,,,,,,,,,,,,,,,,,,,,,,,,,,,,,,,
,,,,,8106,1,2024-06-14_12h44.06.168,experiment,2024.1.5,Win32,60.24096386,666b5f73dbba3f0cd916b177,666c6e9109980915527cfe5b,,,30.6789,30.6794,,,,,,,,,,,,,,,,,,,,,,,,,,,,,,,,,,,,,,,,,,,,,,,,,,,,,,,,,,,,,,,,,,,,,,,,,,,,,,,,,,,,,,,,,,,,,,,
,,,,,8106,1,2024-06-14_12h44.06.168,experiment,2024.1.5,Win32,60.24096386,666b5f73dbba3f0cd916b177,666c6e9109980915527cfe5b,,,,,30.685,37.3123,space,6.5721,,37.3128,111.3481,[-0.018229166666666668],[-0.4114583333333333],[1],[0],[0],[4.0917000000001735],[],right,64.0044,,111.3767,118.5191,space,7.1163,,118.5195,136.408,5.984375,17.8557,136.4086,138.0381,space,1.6176,,138.0981,145.4681,0.0,0.0,0.0,1.0,1.0,SoundStimuli/Happy_PharellWilliams_Cover5S.wav,,,,,,,,,,,,,,,,,,,,,,,,,,,,,,,,,,,,,,,,,,,,,,,,,,,,,,,,
,,,,,8106,1,2024-06-14_12h44.06.168,experiment,2024.1.5,Win32,60.24096386,666b5f73dbba3f0cd916b177,666c6e9109980915527cfe5b,,,,,,,,,,,,,,,,,,,,,,,,,,,,,,,,,,,,145.4702,152.815,0.0,1.0,1.0,0.0,1.0,SoundStimuli/Happy_PharellWilliams_Original5S.wav,,,,,,,,,,,,,,,,,,,,,,,,,,,,,,,,,,,,,,,,,,,,,,,,,,,,,,,,
,,,,,8106,1,2024-06-14_12h44.06.168,experiment,2024.1.5,Win32,60.24096386,666b5f73dbba3f0cd916b177,666c6e9109980915527cfe5b,,,,,,,,,,,,,,,,,,,,,,,,,,,,,,,,,,,,,,,,,,,,152.8496,154.9294,6.984375,2.0722,0.0,0.0,0.0,7.0,1.0,song_indices/Happy_PharellWilliams.csv,,,,,,,,,,,,,,,,,,,,,,,,,,,,,,,,,,,,,,,,,,,,,,
,,,,,8106,1,2024-06-14_12h44.06.168,experiment,2024.1.5,Win32,60.24096386,666b5f73dbba3f0cd916b177,666c6e9109980915527cfe5b,,,,,,,,,,,,,,,,,,,,,,,,,,,,,,,,,,,,154.9324,161.2529,0.0,0.0,0.0,0.0,1.0,SoundStimuli/RockWithYou_MichaelJackson_Original5S.wav,,,,,,,,,,,,,,,,,,,,,,,,,,,,,,,,,,,,,,,,,,,,,,,,,,,,,,,,
,,,,,8106,1,2024-06-14_12h44.06.168,experiment,2024.1.5,Win32,60.24096386,666b5f73dbba3f0cd916b177,666c6e9109980915527cfe5b,,,,,,,,,,,,,,,,,,,,,,,,,,,,,,,,,,,,161.287,167.3488,0.0,1.0,1.0,1.0,1.0,SoundStimuli/RockWithYou_MichaelJackson_Cover5S.wav,,,,,,,,,,,,,,,,,,,,,,,,,,,,,,,,,,,,,,,,,,,,,,,,,,,,,,,,
,,,,,8106,1,2024-06-14_12h44.06.168,experiment,2024.1.5,Win32,60.24096386,666b5f73dbba3f0cd916b177,666c6e9109980915527cfe5b,,,,,,,,,,,,,,,,,,,,,,,,,,,,,,,,,,,,,,,,,,,,167.3491,169.1732,2.96875,1.7838,0.0,1.0,1.0,16.0,1.0,song_indices/RockWithYou_MichaelJackson.csv,,,,,,,,,,,,,,,,,,,,,,,,,,,,,,,,,,,,,,,,,,,,,,
,,,,,8106,1,2024-06-14_12h44.06.168,experiment,2024.1.5,Win32,60.24096386,666b5f73dbba3f0cd916b177,666c6e9109980915527cfe5b,,,,,,,,,,,,,,,,,,,,,,,,,,,,,,,,,,,,169.1765,175.0307,0.0,0.0,0.0,1.0,1.0,SoundStimuli/IWillAlwaysLoveYou_WhitneyHouston_Cover5S.wav,,,,,,,,,,,,,,,,,,,,,,,,,,,,,,,,,,,,,,,,,,,,,,,,,,,,,,,,
,,,,,8106,1,2024-06-14_12h44.06.168,experiment,2024.1.5,Win32,60.24096386,666b5f73dbba3f0cd916b177,666c6e9109980915527cfe5b,,,,,,,,,,,,,,,,,,,,,,,,,,,,,,,,,,,,175.0621,181.4373,0.0,1.0,1.0,0.0,1.0,SoundStimuli/IWillAlwaysLoveYou_WhitneyHouston_Original5S.wav,,,,,,,,,,,,,,,,,,,,,,,,,,,,,,,,,,,,,,,,,,,,,,,,,,,,,,,,
,,,,,8106,1,2024-06-14_12h44.06.168,experiment,2024.1.5,Win32,60.24096386,666b5f73dbba3f0cd916b177,666c6e9109980915527cfe5b,,,,,,,,,,,,,,,,,,,,,,,,,,,,,,,,,,,,,,,,,,,,181.4378,187.3618,5.890625,5.8894,0.0,2.0,2.0,10.0,1.0,song_indices/IWillAlwaysLoveYou_WhitneyHouston.csv,,,,,,,,,,,,,,,,,,,,,,,,,,,,,,,,,,,,,,,,,,,,,,
,,,,,8106,1,2024-06-14_12h44.06.168,experiment,2024.1.5,Win32,60.24096386,666b5f73dbba3f0cd916b177,666c6e9109980915527cfe5b,,,,,,,,,,,,,,,,,,,,,,,,,,,,,,,,,,,,187.3659,193.4521,0.0,0.0,0.0,0.0,1.0,SoundStimuli/GimmeShelter_RollingStones_Original5S.wav,,,,,,,,,,,,,,,,,,,,,,,,,,,,,,,,,,,,,,,,,,,,,,,,,,,,,,,,
,,,,,8106,1,2024-06-14_12h44.06.168,experiment,2024.1.5,Win32,60.24096386,666b5f73dbba3f0cd916b177,666c6e9109980915527cfe5b,,,,,,,,,,,,,,,,,,,,,,,,,,,,,,,,,,,,193.4807,199.6925,0.0,1.0,1.0,1.0,1.0,SoundStimuli/GimmeShelter_RollingStones_Cover5S.wav,,,,,,,,,,,,,,,,,,,,,,,,,,,,,,,,,,,,,,,,,,,,,,,,,,,,,,,,
,,,,,8106,1,2024-06-14_12h44.06.168,experiment,2024.1.5,Win32,60.24096386,666b5f73dbba3f0cd916b177,666c6e9109980915527cfe5b,,,,,,,,,,,,,,,,,,,,,,,,,,,,,,,,,,,,,,,,,,,,199.6934,201.3968,3.9921875,1.6587,0.0,3.0,3.0,20.0,1.0,song_indices/GimmeShelter_RollingStones.csv,,,,,,,,,,,,,,,,,,,,,,,,,,,,,,,,,,,,,,,,,,,,,,
,,,,,8106,1,2024-06-14_12h44.06.168,experiment,2024.1.5,Win32,60.24096386,666b5f73dbba3f0cd916b177,666c6e9109980915527cfe5b,,,,,,,,,,,,,,,,,,,,,,,,,,,,,,,,,,,,201.3999,207.734,0.0,0.0,0.0,1.0,1.0,SoundStimuli/Stronger_KanyeWest_Cover5S.wav,,,,,,,,,,,,,,,,,,,,,,,,,,,,,,,,,,,,,,,,,,,,,,,,,,,,,,,,
,,,,,8106,1,2024-06-14_12h44.06.168,experiment,2024.1.5,Win32,60.24096386,666b5f73dbba3f0cd916b177,666c6e9109980915527cfe5b,,,,,,,,,,,,,,,,,,,,,,,,,,,,,,,,,,,,207.7676,213.8258,0.0,1.0,1.0,0.0,1.0,SoundStimuli/Stronger_KanyeWest_Original5S.wav,,,,,,,,,,,,,,,,,,,,,,,,,,,,,,,,,,,,,,,,,,,,,,,,,,,,,,,,
,,,,,8106,1,2024-06-14_12h44.06.168,experiment,2024.1.5,Win32,60.24096386,666b5f73dbba3f0cd916b177,666c6e9109980915527cfe5b,,,,,,,,,,,,,,,,,,,,,,,,,,,,,,,,,,,,,,,,,,,,213.8264,215.1716,2.984375,1.3097,0.0,4.0,4.0,9.0,1.0,song_indices/Stronger_KanyeWest.csv,,,,,,,,,,,,,,,,,,,,,,,,,,,,,,,,,,,,,,,,,,,,,,
,,,,,8106,1,2024-06-14_12h44.06.168,experiment,2024.1.5,Win32,60.24096386,666b5f73dbba3f0cd916b177,666c6e9109980915527cfe5b,,,,,,,,,,,,,,,,,,,,,,,,,,,,,,,,,,,,215.1739,221.9245,0.0,0.0,0.0,0.0,1.0,SoundStimuli/PartyRockAnthem_LMFAO_Original5S.wav,,,,,,,,,,,,,,,,,,,,,,,,,,,,,,,,,,,,,,,,,,,,,,,,,,,,,,,,
,,,,,8106,1,2024-06-14_12h44.06.168,experiment,2024.1.5,Win32,60.24096386,666b5f73dbba3f0cd916b177,666c6e9109980915527cfe5b,,,,,,,,,,,,,,,,,,,,,,,,,,,,,,,,,,,,221.9575,228.732,0.0,1.0,1.0,1.0,1.0,SoundStimuli/PartyRockAnthem_LMFAO_Cover5S.wav,,,,,,,,,,,,,,,,,,,,,,,,,,,,,,,,,,,,,,,,,,,,,,,,,,,,,,,,
,,,,,8106,1,2024-06-14_12h44.06.168,experiment,2024.1.5,Win32,60.24096386,666b5f73dbba3f0cd916b177,666c6e9109980915527cfe5b,,,,,,,,,,,,,,,,,,,,,,,,,,,,,,,,,,,,,,,,,,,,228.7324,230.0786,5.6875,1.308,0.0,5.0,5.0,2.0,1.0,song_indices/PartyRockAnthem_LMFAO.csv,,,,,,,,,,,,,,,,,,,,,,,,,,,,,,,,,,,,,,,,,,,,,,
,,,,,8106,1,2024-06-14_12h44.06.168,experiment,2024.1.5,Win32,60.24096386,666b5f73dbba3f0cd916b177,666c6e9109980915527cfe5b,,,,,,,,,,,,,,,,,,,,,,,,,,,,,,,,,,,,230.0818,236.4352,0.0,0.0,0.0,1.0,1.0,SoundStimuli/GoodGollyMissMolly_LittleRichard_Cover5S.wav,,,,,,,,,,,,,,,,,,,,,,,,,,,,,,,,,,,,,,,,,,,,,,,,,,,,,,,,
,,,,,8106,1,2024-06-14_12h44.06.168,experiment,2024.1.5,Win32,60.24096386,666b5f73dbba3f0cd916b177,666c6e9109980915527cfe5b,,,,,,,,,,,,,,,,,,,,,,,,,,,,,,,,,,,,236.4648,242.5102,0.0,1.0,1.0,0.0,1.0,SoundStimuli/GoodGollyMissMolly_LittleRichard_Original5S.wav,,,,,,,,,,,,,,,,,,,,,,,,,,,,,,,,,,,,,,,,,,,,,,,,,,,,,,,,
,,,,,8106,1,2024-06-14_12h44.06.168,experiment,2024.1.5,Win32,60.24096386,666b5f73dbba3f0cd916b177,666c6e9109980915527cfe5b,,,,,,,,,,,,,,,,,,,,,,,,,,,,,,,,,,,,,,,,,,,,242.5106,243.9584,5.8359375,1.4021,0.0,6.0,6.0,0.0,1.0,song_indices/GoodGollyMissMolly_LittleRichard.csv,,,,,,,,,,,,,,,,,,,,,,,,,,,,,,,,,,,,,,,,,,,,,,
,,,,,8106,1,2024-06-14_12h44.06.168,experiment,2024.1.5,Win32,60.24096386,666b5f73dbba3f0cd916b177,666c6e9109980915527cfe5b,,,,,,,,,,,,,,,,,,,,,,,,,,,,,,,,,,,,243.9612,254.2078,0.0,0.0,0.0,1.0,1.0,SoundStimuli/CrazyInLove_BeyonceFtJayZ_Cover5S.wav,,,,,,,,,,,,,,,,,,,,,,,,,,,,,,,,,,,,,,,,,,,,,,,,,,,,,,,,
,,,,,8106,1,2024-06-14_12h44.06.168,experiment,2024.1.5,Win32,60.24096386,666b5f73dbba3f0cd916b177,666c6e9109980915527cfe5b,,,,,,,,,,,,,,,,,,,,,,,,,,,,,,,,,,,,254.2352,260.7652,0.0,1.0,1.0,0.0,1.0,SoundStimuli/CrazyInLove_BeyonceFtJayZ_Original5S.wav,,,,,,,,,,,,,,,,,,,,,,,,,,,,,,,,,,,,,,,,,,,,,,,,,,,,,,,,
,,,,,8106,1,2024-06-14_12h44.06.168,experiment,2024.1.5,Win32,60.24096386,666b5f73dbba3f0cd916b177,666c6e9109980915527cfe5b,,,,,,,,,,,,,,,,,,,,,,,,,,,,,,,,,,,,,,,,,,,,260.7657,262.761,6.0234375,1.9656,0.0,7.0,7.0,3.0,1.0,song_indices/CrazyInLove_BeyonceFtJayZ.csv,,,,,,,,,,,,,,,,,,,,,,,,,,,,,,,,,,,,,,,,,,,,,,
,,,,,8106,1,2024-06-14_12h44.06.168,experiment,2024.1.5,Win32,60.24096386,666b5f73dbba3f0cd916b177,666c6e9109980915527cfe5b,,,,,,,,,,,,,,,,,,,,,,,,,,,,,,,,,,,,262.7629,268.9863,0.0,0.0,0.0,0.0,1.0,SoundStimuli/TheBoyIsMine_BrandyMonica_Original5S.wav,,,,,,,,,,,,,,,,,,,,,,,,,,,,,,,,,,,,,,,,,,,,,,,,,,,,,,,,
,,,,,8106,1,2024-06-14_12h44.06.168,experiment,2024.1.5,Win32,60.24096386,666b5f73dbba3f0cd916b177,666c6e9109980915527cfe5b,,,,,,,,,,,,,,,,,,,,,,,,,,,,,,,,,,,,269.0176,274.9605,0.0,1.0,1.0,1.0,1.0,SoundStimuli/TheBoyIsMine_BrandyMonica_Cover5S.wav,,,,,,,,,,,,,,,,,,,,,,,,,,,,,,,,,,,,,,,,,,,,,,,,,,,,,,,,
,,,,,8106,1,2024-06-14_12h44.06.168,experiment,2024.1.5,Win32,60.24096386,666b5f73dbba3f0cd916b177,666c6e9109980915527cfe5b,,,,,,,,,,,,,,,,,,,,,,,,,,,,,,,,,,,,,,,,,,,,274.9611,276.3243,6.9453125,1.3138,0.0,8.0,8.0,6.0,1.0,song_indices/TheBoyIsMine_BrandyMonica.csv,,,,,,,,,,,,,,,,,,,,,,,,,,,,,,,,,,,,,,,,,,,,,,
,,,,,8106,1,2024-06-14_12h44.06.168,experiment,2024.1.5,Win32,60.24096386,666b5f73dbba3f0cd916b177,666c6e9109980915527cfe5b,,,,,,,,,,,,,,,,,,,,,,,,,,,,,,,,,,,,276.3271,283.5626,0.0,0.0,0.0,0.0,1.0,SoundStimuli/UptownFunk_MarkRonson_Original5S.wav,,,,,,,,,,,,,,,,,,,,,,,,,,,,,,,,,,,,,,,,,,,,,,,,,,,,,,,,
,,,,,8106,1,2024-06-14_12h44.06.168,experiment,2024.1.5,Win32,60.24096386,666b5f73dbba3f0cd916b177,666c6e9109980915527cfe5b,,,,,,,,,,,,,,,,,,,,,,,,,,,,,,,,,,,,283.5935,290.6014,0.0,1.0,1.0,1.0,1.0,SoundStimuli/UptownFunk_MarkRonson_Cover5S.wav,,,,,,,,,,,,,,,,,,,,,,,,,,,,,,,,,,,,,,,,,,,,,,,,,,,,,,,,
,,,,,8106,1,2024-06-14_12h44.06.168,experiment,2024.1.5,Win32,60.24096386,666b5f73dbba3f0cd916b177,666c6e9109980915527cfe5b,,,,,,,,,,,,,,,,,,,,,,,,,,,,,,,,,,,,,,,,,,,,290.602,292.2992,6.9453125,1.6567,0.0,9.0,9.0,15.0,1.0,song_indices/UptownFunk_MarkRonson.csv,,,,,,,,,,,,,,,,,,,,,,,,,,,,,,,,,,,,,,,,,,,,,,
,,,,,8106,1,2024-06-14_12h44.06.168,experiment,2024.1.5,Win32,60.24096386,666b5f73dbba3f0cd916b177,666c6e9109980915527cfe5b,,,,,,,,,,,,,,,,,,,,,,,,,,,,,,,,,,,,292.302,298.5892,0.0,0.0,0.0,0.0,1.0,SoundStimuli/HeyYa_Outkast_Original5S.wav,,,,,,,,,,,,,,,,,,,,,,,,,,,,,,,,,,,,,,,,,,,,,,,,,,,,,,,,
,,,,,8106,1,2024-06-14_12h44.06.168,experiment,2024.1.5,Win32,60.24096386,666b5f73dbba3f0cd916b177,666c6e9109980915527cfe5b,,,,,,,,,,,,,,,,,,,,,,,,,,,,,,,,,,,,298.6237,307.5425,0.0,1.0,1.0,1.0,1.0,SoundStimuli/HeyYa_Outkast_Cover5S.wav,,,,,,,,,,,,,,,,,,,,,,,,,,,,,,,,,,,,,,,,,,,,,,,,,,,,,,,,
,,,,,8106,1,2024-06-14_12h44.06.168,experiment,2024.1.5,Win32,60.24096386,666b5f73dbba3f0cd916b177,666c6e9109980915527cfe5b,,,,,,,,,,,,,,,,,,,,,,,,,,,,,,,,,,,,,,,,,,,,307.5435,308.812,2.046875,1.2339,0.0,10.0,10.0,22.0,1.0,song_indices/HeyYa_Outkast.csv,,,,,,,,,,,,,,,,,,,,,,,,,,,,,,,,,,,,,,,,,,,,,,
,,,,,8106,1,2024-06-14_12h44.06.168,experiment,2024.1.5,Win32,60.24096386,666b5f73dbba3f0cd916b177,666c6e9109980915527cfe5b,,,,,,,,,,,,,,,,,,,,,,,,,,,,,,,,,,,,308.8141,315.114,0.0,0.0,0.0,1.0,1.0,SoundStimuli/ShapeofYou_EdSheeran_Cover5S.wav,,,,,,,,,,,,,,,,,,,,,,,,,,,,,,,,,,,,,,,,,,,,,,,,,,,,,,,,
,,,,,8106,1,2024-06-14_12h44.06.168,experiment,2024.1.5,Win32,60.24096386,666b5f73dbba3f0cd916b177,666c6e9109980915527cfe5b,,,,,,,,,,,,,,,,,,,,,,,,,,,,,,,,,,,,315.1472,321.6203,0.0,1.0,1.0,0.0,1.0,SoundStimuli/ShapeofYou_EdSheeran_Original5S.wav,,,,,,,,,,,,,,,,,,,,,,,,,,,,,,,,,,,,,,,,,,,,,,,,,,,,,,,,
,,,,,8106,1,2024-06-14_12h44.06.168,experiment,2024.1.5,Win32,60.24096386,666b5f73dbba3f0cd916b177,666c6e9109980915527cfe5b,,,,,,,,,,,,,,,,,,,,,,,,,,,,,,,,,,,,,,,,,,,,321.6208,324.8386,6.046875,3.1849,0.0,11.0,11.0,21.0,1.0,song_indices/ShapeofYou_EdSheeran.csv,,,,,,,,,,,,,,,,,,,,,,,,,,,,,,,,,,,,,,,,,,,,,,
,,,,,8106,1,2024-06-14_12h44.06.168,experiment,2024.1.5,Win32,60.24096386,666b5f73dbba3f0cd916b177,666c6e9109980915527cfe5b,,,,,,,,,,,,,,,,,,,,,,,,,,,,,,,,,,,,324.842,330.8257,0.0,0.0,0.0,0.0,1.0,SoundStimuli/IWalkTheLine_JohnnyCash_Original5S.wav,,,,,,,,,,,,,,,,,,,,,,,,,,,,,,,,,,,,,,,,,,,,,,,,,,,,,,,,
,,,,,8106,1,2024-06-14_12h44.06.168,experiment,2024.1.5,Win32,60.24096386,666b5f73dbba3f0cd916b177,666c6e9109980915527cfe5b,,,,,,,,,,,,,,,,,,,,,,,,,,,,,,,,,,,,330.8576,337.9997,0.0,1.0,1.0,1.0,1.0,SoundStimuli/IWalkTheLine_JohnnyCash_Cover5S.wav,,,,,,,,,,,,,,,,,,,,,,,,,,,,,,,,,,,,,,,,,,,,,,,,,,,,,,,,
,,,,,8106,1,2024-06-14_12h44.06.168,experiment,2024.1.5,Win32,60.24096386,666b5f73dbba3f0cd916b177,666c6e9109980915527cfe5b,,,,,,,,,,,,,,,,,,,,,,,,,,,,,,,,,,,,,,,,,,,,338.0,339.2933,1.71875,1.2509,0.0,12.0,12.0,17.0,1.0,song_indices/IWalkTheLine_JohnnyCash.csv,,,,,,,,,,,,,,,,,,,,,,,,,,,,,,,,,,,,,,,,,,,,,,
,,,,,8106,1,2024-06-14_12h44.06.168,experiment,2024.1.5,Win32,60.24096386,666b5f73dbba3f0cd916b177,666c6e9109980915527cfe5b,,,,,,,,,,,,,,,,,,,,,,,,,,,,,,,,,,,,339.2976,345.0011,0.0,0.0,0.0,1.0,1.0,SoundStimuli/BetteDavisEyes_KimCarnes_Cover5S.wav,,,,,,,,,,,,,,,,,,,,,,,,,,,,,,,,,,,,,,,,,,,,,,,,,,,,,,,,
,,,,,8106,1,2024-06-14_12h44.06.168,experiment,2024.1.5,Win32,60.24096386,666b5f73dbba3f0cd916b177,666c6e9109980915527cfe5b,,,,,,,,,,,,,,,,,,,,,,,,,,,,,,,,,,,,345.0318,351.2248,0.0,1.0,1.0,0.0,1.0,SoundStimuli/BetteDavisEyes_KimCarnes_Original5S.wav,,,,,,,,,,,,,,,,,,,,,,,,,,,,,,,,,,,,,,,,,,,,,,,,,,,,,,,,
,,,,,8106,1,2024-06-14_12h44.06.168,experiment,2024.1.5,Win32,60.24096386,666b5f73dbba3f0cd916b177,666c6e9109980915527cfe5b,,,,,,,,,,,,,,,,,,,,,,,,,,,,,,,,,,,,,,,,,,,,351.2251,354.0916,6.96875,2.8311,0.0,13.0,13.0,5.0,1.0,song_indices/BetteDavisEyes_KimCarnes.csv,,,,,,,,,,,,,,,,,,,,,,,,,,,,,,,,,,,,,,,,,,,,,,
,,,,,8106,1,2024-06-14_12h44.06.168,experiment,2024.1.5,Win32,60.24096386,666b5f73dbba3f0cd916b177,666c6e9109980915527cfe5b,,,,,,,,,,,,,,,,,,,,,,,,,,,,,,,,,,,,354.0939,361.8084,0.0,0.0,0.0,0.0,1.0,SoundStimuli/NoOne_AliciaKeys_Original5S.wav,,,,,,,,,,,,,,,,,,,,,,,,,,,,,,,,,,,,,,,,,,,,,,,,,,,,,,,,
,,,,,8106,1,2024-06-14_12h44.06.168,experiment,2024.1.5,Win32,60.24096386,666b5f73dbba3f0cd916b177,666c6e9109980915527cfe5b,,,,,,,,,,,,,,,,,,,,,,,,,,,,,,,,,,,,361.8421,368.065,0.0,1.0,1.0,1.0,1.0,SoundStimuli/NoOne_AliciaKeys_Cover5S.wav,,,,,,,,,,,,,,,,,,,,,,,,,,,,,,,,,,,,,,,,,,,,,,,,,,,,,,,,
,,,,,8106,1,2024-06-14_12h44.06.168,experiment,2024.1.5,Win32,60.24096386,666b5f73dbba3f0cd916b177,666c6e9109980915527cfe5b,,,,,,,,,,,,,,,,,,,,,,,,,,,,,,,,,,,,,,,,,,,,368.0656,369.4472,1.421875,1.3392,0.0,14.0,14.0,19.0,1.0,song_indices/NoOne_AliciaKeys.csv,,,,,,,,,,,,,,,,,,,,,,,,,,,,,,,,,,,,,,,,,,,,,,
,,,,,8106,1,2024-06-14_12h44.06.168,experiment,2024.1.5,Win32,60.24096386,666b5f73dbba3f0cd916b177,666c6e9109980915527cfe5b,,,,,,,,,,,,,,,,,,,,,,,,,,,,,,,,,,,,369.4499,375.3744,0.0,0.0,0.0,0.0,1.0,SoundStimuli/StandByMe_BenEKing_Original5S.wav,,,,,,,,,,,,,,,,,,,,,,,,,,,,,,,,,,,,,,,,,,,,,,,,,,,,,,,,
,,,,,8106,1,2024-06-14_12h44.06.168,experiment,2024.1.5,Win32,60.24096386,666b5f73dbba3f0cd916b177,666c6e9109980915527cfe5b,,,,,,,,,,,,,,,,,,,,,,,,,,,,,,,,,,,,375.4055,381.4342,0.0,1.0,1.0,1.0,1.0,SoundStimuli/StandByMe_BenEKing_Cover5S.wav,,,,,,,,,,,,,,,,,,,,,,,,,,,,,,,,,,,,,,,,,,,,,,,,,,,,,,,,
,,,,,8106,1,2024-06-14_12h44.06.168,experiment,2024.1.5,Win32,60.24096386,666b5f73dbba3f0cd916b177,666c6e9109980915527cfe5b,,,,,,,,,,,,,,,,,,,,,,,,,,,,,,,,,,,,,,,,,,,,381.4345,383.0756,1.765625,1.5959,0.0,15.0,15.0,1.0,1.0,song_indices/StandByMe_BenEKing.csv,,,,,,,,,,,,,,,,,,,,,,,,,,,,,,,,,,,,,,,,,,,,,,
,,,,,8106,1,2024-06-14_12h44.06.168,experiment,2024.1.5,Win32,60.24096386,666b5f73dbba3f0cd916b177,666c6e9109980915527cfe5b,,,,,,,,,,,,,,,,,,,,,,,,,,,,,,,,,,,,383.0789,389.199,0.0,0.0,0.0,1.0,1.0,SoundStimuli/EyeOfTheTiger_Survivor_Cover5S.wav,,,,,,,,,,,,,,,,,,,,,,,,,,,,,,,,,,,,,,,,,,,,,,,,,,,,,,,,
,,,,,8106,1,2024-06-14_12h44.06.168,experiment,2024.1.5,Win32,60.24096386,666b5f73dbba3f0cd916b177,666c6e9109980915527cfe5b,,,,,,,,,,,,,,,,,,,,,,,,,,,,,,,,,,,,389.2307,395.1228,0.0,1.0,1.0,0.0,1.0,SoundStimuli/EyeOfTheTiger_Survivor_Original5S.wav,,,,,,,,,,,,,,,,,,,,,,,,,,,,,,,,,,,,,,,,,,,,,,,,,,,,,,,,
,,,,,8106,1,2024-06-14_12h44.06.168,experiment,2024.1.5,Win32,60.24096386,666b5f73dbba3f0cd916b177,666c6e9109980915527cfe5b,,,,,,,,,,,,,,,,,,,,,,,,,,,,,,,,,,,,,,,,,,,,395.1231,396.6045,5.953125,1.4466,0.0,16.0,16.0,11.0,1.0,song_indices/EyeOfTheTiger_Survivor.csv,,,,,,,,,,,,,,,,,,,,,,,,,,,,,,,,,,,,,,,,,,,,,,
,,,,,8106,1,2024-06-14_12h44.06.168,experiment,2024.1.5,Win32,60.24096386,666b5f73dbba3f0cd916b177,666c6e9109980915527cfe5b,,,,,,,,,,,,,,,,,,,,,,,,,,,,,,,,,,,,396.6068,402.8114,0.0,0.0,0.0,0.0,1.0,SoundStimuli/SmellsLikeTeenSpirit_Nirvana_Original5S.wav,,,,,,,,,,,,,,,,,,,,,,,,,,,,,,,,,,,,,,,,,,,,,,,,,,,,,,,,
,,,,,8106,1,2024-06-14_12h44.06.168,experiment,2024.1.5,Win32,60.24096386,666b5f73dbba3f0cd916b177,666c6e9109980915527cfe5b,,,,,,,,,,,,,,,,,,,,,,,,,,,,,,,,,,,,402.8454,408.6188,0.0,1.0,1.0,1.0,1.0,SoundStimuli/SmellsLikeTeenSpirit_Nirvana_Cover5S.wav,,,,,,,,,,,,,,,,,,,,,,,,,,,,,,,,,,,,,,,,,,,,,,,,,,,,,,,,
,,,,,8106,1,2024-06-14_12h44.06.168,experiment,2024.1.5,Win32,60.24096386,666b5f73dbba3f0cd916b177,666c6e9109980915527cfe5b,,,,,,,,,,,,,,,,,,,,,,,,,,,,,,,,,,,,,,,,,,,,408.6198,411.1337,6.96875,2.4742,0.0,17.0,17.0,8.0,1.0,song_indices/SmellsLikeTeenSpirit_Nirvana.csv,,,,,,,,,,,,,,,,,,,,,,,,,,,,,,,,,,,,,,,,,,,,,,
,,,,,8106,1,2024-06-14_12h44.06.168,experiment,2024.1.5,Win32,60.24096386,666b5f73dbba3f0cd916b177,666c6e9109980915527cfe5b,,,,,,,,,,,,,,,,,,,,,,,,,,,,,,,,,,,,411.1375,417.4053,0.0,0.0,0.0,0.0,1.0,SoundStimuli/ItsAllInTheGame_TommyEdwards_Original5S.wav,,,,,,,,,,,,,,,,,,,,,,,,,,,,,,,,,,,,,,,,,,,,,,,,,,,,,,,,
,,,,,8106,1,2024-06-14_12h44.06.168,experiment,2024.1.5,Win32,60.24096386,666b5f73dbba3f0cd916b177,666c6e9109980915527cfe5b,,,,,,,,,,,,,,,,,,,,,,,,,,,,,,,,,,,,417.4373,423.6832,0.0,1.0,1.0,1.0,1.0,SoundStimuli/ItsAllInTheGame_TommyEdwards_Cover5S.wav,,,,,,,,,,,,,,,,,,,,,,,,,,,,,,,,,,,,,,,,,,,,,,,,,,,,,,,,
,,,,,8106,1,2024-06-14_12h44.06.168,experiment,2024.1.5,Win32,60.24096386,666b5f73dbba3f0cd916b177,666c6e9109980915527cfe5b,,,,,,,,,,,,,,,,,,,,,,,,,,,,,,,,,,,,,,,,,,,,423.6836,425.3766,6.9453125,1.6511,0.0,18.0,18.0,13.0,1.0,song_indices/ItsAllInTheGame_TommyEdwards.csv,,,,,,,,,,,,,,,,,,,,,,,,,,,,,,,,,,,,,,,,,,,,,,
,,,,,8106,1,2024-06-14_12h44.06.168,experiment,2024.1.5,Win32,60.24096386,666b5f73dbba3f0cd916b177,666c6e9109980915527cfe5b,,,,,,,,,,,,,,,,,,,,,,,,,,,,,,,,,,,,425.3794,433.3644,0.0,0.0,0.0,1.0,1.0,SoundStimuli/TheBattleOfNewOrleans_JohnnyHorton_Cover5S.wav,,,,,,,,,,,,,,,,,,,,,,,,,,,,,,,,,,,,,,,,,,,,,,,,,,,,,,,,
,,,,,8106,1,2024-06-14_12h44.06.168,experiment,2024.1.5,Win32,60.24096386,666b5f73dbba3f0cd916b177,666c6e9109980915527cfe5b,,,,,,,,,,,,,,,,,,,,,,,,,,,,,,,,,,,,433.3978,439.6043,0.0,1.0,1.0,0.0,1.0,SoundStimuli/TheBattleOfNewOrleans_JohnnyHorton_Original5S.wav,,,,,,,,,,,,,,,,,,,,,,,,,,,,,,,,,,,,,,,,,,,,,,,,,,,,,,,,
,,,,,8106,1,2024-06-14_12h44.06.168,experiment,2024.1.5,Win32,60.24096386,666b5f73dbba3f0cd916b177,666c6e9109980915527cfe5b,,,,,,,,,,,,,,,,,,,,,,,,,,,,,,,,,,,,,,,,,,,,439.6047,441.0027,5.0234375,1.3579,0.0,19.0,19.0,4.0,1.0,song_indices/TheBattleOfNewOrleans_JohnnyHorton.csv,,,,,,,,,,,,,,,,,,,,,,,,,,,,,,,,,,,,,,,,,,,,,,
,,,,,8106,1,2024-06-14_12h44.06.168,experiment,2024.1.5,Win32,60.24096386,666b5f73dbba3f0cd916b177,666c6e9109980915527cfe5b,,,,,,,,,,,,,,,,,,,,,,,,,,,,,,,,,,,,441.0052,447.1427,0.0,0.0,0.0,1.0,1.0,SoundStimuli/NoScrubs_TLC_Cover5S.wav,,,,,,,,,,,,,,,,,,,,,,,,,,,,,,,,,,,,,,,,,,,,,,,,,,,,,,,,
,,,,,8106,1,2024-06-14_12h44.06.168,experiment,2024.1.5,Win32,60.24096386,666b5f73dbba3f0cd916b177,666c6e9109980915527cfe5b,,,,,,,,,,,,,,,,,,,,,,,,,,,,,,,,,,,,447.1799,453.3881,0.0,1.0,1.0,0.0,1.0,SoundStimuli/NoScrubs_TLC_Original5S.wav,,,,,,,,,,,,,,,,,,,,,,,,,,,,,,,,,,,,,,,,,,,,,,,,,,,,,,,,
,,,,,8106,1,2024-06-14_12h44.06.168,experiment,2024.1.5,Win32,60.24096386,666b5f73dbba3f0cd916b177,666c6e9109980915527cfe5b,,,,,,,,,,,,,,,,,,,,,,,,,,,,,,,,,,,,,,,,,,,,453.3884,454.8475,5.984375,1.4194,0.0,20.0,20.0,14.0,1.0,song_indices/NoScrubs_TLC.csv,,,,,,,,,,,,,,,,,,,,,,,,,,,,,,,,,,,,,,,,,,,,,,
,,,,,8106,1,2024-06-14_12h44.06.168,experiment,2024.1.5,Win32,60.24096386,666b5f73dbba3f0cd916b177,666c6e9109980915527cfe5b,,,,,,,,,,,,,,,,,,,,,,,,,,,,,,,,,,,,454.85,461.4208,0.0,0.0,0.0,1.0,1.0,SoundStimuli/GetUrFreakOn_MissyElliot_Cover5S.wav,,,,,,,,,,,,,,,,,,,,,,,,,,,,,,,,,,,,,,,,,,,,,,,,,,,,,,,,
,,,,,8106,1,2024-06-14_12h44.06.168,experiment,2024.1.5,Win32,60.24096386,666b5f73dbba3f0cd916b177,666c6e9109980915527cfe5b,,,,,,,,,,,,,,,,,,,,,,,,,,,,,,,,,,,,461.4531,467.532,0.0,1.0,1.0,0.0,1.0,SoundStimuli/GetUrFreakOn_MissyElliot_Original5S.wav,,,,,,,,,,,,,,,,,,,,,,,,,,,,,,,,,,,,,,,,,,,,,,,,,,,,,,,,
,,,,,8106,1,2024-06-14_12h44.06.168,experiment,2024.1.5,Win32,60.24096386,666b5f73dbba3f0cd916b177,666c6e9109980915527cfe5b,,,,,,,,,,,,,,,,,,,,,,,,,,,,,,,,,,,,,,,,,,,,467.5326,469.1085,5.9140625,1.5342,0.0,21.0,21.0,18.0,1.0,song_indices/GetUrFreakOn_MissyElliot.csv,,,,,,,,,,,,,,,,,,,,,,,,,,,,,,,,,,,,,,,,,,,,,,
,,,,,8106,1,2024-06-14_12h44.06.168,experiment,2024.1.5,Win32,60.24096386,666b5f73dbba3f0cd916b177,666c6e9109980915527cfe5b,,,,,,,,,,,,,,,,,,,,,,,,,,,,,,,,,,,,469.1109,475.2819,0.0,0.0,0.0,0.0,1.0,SoundStimuli/Fallin_AliciaKeys_Original5S.wav,,,,,,,,,,,,,,,,,,,,,,,,,,,,,,,,,,,,,,,,,,,,,,,,,,,,,,,,
,,,,,8106,1,2024-06-14_12h44.06.168,experiment,2024.1.5,Win32,60.24096386,666b5f73dbba3f0cd916b177,666c6e9109980915527cfe5b,,,,,,,,,,,,,,,,,,,,,,,,,,,,,,,,,,,,475.3021,481.7387,0.0,1.0,1.0,1.0,1.0,SoundStimuli/Fallin_AliciaKeys_Cover5S.wav,,,,,,,,,,,,,,,,,,,,,,,,,,,,,,,,,,,,,,,,,,,,,,,,,,,,,,,,
,,,,,8106,1,2024-06-14_12h44.06.168,experiment,2024.1.5,Win32,60.24096386,666b5f73dbba3f0cd916b177,666c6e9109980915527cfe5b,,,,,,,,,,,,,,,,,,,,,,,,,,,,,,,,,,,,,,,,,,,,481.7389,483.441,5.9453125,1.681,0.0,22.0,22.0,12.0,1.0,song_indices/Fallin_AliciaKeys.csv,,,,,,,,,,,,,,,,,,,,,,,,,,,,,,,,,,,,,,,,,,,,,,
,,,,,8106,1,2024-06-14_12h44.06.168,experiment,2024.1.5,Win32,60.24096386,666b5f73dbba3f0cd916b177,666c6e9109980915527cfe5b,,,,,,,,,,,,,,,,,,,,,,,,,,,,,,,,,,,,,,,,,,,,,,,,,,,,,,483.442,485.8008,space,2.3313,,0.0,0.0,0.0,1.0,1.0,choose_song_b2.csv,,,,,,,,,,,,,,,,,,,,,,,,,,,,,,,,,,,
,,,,,8106,1,2024-06-14_12h44.06.168,experiment,2024.1.5,Win32,60.24096386,666b5f73dbba3f0cd916b177,666c6e9109980915527cfe5b,,,,,,,,,,,,,,,,,,,,,,,,,,,,,,,,,,,,485.8044,492.7884,0.0,0.0,0.0,1.0,1.0,SoundStimuli/Dilemma_NellyKellyRowland_Cover5S.wav,,,,,,,,,,,,,,,,,,,,,,,,,,,,,,,,,,,,,,,,,,,,,,,,,,,,,,,,
,,,,,8106,1,2024-06-14_12h44.06.168,experiment,2024.1.5,Win32,60.24096386,666b5f73dbba3f0cd916b177,666c6e9109980915527cfe5b,,,,,,,,,,,,,,,,,,,,,,,,,,,,,,,,,,,,492.8134,499.013,0.0,1.0,1.0,0.0,1.0,SoundStimuli/Dilemma_NellyKellyRowland_Original5S.wav,,,,,,,,,,,,,,,,,,,,,,,,,,,,,,,,,,,,,,,,,,,,,,,,,,,,,,,,
,,,,,8106,1,2024-06-14_12h44.06.168,experiment,2024.1.5,Win32,60.24096386,666b5f73dbba3f0cd916b177,666c6e9109980915527cfe5b,,,,,,,,,,,,,,,,,,,,,,,,,,,,,,,,,,,,,,,,,,,,499.0135,500.6816,5.953125,1.6479,0.0,0.0,0.0,2.0,1.0,song_indices/Dilemma_NellyKellyRowland.csv,,,,,,,,,,,,,,,,,,,,,,,,,,,,,,,,,,,,,,,,,,,,,,
,,,,,8106,1,2024-06-14_12h44.06.168,experiment,2024.1.5,Win32,60.24096386,666b5f73dbba3f0cd916b177,666c6e9109980915527cfe5b,,,,,,,,,,,,,,,,,,,,,,,,,,,,,,,,,,,,500.6828,506.8739,0.0,0.0,0.0,0.0,1.0,SoundStimuli/SaveYourTears_TheWeekndArianaGrande_Original5S.wav,,,,,,,,,,,,,,,,,,,,,,,,,,,,,,,,,,,,,,,,,,,,,,,,,,,,,,,,
,,,,,8106,1,2024-06-14_12h44.06.168,experiment,2024.1.5,Win32,60.24096386,666b5f73dbba3f0cd916b177,666c6e9109980915527cfe5b,,,,,,,,,,,,,,,,,,,,,,,,,,,,,,,,,,,,506.9011,512.7907,0.0,1.0,1.0,1.0,1.0,SoundStimuli/SaveYourTears_TheWeekndArianaGrande_Cover5S.wav,,,,,,,,,,,,,,,,,,,,,,,,,,,,,,,,,,,,,,,,,,,,,,,,,,,,,,,,
,,,,,8106,1,2024-06-14_12h44.06.168,experiment,2024.1.5,Win32,60.24096386,666b5f73dbba3f0cd916b177,666c6e9109980915527cfe5b,,,,,,,,,,,,,,,,,,,,,,,,,,,,,,,,,,,,,,,,,,,,512.7911,514.1719,5.953125,1.3445,0.0,1.0,1.0,12.0,1.0,song_indices/SaveYourTears_TheWeekndArianaGrande.csv,,,,,,,,,,,,,,,,,,,,,,,,,,,,,,,,,,,,,,,,,,,,,,
,,,,,8106,1,2024-06-14_12h44.06.168,experiment,2024.1.5,Win32,60.24096386,666b5f73dbba3f0cd916b177,666c6e9109980915527cfe5b,,,,,,,,,,,,,,,,,,,,,,,,,,,,,,,,,,,,514.174,519.2974,0.0,0.0,0.0,1.0,1.0,SoundStimuli/JoyToTheWorld_ThreeDogNight_Cover5S.wav,,,,,,,,,,,,,,,,,,,,,,,,,,,,,,,,,,,,,,,,,,,,,,,,,,,,,,,,
,,,,,8106,1,2024-06-14_12h44.06.168,experiment,2024.1.5,Win32,60.24096386,666b5f73dbba3f0cd916b177,666c6e9109980915527cfe5b,,,,,,,,,,,,,,,,,,,,,,,,,,,,,,,,,,,,519.3218,525.4265,0.0,1.0,1.0,0.0,1.0,SoundStimuli/JoyToTheWorld_ThreeDogNight_Original5S.wav,,,,,,,,,,,,,,,,,,,,,,,,,,,,,,,,,,,,,,,,,,,,,,,,,,,,,,,,
,,,,,8106,1,2024-06-14_12h44.06.168,experiment,2024.1.5,Win32,60.24096386,666b5f73dbba3f0cd916b177,666c6e9109980915527cfe5b,,,,,,,,,,,,,,,,,,,,,,,,,,,,,,,,,,,,,,,,,,,,525.4267,526.9855,5.9453125,1.5312,0.0,2.0,2.0,8.0,1.0,song_indices/JoyToTheWorld_ThreeDogNight.csv,,,,,,,,,,,,,,,,,,,,,,,,,,,,,,,,,,,,,,,,,,,,,,
,,,,,8106,1,2024-06-14_12h44.06.168,experiment,2024.1.5,Win32,60.24096386,666b5f73dbba3f0cd916b177,666c6e9109980915527cfe5b,,,,,,,,,,,,,,,,,,,,,,,,,,,,,,,,,,,,526.9876,532.9929,0.0,0.0,0.0,1.0,1.0,SoundStimuli/TheSign_AceOfBase_Cover5S.wav,,,,,,,,,,,,,,,,,,,,,,,,,,,,,,,,,,,,,,,,,,,,,,,,,,,,,,,,
,,,,,8106,1,2024-06-14_12h44.06.168,experiment,2024.1.5,Win32,60.24096386,666b5f73dbba3f0cd916b177,666c6e9109980915527cfe5b,,,,,,,,,,,,,,,,,,,,,,,,,,,,,,,,,,,,533.0166,539.1666,0.0,1.0,1.0,0.0,1.0,SoundStimuli/TheSign_AceOfBase_Original5S.wav,,,,,,,,,,,,,,,,,,,,,,,,,,,,,,,,,,,,,,,,,,,,,,,,,,,,,,,,
,,,,,8106,1,2024-06-14_12h44.06.168,experiment,2024.1.5,Win32,60.24096386,666b5f73dbba3f0cd916b177,666c6e9109980915527cfe5b,,,,,,,,,,,,,,,,,,,,,,,,,,,,,,,,,,,,,,,,,,,,539.167,547.1378,6.0078125,7.9341,0.0,3.0,3.0,5.0,1.0,song_indices/TheSign_AceOfBase.csv,,,,,,,,,,,,,,,,,,,,,,,,,,,,,,,,,,,,,,,,,,,,,,
,,,,,8106,1,2024-06-14_12h44.06.168,experiment,2024.1.5,Win32,60.24096386,666b5f73dbba3f0cd916b177,666c6e9109980915527cfe5b,,,,,,,,,,,,,,,,,,,,,,,,,,,,,,,,,,,,547.14,553.3445,0.0,0.0,0.0,0.0,1.0,SoundStimuli/TikTok_Kesha_Original5S.wav,,,,,,,,,,,,,,,,,,,,,,,,,,,,,,,,,,,,,,,,,,,,,,,,,,,,,,,,
,,,,,8106,1,2024-06-14_12h44.06.168,experiment,2024.1.5,Win32,60.24096386,666b5f73dbba3f0cd916b177,666c6e9109980915527cfe5b,,,,,,,,,,,,,,,,,,,,,,,,,,,,,,,,,,,,553.3634,560.8999,0.0,1.0,1.0,1.0,1.0,SoundStimuli/TikTok_Kesha_Cover5S.wav,,,,,,,,,,,,,,,,,,,,,,,,,,,,,,,,,,,,,,,,,,,,,,,,,,,,,,,,
,,,,,8106,1,2024-06-14_12h44.06.168,experiment,2024.1.5,Win32,60.24096386,666b5f73dbba3f0cd916b177,666c6e9109980915527cfe5b,,,,,,,,,,,,,,,,,,,,,,,,,,,,,,,,,,,,,,,,,,,,560.9002,563.2132,3.984375,2.2741,0.0,4.0,4.0,3.0,1.0,song_indices/TikTok_Kesha.csv,,,,,,,,,,,,,,,,,,,,,,,,,,,,,,,,,,,,,,,,,,,,,,
,,,,,8106,1,2024-06-14_12h44.06.168,experiment,2024.1.5,Win32,60.24096386,666b5f73dbba3f0cd916b177,666c6e9109980915527cfe5b,,,,,,,,,,,,,,,,,,,,,,,,,,,,,,,,,,,,563.2162,569.2713,0.0,0.0,0.0,0.0,1.0,SoundStimuli/TossinAndTurnin_BobbyLewis_Original5S.wav,,,,,,,,,,,,,,,,,,,,,,,,,,,,,,,,,,,,,,,,,,,,,,,,,,,,,,,,
,,,,,8106,1,2024-06-14_12h44.06.168,experiment,2024.1.5,Win32,60.24096386,666b5f73dbba3f0cd916b177,666c6e9109980915527cfe5b,,,,,,,,,,,,,,,,,,,,,,,,,,,,,,,,,,,,569.3076,575.4328,0.0,1.0,1.0,1.0,1.0,SoundStimuli/TossinAndTurnin_BobbyLewis_Cover5S.wav,,,,,,,,,,,,,,,,,,,,,,,,,,,,,,,,,,,,,,,,,,,,,,,,,,,,,,,,
,,,,,8106,1,2024-06-14_12h44.06.168,experiment,2024.1.5,Win32,60.24096386,666b5f73dbba3f0cd916b177,666c6e9109980915527cfe5b,,,,,,,,,,,,,,,,,,,,,,,,,,,,,,,,,,,,,,,,,,,,575.4332,576.7589,6.0625,1.2861,0.0,5.0,5.0,13.0,1.0,song_indices/TossinAndTurnin_BobbyLewis.csv,,,,,,,,,,,,,,,,,,,,,,,,,,,,,,,,,,,,,,,,,,,,,,
,,,,,8106,1,2024-06-14_12h44.06.168,experiment,2024.1.5,Win32,60.24096386,666b5f73dbba3f0cd916b177,666c6e9109980915527cfe5b,,,,,,,,,,,,,,,,,,,,,,,,,,,,,,,,,,,,576.7616,582.8663,0.0,0.0,0.0,0.0,1.0,SoundStimuli/ComeAndGetYourLove_Redbone_Original5S.wav,,,,,,,,,,,,,,,,,,,,,,,,,,,,,,,,,,,,,,,,,,,,,,,,,,,,,,,,
,,,,,8106,1,2024-06-14_12h44.06.168,experiment,2024.1.5,Win32,60.24096386,666b5f73dbba3f0cd916b177,666c6e9109980915527cfe5b,,,,,,,,,,,,,,,,,,,,,,,,,,,,,,,,,,,,582.8982,589.955,0.0,1.0,1.0,1.0,1.0,SoundStimuli/ComeAndGetYourLove_Redbone_Cover5S.wav,,,,,,,,,,,,,,,,,,,,,,,,,,,,,,,,,,,,,,,,,,,,,,,,,,,,,,,,
,,,,,8106,1,2024-06-14_12h44.06.168,experiment,2024.1.5,Win32,60.24096386,666b5f73dbba3f0cd916b177,666c6e9109980915527cfe5b,,,,,,,,,,,,,,,,,,,,,,,,,,,,,,,,,,,,,,,,,,,,589.9559,591.3543,5.8828125,1.362,0.0,6.0,6.0,22.0,1.0,song_indices/ComeAndGetYourLove_Redbone.csv,,,,,,,,,,,,,,,,,,,,,,,,,,,,,,,,,,,,,,,,,,,,,,
,,,,,8106,1,2024-06-14_12h44.06.168,experiment,2024.1.5,Win32,60.24096386,666b5f73dbba3f0cd916b177,666c6e9109980915527cfe5b,,,,,,,,,,,,,,,,,,,,,,,,,,,,,,,,,,,,591.3566,597.6264,0.0,0.0,0.0,1.0,1.0,SoundStimuli/Kiss_Prince_Cover5S.wav,,,,,,,,,,,,,,,,,,,,,,,,,,,,,,,,,,,,,,,,,,,,,,,,,,,,,,,,
,,,,,8106,1,2024-06-14_12h44.06.168,experiment,2024.1.5,Win32,60.24096386,666b5f73dbba3f0cd916b177,666c6e9109980915527cfe5b,,,,,,,,,,,,,,,,,,,,,,,,,,,,,,,,,,,,597.6582,605.0851,0.0,1.0,1.0,0.0,1.0,SoundStimuli/Kiss_Prince_Original5S.wav,,,,,,,,,,,,,,,,,,,,,,,,,,,,,,,,,,,,,,,,,,,,,,,,,,,,,,,,
,,,,,8106,1,2024-06-14_12h44.06.168,experiment,2024.1.5,Win32,60.24096386,666b5f73dbba3f0cd916b177,666c6e9109980915527cfe5b,,,,,,,,,,,,,,,,,,,,,,,,,,,,,,,,,,,,,,,,,,,,605.0855,606.513,1.984375,1.3845,0.0,7.0,7.0,14.0,1.0,song_indices/Kiss_Prince.csv,,,,,,,,,,,,,,,,,,,,,,,,,,,,,,,,,,,,,,,,,,,,,,
,,,,,8106,1,2024-06-14_12h44.06.168,experiment,2024.1.5,Win32,60.24096386,666b5f73dbba3f0cd916b177,666c6e9109980915527cfe5b,,,,,,,,,,,,,,,,,,,,,,,,,,,,,,,,,,,,606.5156,612.9863,0.0,0.0,0.0,1.0,1.0,SoundStimuli/Weak_SWV_Cover5S.wav,,,,,,,,,,,,,,,,,,,,,,,,,,,,,,,,,,,,,,,,,,,,,,,,,,,,,,,,
,,,,,8106,1,2024-06-14_12h44.06.168,experiment,2024.1.5,Win32,60.24096386,666b5f73dbba3f0cd916b177,666c6e9109980915527cfe5b,,,,,,,,,,,,,,,,,,,,,,,,,,,,,,,,,,,,613.0181,619.0933,0.0,1.0,1.0,0.0,1.0,SoundStimuli/Weak_SWV_Original5S.wav,,,,,,,,,,,,,,,,,,,,,,,,,,,,,,,,,,,,,,,,,,,,,,,,,,,,,,,,
,,,,,8106,1,2024-06-14_12h44.06.168,experiment,2024.1.5,Win32,60.24096386,666b5f73dbba3f0cd916b177,666c6e9109980915527cfe5b,,,,,,,,,,,,,,,,,,,,,,,,,,,,,,,,,,,,,,,,,,,,619.0936,634.9188,5.8671875,15.7798,0.0,8.0,8.0,6.0,1.0,song_indices/Weak_SWV.csv,,,,,,,,,,,,,,,,,,,,,,,,,,,,,,,,,,,,,,,,,,,,,,
,,,,,8106,1,2024-06-14_12h44.06.168,experiment,2024.1.5,Win32,60.24096386,666b5f73dbba3f0cd916b177,666c6e9109980915527cfe5b,,,,,,,,,,,,,,,,,,,,,,,,,,,,,,,,,,,,634.9214,640.8472,0.0,0.0,0.0,1.0,1.0,SoundStimuli/Irreplaceable_Beyonce_Cover5S.wav,,,,,,,,,,,,,,,,,,,,,,,,,,,,,,,,,,,,,,,,,,,,,,,,,,,,,,,,
,,,,,8106,1,2024-06-14_12h44.06.168,experiment,2024.1.5,Win32,60.24096386,666b5f73dbba3f0cd916b177,666c6e9109980915527cfe5b,,,,,,,,,,,,,,,,,,,,,,,,,,,,,,,,,,,,640.8794,646.7558,0.0,1.0,1.0,0.0,1.0,SoundStimuli/Irreplaceable_Beyonce_Original5S.wav,,,,,,,,,,,,,,,,,,,,,,,,,,,,,,,,,,,,,,,,,,,,,,,,,,,,,,,,
,,,,,8106,1,2024-06-14_12h44.06.168,experiment,2024.1.5,Win32,60.24096386,666b5f73dbba3f0cd916b177,666c6e9109980915527cfe5b,,,,,,,,,,,,,,,,,,,,,,,,,,,,,,,,,,,,,,,,,,,,646.7561,648.0654,5.9765625,1.2651,0.0,9.0,9.0,19.0,1.0,song_indices/Irreplaceable_Beyonce.csv,,,,,,,,,,,,,,,,,,,,,,,,,,,,,,,,,,,,,,,,,,,,,,
,,,,,8106,1,2024-06-14_12h44.06.168,experiment,2024.1.5,Win32,60.24096386,666b5f73dbba3f0cd916b177,666c6e9109980915527cfe5b,,,,,,,,,,,,,,,,,,,,,,,,,,,,,,,,,,,,648.0691,655.0877,0.0,0.0,0.0,0.0,1.0,SoundStimuli/PokerFace_LadyGaga_Original5S.wav,,,,,,,,,,,,,,,,,,,,,,,,,,,,,,,,,,,,,,,,,,,,,,,,,,,,,,,,
,,,,,8106,1,2024-06-14_12h44.06.168,experiment,2024.1.5,Win32,60.24096386,666b5f73dbba3f0cd916b177,666c6e9109980915527cfe5b,,,,,,,,,,,,,,,,,,,,,,,,,,,,,,,,,,,,655.1207,661.9601,0.0,1.0,1.0,1.0,1.0,SoundStimuli/PokerFace_LadyGaga_Cover5S.wav,,,,,,,,,,,,,,,,,,,,,,,,,,,,,,,,,,,,,,,,,,,,,,,,,,,,,,,,
,,,,,8106,1,2024-06-14_12h44.06.168,experiment,2024.1.5,Win32,60.24096386,666b5f73dbba3f0cd916b177,666c6e9109980915527cfe5b,,,,,,,,,,,,,,,,,,,,,,,,,,,,,,,,,,,,,,,,,,,,661.9606,663.3918,2.9296875,1.3893,0.0,10.0,10.0,23.0,1.0,song_indices/PokerFace_LadyGaga.csv,,,,,,,,,,,,,,,,,,,,,,,,,,,,,,,,,,,,,,,,,,,,,,
,,,,,8106,1,2024-06-14_12h44.06.168,experiment,2024.1.5,Win32,60.24096386,666b5f73dbba3f0cd916b177,666c6e9109980915527cfe5b,,,,,,,,,,,,,,,,,,,,,,,,,,,,,,,,,,,,663.3946,668.9159,0.0,0.0,0.0,1.0,1.0,SoundStimuli/LeFreak_Chic_Cover5S.wav,,,,,,,,,,,,,,,,,,,,,,,,,,,,,,,,,,,,,,,,,,,,,,,,,,,,,,,,
,,,,,8106,1,2024-06-14_12h44.06.168,experiment,2024.1.5,Win32,60.24096386,666b5f73dbba3f0cd916b177,666c6e9109980915527cfe5b,,,,,,,,,,,,,,,,,,,,,,,,,,,,,,,,,,,,668.9474,674.9616,0.0,1.0,1.0,0.0,1.0,SoundStimuli/LeFreak_Chic_Original5S.wav,,,,,,,,,,,,,,,,,,,,,,,,,,,,,,,,,,,,,,,,,,,,,,,,,,,,,,,,
,,,,,8106,1,2024-06-14_12h44.06.168,experiment,2024.1.5,Win32,60.24096386,666b5f73dbba3f0cd916b177,666c6e9109980915527cfe5b,,,,,,,,,,,,,,,,,,,,,,,,,,,,,,,,,,,,,,,,,,,,674.9622,676.4211,6.015625,1.4159,0.0,11.0,11.0,11.0,1.0,song_indices/LeFreak_Chic.csv,,,,,,,,,,,,,,,,,,,,,,,,,,,,,,,,,,,,,,,,,,,,,,
,,,,,8106,1,2024-06-14_12h44.06.168,experiment,2024.1.5,Win32,60.24096386,666b5f73dbba3f0cd916b177,666c6e9109980915527cfe5b,,,,,,,,,,,,,,,,,,,,,,,,,,,,,,,,,,,,676.4242,682.3501,0.0,0.0,0.0,0.0,1.0,SoundStimuli/Respect_ArethaFranklin_Original5S.wav,,,,,,,,,,,,,,,,,,,,,,,,,,,,,,,,,,,,,,,,,,,,,,,,,,,,,,,,
,,,,,8106,1,2024-06-14_12h44.06.168,experiment,2024.1.5,Win32,60.24096386,666b5f73dbba3f0cd916b177,666c6e9109980915527cfe5b,,,,,,,,,,,,,,,,,,,,,,,,,,,,,,,,,,,,682.3848,688.4523,0.0,1.0,1.0,1.0,1.0,SoundStimuli/Respect_ArethaFranklin_Cover5S.wav,,,,,,,,,,,,,,,,,,,,,,,,,,,,,,,,,,,,,,,,,,,,,,,,,,,,,,,,
,,,,,8106,1,2024-06-14_12h44.06.168,experiment,2024.1.5,Win32,60.24096386,666b5f73dbba3f0cd916b177,666c6e9109980915527cfe5b,,,,,,,,,,,,,,,,,,,,,,,,,,,,,,,,,,,,,,,,,,,,688.4528,689.8342,1.984375,1.3381,0.0,12.0,12.0,0.0,1.0,song_indices/Respect_ArethaFranklin.csv,,,,,,,,,,,,,,,,,,,,,,,,,,,,,,,,,,,,,,,,,,,,,,
,,,,,8106,1,2024-06-14_12h44.06.168,experiment,2024.1.5,Win32,60.24096386,666b5f73dbba3f0cd916b177,666c6e9109980915527cfe5b,,,,,,,,,,,,,,,,,,,,,,,,,,,,,,,,,,,,689.8375,696.644,0.0,0.0,0.0,1.0,1.0,SoundStimuli/SomebodyThatIUsedtoKnow_Gotye_Cover5S.wav,,,,,,,,,,,,,,,,,,,,,,,,,,,,,,,,,,,,,,,,,,,,,,,,,,,,,,,,
,,,,,8106,1,2024-06-14_12h44.06.168,experiment,2024.1.5,Win32,60.24096386,666b5f73dbba3f0cd916b177,666c6e9109980915527cfe5b,,,,,,,,,,,,,,,,,,,,,,,,,,,,,,,,,,,,696.6775,703.9127,0.0,1.0,1.0,0.0,1.0,SoundStimuli/SomebodyThatIUsedtoKnow_Gotye_Original5S.wav,,,,,,,,,,,,,,,,,,,,,,,,,,,,,,,,,,,,,,,,,,,,,,,,,,,,,,,,
,,,,,8106,1,2024-06-14_12h44.06.168,experiment,2024.1.5,Win32,60.24096386,666b5f73dbba3f0cd916b177,666c6e9109980915527cfe5b,,,,,,,,,,,,,,,,,,,,,,,,,,,,,,,,,,,,,,,,,,,,703.9135,705.4602,6.5859375,1.5029,0.0,13.0,13.0,7.0,1.0,song_indices/SomebodyThatIUsedtoKnow_Gotye.csv,,,,,,,,,,,,,,,,,,,,,,,,,,,,,,,,,,,,,,,,,,,,,,
,,,,,8106,1,2024-06-14_12h44.06.168,experiment,2024.1.5,Win32,60.24096386,666b5f73dbba3f0cd916b177,666c6e9109980915527cfe5b,,,,,,,,,,,,,,,,,,,,,,,,,,,,,,,,,,,,705.4634,712.2656,0.0,0.0,0.0,1.0,1.0,SoundStimuli/BlindingLights_TheWeeknd_Cover5S.wav,,,,,,,,,,,,,,,,,,,,,,,,,,,,,,,,,,,,,,,,,,,,,,,,,,,,,,,,
,,,,,8106,1,2024-06-14_12h44.06.168,experiment,2024.1.5,Win32,60.24096386,666b5f73dbba3f0cd916b177,666c6e9109980915527cfe5b,,,,,,,,,,,,,,,,,,,,,,,,,,,,,,,,,,,,712.2984,718.7888,0.0,1.0,1.0,0.0,1.0,SoundStimuli/BlindingLights_TheWeeknd_Original5S.wav,,,,,,,,,,,,,,,,,,,,,,,,,,,,,,,,,,,,,,,,,,,,,,,,,,,,,,,,
,,,,,8106,1,2024-06-14_12h44.06.168,experiment,2024.1.5,Win32,60.24096386,666b5f73dbba3f0cd916b177,666c6e9109980915527cfe5b,,,,,,,,,,,,,,,,,,,,,,,,,,,,,,,,,,,,,,,,,,,,718.7891,735.6968,5.96875,16.8694,0.0,14.0,14.0,21.0,1.0,song_indices/BlindingLights_TheWeeknd.csv,,,,,,,,,,,,,,,,,,,,,,,,,,,,,,,,,,,,,,,,,,,,,,
,,,,,8106,1,2024-06-14_12h44.06.168,experiment,2024.1.5,Win32,60.24096386,666b5f73dbba3f0cd916b177,666c6e9109980915527cfe5b,,,,,,,,,,,,,,,,,,,,,,,,,,,,,,,,,,,,735.6995,739.6901,0.0,0.0,0.0,1.0,1.0,SoundStimuli/UnbreakMyHeart_ToniBraxton_Cover5S.wav,,,,,,,,,,,,,,,,,,,,,,,,,,,,,,,,,,,,,,,,,,,,,,,,,,,,,,,,
,,,,,8106,1,2024-06-14_12h44.06.168,experiment,2024.1.5,Win32,60.24096386,666b5f73dbba3f0cd916b177,666c6e9109980915527cfe5b,,,,,,,,,,,,,,,,,,,,,,,,,,,,,,,,,,,,739.7217,745.814,0.0,1.0,1.0,0.0,1.0,SoundStimuli/UnbreakMyHeart_ToniBraxton_Original5S.wav,,,,,,,,,,,,,,,,,,,,,,,,,,,,,,,,,,,,,,,,,,,,,,,,,,,,,,,,
,,,,,8106,1,2024-06-14_12h44.06.168,experiment,2024.1.5,Win32,60.24096386,666b5f73dbba3f0cd916b177,666c6e9109980915527cfe5b,,,,,,,,,,,,,,,,,,,,,,,,,,,,,,,,,,,,,,,,,,,,745.8144,750.5897,5.9921875,4.7362,0.0,15.0,15.0,16.0,1.0,song_indices/UnbreakMyHeart_ToniBraxton.csv,,,,,,,,,,,,,,,,,,,,,,,,,,,,,,,,,,,,,,,,,,,,,,
,,,,,8106,1,2024-06-14_12h44.06.168,experiment,2024.1.5,Win32,60.24096386,666b5f73dbba3f0cd916b177,666c6e9109980915527cfe5b,,,,,,,,,,,,,,,,,,,,,,,,,,,,,,,,,,,,750.5944,757.0463,0.0,0.0,0.0,1.0,1.0,SoundStimuli/YouLightUpMyLife_DebbyBoone_Cover5S.wav,,,,,,,,,,,,,,,,,,,,,,,,,,,,,,,,,,,,,,,,,,,,,,,,,,,,,,,,
,,,,,8106,1,2024-06-14_12h44.06.168,experiment,2024.1.5,Win32,60.24096386,666b5f73dbba3f0cd916b177,666c6e9109980915527cfe5b,,,,,,,,,,,,,,,,,,,,,,,,,,,,,,,,,,,,757.0807,763.1713,0.0,1.0,1.0,0.0,1.0,SoundStimuli/YouLightUpMyLife_DebbyBoone_Original5S.wav,,,,,,,,,,,,,,,,,,,,,,,,,,,,,,,,,,,,,,,,,,,,,,,,,,,,,,,,
,,,,,8106,1,2024-06-14_12h44.06.168,experiment,2024.1.5,Win32,60.24096386,666b5f73dbba3f0cd916b177,666c6e9109980915527cfe5b,,,,,,,,,,,,,,,,,,,,,,,,,,,,,,,,,,,,,,,,,,,,763.1717,772.8385,5.9921875,9.6272,0.0,16.0,16.0,4.0,1.0,song_indices/YouLightUpMyLife_DebbyBoone.csv,,,,,,,,,,,,,,,,,,,,,,,,,,,,,,,,,,,,,,,,,,,,,,
,,,,,8106,1,2024-06-14_12h44.06.168,experiment,2024.1.5,Win32,60.24096386,666b5f73dbba3f0cd916b177,666c6e9109980915527cfe5b,,,,,,,,,,,,,,,,,,,,,,,,,,,,,,,,,,,,772.8413,779.5946,0.0,0.0,0.0,0.0,1.0,SoundStimuli/BlurredLines_RobinThicke_Original5S.wav,,,,,,,,,,,,,,,,,,,,,,,,,,,,,,,,,,,,,,,,,,,,,,,,,,,,,,,,
,,,,,8106,1,2024-06-14_12h44.06.168,experiment,2024.1.5,Win32,60.24096386,666b5f73dbba3f0cd916b177,666c6e9109980915527cfe5b,,,,,,,,,,,,,,,,,,,,,,,,,,,,,,,,,,,,779.6273,786.7338,0.0,1.0,1.0,1.0,1.0,SoundStimuli/BlurredLines_RobinThicke_Cover5S.wav,,,,,,,,,,,,,,,,,,,,,,,,,,,,,,,,,,,,,,,,,,,,,,,,,,,,,,,,
,,,,,8106,1,2024-06-14_12h44.06.168,experiment,2024.1.5,Win32,60.24096386,666b5f73dbba3f0cd916b177,666c6e9109980915527cfe5b,,,,,,,,,,,,,,,,,,,,,,,,,,,,,,,,,,,,,,,,,,,,786.7344,788.132,5.96875,1.3539,0.0,17.0,17.0,9.0,1.0,song_indices/BlurredLines_RobinThicke.csv,,,,,,,,,,,,,,,,,,,,,,,,,,,,,,,,,,,,,,,,,,,,,,
,,,,,8106,1,2024-06-14_12h44.06.168,experiment,2024.1.5,Win32,60.24096386,666b5f73dbba3f0cd916b177,666c6e9109980915527cfe5b,,,,,,,,,,,,,,,,,,,,,,,,,,,,,,,,,,,,788.1343,794.5217,0.0,0.0,0.0,0.0,1.0,SoundStimuli/FlashdanceWhatAFeeling_IreneCara_Original5S.wav,,,,,,,,,,,,,,,,,,,,,,,,,,,,,,,,,,,,,,,,,,,,,,,,,,,,,,,,
,,,,,8106,1,2024-06-14_12h44.06.168,experiment,2024.1.5,Win32,60.24096386,666b5f73dbba3f0cd916b177,666c6e9109980915527cfe5b,,,,,,,,,,,,,,,,,,,,,,,,,,,,,,,,,,,,794.554,801.8438,0.0,1.0,1.0,1.0,1.0,SoundStimuli/FlashdanceWhatAFeeling_IreneCara_Cover5S.wav,,,,,,,,,,,,,,,,,,,,,,,,,,,,,,,,,,,,,,,,,,,,,,,,,,,,,,,,
,,,,,8106,1,2024-06-14_12h44.06.168,experiment,2024.1.5,Win32,60.24096386,666b5f73dbba3f0cd916b177,666c6e9109980915527cfe5b,,,,,,,,,,,,,,,,,,,,,,,,,,,,,,,,,,,,,,,,,,,,801.8441,1012.9507,5.9765625,211.0677,0.0,18.0,18.0,18.0,1.0,song_indices/FlashdanceWhatAFeeling_IreneCara.csv,,,,,,,,,,,,,,,,,,,,,,,,,,,,,,,,,,,,,,,,,,,,,,
,,,,,8106,1,2024-06-14_12h44.06.168,experiment,2024.1.5,Win32,60.24096386,666b5f73dbba3f0cd916b177,666c6e9109980915527cfe5b,,,,,,,,,,,,,,,,,,,,,,,,,,,,,,,,,,,,1012.9544,1019.4573,0.0,0.0,0.0,0.0,1.0,SoundStimuli/Dreams_FleetwoodMac_Original5S.wav,,,,,,,,,,,,,,,,,,,,,,,,,,,,,,,,,,,,,,,,,,,,,,,,,,,,,,,,
,,,,,8106,1,2024-06-14_12h44.06.168,experiment,2024.1.5,Win32,60.24096386,666b5f73dbba3f0cd916b177,666c6e9109980915527cfe5b,,,,,,,,,,,,,,,,,,,,,,,,,,,,,,,,,,,,1019.4895,1027.3332,0.0,1.0,1.0,1.0,1.0,SoundStimuli/Dreams_FleetwoodMac_Cover5S.wav,,,,,,,,,,,,,,,,,,,,,,,,,,,,,,,,,,,,,,,,,,,,,,,,,,,,,,,,
,,,,,8106,1,2024-06-14_12h44.06.168,experiment,2024.1.5,Win32,60.24096386,666b5f73dbba3f0cd916b177,666c6e9109980915527cfe5b,,,,,,,,,,,,,,,,,,,,,,,,,,,,,,,,,,,,,,,,,,,,1027.3337,1028.6595,1.96875,1.2797,0.0,19.0,19.0,1.0,1.0,song_indices/Dreams_FleetwoodMac.csv,,,,,,,,,,,,,,,,,,,,,,,,,,,,,,,,,,,,,,,,,,,,,,
,,,,,8106,1,2024-06-14_12h44.06.168,experiment,2024.1.5,Win32,60.24096386,666b5f73dbba3f0cd916b177,666c6e9109980915527cfe5b,,,,,,,,,,,,,,,,,,,,,,,,,,,,,,,,,,,,1028.6628,1035.3157,0.0,0.0,0.0,1.0,1.0,SoundStimuli/LetsGetItOn_MarvinGaye_Cover5S.wav,,,,,,,,,,,,,,,,,,,,,,,,,,,,,,,,,,,,,,,,,,,,,,,,,,,,,,,,
,,,,,8106,1,2024-06-14_12h44.06.168,experiment,2024.1.5,Win32,60.24096386,666b5f73dbba3f0cd916b177,666c6e9109980915527cfe5b,,,,,,,,,,,,,,,,,,,,,,,,,,,,,,,,,,,,1035.3512,1041.6391,0.0,1.0,1.0,0.0,1.0,SoundStimuli/LetsGetItOn_MarvinGaye_Original5S.wav,,,,,,,,,,,,,,,,,,,,,,,,,,,,,,,,,,,,,,,,,,,,,,,,,,,,,,,,
,,,,,8106,1,2024-06-14_12h44.06.168,experiment,2024.1.5,Win32,60.24096386,666b5f73dbba3f0cd916b177,666c6e9109980915527cfe5b,,,,,,,,,,,,,,,,,,,,,,,,,,,,,,,,,,,,,,,,,,,,1041.6397,1045.4731,6.109375,3.8005,0.0,20.0,20.0,20.0,1.0,song_indices/LetsGetItOn_MarvinGaye.csv,,,,,,,,,,,,,,,,,,,,,,,,,,,,,,,,,,,,,,,,,,,,,,
,,,,,8106,1,2024-06-14_12h44.06.168,experiment,2024.1.5,Win32,60.24096386,666b5f73dbba3f0cd916b177,666c6e9109980915527cfe5b,,,,,,,,,,,,,,,,,,,,,,,,,,,,,,,,,,,,1045.474,1051.5075,0.0,0.0,0.0,0.0,1.0,SoundStimuli/HowDoILive_LeAnnRimes_Original5S.wav,,,,,,,,,,,,,,,,,,,,,,,,,,,,,,,,,,,,,,,,,,,,,,,,,,,,,,,,
,,,,,8106,1,2024-06-14_12h44.06.168,experiment,2024.1.5,Win32,60.24096386,666b5f73dbba3f0cd916b177,666c6e9109980915527cfe5b,,,,,,,,,,,,,,,,,,,,,,,,,,,,,,,,,,,,1051.5407,1057.0173,0.0,1.0,1.0,1.0,1.0,SoundStimuli/HowDoILive_LeAnnRimes_Cover5S.wav,,,,,,,,,,,,,,,,,,,,,,,,,,,,,,,,,,,,,,,,,,,,,,,,,,,,,,,,
,,,,,8106,1,2024-06-14_12h44.06.168,experiment,2024.1.5,Win32,60.24096386,666b5f73dbba3f0cd916b177,666c6e9109980915527cfe5b,,,,,,,,,,,,,,,,,,,,,,,,,,,,,,,,,,,,,,,,,,,,1057.0178,1059.2968,6.9296875,2.2383,0.0,21.0,21.0,17.0,1.0,song_indices/HowDoILive_LeAnnRimes.csv,,,,,,,,,,,,,,,,,,,,,,,,,,,,,,,,,,,,,,,,,,,,,,
,,,,,8106,1,2024-06-14_12h44.06.168,experiment,2024.1.5,Win32,60.24096386,666b5f73dbba3f0cd916b177,666c6e9109980915527cfe5b,,,,,,,,,,,,,,,,,,,,,,,,,,,,,,,,,,,,1059.3011,1065.307,0.0,0.0,0.0,0.0,1.0,SoundStimuli/Levitating_DuaLipa_Original5S.wav,,,,,,,,,,,,,,,,,,,,,,,,,,,,,,,,,,,,,,,,,,,,,,,,,,,,,,,,
,,,,,8106,1,2024-06-14_12h44.06.168,experiment,2024.1.5,Win32,60.24096386,666b5f73dbba3f0cd916b177,666c6e9109980915527cfe5b,,,,,,,,,,,,,,,,,,,,,,,,,,,,,,,,,,,,1065.3405,1071.0603,0.0,1.0,1.0,1.0,1.0,SoundStimuli/Levitating_DuaLipa_Cover5S.wav,,,,,,,,,,,,,,,,,,,,,,,,,,,,,,,,,,,,,,,,,,,,,,,,,,,,,,,,
,,,,,8106,1,2024-06-14_12h44.06.168,experiment,2024.1.5,Win32,60.24096386,666b5f73dbba3f0cd916b177,666c6e9109980915527cfe5b,,,,,,,,,,,,,,,,,,,,,,,,,,,,,,,,,,,,,,,,,,,,1071.061,1072.6581,2.03125,1.5563,0.0,22.0,22.0,10.0,1.0,song_indices/Levitating_DuaLipa.csv,,,,,,,,,,,,,,,,,,,,,,,,,,,,,,,,,,,,,,,,,,,,,,
,,,,,8106,1,2024-06-14_12h44.06.168,experiment,2024.1.5,Win32,60.24096386,666b5f73dbba3f0cd916b177,666c6e9109980915527cfe5b,,,,,,,,,,,,,,,,,,,,,,,,,,,,,,,,,,,,1072.6625,1078.7988,0.0,0.0,0.0,0.0,1.0,SoundStimuli/Superstition_StevieWonder_Original5S.wav,,,,,,,,,,,,,,,,,,,,,,,,,,,,,,,,,,,,,,,,,,,,,,,,,,,,,,,,
,,,,,8106,1,2024-06-14_12h44.06.168,experiment,2024.1.5,Win32,60.24096386,666b5f73dbba3f0cd916b177,666c6e9109980915527cfe5b,,,,,,,,,,,,,,,,,,,,,,,,,,,,,,,,,,,,1078.832,1084.1399,0.0,1.0,1.0,1.0,1.0,SoundStimuli/Superstition_StevieWonder_Cover5S.wav,,,,,,,,,,,,,,,,,,,,,,,,,,,,,,,,,,,,,,,,,,,,,,,,,,,,,,,,
,,,,,8106,1,2024-06-14_12h44.06.168,experiment,2024.1.5,Win32,60.24096386,666b5f73dbba3f0cd916b177,666c6e9109980915527cfe5b,,,,,,,,,,,,,,,,,,,,,,,,,,,,,,,,,,,,,,,,,,,,1084.1404,1097.1535,5.0625,12.9794,0.0,23.0,23.0,15.0,1.0,song_indices/Superstition_StevieWonder.csv,,,,,,,,,,,,,,,,,,,,,,,,,,,,,,,,,,,,,,,,,,,,,,
,,,,,8106,1,2024-06-14_12h44.06.168,experiment,2024.1.5,Win32,60.24096386,666b5f73dbba3f0cd916b177,666c6e9109980915527cfe5b,,,,,,,,,,,,,,,,,,,,,,,,,,,,,,,,,,,,,,,,,,,,,,,,,,,,,,1097.1538,1098.4347,space,1.2621,,0.0,1.0,1.0,2.0,1.0,choose_song_b3.csv,,,,,,,,,,,,,,,,,,,,,,,,,,,,,,,,,,,
,,,,,8106,1,2024-06-14_12h44.06.168,experiment,2024.1.5,Win32,60.24096386,666b5f73dbba3f0cd916b177,666c6e9109980915527cfe5b,,,,,,,,,,,,,,,,,,,,,,,,,,,,,,,,,,,,1098.4409,1104.8912,0.0,0.0,0.0,0.0,1.0,SoundStimuli/BadDay_DanielPowter_Original5S.wav,,,,,,,,,,,,,,,,,,,,,,,,,,,,,,,,,,,,,,,,,,,,,,,,,,,,,,,,
,,,,,8106,1,2024-06-14_12h44.06.168,experiment,2024.1.5,Win32,60.24096386,666b5f73dbba3f0cd916b177,666c6e9109980915527cfe5b,,,,,,,,,,,,,,,,,,,,,,,,,,,,,,,,,,,,1104.9256,1112.4294,0.0,1.0,1.0,1.0,1.0,SoundStimuli/BadDay_DanielPowter_Cover5S.wav,,,,,,,,,,,,,,,,,,,,,,,,,,,,,,,,,,,,,,,,,,,,,,,,,,,,,,,,
,,,,,8106,1,2024-06-14_12h44.06.168,experiment,2024.1.5,Win32,60.24096386,666b5f73dbba3f0cd916b177,666c6e9109980915527cfe5b,,,,,,,,,,,,,,,,,,,,,,,,,,,,,,,,,,,,,,,,,,,,1112.4297,1113.8779,6.0,1.4041,0.0,0.0,0.0,22.0,1.0,song_indices/BadDay_DanielPowter.csv,,,,,,,,,,,,,,,,,,,,,,,,,,,,,,,,,,,,,,,,,,,,,,
,,,,,8106,1,2024-06-14_12h44.06.168,experiment,2024.1.5,Win32,60.24096386,666b5f73dbba3f0cd916b177,666c6e9109980915527cfe5b,,,,,,,,,,,,,,,,,,,,,,,,,,,,,,,,,,,,1113.8808,1120.4681,0.0,0.0,0.0,1.0,1.0,SoundStimuli/Despacito_LuisFonsiDaddyYankee_Cover5S.wav,,,,,,,,,,,,,,,,,,,,,,,,,,,,,,,,,,,,,,,,,,,,,,,,,,,,,,,,
,,,,,8106,1,2024-06-14_12h44.06.168,experiment,2024.1.5,Win32,60.24096386,666b5f73dbba3f0cd916b177,666c6e9109980915527cfe5b,,,,,,,,,,,,,,,,,,,,,,,,,,,,,,,,,,,,1120.5025,1127.057,0.0,1.0,1.0,0.0,1.0,SoundStimuli/Despacito_LuisFonsiDaddyYankee_Original5S.wav,,,,,,,,,,,,,,,,,,,,,,,,,,,,,,,,,,,,,,,,,,,,,,,,,,,,,,,,
,,,,,8106,1,2024-06-14_12h44.06.168,experiment,2024.1.5,Win32,60.24096386,666b5f73dbba3f0cd916b177,666c6e9109980915527cfe5b,,,,,,,,,,,,,,,,,,,,,,,,,,,,,,,,,,,,,,,,,,,,1127.0576,1178.2274,6.0,51.1254,0.0,1.0,1.0,11.0,1.0,song_indices/Despacito_LuisFonsiDaddyYankee.csv,,,,,,,,,,,,,,,,,,,,,,,,,,,,,,,,,,,,,,,,,,,,,,
,,,,,8106,1,2024-06-14_12h44.06.168,experiment,2024.1.5,Win32,60.24096386,666b5f73dbba3f0cd916b177,666c6e9109980915527cfe5b,,,,,,,,,,,,,,,,,,,,,,,,,,,,,,,,,,,,1178.2308,1184.3346,0.0,0.0,0.0,0.0,1.0,SoundStimuli/HeatWaves_GlassAnimals_Original5S.wav,,,,,,,,,,,,,,,,,,,,,,,,,,,,,,,,,,,,,,,,,,,,,,,,,,,,,,,,
,,,,,8106,1,2024-06-14_12h44.06.168,experiment,2024.1.5,Win32,60.24096386,666b5f73dbba3f0cd916b177,666c6e9109980915527cfe5b,,,,,,,,,,,,,,,,,,,,,,,,,,,,,,,,,,,,1184.3606,1192.9552,0.0,1.0,1.0,1.0,1.0,SoundStimuli/HeatWaves_GlassAnimals_Cover5S.wav,,,,,,,,,,,,,,,,,,,,,,,,,,,,,,,,,,,,,,,,,,,,,,,,,,,,,,,,
,,,,,8106,1,2024-06-14_12h44.06.168,experiment,2024.1.5,Win32,60.24096386,666b5f73dbba3f0cd916b177,666c6e9109980915527cfe5b,,,,,,,,,,,,,,,,,,,,,,,,,,,,,,,,,,,,,,,,,,,,1192.9558,1193.937,6.0,0.9336,0.0,2.0,2.0,10.0,1.0,song_indices/HeatWaves_GlassAnimals.csv,,,,,,,,,,,,,,,,,,,,,,,,,,,,,,,,,,,,,,,,,,,,,,
,,,,,8106,1,2024-06-14_12h44.06.168,experiment,2024.1.5,Win32,60.24096386,666b5f73dbba3f0cd916b177,666c6e9109980915527cfe5b,,,,,,,,,,,,,,,,,,,,,,,,,,,,,,,,,,,,1193.9405,1200.0607,0.0,0.0,0.0,0.0,1.0,SoundStimuli/StrawberryFieldsForever_TheBeatles_Original5S.wav,,,,,,,,,,,,,,,,,,,,,,,,,,,,,,,,,,,,,,,,,,,,,,,,,,,,,,,,
,,,,,8106,1,2024-06-14_12h44.06.168,experiment,2024.1.5,Win32,60.24096386,666b5f73dbba3f0cd916b177,666c6e9109980915527cfe5b,,,,,,,,,,,,,,,,,,,,,,,,,,,,,,,,,,,,1200.0925,1207.0996,0.0,1.0,1.0,1.0,1.0,SoundStimuli/StrawberryFieldsForever_TheBeatles_Cover5S.wav,,,,,,,,,,,,,,,,,,,,,,,,,,,,,,,,,,,,,,,,,,,,,,,,,,,,,,,,
,,,,,8106,1,2024-06-14_12h44.06.168,experiment,2024.1.5,Win32,60.24096386,666b5f73dbba3f0cd916b177,666c6e9109980915527cfe5b,,,,,,,,,,,,,,,,,,,,,,,,,,,,,,,,,,,,,,,,,,,,1207.1002,1208.3813,5.8125,1.24,0.0,3.0,3.0,14.0,1.0,song_indices/StrawberryFieldsForever_TheBeatles.csv,,,,,,,,,,,,,,,,,,,,,,,,,,,,,,,,,,,,,,,,,,,,,,
,,,,,8106,1,2024-06-14_12h44.06.168,experiment,2024.1.5,Win32,60.24096386,666b5f73dbba3f0cd916b177,666c6e9109980915527cfe5b,,,,,,,,,,,,,,,,,,,,,,,,,,,,,,,,,,,,1208.3839,1214.6886,0.0,0.0,0.0,0.0,1.0,SoundStimuli/Mood_24kGoldnianndior_Original5S.wav,,,,,,,,,,,,,,,,,,,,,,,,,,,,,,,,,,,,,,,,,,,,,,,,,,,,,,,,
,,,,,8106,1,2024-06-14_12h44.06.168,experiment,2024.1.5,Win32,60.24096386,666b5f73dbba3f0cd916b177,666c6e9109980915527cfe5b,,,,,,,,,,,,,,,,,,,,,,,,,,,,,,,,,,,,1214.722,1223.0087,0.0,1.0,1.0,1.0,1.0,SoundStimuli/Mood_24kGoldnianndior_Cover5S.wav,,,,,,,,,,,,,,,,,,,,,,,,,,,,,,,,,,,,,,,,,,,,,,,,,,,,,,,,
,,,,,8106,1,2024-06-14_12h44.06.168,experiment,2024.1.5,Win32,60.24096386,666b5f73dbba3f0cd916b177,666c6e9109980915527cfe5b,,,,,,,,,,,,,,,,,,,,,,,,,,,,,,,,,,,,,,,,,,,,1223.0095,1224.2069,3.9296875,1.1557,0.0,4.0,4.0,5.0,1.0,song_indices/Mood_24kGoldnianndior.csv,,,,,,,,,,,,,,,,,,,,,,,,,,,,,,,,,,,,,,,,,,,,,,
,,,,,8106,1,2024-06-14_12h44.06.168,experiment,2024.1.5,Win32,60.24096386,666b5f73dbba3f0cd916b177,666c6e9109980915527cfe5b,,,,,,,,,,,,,,,,,,,,,,,,,,,,,,,,,,,,1224.2108,1232.3307,0.0,0.0,0.0,1.0,1.0,SoundStimuli/AnotherOneBitesTheDust_Queen_Cover5S.wav,,,,,,,,,,,,,,,,,,,,,,,,,,,,,,,,,,,,,,,,,,,,,,,,,,,,,,,,
,,,,,8106,1,2024-06-14_12h44.06.168,experiment,2024.1.5,Win32,60.24096386,666b5f73dbba3f0cd916b177,666c6e9109980915527cfe5b,,,,,,,,,,,,,,,,,,,,,,,,,,,,,,,,,,,,1232.3693,1238.401,0.0,1.0,1.0,0.0,1.0,SoundStimuli/AnotherOneBitesTheDust_Queen_Original5S.wav,,,,,,,,,,,,,,,,,,,,,,,,,,,,,,,,,,,,,,,,,,,,,,,,,,,,,,,,
,,,,,8106,1,2024-06-14_12h44.06.168,experiment,2024.1.5,Win32,60.24096386,666b5f73dbba3f0cd916b177,666c6e9109980915527cfe5b,,,,,,,,,,,,,,,,,,,,,,,,,,,,,,,,,,,,,,,,,,,,1238.4013,1240.6646,5.0546875,2.2202,0.0,5.0,5.0,9.0,1.0,song_indices/AnotherOneBitesTheDust_Queen.csv,,,,,,,,,,,,,,,,,,,,,,,,,,,,,,,,,,,,,,,,,,,,,,
,,,,,8106,1,2024-06-14_12h44.06.168,experiment,2024.1.5,Win32,60.24096386,666b5f73dbba3f0cd916b177,666c6e9109980915527cfe5b,,,,,,,,,,,,,,,,,,,,,,,,,,,,,,,,,,,,1240.6675,1246.6102,0.0,0.0,0.0,1.0,1.0,SoundStimuli/IllMakeLoveToYou_BoyzIIMen_Cover5S.wav,,,,,,,,,,,,,,,,,,,,,,,,,,,,,,,,,,,,,,,,,,,,,,,,,,,,,,,,
,,,,,8106,1,2024-06-14_12h44.06.168,experiment,2024.1.5,Win32,60.24096386,666b5f73dbba3f0cd916b177,666c6e9109980915527cfe5b,,,,,,,,,,,,,,,,,,,,,,,,,,,,,,,,,,,,1246.6502,1252.7174,0.0,1.0,1.0,0.0,1.0,SoundStimuli/IllMakeLoveToYou_BoyzIIMen_Original5S.wav,,,,,,,,,,,,,,,,,,,,,,,,,,,,,,,,,,,,,,,,,,,,,,,,,,,,,,,,
,,,,,8106,1,2024-06-14_12h44.06.168,experiment,2024.1.5,Win32,60.24096386,666b5f73dbba3f0cd916b177,666c6e9109980915527cfe5b,,,,,,,,,,,,,,,,,,,,,,,,,,,,,,,,,,,,,,,,,,,,1252.7179,1253.7275,5.9921875,0.9681,0.0,6.0,6.0,6.0,1.0,song_indices/IllMakeLoveToYou_BoyzIIMen.csv,,,,,,,,,,,,,,,,,,,,,,,,,,,,,,,,,,,,,,,,,,,,,,
,,,,,8106,1,2024-06-14_12h44.06.168,experiment,2024.1.5,Win32,60.24096386,666b5f73dbba3f0cd916b177,666c6e9109980915527cfe5b,,,,,,,,,,,,,,,,,,,,,,,,,,,,,,,,,,,,1253.7301,1259.8688,0.0,0.0,0.0,0.0,1.0,SoundStimuli/MackTheKnife_BobbyDarin_Original5S.wav,,,,,,,,,,,,,,,,,,,,,,,,,,,,,,,,,,,,,,,,,,,,,,,,,,,,,,,,
,,,,,8106,1,2024-06-14_12h44.06.168,experiment,2024.1.5,Win32,60.24096386,666b5f73dbba3f0cd916b177,666c6e9109980915527cfe5b,,,,,,,,,,,,,,,,,,,,,,,,,,,,,,,,,,,,1259.9013,1266.1752,0.0,1.0,1.0,1.0,1.0,SoundStimuli/MackTheKnife_BobbyDarin_Cover5S.wav,,,,,,,,,,,,,,,,,,,,,,,,,,,,,,,,,,,,,,,,,,,,,,,,,,,,,,,,
,,,,,8106,1,2024-06-14_12h44.06.168,experiment,2024.1.5,Win32,60.24096386,666b5f73dbba3f0cd916b177,666c6e9109980915527cfe5b,,,,,,,,,,,,,,,,,,,,,,,,,,,,,,,,,,,,,,,,,,,,1266.1756,1268.4712,4.765625,2.2548,0.0,7.0,7.0,21.0,1.0,song_indices/MackTheKnife_BobbyDarin.csv,,,,,,,,,,,,,,,,,,,,,,,,,,,,,,,,,,,,,,,,,,,,,,
,,,,,8106,1,2024-06-14_12h44.06.168,experiment,2024.1.5,Win32,60.24096386,666b5f73dbba3f0cd916b177,666c6e9109980915527cfe5b,,,,,,,,,,,,,,,,,,,,,,,,,,,,,,,,,,,,1268.4744,1275.982,0.0,0.0,0.0,1.0,1.0,SoundStimuli/EndlessLove_DianaRossLionelRichie_Cover5S.wav,,,,,,,,,,,,,,,,,,,,,,,,,,,,,,,,,,,,,,,,,,,,,,,,,,,,,,,,
,,,,,8106,1,2024-06-14_12h44.06.168,experiment,2024.1.5,Win32,60.24096386,666b5f73dbba3f0cd916b177,666c6e9109980915527cfe5b,,,,,,,,,,,,,,,,,,,,,,,,,,,,,,,,,,,,1276.0149,1282.3503,0.0,1.0,1.0,0.0,1.0,SoundStimuli/EndlessLove_DianaRossLionelRichie_Original5S.wav,,,,,,,,,,,,,,,,,,,,,,,,,,,,,,,,,,,,,,,,,,,,,,,,,,,,,,,,
,,,,,8106,1,2024-06-14_12h44.06.168,experiment,2024.1.5,Win32,60.24096386,666b5f73dbba3f0cd916b177,666c6e9109980915527cfe5b,,,,,,,,,,,,,,,,,,,,,,,,,,,,,,,,,,,,,,,,,,,,1282.3508,1289.0399,4.953125,6.6449,0.0,8.0,8.0,3.0,1.0,song_indices/EndlessLove_DianaRossLionelRichie.csv,,,,,,,,,,,,,,,,,,,,,,,,,,,,,,,,,,,,,,,,,,,,,,
,,,,,8106,1,2024-06-14_12h44.06.168,experiment,2024.1.5,Win32,60.24096386,666b5f73dbba3f0cd916b177,666c6e9109980915527cfe5b,,,,,,,,,,,,,,,,,,,,,,,,,,,,,,,,,,,,1289.0428,1295.4297,0.0,0.0,0.0,0.0,1.0,SoundStimuli/MyGirl_TheTemptations_Original5S.wav,,,,,,,,,,,,,,,,,,,,,,,,,,,,,,,,,,,,,,,,,,,,,,,,,,,,,,,,
,,,,,8106,1,2024-06-14_12h44.06.168,experiment,2024.1.5,Win32,60.24096386,666b5f73dbba3f0cd916b177,666c6e9109980915527cfe5b,,,,,,,,,,,,,,,,,,,,,,,,,,,,,,,,,,,,1295.4607,1303.1058,0.0,1.0,1.0,1.0,1.0,SoundStimuli/MyGirl_TheTemptations_Cover5S.wav,,,,,,,,,,,,,,,,,,,,,,,,,,,,,,,,,,,,,,,,,,,,,,,,,,,,,,,,
,,,,,8106,1,2024-06-14_12h44.06.168,experiment,2024.1.5,Win32,60.24096386,666b5f73dbba3f0cd916b177,666c6e9109980915527cfe5b,,,,,,,,,,,,,,,,,,,,,,,,,,,,,,,,,,,,,,,,,,,,1303.1062,1304.7056,6.0234375,1.5631,0.0,9.0,9.0,15.0,1.0,song_indices/MyGirl_TheTemptations.csv,,,,,,,,,,,,,,,,,,,,,,,,,,,,,,,,,,,,,,,,,,,,,,
,,,,,8106,1,2024-06-14_12h44.06.168,experiment,2024.1.5,Win32,60.24096386,666b5f73dbba3f0cd916b177,666c6e9109980915527cfe5b,,,,,,,,,,,,,,,,,,,,,,,,,,,,,,,,,,,,1304.7083,1309.0967,0.0,0.0,0.0,1.0,1.0,SoundStimuli/LikeARollingStone_BobDylan_Cover5S.wav,,,,,,,,,,,,,,,,,,,,,,,,,,,,,,,,,,,,,,,,,,,,,,,,,,,,,,,,
,,,,,8106,1,2024-06-14_12h44.06.168,experiment,2024.1.5,Win32,60.24096386,666b5f73dbba3f0cd916b177,666c6e9109980915527cfe5b,,,,,,,,,,,,,,,,,,,,,,,,,,,,,,,,,,,,1309.1284,1315.2826,0.0,1.0,1.0,0.0,1.0,SoundStimuli/LikeARollingStone_BobDylan_Original5S.wav,,,,,,,,,,,,,,,,,,,,,,,,,,,,,,,,,,,,,,,,,,,,,,,,,,,,,,,,
,,,,,8106,1,2024-06-14_12h44.06.168,experiment,2024.1.5,Win32,60.24096386,666b5f73dbba3f0cd916b177,666c6e9109980915527cfe5b,,,,,,,,,,,,,,,,,,,,,,,,,,,,,,,,,,,,,,,,,,,,1315.2828,1316.881,5.984375,1.5584,0.0,10.0,10.0,12.0,1.0,song_indices/LikeARollingStone_BobDylan.csv,,,,,,,,,,,,,,,,,,,,,,,,,,,,,,,,,,,,,,,,,,,,,,
,,,,,8106,1,2024-06-14_12h44.06.168,experiment,2024.1.5,Win32,60.24096386,666b5f73dbba3f0cd916b177,666c6e9109980915527cfe5b,,,,,,,,,,,,,,,,,,,,,,,,,,,,,,,,,,,,1316.8852,1324.2559,0.0,0.0,0.0,0.0,1.0,SoundStimuli/OldTownRoad_LilNasX_Original5S.wav,,,,,,,,,,,,,,,,,,,,,,,,,,,,,,,,,,,,,,,,,,,,,,,,,,,,,,,,
,,,,,8106,1,2024-06-14_12h44.06.168,experiment,2024.1.5,Win32,60.24096386,666b5f73dbba3f0cd916b177,666c6e9109980915527cfe5b,,,,,,,,,,,,,,,,,,,,,,,,,,,,,,,,,,,,1324.2881,1330.8081,0.0,1.0,1.0,1.0,1.0,SoundStimuli/OldTownRoad_LilNasX_Cover5S.wav,,,,,,,,,,,,,,,,,,,,,,,,,,,,,,,,,,,,,,,,,,,,,,,,,,,,,,,,
,,,,,8106,1,2024-06-14_12h44.06.168,experiment,2024.1.5,Win32,60.24096386,666b5f73dbba3f0cd916b177,666c6e9109980915527cfe5b,,,,,,,,,,,,,,,,,,,,,,,,,,,,,,,,,,,,,,,,,,,,1330.8088,1332.3563,6.03125,1.5048,0.0,11.0,11.0,20.0,1.0,song_indices/OldTownRoad_LilNasX.csv,,,,,,,,,,,,,,,,,,,,,,,,,,,,,,,,,,,,,,,,,,,,,,
,,,,,8106,1,2024-06-14_12h44.06.168,experiment,2024.1.5,Win32,60.24096386,666b5f73dbba3f0cd916b177,666c6e9109980915527cfe5b,,,,,,,,,,,,,,,,,,,,,,,,,,,,,,,,,,,,1332.3587,1341.209,0.0,0.0,0.0,0.0,1.0,SoundStimuli/Perfect_EdSheeran_Original5S.wav,,,,,,,,,,,,,,,,,,,,,,,,,,,,,,,,,,,,,,,,,,,,,,,,,,,,,,,,
,,,,,8106,1,2024-06-14_12h44.06.168,experiment,2024.1.5,Win32,60.24096386,666b5f73dbba3f0cd916b177,666c6e9109980915527cfe5b,,,,,,,,,,,,,,,,,,,,,,,,,,,,,,,,,,,,1341.2436,1349.5008,0.0,1.0,1.0,1.0,1.0,SoundStimuli/Perfect_EdSheeran_Cover5S.wav,,,,,,,,,,,,,,,,,,,,,,,,,,,,,,,,,,,,,,,,,,,,,,,,,,,,,,,,
,,,,,8106,1,2024-06-14_12h44.06.168,experiment,2024.1.5,Win32,60.24096386,666b5f73dbba3f0cd916b177,666c6e9109980915527cfe5b,,,,,,,,,,,,,,,,,,,,,,,,,,,,,,,,,,,,,,,,,,,,1349.501,1351.7097,5.078125,2.1687,0.0,12.0,12.0,0.0,1.0,song_indices/Perfect_EdSheeran.csv,,,,,,,,,,,,,,,,,,,,,,,,,,,,,,,,,,,,,,,,,,,,,,
,,,,,8106,1,2024-06-14_12h44.06.168,experiment,2024.1.5,Win32,60.24096386,666b5f73dbba3f0cd916b177,666c6e9109980915527cfe5b,,,,,,,,,,,,,,,,,,,,,,,,,,,,,,,,,,,,1351.7118,1357.3174,0.0,0.0,0.0,0.0,1.0,SoundStimuli/IWannaDanceWithSomebody_WhitneyHouston_Original5S.wav,,,,,,,,,,,,,,,,,,,,,,,,,,,,,,,,,,,,,,,,,,,,,,,,,,,,,,,,
,,,,,8106,1,2024-06-14_12h44.06.168,experiment,2024.1.5,Win32,60.24096386,666b5f73dbba3f0cd916b177,666c6e9109980915527cfe5b,,,,,,,,,,,,,,,,,,,,,,,,,,,,,,,,,,,,1357.3536,1364.195,0.0,1.0,1.0,1.0,1.0,SoundStimuli/IWannaDanceWithSomebody_WhitneyHouston_Cover5S.wav,,,,,,,,,,,,,,,,,,,,,,,,,,,,,,,,,,,,,,,,,,,,,,,,,,,,,,,,
,,,,,8106,1,2024-06-14_12h44.06.168,experiment,2024.1.5,Win32,60.24096386,666b5f73dbba3f0cd916b177,666c6e9109980915527cfe5b,,,,,,,,,,,,,,,,,,,,,,,,,,,,,,,,,,,,,,,,,,,,1364.1952,1369.4348,5.078125,5.204,0.0,13.0,13.0,13.0,1.0,song_indices/IWannaDanceWithSomebody_WhitneyHouston.csv,,,,,,,,,,,,,,,,,,,,,,,,,,,,,,,,,,,,,,,,,,,,,,
,,,,,8106,1,2024-06-14_12h44.06.168,experiment,2024.1.5,Win32,60.24096386,666b5f73dbba3f0cd916b177,666c6e9109980915527cfe5b,,,,,,,,,,,,,,,,,,,,,,,,,,,,,,,,,,,,1369.4383,1374.1415,0.0,0.0,0.0,1.0,1.0,SoundStimuli/AChangeIsGonnaCome_SamCooke_Cover5S.wav,,,,,,,,,,,,,,,,,,,,,,,,,,,,,,,,,,,,,,,,,,,,,,,,,,,,,,,,
,,,,,8106,1,2024-06-14_12h44.06.168,experiment,2024.1.5,Win32,60.24096386,666b5f73dbba3f0cd916b177,666c6e9109980915527cfe5b,,,,,,,,,,,,,,,,,,,,,,,,,,,,,,,,,,,,1374.1743,1380.2153,0.0,1.0,1.0,0.0,1.0,SoundStimuli/AChangeIsGonnaCome_SamCooke_Original5S.wav,,,,,,,,,,,,,,,,,,,,,,,,,,,,,,,,,,,,,,,,,,,,,,,,,,,,,,,,
,,,,,8106,1,2024-06-14_12h44.06.168,experiment,2024.1.5,Win32,60.24096386,666b5f73dbba3f0cd916b177,666c6e9109980915527cfe5b,,,,,,,,,,,,,,,,,,,,,,,,,,,,,,,,,,,,,,,,,,,,1380.2157,1381.247,5.8984375,0.9884,0.0,14.0,14.0,17.0,1.0,song_indices/AChangeIsGonnaCome_SamCooke.csv,,,,,,,,,,,,,,,,,,,,,,,,,,,,,,,,,,,,,,,,,,,,,,
,,,,,8106,1,2024-06-14_12h44.06.168,experiment,2024.1.5,Win32,60.24096386,666b5f73dbba3f0cd916b177,666c6e9109980915527cfe5b,,,,,,,,,,,,,,,,,,,,,,,,,,,,,,,,,,,,1381.2502,1387.2041,0.0,0.0,0.0,0.0,1.0,SoundStimuli/BohemianRhapsody_Queen_Original5S.wav,,,,,,,,,,,,,,,,,,,,,,,,,,,,,,,,,,,,,,,,,,,,,,,,,,,,,,,,
,,,,,8106,1,2024-06-14_12h44.06.168,experiment,2024.1.5,Win32,60.24096386,666b5f73dbba3f0cd916b177,666c6e9109980915527cfe5b,,,,,,,,,,,,,,,,,,,,,,,,,,,,,,,,,,,,1387.2358,1391.2979,0.0,1.0,1.0,1.0,1.0,SoundStimuli/BohemianRhapsody_Queen_Cover5S.wav,,,,,,,,,,,,,,,,,,,,,,,,,,,,,,,,,,,,,,,,,,,,,,,,,,,,,,,,
,,,,,8106,1,2024-06-14_12h44.06.168,experiment,2024.1.5,Win32,60.24096386,666b5f73dbba3f0cd916b177,666c6e9109980915527cfe5b,,,,,,,,,,,,,,,,,,,,,,,,,,,,,,,,,,,,,,,,,,,,1391.2984,1393.7943,3.9921875,2.4533,0.0,15.0,15.0,18.0,1.0,song_indices/BohemianRhapsody_Queen.csv,,,,,,,,,,,,,,,,,,,,,,,,,,,,,,,,,,,,,,,,,,,,,,
,,,,,8106,1,2024-06-14_12h44.06.168,experiment,2024.1.5,Win32,60.24096386,666b5f73dbba3f0cd916b177,666c6e9109980915527cfe5b,,,,,,,,,,,,,,,,,,,,,,,,,,,,,,,,,,,,1393.7967,1400.6671,0.0,0.0,0.0,1.0,1.0,SoundStimuli/GodOnlyKnows_TheBeachBoys_Cover5S.wav,,,,,,,,,,,,,,,,,,,,,,,,,,,,,,,,,,,,,,,,,,,,,,,,,,,,,,,,
,,,,,8106,1,2024-06-14_12h44.06.168,experiment,2024.1.5,Win32,60.24096386,666b5f73dbba3f0cd916b177,666c6e9109980915527cfe5b,,,,,,,,,,,,,,,,,,,,,,,,,,,,,,,,,,,,1400.699,1406.9404,0.0,1.0,1.0,0.0,1.0,SoundStimuli/GodOnlyKnows_TheBeachBoys_Original5S.wav,,,,,,,,,,,,,,,,,,,,,,,,,,,,,,,,,,,,,,,,,,,,,,,,,,,,,,,,
,,,,,8106,1,2024-06-14_12h44.06.168,experiment,2024.1.5,Win32,60.24096386,666b5f73dbba3f0cd916b177,666c6e9109980915527cfe5b,,,,,,,,,,,,,,,,,,,,,,,,,,,,,,,,,,,,,,,,,,,,1406.9409,1416.0765,5.015625,9.0979,0.0,16.0,16.0,8.0,1.0,song_indices/GodOnlyKnows_TheBeachBoys.csv,,,,,,,,,,,,,,,,,,,,,,,,,,,,,,,,,,,,,,,,,,,,,,
,,,,,8106,1,2024-06-14_12h44.06.168,experiment,2024.1.5,Win32,60.24096386,666b5f73dbba3f0cd916b177,666c6e9109980915527cfe5b,,,,,,,,,,,,,,,,,,,,,,,,,,,,,,,,,,,,1416.0806,1422.2668,0.0,0.0,0.0,0.0,1.0,SoundStimuli/LikeAPrayer_Madonna_Original5S.wav,,,,,,,,,,,,,,,,,,,,,,,,,,,,,,,,,,,,,,,,,,,,,,,,,,,,,,,,
,,,,,8106,1,2024-06-14_12h44.06.168,experiment,2024.1.5,Win32,60.24096386,666b5f73dbba3f0cd916b177,666c6e9109980915527cfe5b,,,,,,,,,,,,,,,,,,,,,,,,,,,,,,,,,,,,1422.2986,1428.4902,0.0,1.0,1.0,1.0,1.0,SoundStimuli/LikeAPrayer_Madonna_Cover5S.wav,,,,,,,,,,,,,,,,,,,,,,,,,,,,,,,,,,,,,,,,,,,,,,,,,,,,,,,,
,,,,,8106,1,2024-06-14_12h44.06.168,experiment,2024.1.5,Win32,60.24096386,666b5f73dbba3f0cd916b177,666c6e9109980915527cfe5b,,,,,,,,,,,,,,,,,,,,,,,,,,,,,,,,,,,,,,,,,,,,1428.4908,1430.3601,5.140625,1.8341,0.0,17.0,17.0,7.0,1.0,song_indices/LikeAPrayer_Madonna.csv,,,,,,,,,,,,,,,,,,,,,,,,,,,,,,,,,,,,,,,,,,,,,,
,,,,,8106,1,2024-06-14_12h44.06.168,experiment,2024.1.5,Win32,60.24096386,666b5f73dbba3f0cd916b177,666c6e9109980915527cfe5b,,,,,,,,,,,,,,,,,,,,,,,,,,,,,,,,,,,,1430.3622,1436.3783,0.0,0.0,0.0,0.0,1.0,SoundStimuli/StayinAlive_BeeGees_Original5S.wav,,,,,,,,,,,,,,,,,,,,,,,,,,,,,,,,,,,,,,,,,,,,,,,,,,,,,,,,
,,,,,8106,1,2024-06-14_12h44.06.168,experiment,2024.1.5,Win32,60.24096386,666b5f73dbba3f0cd916b177,666c6e9109980915527cfe5b,,,,,,,,,,,,,,,,,,,,,,,,,,,,,,,,,,,,1436.4105,1442.2527,0.0,1.0,1.0,1.0,1.0,SoundStimuli/StayinAlive_BeeGees_Cover5S.wav,,,,,,,,,,,,,,,,,,,,,,,,,,,,,,,,,,,,,,,,,,,,,,,,,,,,,,,,
,,,,,8106,1,2024-06-14_12h44.06.168,experiment,2024.1.5,Win32,60.24096386,666b5f73dbba3f0cd916b177,666c6e9109980915527cfe5b,,,,,,,,,,,,,,,,,,,,,,,,,,,,,,,,,,,,,,,,,,,,1442.2533,1444.5712,5.0546875,2.2832,0.0,18.0,18.0,2.0,1.0,song_indices/StayinAlive_BeeGees.csv,,,,,,,,,,,,,,,,,,,,,,,,,,,,,,,,,,,,,,,,,,,,,,
,,,,,8106,1,2024-06-14_12h44.06.168,experiment,2024.1.5,Win32,60.24096386,666b5f73dbba3f0cd916b177,666c6e9109980915527cfe5b,,,,,,,,,,,,,,,,,,,,,,,,,,,,,,,,,,,,1444.5733,1450.8109,0.0,0.0,0.0,0.0,1.0,SoundStimuli/LivinOnAPrayer_BonJovi_Original5S.wav,,,,,,,,,,,,,,,,,,,,,,,,,,,,,,,,,,,,,,,,,,,,,,,,,,,,,,,,
,,,,,8106,1,2024-06-14_12h44.06.168,experiment,2024.1.5,Win32,60.24096386,666b5f73dbba3f0cd916b177,666c6e9109980915527cfe5b,,,,,,,,,,,,,,,,,,,,,,,,,,,,,,,,,,,,1450.8426,1458.531,0.0,1.0,1.0,1.0,1.0,SoundStimuli/LivinOnAPrayer_BonJovi_Cover5S.wav,,,,,,,,,,,,,,,,,,,,,,,,,,,,,,,,,,,,,,,,,,,,,,,,,,,,,,,,
,,,,,8106,1,2024-06-14_12h44.06.168,experiment,2024.1.5,Win32,60.24096386,666b5f73dbba3f0cd916b177,666c6e9109980915527cfe5b,,,,,,,,,,,,,,,,,,,,,,,,,,,,,,,,,,,,,,,,,,,,1458.5313,1460.8244,5.671875,2.2587,0.0,19.0,19.0,16.0,1.0,song_indices/LivinOnAPrayer_BonJovi.csv,,,,,,,,,,,,,,,,,,,,,,,,,,,,,,,,,,,,,,,,,,,,,,
,,,,,8106,1,2024-06-14_12h44.06.168,experiment,2024.1.5,Win32,60.24096386,666b5f73dbba3f0cd916b177,666c6e9109980915527cfe5b,,,,,,,,,,,,,,,,,,,,,,,,,,,,,,,,,,,,1460.8269,1466.964,0.0,0.0,0.0,1.0,1.0,SoundStimuli/Smooth_SantanaRobThomas_Cover5S.wav,,,,,,,,,,,,,,,,,,,,,,,,,,,,,,,,,,,,,,,,,,,,,,,,,,,,,,,,
,,,,,8106,1,2024-06-14_12h44.06.168,experiment,2024.1.5,Win32,60.24096386,666b5f73dbba3f0cd916b177,666c6e9109980915527cfe5b,,,,,,,,,,,,,,,,,,,,,,,,,,,,,,,,,,,,1466.9976,1473.2211,0.0,1.0,1.0,0.0,1.0,SoundStimuli/Smooth_SantanaRobThomas_Original5S.wav,,,,,,,,,,,,,,,,,,,,,,,,,,,,,,,,,,,,,,,,,,,,,,,,,,,,,,,,
,,,,,8106,1,2024-06-14_12h44.06.168,experiment,2024.1.5,Win32,60.24096386,666b5f73dbba3f0cd916b177,666c6e9109980915527cfe5b,,,,,,,,,,,,,,,,,,,,,,,,,,,,,,,,,,,,,,,,,,,,1473.2213,1474.5024,5.8359375,1.2407,0.0,20.0,20.0,4.0,1.0,song_indices/Smooth_SantanaRobThomas.csv,,,,,,,,,,,,,,,,,,,,,,,,,,,,,,,,,,,,,,,,,,,,,,
,,,,,8106,1,2024-06-14_12h44.06.168,experiment,2024.1.5,Win32,60.24096386,666b5f73dbba3f0cd916b177,666c6e9109980915527cfe5b,,,,,,,,,,,,,,,,,,,,,,,,,,,,,,,,,,,,1474.5057,1480.8261,0.0,0.0,0.0,0.0,1.0,SoundStimuli/BridgeOverTroubledWater_SimonAndGarfunkel_Original5S.wav,,,,,,,,,,,,,,,,,,,,,,,,,,,,,,,,,,,,,,,,,,,,,,,,,,,,,,,,
,,,,,8106,1,2024-06-14_12h44.06.168,experiment,2024.1.5,Win32,60.24096386,666b5f73dbba3f0cd916b177,666c6e9109980915527cfe5b,,,,,,,,,,,,,,,,,,,,,,,,,,,,,,,,,,,,1480.8588,1487.5651,0.0,1.0,1.0,1.0,1.0,SoundStimuli/BridgeOverTroubledWater_SimonAndGarfunkel_Cover5S.wav,,,,,,,,,,,,,,,,,,,,,,,,,,,,,,,,,,,,,,,,,,,,,,,,,,,,,,,,
,,,,,8106,1,2024-06-14_12h44.06.168,experiment,2024.1.5,Win32,60.24096386,666b5f73dbba3f0cd916b177,666c6e9109980915527cfe5b,,,,,,,,,,,,,,,,,,,,,,,,,,,,,,,,,,,,,,,,,,,,1487.5652,1489.0972,5.8359375,1.5032,0.0,21.0,21.0,1.0,1.0,song_indices/BridgeOverTroubledWater_SimonAndGarfunkel.csv,,,,,,,,,,,,,,,,,,,,,,,,,,,,,,,,,,,,,,,,,,,,,,
,,,,,8106,1,2024-06-14_12h44.06.168,experiment,2024.1.5,Win32,60.24096386,666b5f73dbba3f0cd916b177,666c6e9109980915527cfe5b,,,,,,,,,,,,,,,,,,,,,,,,,,,,,,,,,,,,1489.101,1494.8876,0.0,0.0,0.0,0.0,1.0,SoundStimuli/IWantToHoldYourHand_TheBeatles_Original5S.wav,,,,,,,,,,,,,,,,,,,,,,,,,,,,,,,,,,,,,,,,,,,,,,,,,,,,,,,,
,,,,,8106,1,2024-06-14_12h44.06.168,experiment,2024.1.5,Win32,60.24096386,666b5f73dbba3f0cd916b177,666c6e9109980915527cfe5b,,,,,,,,,,,,,,,,,,,,,,,,,,,,,,,,,,,,1494.9197,1500.9671,0.0,1.0,1.0,1.0,1.0,SoundStimuli/IWantToHoldYourHand_TheBeatles_Cover5S.wav,,,,,,,,,,,,,,,,,,,,,,,,,,,,,,,,,,,,,,,,,,,,,,,,,,,,,,,,
,,,,,8106,1,2024-06-14_12h44.06.168,experiment,2024.1.5,Win32,60.24096386,666b5f73dbba3f0cd916b177,666c6e9109980915527cfe5b,,,,,,,,,,,,,,,,,,,,,,,,,,,,,,,,,,,,,,,,,,,,1500.9674,1502.7604,5.8359375,1.7599,0.0,22.0,22.0,19.0,1.0,song_indices/IWantToHoldYourHand_TheBeatles.csv,,,,,,,,,,,,,,,,,,,,,,,,,,,,,,,,,,,,,,,,,,,,,,
,,,,,8106,1,2024-06-14_12h44.06.168,experiment,2024.1.5,Win32,60.24096386,666b5f73dbba3f0cd916b177,666c6e9109980915527cfe5b,,,,,,,,,,,,,,,,,,,,,,,,,,,,,,,,,,,,,,,,,,,,,,,,,,,,,,1502.7607,1502.7609,,,,0.0,2.0,2.0,0.0,1.0,choose_song_b1.csv,,,,,,,,,,,,,,,,,,,,,,,,,,,,,,,,,,,
,,,,,8106,1,2024-06-14_12h44.06.168,experiment,2024.1.5,Win32,60.24096386,666b5f73dbba3f0cd916b177,666c6e9109980915527cfe5b,,,,,,,,,,,,,,,,,,,,,,,,,,,,,,,,,,,,,,,,,,,,,,,,,,,,,,,,,,,,,,,,,40.0,Item 2,I played at a young age and i love music,Item 6,spotify,6.0,6.0,"laundry, driving, exercising",Sometimes,Sometimes,Often,Sometimes,Sometimes,Sometimes,Sometimes,Often,Sometimes,Often,Rarely,Often,Rarely,Often,Sometimes,Sometimes,Hip hop,R&B,Country,Yeah,0.0,0.0,0.0,0.0,1.0,,
,,,,,8106,1,2024-06-14_12h44.06.168,experiment,2024.1.5,Win32,60.24096386,666b5f73dbba3f0cd916b177,666c6e9109980915527cfe5b,,,,,,,,,,,,,,,,,,,,,,,,,,,,,,,,,,,,,,,,,,,,,,,,,,,,,,,,,,,,,,,,,,,,,,,,,,,,,,,,,,,,,,,,,,,,,,,,,,1810.1576,1811.3824
