welcome.started,welcome.stopped,space_to_continue.keys,space_to_continue.rt,space_to_continue.duration,participant,session,date,expName,psychopyVersion,OS,frameRate,STUDY_ID,SESSION_ID,consent.consent,consent.consent_recontact,consent_check.started,consent_check.stopped,calibration_ready.started,calibration_ready.stopped,cal_ready.keys,cal_ready.rt,cal_ready.duration,calibration.started,calibration.stopped,mouse.x,mouse.y,mouse.leftButton,mouse.midButton,mouse.rightButton,mouse.time,mouse.clicked_name,move_on.keys,move_on.rt,move_on.duration,instructions.started,instructions.stopped,next.keys,next.rt,next.duration,practice_trial.started,practice_trial.stopped,practice_slider.response,practice_slider.rt,ready.started,ready.stopped,key_resp.keys,key_resp.rt,key_resp.duration,play_sound.started,play_sound.stopped,trials.thisRepN,trials.thisTrialN,trials.thisN,trials.thisIndex,trials.ran,orig_or_cover,rating.started,rating.stopped,slider.response,slider.rt,songs.thisRepN,songs.thisTrialN,songs.thisN,songs.thisIndex,songs.ran,song_id,short_break.started,short_break.stopped,space_to_move_on.keys,space_to_move_on.rt,space_to_move_on.duration,blocks.thisRepN,blocks.thisTrialN,blocks.thisN,blocks.thisIndex,blocks.ran,block,survey.age,survey.musician,survey.music_making,survey.listen_time,survey.medium,survey.music_seeking,survey.music_choice,survey.activities,survey.question1.Hip hop,survey.question1.A cappella,survey.question1.Classic rock,survey.question1.Folk/indie,survey.question1.Jazz,survey.question1.Latin,survey.question1.Metal,survey.question1.Electronic (EDM),survey.question1.Pop,survey.question1.R&B,survey.question1.Reggae,survey.question1.Disco,survey.question1.Classical,survey.question1.Country,survey.question1.Ambient,survey.question1.Alternative rock,survey.other_genres,survey.genres_ranked.text1,survey.genres_ranked.text2,survey.genres_ranked.text3,survey.habit_change,experiment.thisRepN,experiment.thisTrialN,experiment.thisN,experiment.thisIndex,experiment.ran,goodbye.started,goodbye.stopped
0.0011,1.6099,space,1.588,,43195,1,2024-06-17_11h07.48.245,experiment,2024.1.5,Win32,59.52380952,667045947eb812cbdacbf325,66704e77ed47d583c562d56b,,,,,,,,,,,,,,,,,,,,,,,,,,,,,,,,,,,,,,,,,,,,,,,,,,,,,,,,,,,,,,,,,,,,,,,,,,,,,,,,,,,,,,,,,,,,,,,,,,,,
,,,,,43195,1,2024-06-17_11h07.48.245,experiment,2024.1.5,Win32,59.52380952,667045947eb812cbdacbf325,66704e77ed47d583c562d56b,yes,yes,,,,,,,,,,,,,,,,,,,,,,,,,,,,,,,,,,,,,,,,,,,,,,,,,,,,,,,,,,,,,,,,,,,,,,,,,,,,,,,,,,,,,,,,,,,,,,,,,,
,,,,,43195,1,2024-06-17_11h07.48.245,experiment,2024.1.5,Win32,59.52380952,667045947eb812cbdacbf325,66704e77ed47d583c562d56b,,,257.196,257.1966,,,,,,,,,,,,,,,,,,,,,,,,,,,,,,,,,,,,,,,,,,,,,,,,,,,,,,,,,,,,,,,,,,,,,,,,,,,,,,,,,,,,,,,,,,,,,,,,
,,,,,43195,1,2024-06-17_11h07.48.245,experiment,2024.1.5,Win32,59.52380952,667045947eb812cbdacbf325,66704e77ed47d583c562d56b,,,,,257.2027,266.2692,space,9.0,,266.2699,386.0081,[],[],[],[],[],[],[],right,31.4803,,386.0101,395.3249,space,9.2663,,395.3254,411.9546,5.027778117,16.5823,411.955,413.8884,space,1.9169,,413.9871,420.2045,0.0,0.0,0.0,0.0,1.0,SoundStimuli/Smooth_SantanaRobThomas_Original5S.wav,,,,,,,,,,,,,,,,,,,,,,,,,,,,,,,,,,,,,,,,,,,,,,,,,,,,,,,,,
,,,,,43195,1,2024-06-17_11h07.48.245,experiment,2024.1.5,Win32,59.52380952,667045947eb812cbdacbf325,66704e77ed47d583c562d56b,,,,,,,,,,,,,,,,,,,,,,,,,,,,,,,,,,,,420.2063,426.3358,0.0,1.0,1.0,1.0,1.0,SoundStimuli/Smooth_SantanaRobThomas_Cover5S.wav,,,,,,,,,,,,,,,,,,,,,,,,,,,,,,,,,,,,,,,,,,,,,,,,,,,,,,,,,
,,,,,43195,1,2024-06-17_11h07.48.245,experiment,2024.1.5,Win32,59.52380952,667045947eb812cbdacbf325,66704e77ed47d583c562d56b,,,,,,,,,,,,,,,,,,,,,,,,,,,,,,,,,,,,,,,,,,,,426.3715,428.8854,5.966666667,2.5087,0.0,0.0,0.0,4.0,1.0,song_indices/Smooth_SantanaRobThomas.csv,,,,,,,,,,,,,,,,,,,,,,,,,,,,,,,,,,,,,,,,,,,,,,,
,,,,,43195,1,2024-06-17_11h07.48.245,experiment,2024.1.5,Win32,59.52380952,667045947eb812cbdacbf325,66704e77ed47d583c562d56b,,,,,,,,,,,,,,,,,,,,,,,,,,,,,,,,,,,,428.8868,435.1843,0.0,0.0,0.0,0.0,1.0,SoundStimuli/Mood_24kGoldnianndior_Original5S.wav,,,,,,,,,,,,,,,,,,,,,,,,,,,,,,,,,,,,,,,,,,,,,,,,,,,,,,,,,
,,,,,43195,1,2024-06-17_11h07.48.245,experiment,2024.1.5,Win32,59.52380952,667045947eb812cbdacbf325,66704e77ed47d583c562d56b,,,,,,,,,,,,,,,,,,,,,,,,,,,,,,,,,,,,435.22,443.5214,0.0,1.0,1.0,1.0,1.0,SoundStimuli/Mood_24kGoldnianndior_Cover5S.wav,,,,,,,,,,,,,,,,,,,,,,,,,,,,,,,,,,,,,,,,,,,,,,,,,,,,,,,,,
,,,,,43195,1,2024-06-17_11h07.48.245,experiment,2024.1.5,Win32,59.52380952,667045947eb812cbdacbf325,66704e77ed47d583c562d56b,,,,,,,,,,,,,,,,,,,,,,,,,,,,,,,,,,,,,,,,,,,,443.5218,444.7164,5.844444784,1.1442,0.0,1.0,1.0,5.0,1.0,song_indices/Mood_24kGoldnianndior.csv,,,,,,,,,,,,,,,,,,,,,,,,,,,,,,,,,,,,,,,,,,,,,,,
,,,,,43195,1,2024-06-17_11h07.48.245,experiment,2024.1.5,Win32,59.52380952,667045947eb812cbdacbf325,66704e77ed47d583c562d56b,,,,,,,,,,,,,,,,,,,,,,,,,,,,,,,,,,,,444.7183,505.57,0.0,0.0,0.0,0.0,1.0,SoundStimuli/LikeARollingStone_BobDylan_Original5S.wav,,,,,,,,,,,,,,,,,,,,,,,,,,,,,,,,,,,,,,,,,,,,,,,,,,,,,,,,,
,,,,,43195,1,2024-06-17_11h07.48.245,experiment,2024.1.5,Win32,59.52380952,667045947eb812cbdacbf325,66704e77ed47d583c562d56b,,,,,,,,,,,,,,,,,,,,,,,,,,,,,,,,,,,,505.5905,509.9811,0.0,1.0,1.0,1.0,1.0,SoundStimuli/LikeARollingStone_BobDylan_Cover5S.wav,,,,,,,,,,,,,,,,,,,,,,,,,,,,,,,,,,,,,,,,,,,,,,,,,,,,,,,,,
,,,,,43195,1,2024-06-17_11h07.48.245,experiment,2024.1.5,Win32,59.52380952,667045947eb812cbdacbf325,66704e77ed47d583c562d56b,,,,,,,,,,,,,,,,,,,,,,,,,,,,,,,,,,,,,,,,,,,,509.9817,511.7824,3.327778117,1.7618,0.0,2.0,2.0,12.0,1.0,song_indices/LikeARollingStone_BobDylan.csv,,,,,,,,,,,,,,,,,,,,,,,,,,,,,,,,,,,,,,,,,,,,,,,
,,,,,43195,1,2024-06-17_11h07.48.245,experiment,2024.1.5,Win32,59.52380952,667045947eb812cbdacbf325,66704e77ed47d583c562d56b,,,,,,,,,,,,,,,,,,,,,,,,,,,,,,,,,,,,511.784,519.2034,0.0,0.0,0.0,1.0,1.0,SoundStimuli/StayinAlive_BeeGees_Cover5S.wav,,,,,,,,,,,,,,,,,,,,,,,,,,,,,,,,,,,,,,,,,,,,,,,,,,,,,,,,,
,,,,,43195,1,2024-06-17_11h07.48.245,experiment,2024.1.5,Win32,59.52380952,667045947eb812cbdacbf325,66704e77ed47d583c562d56b,,,,,,,,,,,,,,,,,,,,,,,,,,,,,,,,,,,,519.2236,525.2462,0.0,1.0,1.0,0.0,1.0,SoundStimuli/StayinAlive_BeeGees_Original5S.wav,,,,,,,,,,,,,,,,,,,,,,,,,,,,,,,,,,,,,,,,,,,,,,,,,,,,,,,,,
,,,,,43195,1,2024-06-17_11h07.48.245,experiment,2024.1.5,Win32,59.52380952,667045947eb812cbdacbf325,66704e77ed47d583c562d56b,,,,,,,,,,,,,,,,,,,,,,,,,,,,,,,,,,,,,,,,,,,,525.2468,528.981,5.755555725,3.6889,0.0,3.0,3.0,2.0,1.0,song_indices/StayinAlive_BeeGees.csv,,,,,,,,,,,,,,,,,,,,,,,,,,,,,,,,,,,,,,,,,,,,,,,
,,,,,43195,1,2024-06-17_11h07.48.245,experiment,2024.1.5,Win32,59.52380952,667045947eb812cbdacbf325,66704e77ed47d583c562d56b,,,,,,,,,,,,,,,,,,,,,,,,,,,,,,,,,,,,528.9818,536.0119,0.0,0.0,0.0,1.0,1.0,SoundStimuli/StrawberryFieldsForever_TheBeatles_Cover5S.wav,,,,,,,,,,,,,,,,,,,,,,,,,,,,,,,,,,,,,,,,,,,,,,,,,,,,,,,,,
,,,,,43195,1,2024-06-17_11h07.48.245,experiment,2024.1.5,Win32,59.52380952,667045947eb812cbdacbf325,66704e77ed47d583c562d56b,,,,,,,,,,,,,,,,,,,,,,,,,,,,,,,,,,,,536.0461,542.1772,0.0,1.0,1.0,0.0,1.0,SoundStimuli/StrawberryFieldsForever_TheBeatles_Original5S.wav,,,,,,,,,,,,,,,,,,,,,,,,,,,,,,,,,,,,,,,,,,,,,,,,,,,,,,,,,
,,,,,43195,1,2024-06-17_11h07.48.245,experiment,2024.1.5,Win32,59.52380952,667045947eb812cbdacbf325,66704e77ed47d583c562d56b,,,,,,,,,,,,,,,,,,,,,,,,,,,,,,,,,,,,,,,,,,,,542.1777,544.6428,2.6,2.4218,0.0,4.0,4.0,14.0,1.0,song_indices/StrawberryFieldsForever_TheBeatles.csv,,,,,,,,,,,,,,,,,,,,,,,,,,,,,,,,,,,,,,,,,,,,,,,
,,,,,43195,1,2024-06-17_11h07.48.245,experiment,2024.1.5,Win32,59.52380952,667045947eb812cbdacbf325,66704e77ed47d583c562d56b,,,,,,,,,,,,,,,,,,,,,,,,,,,,,,,,,,,,544.6442,550.9923,0.0,0.0,0.0,0.0,1.0,SoundStimuli/EndlessLove_DianaRossLionelRichie_Original5S.wav,,,,,,,,,,,,,,,,,,,,,,,,,,,,,,,,,,,,,,,,,,,,,,,,,,,,,,,,,
,,,,,43195,1,2024-06-17_11h07.48.245,experiment,2024.1.5,Win32,59.52380952,667045947eb812cbdacbf325,66704e77ed47d583c562d56b,,,,,,,,,,,,,,,,,,,,,,,,,,,,,,,,,,,,551.0269,558.5417,0.0,1.0,1.0,1.0,1.0,SoundStimuli/EndlessLove_DianaRossLionelRichie_Cover5S.wav,,,,,,,,,,,,,,,,,,,,,,,,,,,,,,,,,,,,,,,,,,,,,,,,,,,,,,,,,
,,,,,43195,1,2024-06-17_11h07.48.245,experiment,2024.1.5,Win32,59.52380952,667045947eb812cbdacbf325,66704e77ed47d583c562d56b,,,,,,,,,,,,,,,,,,,,,,,,,,,,,,,,,,,,,,,,,,,,558.5423,566.3146,5.794444784,7.7267,0.0,5.0,5.0,3.0,1.0,song_indices/EndlessLove_DianaRossLionelRichie.csv,,,,,,,,,,,,,,,,,,,,,,,,,,,,,,,,,,,,,,,,,,,,,,,
,,,,,43195,1,2024-06-17_11h07.48.245,experiment,2024.1.5,Win32,59.52380952,667045947eb812cbdacbf325,66704e77ed47d583c562d56b,,,,,,,,,,,,,,,,,,,,,,,,,,,,,,,,,,,,566.3154,572.5562,0.0,0.0,0.0,0.0,1.0,SoundStimuli/LivinOnAPrayer_BonJovi_Original5S.wav,,,,,,,,,,,,,,,,,,,,,,,,,,,,,,,,,,,,,,,,,,,,,,,,,,,,,,,,,
,,,,,43195,1,2024-06-17_11h07.48.245,experiment,2024.1.5,Win32,59.52380952,667045947eb812cbdacbf325,66704e77ed47d583c562d56b,,,,,,,,,,,,,,,,,,,,,,,,,,,,,,,,,,,,572.591,580.2729,0.0,1.0,1.0,1.0,1.0,SoundStimuli/LivinOnAPrayer_BonJovi_Cover5S.wav,,,,,,,,,,,,,,,,,,,,,,,,,,,,,,,,,,,,,,,,,,,,,,,,,,,,,,,,,
,,,,,43195,1,2024-06-17_11h07.48.245,experiment,2024.1.5,Win32,59.52380952,667045947eb812cbdacbf325,66704e77ed47d583c562d56b,,,,,,,,,,,,,,,,,,,,,,,,,,,,,,,,,,,,,,,,,,,,580.2736,581.339,5.144444784,1.0262,0.0,6.0,6.0,16.0,1.0,song_indices/LivinOnAPrayer_BonJovi.csv,,,,,,,,,,,,,,,,,,,,,,,,,,,,,,,,,,,,,,,,,,,,,,,
,,,,,43195,1,2024-06-17_11h07.48.245,experiment,2024.1.5,Win32,59.52380952,667045947eb812cbdacbf325,66704e77ed47d583c562d56b,,,,,,,,,,,,,,,,,,,,,,,,,,,,,,,,,,,,581.3398,586.9378,0.0,0.0,0.0,0.0,1.0,SoundStimuli/IWannaDanceWithSomebody_WhitneyHouston_Original5S.wav,,,,,,,,,,,,,,,,,,,,,,,,,,,,,,,,,,,,,,,,,,,,,,,,,,,,,,,,,
,,,,,43195,1,2024-06-17_11h07.48.245,experiment,2024.1.5,Win32,59.52380952,667045947eb812cbdacbf325,66704e77ed47d583c562d56b,,,,,,,,,,,,,,,,,,,,,,,,,,,,,,,,,,,,586.9722,593.8202,0.0,1.0,1.0,1.0,1.0,SoundStimuli/IWannaDanceWithSomebody_WhitneyHouston_Cover5S.wav,,,,,,,,,,,,,,,,,,,,,,,,,,,,,,,,,,,,,,,,,,,,,,,,,,,,,,,,,
,,,,,43195,1,2024-06-17_11h07.48.245,experiment,2024.1.5,Win32,59.52380952,667045947eb812cbdacbf325,66704e77ed47d583c562d56b,,,,,,,,,,,,,,,,,,,,,,,,,,,,,,,,,,,,,,,,,,,,593.8208,596.2958,4.8,2.4283,0.0,7.0,7.0,13.0,1.0,song_indices/IWannaDanceWithSomebody_WhitneyHouston.csv,,,,,,,,,,,,,,,,,,,,,,,,,,,,,,,,,,,,,,,,,,,,,,,
,,,,,43195,1,2024-06-17_11h07.48.245,experiment,2024.1.5,Win32,59.52380952,667045947eb812cbdacbf325,66704e77ed47d583c562d56b,,,,,,,,,,,,,,,,,,,,,,,,,,,,,,,,,,,,596.2965,602.3356,0.0,0.0,0.0,1.0,1.0,SoundStimuli/IWantToHoldYourHand_TheBeatles_Cover5S.wav,,,,,,,,,,,,,,,,,,,,,,,,,,,,,,,,,,,,,,,,,,,,,,,,,,,,,,,,,
,,,,,43195,1,2024-06-17_11h07.48.245,experiment,2024.1.5,Win32,59.52380952,667045947eb812cbdacbf325,66704e77ed47d583c562d56b,,,,,,,,,,,,,,,,,,,,,,,,,,,,,,,,,,,,602.3638,608.1517,0.0,1.0,1.0,0.0,1.0,SoundStimuli/IWantToHoldYourHand_TheBeatles_Original5S.wav,,,,,,,,,,,,,,,,,,,,,,,,,,,,,,,,,,,,,,,,,,,,,,,,,,,,,,,,,
,,,,,43195,1,2024-06-17_11h07.48.245,experiment,2024.1.5,Win32,59.52380952,667045947eb812cbdacbf325,66704e77ed47d583c562d56b,,,,,,,,,,,,,,,,,,,,,,,,,,,,,,,,,,,,,,,,,,,,608.1521,611.0512,2.933333333,2.8652,0.0,8.0,8.0,19.0,1.0,song_indices/IWantToHoldYourHand_TheBeatles.csv,,,,,,,,,,,,,,,,,,,,,,,,,,,,,,,,,,,,,,,,,,,,,,,
,,,,,43195,1,2024-06-17_11h07.48.245,experiment,2024.1.5,Win32,59.52380952,667045947eb812cbdacbf325,66704e77ed47d583c562d56b,,,,,,,,,,,,,,,,,,,,,,,,,,,,,,,,,,,,611.053,617.5672,0.0,0.0,0.0,1.0,1.0,SoundStimuli/OldTownRoad_LilNasX_Cover5S.wav,,,,,,,,,,,,,,,,,,,,,,,,,,,,,,,,,,,,,,,,,,,,,,,,,,,,,,,,,
,,,,,43195,1,2024-06-17_11h07.48.245,experiment,2024.1.5,Win32,59.52380952,667045947eb812cbdacbf325,66704e77ed47d583c562d56b,,,,,,,,,,,,,,,,,,,,,,,,,,,,,,,,,,,,617.6024,624.9834,0.0,1.0,1.0,0.0,1.0,SoundStimuli/OldTownRoad_LilNasX_Original5S.wav,,,,,,,,,,,,,,,,,,,,,,,,,,,,,,,,,,,,,,,,,,,,,,,,,,,,,,,,,
,,,,,43195,1,2024-06-17_11h07.48.245,experiment,2024.1.5,Win32,59.52380952,667045947eb812cbdacbf325,66704e77ed47d583c562d56b,,,,,,,,,,,,,,,,,,,,,,,,,,,,,,,,,,,,,,,,,,,,624.9842,627.2487,5.672222392,2.2217,0.0,9.0,9.0,20.0,1.0,song_indices/OldTownRoad_LilNasX.csv,,,,,,,,,,,,,,,,,,,,,,,,,,,,,,,,,,,,,,,,,,,,,,,
,,,,,43195,1,2024-06-17_11h07.48.245,experiment,2024.1.5,Win32,59.52380952,667045947eb812cbdacbf325,66704e77ed47d583c562d56b,,,,,,,,,,,,,,,,,,,,,,,,,,,,,,,,,,,,627.25,636.1146,0.0,0.0,0.0,0.0,1.0,SoundStimuli/Perfect_EdSheeran_Original5S.wav,,,,,,,,,,,,,,,,,,,,,,,,,,,,,,,,,,,,,,,,,,,,,,,,,,,,,,,,,
,,,,,43195,1,2024-06-17_11h07.48.245,experiment,2024.1.5,Win32,59.52380952,667045947eb812cbdacbf325,66704e77ed47d583c562d56b,,,,,,,,,,,,,,,,,,,,,,,,,,,,,,,,,,,,636.1515,644.4153,0.0,1.0,1.0,1.0,1.0,SoundStimuli/Perfect_EdSheeran_Cover5S.wav,,,,,,,,,,,,,,,,,,,,,,,,,,,,,,,,,,,,,,,,,,,,,,,,,,,,,,,,,
,,,,,43195,1,2024-06-17_11h07.48.245,experiment,2024.1.5,Win32,59.52380952,667045947eb812cbdacbf325,66704e77ed47d583c562d56b,,,,,,,,,,,,,,,,,,,,,,,,,,,,,,,,,,,,,,,,,,,,644.4158,647.0968,5.538889058,2.6426,0.0,10.0,10.0,0.0,1.0,song_indices/Perfect_EdSheeran.csv,,,,,,,,,,,,,,,,,,,,,,,,,,,,,,,,,,,,,,,,,,,,,,,
,,,,,43195,1,2024-06-17_11h07.48.245,experiment,2024.1.5,Win32,59.52380952,667045947eb812cbdacbf325,66704e77ed47d583c562d56b,,,,,,,,,,,,,,,,,,,,,,,,,,,,,,,,,,,,647.0985,651.8133,0.0,0.0,0.0,1.0,1.0,SoundStimuli/AChangeIsGonnaCome_SamCooke_Cover5S.wav,,,,,,,,,,,,,,,,,,,,,,,,,,,,,,,,,,,,,,,,,,,,,,,,,,,,,,,,,
,,,,,43195,1,2024-06-17_11h07.48.245,experiment,2024.1.5,Win32,59.52380952,667045947eb812cbdacbf325,66704e77ed47d583c562d56b,,,,,,,,,,,,,,,,,,,,,,,,,,,,,,,,,,,,651.8475,657.8954,0.0,1.0,1.0,0.0,1.0,SoundStimuli/AChangeIsGonnaCome_SamCooke_Original5S.wav,,,,,,,,,,,,,,,,,,,,,,,,,,,,,,,,,,,,,,,,,,,,,,,,,,,,,,,,,
,,,,,43195,1,2024-06-17_11h07.48.245,experiment,2024.1.5,Win32,59.52380952,667045947eb812cbdacbf325,66704e77ed47d583c562d56b,,,,,,,,,,,,,,,,,,,,,,,,,,,,,,,,,,,,,,,,,,,,657.8958,658.7615,5.538889058,0.8222,0.0,11.0,11.0,17.0,1.0,song_indices/AChangeIsGonnaCome_SamCooke.csv,,,,,,,,,,,,,,,,,,,,,,,,,,,,,,,,,,,,,,,,,,,,,,,
,,,,,43195,1,2024-06-17_11h07.48.245,experiment,2024.1.5,Win32,59.52380952,667045947eb812cbdacbf325,66704e77ed47d583c562d56b,,,,,,,,,,,,,,,,,,,,,,,,,,,,,,,,,,,,658.7629,666.8944,0.0,0.0,0.0,1.0,1.0,SoundStimuli/AnotherOneBitesTheDust_Queen_Cover5S.wav,,,,,,,,,,,,,,,,,,,,,,,,,,,,,,,,,,,,,,,,,,,,,,,,,,,,,,,,,
,,,,,43195,1,2024-06-17_11h07.48.245,experiment,2024.1.5,Win32,59.52380952,667045947eb812cbdacbf325,66704e77ed47d583c562d56b,,,,,,,,,,,,,,,,,,,,,,,,,,,,,,,,,,,,666.9295,672.9769,0.0,1.0,1.0,0.0,1.0,SoundStimuli/AnotherOneBitesTheDust_Queen_Original5S.wav,,,,,,,,,,,,,,,,,,,,,,,,,,,,,,,,,,,,,,,,,,,,,,,,,,,,,,,,,
,,,,,43195,1,2024-06-17_11h07.48.245,experiment,2024.1.5,Win32,59.52380952,667045947eb812cbdacbf325,66704e77ed47d583c562d56b,,,,,,,,,,,,,,,,,,,,,,,,,,,,,,,,,,,,,,,,,,,,672.9772,678.5783,2.972222392,5.5546,0.0,12.0,12.0,9.0,1.0,song_indices/AnotherOneBitesTheDust_Queen.csv,,,,,,,,,,,,,,,,,,,,,,,,,,,,,,,,,,,,,,,,,,,,,,,
,,,,,43195,1,2024-06-17_11h07.48.245,experiment,2024.1.5,Win32,59.52380952,667045947eb812cbdacbf325,66704e77ed47d583c562d56b,,,,,,,,,,,,,,,,,,,,,,,,,,,,,,,,,,,,678.5793,686.2422,0.0,0.0,0.0,1.0,1.0,SoundStimuli/MyGirl_TheTemptations_Cover5S.wav,,,,,,,,,,,,,,,,,,,,,,,,,,,,,,,,,,,,,,,,,,,,,,,,,,,,,,,,,
,,,,,43195,1,2024-06-17_11h07.48.245,experiment,2024.1.5,Win32,59.52380952,667045947eb812cbdacbf325,66704e77ed47d583c562d56b,,,,,,,,,,,,,,,,,,,,,,,,,,,,,,,,,,,,686.2759,692.6746,0.0,1.0,1.0,0.0,1.0,SoundStimuli/MyGirl_TheTemptations_Original5S.wav,,,,,,,,,,,,,,,,,,,,,,,,,,,,,,,,,,,,,,,,,,,,,,,,,,,,,,,,,
,,,,,43195,1,2024-06-17_11h07.48.245,experiment,2024.1.5,Win32,59.52380952,667045947eb812cbdacbf325,66704e77ed47d583c562d56b,,,,,,,,,,,,,,,,,,,,,,,,,,,,,,,,,,,,,,,,,,,,692.6752,699.943,5.366666667,7.2227,0.0,13.0,13.0,15.0,1.0,song_indices/MyGirl_TheTemptations.csv,,,,,,,,,,,,,,,,,,,,,,,,,,,,,,,,,,,,,,,,,,,,,,,
,,,,,43195,1,2024-06-17_11h07.48.245,experiment,2024.1.5,Win32,59.52380952,667045947eb812cbdacbf325,66704e77ed47d583c562d56b,,,,,,,,,,,,,,,,,,,,,,,,,,,,,,,,,,,,699.9437,706.1393,0.0,0.0,0.0,0.0,1.0,SoundStimuli/LikeAPrayer_Madonna_Original5S.wav,,,,,,,,,,,,,,,,,,,,,,,,,,,,,,,,,,,,,,,,,,,,,,,,,,,,,,,,,
,,,,,43195,1,2024-06-17_11h07.48.245,experiment,2024.1.5,Win32,59.52380952,667045947eb812cbdacbf325,66704e77ed47d583c562d56b,,,,,,,,,,,,,,,,,,,,,,,,,,,,,,,,,,,,706.1746,712.3882,0.0,1.0,1.0,1.0,1.0,SoundStimuli/LikeAPrayer_Madonna_Cover5S.wav,,,,,,,,,,,,,,,,,,,,,,,,,,,,,,,,,,,,,,,,,,,,,,,,,,,,,,,,,
,,,,,43195,1,2024-06-17_11h07.48.245,experiment,2024.1.5,Win32,59.52380952,667045947eb812cbdacbf325,66704e77ed47d583c562d56b,,,,,,,,,,,,,,,,,,,,,,,,,,,,,,,,,,,,,,,,,,,,712.3887,714.0379,5.294444784,1.602,0.0,14.0,14.0,7.0,1.0,song_indices/LikeAPrayer_Madonna.csv,,,,,,,,,,,,,,,,,,,,,,,,,,,,,,,,,,,,,,,,,,,,,,,
,,,,,43195,1,2024-06-17_11h07.48.245,experiment,2024.1.5,Win32,59.52380952,667045947eb812cbdacbf325,66704e77ed47d583c562d56b,,,,,,,,,,,,,,,,,,,,,,,,,,,,,,,,,,,,714.0396,720.4928,0.0,0.0,0.0,0.0,1.0,SoundStimuli/BadDay_DanielPowter_Original5S.wav,,,,,,,,,,,,,,,,,,,,,,,,,,,,,,,,,,,,,,,,,,,,,,,,,,,,,,,,,
,,,,,43195,1,2024-06-17_11h07.48.245,experiment,2024.1.5,Win32,59.52380952,667045947eb812cbdacbf325,66704e77ed47d583c562d56b,,,,,,,,,,,,,,,,,,,,,,,,,,,,,,,,,,,,720.5278,728.0422,0.0,1.0,1.0,1.0,1.0,SoundStimuli/BadDay_DanielPowter_Cover5S.wav,,,,,,,,,,,,,,,,,,,,,,,,,,,,,,,,,,,,,,,,,,,,,,,,,,,,,,,,,
,,,,,43195,1,2024-06-17_11h07.48.245,experiment,2024.1.5,Win32,59.52380952,667045947eb812cbdacbf325,66704e77ed47d583c562d56b,,,,,,,,,,,,,,,,,,,,,,,,,,,,,,,,,,,,,,,,,,,,728.0428,729.4024,5.294444784,1.3175,0.0,15.0,15.0,22.0,1.0,song_indices/BadDay_DanielPowter.csv,,,,,,,,,,,,,,,,,,,,,,,,,,,,,,,,,,,,,,,,,,,,,,,
,,,,,43195,1,2024-06-17_11h07.48.245,experiment,2024.1.5,Win32,59.52380952,667045947eb812cbdacbf325,66704e77ed47d583c562d56b,,,,,,,,,,,,,,,,,,,,,,,,,,,,,,,,,,,,729.4043,735.6686,0.0,0.0,0.0,1.0,1.0,SoundStimuli/MackTheKnife_BobbyDarin_Cover5S.wav,,,,,,,,,,,,,,,,,,,,,,,,,,,,,,,,,,,,,,,,,,,,,,,,,,,,,,,,,
,,,,,43195,1,2024-06-17_11h07.48.245,experiment,2024.1.5,Win32,59.52380952,667045947eb812cbdacbf325,66704e77ed47d583c562d56b,,,,,,,,,,,,,,,,,,,,,,,,,,,,,,,,,,,,735.7026,741.8512,0.0,1.0,1.0,0.0,1.0,SoundStimuli/MackTheKnife_BobbyDarin_Original5S.wav,,,,,,,,,,,,,,,,,,,,,,,,,,,,,,,,,,,,,,,,,,,,,,,,,,,,,,,,,
,,,,,43195,1,2024-06-17_11h07.48.245,experiment,2024.1.5,Win32,59.52380952,667045947eb812cbdacbf325,66704e77ed47d583c562d56b,,,,,,,,,,,,,,,,,,,,,,,,,,,,,,,,,,,,,,,,,,,,741.8516,743.4007,2.75,1.5069,0.0,16.0,16.0,21.0,1.0,song_indices/MackTheKnife_BobbyDarin.csv,,,,,,,,,,,,,,,,,,,,,,,,,,,,,,,,,,,,,,,,,,,,,,,
,,,,,43195,1,2024-06-17_11h07.48.245,experiment,2024.1.5,Win32,59.52380952,667045947eb812cbdacbf325,66704e77ed47d583c562d56b,,,,,,,,,,,,,,,,,,,,,,,,,,,,,,,,,,,,743.402,750.2502,0.0,0.0,0.0,1.0,1.0,SoundStimuli/GodOnlyKnows_TheBeachBoys_Cover5S.wav,,,,,,,,,,,,,,,,,,,,,,,,,,,,,,,,,,,,,,,,,,,,,,,,,,,,,,,,,
,,,,,43195,1,2024-06-17_11h07.48.245,experiment,2024.1.5,Win32,59.52380952,667045947eb812cbdacbf325,66704e77ed47d583c562d56b,,,,,,,,,,,,,,,,,,,,,,,,,,,,,,,,,,,,750.2848,756.533,0.0,1.0,1.0,0.0,1.0,SoundStimuli/GodOnlyKnows_TheBeachBoys_Original5S.wav,,,,,,,,,,,,,,,,,,,,,,,,,,,,,,,,,,,,,,,,,,,,,,,,,,,,,,,,,
,,,,,43195,1,2024-06-17_11h07.48.245,experiment,2024.1.5,Win32,59.52380952,667045947eb812cbdacbf325,66704e77ed47d583c562d56b,,,,,,,,,,,,,,,,,,,,,,,,,,,,,,,,,,,,,,,,,,,,756.534,757.5986,4.972222392,1.022,0.0,17.0,17.0,8.0,1.0,song_indices/GodOnlyKnows_TheBeachBoys.csv,,,,,,,,,,,,,,,,,,,,,,,,,,,,,,,,,,,,,,,,,,,,,,,
,,,,,43195,1,2024-06-17_11h07.48.245,experiment,2024.1.5,Win32,59.52380952,667045947eb812cbdacbf325,66704e77ed47d583c562d56b,,,,,,,,,,,,,,,,,,,,,,,,,,,,,,,,,,,,757.6001,763.5492,0.0,0.0,0.0,1.0,1.0,SoundStimuli/IllMakeLoveToYou_BoyzIIMen_Cover5S.wav,,,,,,,,,,,,,,,,,,,,,,,,,,,,,,,,,,,,,,,,,,,,,,,,,,,,,,,,,
,,,,,43195,1,2024-06-17_11h07.48.245,experiment,2024.1.5,Win32,59.52380952,667045947eb812cbdacbf325,66704e77ed47d583c562d56b,,,,,,,,,,,,,,,,,,,,,,,,,,,,,,,,,,,,763.5828,769.6656,0.0,1.0,1.0,0.0,1.0,SoundStimuli/IllMakeLoveToYou_BoyzIIMen_Original5S.wav,,,,,,,,,,,,,,,,,,,,,,,,,,,,,,,,,,,,,,,,,,,,,,,,,,,,,,,,,
,,,,,43195,1,2024-06-17_11h07.48.245,experiment,2024.1.5,Win32,59.52380952,667045947eb812cbdacbf325,66704e77ed47d583c562d56b,,,,,,,,,,,,,,,,,,,,,,,,,,,,,,,,,,,,,,,,,,,,769.6661,770.7305,2.744444529,1.0177,0.0,18.0,18.0,6.0,1.0,song_indices/IllMakeLoveToYou_BoyzIIMen.csv,,,,,,,,,,,,,,,,,,,,,,,,,,,,,,,,,,,,,,,,,,,,,,,
,,,,,43195,1,2024-06-17_11h07.48.245,experiment,2024.1.5,Win32,59.52380952,667045947eb812cbdacbf325,66704e77ed47d583c562d56b,,,,,,,,,,,,,,,,,,,,,,,,,,,,,,,,,,,,770.7323,779.33,0.0,0.0,0.0,1.0,1.0,SoundStimuli/HeatWaves_GlassAnimals_Cover5S.wav,,,,,,,,,,,,,,,,,,,,,,,,,,,,,,,,,,,,,,,,,,,,,,,,,,,,,,,,,
,,,,,43195,1,2024-06-17_11h07.48.245,experiment,2024.1.5,Win32,59.52380952,667045947eb812cbdacbf325,66704e77ed47d583c562d56b,,,,,,,,,,,,,,,,,,,,,,,,,,,,,,,,,,,,779.3647,785.4792,0.0,1.0,1.0,0.0,1.0,SoundStimuli/HeatWaves_GlassAnimals_Original5S.wav,,,,,,,,,,,,,,,,,,,,,,,,,,,,,,,,,,,,,,,,,,,,,,,,,,,,,,,,,
,,,,,43195,1,2024-06-17_11h07.48.245,experiment,2024.1.5,Win32,59.52380952,667045947eb812cbdacbf325,66704e77ed47d583c562d56b,,,,,,,,,,,,,,,,,,,,,,,,,,,,,,,,,,,,,,,,,,,,785.4795,787.6617,5.933333333,2.1391,0.0,19.0,19.0,10.0,1.0,song_indices/HeatWaves_GlassAnimals.csv,,,,,,,,,,,,,,,,,,,,,,,,,,,,,,,,,,,,,,,,,,,,,,,
,,,,,43195,1,2024-06-17_11h07.48.245,experiment,2024.1.5,Win32,59.52380952,667045947eb812cbdacbf325,66704e77ed47d583c562d56b,,,,,,,,,,,,,,,,,,,,,,,,,,,,,,,,,,,,787.6632,794.2448,0.0,0.0,0.0,1.0,1.0,SoundStimuli/Despacito_LuisFonsiDaddyYankee_Cover5S.wav,,,,,,,,,,,,,,,,,,,,,,,,,,,,,,,,,,,,,,,,,,,,,,,,,,,,,,,,,
,,,,,43195,1,2024-06-17_11h07.48.245,experiment,2024.1.5,Win32,59.52380952,667045947eb812cbdacbf325,66704e77ed47d583c562d56b,,,,,,,,,,,,,,,,,,,,,,,,,,,,,,,,,,,,794.2807,800.844,0.0,1.0,1.0,0.0,1.0,SoundStimuli/Despacito_LuisFonsiDaddyYankee_Original5S.wav,,,,,,,,,,,,,,,,,,,,,,,,,,,,,,,,,,,,,,,,,,,,,,,,,,,,,,,,,
,,,,,43195,1,2024-06-17_11h07.48.245,experiment,2024.1.5,Win32,59.52380952,667045947eb812cbdacbf325,66704e77ed47d583c562d56b,,,,,,,,,,,,,,,,,,,,,,,,,,,,,,,,,,,,,,,,,,,,800.8446,805.522,5.772222392,4.6291,0.0,20.0,20.0,11.0,1.0,song_indices/Despacito_LuisFonsiDaddyYankee.csv,,,,,,,,,,,,,,,,,,,,,,,,,,,,,,,,,,,,,,,,,,,,,,,
,,,,,43195,1,2024-06-17_11h07.48.245,experiment,2024.1.5,Win32,59.52380952,667045947eb812cbdacbf325,66704e77ed47d583c562d56b,,,,,,,,,,,,,,,,,,,,,,,,,,,,,,,,,,,,805.5228,812.2089,0.0,0.0,0.0,1.0,1.0,SoundStimuli/BridgeOverTroubledWater_SimonAndGarfunkel_Cover5S.wav,,,,,,,,,,,,,,,,,,,,,,,,,,,,,,,,,,,,,,,,,,,,,,,,,,,,,,,,,
,,,,,43195,1,2024-06-17_11h07.48.245,experiment,2024.1.5,Win32,59.52380952,667045947eb812cbdacbf325,66704e77ed47d583c562d56b,,,,,,,,,,,,,,,,,,,,,,,,,,,,,,,,,,,,812.2432,818.5584,0.0,1.0,1.0,0.0,1.0,SoundStimuli/BridgeOverTroubledWater_SimonAndGarfunkel_Original5S.wav,,,,,,,,,,,,,,,,,,,,,,,,,,,,,,,,,,,,,,,,,,,,,,,,,,,,,,,,,
,,,,,43195,1,2024-06-17_11h07.48.245,experiment,2024.1.5,Win32,59.52380952,667045947eb812cbdacbf325,66704e77ed47d583c562d56b,,,,,,,,,,,,,,,,,,,,,,,,,,,,,,,,,,,,,,,,,,,,818.559,820.1742,5.772222392,1.5744,0.0,21.0,21.0,1.0,1.0,song_indices/BridgeOverTroubledWater_SimonAndGarfunkel.csv,,,,,,,,,,,,,,,,,,,,,,,,,,,,,,,,,,,,,,,,,,,,,,,
,,,,,43195,1,2024-06-17_11h07.48.245,experiment,2024.1.5,Win32,59.52380952,667045947eb812cbdacbf325,66704e77ed47d583c562d56b,,,,,,,,,,,,,,,,,,,,,,,,,,,,,,,,,,,,820.1759,824.2409,0.0,0.0,0.0,1.0,1.0,SoundStimuli/BohemianRhapsody_Queen_Cover5S.wav,,,,,,,,,,,,,,,,,,,,,,,,,,,,,,,,,,,,,,,,,,,,,,,,,,,,,,,,,
,,,,,43195,1,2024-06-17_11h07.48.245,experiment,2024.1.5,Win32,59.52380952,667045947eb812cbdacbf325,66704e77ed47d583c562d56b,,,,,,,,,,,,,,,,,,,,,,,,,,,,,,,,,,,,824.2775,830.2407,0.0,1.0,1.0,0.0,1.0,SoundStimuli/BohemianRhapsody_Queen_Original5S.wav,,,,,,,,,,,,,,,,,,,,,,,,,,,,,,,,,,,,,,,,,,,,,,,,,,,,,,,,,
,,,,,43195,1,2024-06-17_11h07.48.245,experiment,2024.1.5,Win32,59.52380952,667045947eb812cbdacbf325,66704e77ed47d583c562d56b,,,,,,,,,,,,,,,,,,,,,,,,,,,,,,,,,,,,,,,,,,,,830.2411,833.7425,5.772222392,3.4562,0.0,22.0,22.0,18.0,1.0,song_indices/BohemianRhapsody_Queen.csv,,,,,,,,,,,,,,,,,,,,,,,,,,,,,,,,,,,,,,,,,,,,,,,
,,,,,43195,1,2024-06-17_11h07.48.245,experiment,2024.1.5,Win32,59.52380952,667045947eb812cbdacbf325,66704e77ed47d583c562d56b,,,,,,,,,,,,,,,,,,,,,,,,,,,,,,,,,,,,,,,,,,,,,,,,,,,,,,833.7429,837.4413,space,3.6802,,0.0,0.0,0.0,0.0,1.0,choose_song_b1.csv,,,,,,,,,,,,,,,,,,,,,,,,,,,,,,,,,,,,
,,,,,43195,1,2024-06-17_11h07.48.245,experiment,2024.1.5,Win32,59.52380952,667045947eb812cbdacbf325,66704e77ed47d583c562d56b,,,,,,,,,,,,,,,,,,,,,,,,,,,,,,,,,,,,837.4817,843.5392,0.0,0.0,0.0,0.0,1.0,SoundStimuli/GoodGollyMissMolly_LittleRichard_Original5S.wav,,,,,,,,,,,,,,,,,,,,,,,,,,,,,,,,,,,,,,,,,,,,,,,,,,,,,,,,,
,,,,,43195,1,2024-06-17_11h07.48.245,experiment,2024.1.5,Win32,59.52380952,667045947eb812cbdacbf325,66704e77ed47d583c562d56b,,,,,,,,,,,,,,,,,,,,,,,,,,,,,,,,,,,,843.5844,849.9373,0.0,1.0,1.0,1.0,1.0,SoundStimuli/GoodGollyMissMolly_LittleRichard_Cover5S.wav,,,,,,,,,,,,,,,,,,,,,,,,,,,,,,,,,,,,,,,,,,,,,,,,,,,,,,,,,
,,,,,43195,1,2024-06-17_11h07.48.245,experiment,2024.1.5,Win32,59.52380952,667045947eb812cbdacbf325,66704e77ed47d583c562d56b,,,,,,,,,,,,,,,,,,,,,,,,,,,,,,,,,,,,,,,,,,,,849.9379,854.0713,5.716666667,4.0845,0.0,0.0,0.0,0.0,1.0,song_indices/GoodGollyMissMolly_LittleRichard.csv,,,,,,,,,,,,,,,,,,,,,,,,,,,,,,,,,,,,,,,,,,,,,,,
,,,,,43195,1,2024-06-17_11h07.48.245,experiment,2024.1.5,Win32,59.52380952,667045947eb812cbdacbf325,66704e77ed47d583c562d56b,,,,,,,,,,,,,,,,,,,,,,,,,,,,,,,,,,,,854.0724,860.003,0.0,0.0,0.0,0.0,1.0,SoundStimuli/StandByMe_BenEKing_Original5S.wav,,,,,,,,,,,,,,,,,,,,,,,,,,,,,,,,,,,,,,,,,,,,,,,,,,,,,,,,,
,,,,,43195,1,2024-06-17_11h07.48.245,experiment,2024.1.5,Win32,59.52380952,667045947eb812cbdacbf325,66704e77ed47d583c562d56b,,,,,,,,,,,,,,,,,,,,,,,,,,,,,,,,,,,,860.0377,866.0688,0.0,1.0,1.0,1.0,1.0,SoundStimuli/StandByMe_BenEKing_Cover5S.wav,,,,,,,,,,,,,,,,,,,,,,,,,,,,,,,,,,,,,,,,,,,,,,,,,,,,,,,,,
,,,,,43195,1,2024-06-17_11h07.48.245,experiment,2024.1.5,Win32,59.52380952,667045947eb812cbdacbf325,66704e77ed47d583c562d56b,,,,,,,,,,,,,,,,,,,,,,,,,,,,,,,,,,,,,,,,,,,,866.0691,867.7347,5.716666667,1.6298,0.0,1.0,1.0,1.0,1.0,song_indices/StandByMe_BenEKing.csv,,,,,,,,,,,,,,,,,,,,,,,,,,,,,,,,,,,,,,,,,,,,,,,
,,,,,43195,1,2024-06-17_11h07.48.245,experiment,2024.1.5,Win32,59.52380952,667045947eb812cbdacbf325,66704e77ed47d583c562d56b,,,,,,,,,,,,,,,,,,,,,,,,,,,,,,,,,,,,867.7364,873.4343,0.0,0.0,0.0,1.0,1.0,SoundStimuli/BetteDavisEyes_KimCarnes_Cover5S.wav,,,,,,,,,,,,,,,,,,,,,,,,,,,,,,,,,,,,,,,,,,,,,,,,,,,,,,,,,
,,,,,43195,1,2024-06-17_11h07.48.245,experiment,2024.1.5,Win32,59.52380952,667045947eb812cbdacbf325,66704e77ed47d583c562d56b,,,,,,,,,,,,,,,,,,,,,,,,,,,,,,,,,,,,873.4677,879.667,0.0,1.0,1.0,0.0,1.0,SoundStimuli/BetteDavisEyes_KimCarnes_Original5S.wav,,,,,,,,,,,,,,,,,,,,,,,,,,,,,,,,,,,,,,,,,,,,,,,,,,,,,,,,,
,,,,,43195,1,2024-06-17_11h07.48.245,experiment,2024.1.5,Win32,59.52380952,667045947eb812cbdacbf325,66704e77ed47d583c562d56b,,,,,,,,,,,,,,,,,,,,,,,,,,,,,,,,,,,,,,,,,,,,879.6674,880.4498,5.716666667,0.7377,0.0,2.0,2.0,5.0,1.0,song_indices/BetteDavisEyes_KimCarnes.csv,,,,,,,,,,,,,,,,,,,,,,,,,,,,,,,,,,,,,,,,,,,,,,,
,,,,,43195,1,2024-06-17_11h07.48.245,experiment,2024.1.5,Win32,59.52380952,667045947eb812cbdacbf325,66704e77ed47d583c562d56b,,,,,,,,,,,,,,,,,,,,,,,,,,,,,,,,,,,,880.4512,886.6662,0.0,0.0,0.0,1.0,1.0,SoundStimuli/NoOne_AliciaKeys_Cover5S.wav,,,,,,,,,,,,,,,,,,,,,,,,,,,,,,,,,,,,,,,,,,,,,,,,,,,,,,,,,
,,,,,43195,1,2024-06-17_11h07.48.245,experiment,2024.1.5,Win32,59.52380952,667045947eb812cbdacbf325,66704e77ed47d583c562d56b,,,,,,,,,,,,,,,,,,,,,,,,,,,,,,,,,,,,886.7012,894.4321,0.0,1.0,1.0,0.0,1.0,SoundStimuli/NoOne_AliciaKeys_Original5S.wav,,,,,,,,,,,,,,,,,,,,,,,,,,,,,,,,,,,,,,,,,,,,,,,,,,,,,,,,,
,,,,,43195,1,2024-06-17_11h07.48.245,experiment,2024.1.5,Win32,59.52380952,667045947eb812cbdacbf325,66704e77ed47d583c562d56b,,,,,,,,,,,,,,,,,,,,,,,,,,,,,,,,,,,,,,,,,,,,894.4326,895.9813,5.716666667,1.5039,0.0,3.0,3.0,19.0,1.0,song_indices/NoOne_AliciaKeys.csv,,,,,,,,,,,,,,,,,,,,,,,,,,,,,,,,,,,,,,,,,,,,,,,
,,,,,43195,1,2024-06-17_11h07.48.245,experiment,2024.1.5,Win32,59.52380952,667045947eb812cbdacbf325,66704e77ed47d583c562d56b,,,,,,,,,,,,,,,,,,,,,,,,,,,,,,,,,,,,895.9828,902.0646,0.0,0.0,0.0,0.0,1.0,SoundStimuli/GetUrFreakOn_MissyElliot_Original5S.wav,,,,,,,,,,,,,,,,,,,,,,,,,,,,,,,,,,,,,,,,,,,,,,,,,,,,,,,,,
,,,,,43195,1,2024-06-17_11h07.48.245,experiment,2024.1.5,Win32,59.52380952,667045947eb812cbdacbf325,66704e77ed47d583c562d56b,,,,,,,,,,,,,,,,,,,,,,,,,,,,,,,,,,,,902.0988,908.6638,0.0,1.0,1.0,1.0,1.0,SoundStimuli/GetUrFreakOn_MissyElliot_Cover5S.wav,,,,,,,,,,,,,,,,,,,,,,,,,,,,,,,,,,,,,,,,,,,,,,,,,,,,,,,,,
,,,,,43195,1,2024-06-17_11h07.48.245,experiment,2024.1.5,Win32,59.52380952,667045947eb812cbdacbf325,66704e77ed47d583c562d56b,,,,,,,,,,,,,,,,,,,,,,,,,,,,,,,,,,,,,,,,,,,,908.6645,914.7394,5.716666667,6.0284,0.0,4.0,4.0,18.0,1.0,song_indices/GetUrFreakOn_MissyElliot.csv,,,,,,,,,,,,,,,,,,,,,,,,,,,,,,,,,,,,,,,,,,,,,,,
,,,,,43195,1,2024-06-17_11h07.48.245,experiment,2024.1.5,Win32,59.52380952,667045947eb812cbdacbf325,66704e77ed47d583c562d56b,,,,,,,,,,,,,,,,,,,,,,,,,,,,,,,,,,,,914.74,922.7122,0.0,0.0,0.0,1.0,1.0,SoundStimuli/TheBattleOfNewOrleans_JohnnyHorton_Cover5S.wav,,,,,,,,,,,,,,,,,,,,,,,,,,,,,,,,,,,,,,,,,,,,,,,,,,,,,,,,,
,,,,,43195,1,2024-06-17_11h07.48.245,experiment,2024.1.5,Win32,59.52380952,667045947eb812cbdacbf325,66704e77ed47d583c562d56b,,,,,,,,,,,,,,,,,,,,,,,,,,,,,,,,,,,,922.7481,928.9607,0.0,1.0,1.0,0.0,1.0,SoundStimuli/TheBattleOfNewOrleans_JohnnyHorton_Original5S.wav,,,,,,,,,,,,,,,,,,,,,,,,,,,,,,,,,,,,,,,,,,,,,,,,,,,,,,,,,
,,,,,43195,1,2024-06-17_11h07.48.245,experiment,2024.1.5,Win32,59.52380952,667045947eb812cbdacbf325,66704e77ed47d583c562d56b,,,,,,,,,,,,,,,,,,,,,,,,,,,,,,,,,,,,,,,,,,,,928.9614,936.002,3.966666667,6.9928,0.0,5.0,5.0,4.0,1.0,song_indices/TheBattleOfNewOrleans_JohnnyHorton.csv,,,,,,,,,,,,,,,,,,,,,,,,,,,,,,,,,,,,,,,,,,,,,,,
,,,,,43195,1,2024-06-17_11h07.48.245,experiment,2024.1.5,Win32,59.52380952,667045947eb812cbdacbf325,66704e77ed47d583c562d56b,,,,,,,,,,,,,,,,,,,,,,,,,,,,,,,,,,,,936.0027,942.1255,0.0,0.0,0.0,1.0,1.0,SoundStimuli/NoScrubs_TLC_Cover5S.wav,,,,,,,,,,,,,,,,,,,,,,,,,,,,,,,,,,,,,,,,,,,,,,,,,,,,,,,,,
,,,,,43195,1,2024-06-17_11h07.48.245,experiment,2024.1.5,Win32,59.52380952,667045947eb812cbdacbf325,66704e77ed47d583c562d56b,,,,,,,,,,,,,,,,,,,,,,,,,,,,,,,,,,,,942.1603,948.3582,0.0,1.0,1.0,0.0,1.0,SoundStimuli/NoScrubs_TLC_Original5S.wav,,,,,,,,,,,,,,,,,,,,,,,,,,,,,,,,,,,,,,,,,,,,,,,,,,,,,,,,,
,,,,,43195,1,2024-06-17_11h07.48.245,experiment,2024.1.5,Win32,59.52380952,667045947eb812cbdacbf325,66704e77ed47d583c562d56b,,,,,,,,,,,,,,,,,,,,,,,,,,,,,,,,,,,,,,,,,,,,948.3587,949.5079,5.35,1.0994,0.0,6.0,6.0,14.0,1.0,song_indices/NoScrubs_TLC.csv,,,,,,,,,,,,,,,,,,,,,,,,,,,,,,,,,,,,,,,,,,,,,,,
,,,,,43195,1,2024-06-17_11h07.48.245,experiment,2024.1.5,Win32,59.52380952,667045947eb812cbdacbf325,66704e77ed47d583c562d56b,,,,,,,,,,,,,,,,,,,,,,,,,,,,,,,,,,,,949.5094,956.7405,0.0,0.0,0.0,0.0,1.0,SoundStimuli/UptownFunk_MarkRonson_Original5S.wav,,,,,,,,,,,,,,,,,,,,,,,,,,,,,,,,,,,,,,,,,,,,,,,,,,,,,,,,,
,,,,,43195,1,2024-06-17_11h07.48.245,experiment,2024.1.5,Win32,59.52380952,667045947eb812cbdacbf325,66704e77ed47d583c562d56b,,,,,,,,,,,,,,,,,,,,,,,,,,,,,,,,,,,,956.776,963.8065,0.0,1.0,1.0,1.0,1.0,SoundStimuli/UptownFunk_MarkRonson_Cover5S.wav,,,,,,,,,,,,,,,,,,,,,,,,,,,,,,,,,,,,,,,,,,,,,,,,,,,,,,,,,
,,,,,43195,1,2024-06-17_11h07.48.245,experiment,2024.1.5,Win32,59.52380952,667045947eb812cbdacbf325,66704e77ed47d583c562d56b,,,,,,,,,,,,,,,,,,,,,,,,,,,,,,,,,,,,,,,,,,,,963.8069,965.0724,5.572222392,1.221,0.0,7.0,7.0,15.0,1.0,song_indices/UptownFunk_MarkRonson.csv,,,,,,,,,,,,,,,,,,,,,,,,,,,,,,,,,,,,,,,,,,,,,,,
,,,,,43195,1,2024-06-17_11h07.48.245,experiment,2024.1.5,Win32,59.52380952,667045947eb812cbdacbf325,66704e77ed47d583c562d56b,,,,,,,,,,,,,,,,,,,,,,,,,,,,,,,,,,,,965.0741,971.3386,0.0,0.0,0.0,0.0,1.0,SoundStimuli/ItsAllInTheGame_TommyEdwards_Original5S.wav,,,,,,,,,,,,,,,,,,,,,,,,,,,,,,,,,,,,,,,,,,,,,,,,,,,,,,,,,
,,,,,43195,1,2024-06-17_11h07.48.245,experiment,2024.1.5,Win32,59.52380952,667045947eb812cbdacbf325,66704e77ed47d583c562d56b,,,,,,,,,,,,,,,,,,,,,,,,,,,,,,,,,,,,971.3726,977.6211,0.0,1.0,1.0,1.0,1.0,SoundStimuli/ItsAllInTheGame_TommyEdwards_Cover5S.wav,,,,,,,,,,,,,,,,,,,,,,,,,,,,,,,,,,,,,,,,,,,,,,,,,,,,,,,,,
,,,,,43195,1,2024-06-17_11h07.48.245,experiment,2024.1.5,Win32,59.52380952,667045947eb812cbdacbf325,66704e77ed47d583c562d56b,,,,,,,,,,,,,,,,,,,,,,,,,,,,,,,,,,,,,,,,,,,,977.6217,979.4384,5.572222392,1.7814,0.0,8.0,8.0,13.0,1.0,song_indices/ItsAllInTheGame_TommyEdwards.csv,,,,,,,,,,,,,,,,,,,,,,,,,,,,,,,,,,,,,,,,,,,,,,,
,,,,,43195,1,2024-06-17_11h07.48.245,experiment,2024.1.5,Win32,59.52380952,667045947eb812cbdacbf325,66704e77ed47d583c562d56b,,,,,,,,,,,,,,,,,,,,,,,,,,,,,,,,,,,,979.4392,985.504,0.0,0.0,0.0,0.0,1.0,SoundStimuli/Stronger_KanyeWest_Original5S.wav,,,,,,,,,,,,,,,,,,,,,,,,,,,,,,,,,,,,,,,,,,,,,,,,,,,,,,,,,
,,,,,43195,1,2024-06-17_11h07.48.245,experiment,2024.1.5,Win32,59.52380952,667045947eb812cbdacbf325,66704e77ed47d583c562d56b,,,,,,,,,,,,,,,,,,,,,,,,,,,,,,,,,,,,985.5427,991.8763,0.0,1.0,1.0,1.0,1.0,SoundStimuli/Stronger_KanyeWest_Cover5S.wav,,,,,,,,,,,,,,,,,,,,,,,,,,,,,,,,,,,,,,,,,,,,,,,,,,,,,,,,,
,,,,,43195,1,2024-06-17_11h07.48.245,experiment,2024.1.5,Win32,59.52380952,667045947eb812cbdacbf325,66704e77ed47d583c562d56b,,,,,,,,,,,,,,,,,,,,,,,,,,,,,,,,,,,,,,,,,,,,991.8767,992.7188,5.572222392,0.7992,0.0,9.0,9.0,9.0,1.0,song_indices/Stronger_KanyeWest.csv,,,,,,,,,,,,,,,,,,,,,,,,,,,,,,,,,,,,,,,,,,,,,,,
,,,,,43195,1,2024-06-17_11h07.48.245,experiment,2024.1.5,Win32,59.52380952,667045947eb812cbdacbf325,66704e77ed47d583c562d56b,,,,,,,,,,,,,,,,,,,,,,,,,,,,,,,,,,,,992.7201,999.152,0.0,0.0,0.0,1.0,1.0,SoundStimuli/Fallin_AliciaKeys_Cover5S.wav,,,,,,,,,,,,,,,,,,,,,,,,,,,,,,,,,,,,,,,,,,,,,,,,,,,,,,,,,
,,,,,43195,1,2024-06-17_11h07.48.245,experiment,2024.1.5,Win32,59.52380952,667045947eb812cbdacbf325,66704e77ed47d583c562d56b,,,,,,,,,,,,,,,,,,,,,,,,,,,,,,,,,,,,999.186,1005.3679,0.0,1.0,1.0,0.0,1.0,SoundStimuli/Fallin_AliciaKeys_Original5S.wav,,,,,,,,,,,,,,,,,,,,,,,,,,,,,,,,,,,,,,,,,,,,,,,,,,,,,,,,,
,,,,,43195,1,2024-06-17_11h07.48.245,experiment,2024.1.5,Win32,59.52380952,667045947eb812cbdacbf325,66704e77ed47d583c562d56b,,,,,,,,,,,,,,,,,,,,,,,,,,,,,,,,,,,,,,,,,,,,1005.3682,1006.9336,5.572222392,1.5211,0.0,10.0,10.0,12.0,1.0,song_indices/Fallin_AliciaKeys.csv,,,,,,,,,,,,,,,,,,,,,,,,,,,,,,,,,,,,,,,,,,,,,,,
,,,,,43195,1,2024-06-17_11h07.48.245,experiment,2024.1.5,Win32,59.52380952,667045947eb812cbdacbf325,66704e77ed47d583c562d56b,,,,,,,,,,,,,,,,,,,,,,,,,,,,,,,,,,,,1006.935,1013.4835,0.0,0.0,0.0,0.0,1.0,SoundStimuli/CrazyInLove_BeyonceFtJayZ_Original5S.wav,,,,,,,,,,,,,,,,,,,,,,,,,,,,,,,,,,,,,,,,,,,,,,,,,,,,,,,,,
,,,,,43195,1,2024-06-17_11h07.48.245,experiment,2024.1.5,Win32,59.52380952,667045947eb812cbdacbf325,66704e77ed47d583c562d56b,,,,,,,,,,,,,,,,,,,,,,,,,,,,,,,,,,,,1013.5195,1023.7653,0.0,1.0,1.0,1.0,1.0,SoundStimuli/CrazyInLove_BeyonceFtJayZ_Cover5S.wav,,,,,,,,,,,,,,,,,,,,,,,,,,,,,,,,,,,,,,,,,,,,,,,,,,,,,,,,,
,,,,,43195,1,2024-06-17_11h07.48.245,experiment,2024.1.5,Win32,59.52380952,667045947eb812cbdacbf325,66704e77ed47d583c562d56b,,,,,,,,,,,,,,,,,,,,,,,,,,,,,,,,,,,,,,,,,,,,1023.7657,1024.9313,5.572222392,1.1203,0.0,11.0,11.0,3.0,1.0,song_indices/CrazyInLove_BeyonceFtJayZ.csv,,,,,,,,,,,,,,,,,,,,,,,,,,,,,,,,,,,,,,,,,,,,,,,
,,,,,43195,1,2024-06-17_11h07.48.245,experiment,2024.1.5,Win32,59.52380952,667045947eb812cbdacbf325,66704e77ed47d583c562d56b,,,,,,,,,,,,,,,,,,,,,,,,,,,,,,,,,,,,1024.9327,1030.7144,0.0,0.0,0.0,1.0,1.0,SoundStimuli/SmellsLikeTeenSpirit_Nirvana_Cover5S.wav,,,,,,,,,,,,,,,,,,,,,,,,,,,,,,,,,,,,,,,,,,,,,,,,,,,,,,,,,
,,,,,43195,1,2024-06-17_11h07.48.245,experiment,2024.1.5,Win32,59.52380952,667045947eb812cbdacbf325,66704e77ed47d583c562d56b,,,,,,,,,,,,,,,,,,,,,,,,,,,,,,,,,,,,1030.7483,1036.9636,0.0,1.0,1.0,0.0,1.0,SoundStimuli/SmellsLikeTeenSpirit_Nirvana_Original5S.wav,,,,,,,,,,,,,,,,,,,,,,,,,,,,,,,,,,,,,,,,,,,,,,,,,,,,,,,,,
,,,,,43195,1,2024-06-17_11h07.48.245,experiment,2024.1.5,Win32,59.52380952,667045947eb812cbdacbf325,66704e77ed47d583c562d56b,,,,,,,,,,,,,,,,,,,,,,,,,,,,,,,,,,,,,,,,,,,,1036.9644,1040.2662,5.572222392,3.2561,0.0,12.0,12.0,8.0,1.0,song_indices/SmellsLikeTeenSpirit_Nirvana.csv,,,,,,,,,,,,,,,,,,,,,,,,,,,,,,,,,,,,,,,,,,,,,,,
,,,,,43195,1,2024-06-17_11h07.48.245,experiment,2024.1.5,Win32,59.52380952,667045947eb812cbdacbf325,66704e77ed47d583c562d56b,,,,,,,,,,,,,,,,,,,,,,,,,,,,,,,,,,,,1040.2668,1046.329,0.0,0.0,0.0,1.0,1.0,SoundStimuli/RockWithYou_MichaelJackson_Cover5S.wav,,,,,,,,,,,,,,,,,,,,,,,,,,,,,,,,,,,,,,,,,,,,,,,,,,,,,,,,,
,,,,,43195,1,2024-06-17_11h07.48.245,experiment,2024.1.5,Win32,59.52380952,667045947eb812cbdacbf325,66704e77ed47d583c562d56b,,,,,,,,,,,,,,,,,,,,,,,,,,,,,,,,,,,,1046.3635,1052.6948,0.0,1.0,1.0,0.0,1.0,SoundStimuli/RockWithYou_MichaelJackson_Original5S.wav,,,,,,,,,,,,,,,,,,,,,,,,,,,,,,,,,,,,,,,,,,,,,,,,,,,,,,,,,
,,,,,43195,1,2024-06-17_11h07.48.245,experiment,2024.1.5,Win32,59.52380952,667045947eb812cbdacbf325,66704e77ed47d583c562d56b,,,,,,,,,,,,,,,,,,,,,,,,,,,,,,,,,,,,,,,,,,,,1052.6952,1053.5278,5.572222392,0.7947,0.0,13.0,13.0,16.0,1.0,song_indices/RockWithYou_MichaelJackson.csv,,,,,,,,,,,,,,,,,,,,,,,,,,,,,,,,,,,,,,,,,,,,,,,
,,,,,43195,1,2024-06-17_11h07.48.245,experiment,2024.1.5,Win32,59.52380952,667045947eb812cbdacbf325,66704e77ed47d583c562d56b,,,,,,,,,,,,,,,,,,,,,,,,,,,,,,,,,,,,1053.5292,1060.8945,0.0,0.0,0.0,0.0,1.0,SoundStimuli/Happy_PharellWilliams_Original5S.wav,,,,,,,,,,,,,,,,,,,,,,,,,,,,,,,,,,,,,,,,,,,,,,,,,,,,,,,,,
,,,,,43195,1,2024-06-17_11h07.48.245,experiment,2024.1.5,Win32,59.52380952,667045947eb812cbdacbf325,66704e77ed47d583c562d56b,,,,,,,,,,,,,,,,,,,,,,,,,,,,,,,,,,,,1060.9295,1068.2936,0.0,1.0,1.0,1.0,1.0,SoundStimuli/Happy_PharellWilliams_Cover5S.wav,,,,,,,,,,,,,,,,,,,,,,,,,,,,,,,,,,,,,,,,,,,,,,,,,,,,,,,,,
,,,,,43195,1,2024-06-17_11h07.48.245,experiment,2024.1.5,Win32,59.52380952,667045947eb812cbdacbf325,66704e77ed47d583c562d56b,,,,,,,,,,,,,,,,,,,,,,,,,,,,,,,,,,,,,,,,,,,,1068.2941,1069.3426,5.572222392,1.0065,0.0,14.0,14.0,7.0,1.0,song_indices/Happy_PharellWilliams.csv,,,,,,,,,,,,,,,,,,,,,,,,,,,,,,,,,,,,,,,,,,,,,,,
,,,,,43195,1,2024-06-17_11h07.48.245,experiment,2024.1.5,Win32,59.52380952,667045947eb812cbdacbf325,66704e77ed47d583c562d56b,,,,,,,,,,,,,,,,,,,,,,,,,,,,,,,,,,,,1069.3443,1075.2924,0.0,0.0,0.0,1.0,1.0,SoundStimuli/TheBoyIsMine_BrandyMonica_Cover5S.wav,,,,,,,,,,,,,,,,,,,,,,,,,,,,,,,,,,,,,,,,,,,,,,,,,,,,,,,,,
,,,,,43195,1,2024-06-17_11h07.48.245,experiment,2024.1.5,Win32,59.52380952,667045947eb812cbdacbf325,66704e77ed47d583c562d56b,,,,,,,,,,,,,,,,,,,,,,,,,,,,,,,,,,,,1075.3268,1081.5414,0.0,1.0,1.0,0.0,1.0,SoundStimuli/TheBoyIsMine_BrandyMonica_Original5S.wav,,,,,,,,,,,,,,,,,,,,,,,,,,,,,,,,,,,,,,,,,,,,,,,,,,,,,,,,,
,,,,,43195,1,2024-06-17_11h07.48.245,experiment,2024.1.5,Win32,59.52380952,667045947eb812cbdacbf325,66704e77ed47d583c562d56b,,,,,,,,,,,,,,,,,,,,,,,,,,,,,,,,,,,,,,,,,,,,1081.5418,1083.7738,5.572222392,2.1881,0.0,15.0,15.0,6.0,1.0,song_indices/TheBoyIsMine_BrandyMonica.csv,,,,,,,,,,,,,,,,,,,,,,,,,,,,,,,,,,,,,,,,,,,,,,,
,,,,,43195,1,2024-06-17_11h07.48.245,experiment,2024.1.5,Win32,59.52380952,667045947eb812cbdacbf325,66704e77ed47d583c562d56b,,,,,,,,,,,,,,,,,,,,,,,,,,,,,,,,,,,,1083.7753,1090.5239,0.0,0.0,0.0,0.0,1.0,SoundStimuli/PartyRockAnthem_LMFAO_Original5S.wav,,,,,,,,,,,,,,,,,,,,,,,,,,,,,,,,,,,,,,,,,,,,,,,,,,,,,,,,,
,,,,,43195,1,2024-06-17_11h07.48.245,experiment,2024.1.5,Win32,59.52380952,667045947eb812cbdacbf325,66704e77ed47d583c562d56b,,,,,,,,,,,,,,,,,,,,,,,,,,,,,,,,,,,,1090.5585,1097.3392,0.0,1.0,1.0,1.0,1.0,SoundStimuli/PartyRockAnthem_LMFAO_Cover5S.wav,,,,,,,,,,,,,,,,,,,,,,,,,,,,,,,,,,,,,,,,,,,,,,,,,,,,,,,,,
,,,,,43195,1,2024-06-17_11h07.48.245,experiment,2024.1.5,Win32,59.52380952,667045947eb812cbdacbf325,66704e77ed47d583c562d56b,,,,,,,,,,,,,,,,,,,,,,,,,,,,,,,,,,,,,,,,,,,,1097.3397,1101.9445,5.572222392,4.5595,0.0,16.0,16.0,2.0,1.0,song_indices/PartyRockAnthem_LMFAO.csv,,,,,,,,,,,,,,,,,,,,,,,,,,,,,,,,,,,,,,,,,,,,,,,
,,,,,43195,1,2024-06-17_11h07.48.245,experiment,2024.1.5,Win32,59.52380952,667045947eb812cbdacbf325,66704e77ed47d583c562d56b,,,,,,,,,,,,,,,,,,,,,,,,,,,,,,,,,,,,1101.9452,1107.7949,0.0,0.0,0.0,1.0,1.0,SoundStimuli/IWillAlwaysLoveYou_WhitneyHouston_Cover5S.wav,,,,,,,,,,,,,,,,,,,,,,,,,,,,,,,,,,,,,,,,,,,,,,,,,,,,,,,,,
,,,,,43195,1,2024-06-17_11h07.48.245,experiment,2024.1.5,Win32,59.52380952,667045947eb812cbdacbf325,66704e77ed47d583c562d56b,,,,,,,,,,,,,,,,,,,,,,,,,,,,,,,,,,,,1107.8299,1114.2101,0.0,1.0,1.0,0.0,1.0,SoundStimuli/IWillAlwaysLoveYou_WhitneyHouston_Original5S.wav,,,,,,,,,,,,,,,,,,,,,,,,,,,,,,,,,,,,,,,,,,,,,,,,,,,,,,,,,
,,,,,43195,1,2024-06-17_11h07.48.245,experiment,2024.1.5,Win32,59.52380952,667045947eb812cbdacbf325,66704e77ed47d583c562d56b,,,,,,,,,,,,,,,,,,,,,,,,,,,,,,,,,,,,,,,,,,,,1114.2106,1116.3696,5.955555725,2.1138,0.0,17.0,17.0,10.0,1.0,song_indices/IWillAlwaysLoveYou_WhitneyHouston.csv,,,,,,,,,,,,,,,,,,,,,,,,,,,,,,,,,,,,,,,,,,,,,,,
,,,,,43195,1,2024-06-17_11h07.48.245,experiment,2024.1.5,Win32,59.52380952,667045947eb812cbdacbf325,66704e77ed47d583c562d56b,,,,,,,,,,,,,,,,,,,,,,,,,,,,,,,,,,,,1116.3711,1122.2693,0.0,0.0,0.0,0.0,1.0,SoundStimuli/EyeOfTheTiger_Survivor_Original5S.wav,,,,,,,,,,,,,,,,,,,,,,,,,,,,,,,,,,,,,,,,,,,,,,,,,,,,,,,,,
,,,,,43195,1,2024-06-17_11h07.48.245,experiment,2024.1.5,Win32,59.52380952,667045947eb812cbdacbf325,66704e77ed47d583c562d56b,,,,,,,,,,,,,,,,,,,,,,,,,,,,,,,,,,,,1122.3044,1128.4244,0.0,1.0,1.0,1.0,1.0,SoundStimuli/EyeOfTheTiger_Survivor_Cover5S.wav,,,,,,,,,,,,,,,,,,,,,,,,,,,,,,,,,,,,,,,,,,,,,,,,,,,,,,,,,
,,,,,43195,1,2024-06-17_11h07.48.245,experiment,2024.1.5,Win32,59.52380952,667045947eb812cbdacbf325,66704e77ed47d583c562d56b,,,,,,,,,,,,,,,,,,,,,,,,,,,,,,,,,,,,,,,,,,,,1128.4248,1131.8742,5.955555725,3.4147,0.0,18.0,18.0,11.0,1.0,song_indices/EyeOfTheTiger_Survivor.csv,,,,,,,,,,,,,,,,,,,,,,,,,,,,,,,,,,,,,,,,,,,,,,,
,,,,,43195,1,2024-06-17_11h07.48.245,experiment,2024.1.5,Win32,59.52380952,667045947eb812cbdacbf325,66704e77ed47d583c562d56b,,,,,,,,,,,,,,,,,,,,,,,,,,,,,,,,,,,,1131.8748,1137.857,0.0,0.0,0.0,0.0,1.0,SoundStimuli/IWalkTheLine_JohnnyCash_Original5S.wav,,,,,,,,,,,,,,,,,,,,,,,,,,,,,,,,,,,,,,,,,,,,,,,,,,,,,,,,,
,,,,,43195,1,2024-06-17_11h07.48.245,experiment,2024.1.5,Win32,59.52380952,667045947eb812cbdacbf325,66704e77ed47d583c562d56b,,,,,,,,,,,,,,,,,,,,,,,,,,,,,,,,,,,,1137.8916,1145.0337,0.0,1.0,1.0,1.0,1.0,SoundStimuli/IWalkTheLine_JohnnyCash_Cover5S.wav,,,,,,,,,,,,,,,,,,,,,,,,,,,,,,,,,,,,,,,,,,,,,,,,,,,,,,,,,
,,,,,43195,1,2024-06-17_11h07.48.245,experiment,2024.1.5,Win32,59.52380952,667045947eb812cbdacbf325,66704e77ed47d583c562d56b,,,,,,,,,,,,,,,,,,,,,,,,,,,,,,,,,,,,,,,,,,,,1145.0347,1145.7992,5.955555725,0.7212,0.0,19.0,19.0,17.0,1.0,song_indices/IWalkTheLine_JohnnyCash.csv,,,,,,,,,,,,,,,,,,,,,,,,,,,,,,,,,,,,,,,,,,,,,,,
,,,,,43195,1,2024-06-17_11h07.48.245,experiment,2024.1.5,Win32,59.52380952,667045947eb812cbdacbf325,66704e77ed47d583c562d56b,,,,,,,,,,,,,,,,,,,,,,,,,,,,,,,,,,,,1145.8007,1151.8989,0.0,0.0,0.0,0.0,1.0,SoundStimuli/GimmeShelter_RollingStones_Original5S.wav,,,,,,,,,,,,,,,,,,,,,,,,,,,,,,,,,,,,,,,,,,,,,,,,,,,,,,,,,
,,,,,43195,1,2024-06-17_11h07.48.245,experiment,2024.1.5,Win32,59.52380952,667045947eb812cbdacbf325,66704e77ed47d583c562d56b,,,,,,,,,,,,,,,,,,,,,,,,,,,,,,,,,,,,1151.9353,1158.1483,0.0,1.0,1.0,1.0,1.0,SoundStimuli/GimmeShelter_RollingStones_Cover5S.wav,,,,,,,,,,,,,,,,,,,,,,,,,,,,,,,,,,,,,,,,,,,,,,,,,,,,,,,,,
,,,,,43195,1,2024-06-17_11h07.48.245,experiment,2024.1.5,Win32,59.52380952,667045947eb812cbdacbf325,66704e77ed47d583c562d56b,,,,,,,,,,,,,,,,,,,,,,,,,,,,,,,,,,,,,,,,,,,,1158.1489,1160.665,5.955555725,2.4719,0.0,20.0,20.0,20.0,1.0,song_indices/GimmeShelter_RollingStones.csv,,,,,,,,,,,,,,,,,,,,,,,,,,,,,,,,,,,,,,,,,,,,,,,
,,,,,43195,1,2024-06-17_11h07.48.245,experiment,2024.1.5,Win32,59.52380952,667045947eb812cbdacbf325,66704e77ed47d583c562d56b,,,,,,,,,,,,,,,,,,,,,,,,,,,,,,,,,,,,1160.6671,1166.9655,0.0,0.0,0.0,0.0,1.0,SoundStimuli/HeyYa_Outkast_Original5S.wav,,,,,,,,,,,,,,,,,,,,,,,,,,,,,,,,,,,,,,,,,,,,,,,,,,,,,,,,,
,,,,,43195,1,2024-06-17_11h07.48.245,experiment,2024.1.5,Win32,59.52380952,667045947eb812cbdacbf325,66704e77ed47d583c562d56b,,,,,,,,,,,,,,,,,,,,,,,,,,,,,,,,,,,,1167.0018,1175.9121,0.0,1.0,1.0,1.0,1.0,SoundStimuli/HeyYa_Outkast_Cover5S.wav,,,,,,,,,,,,,,,,,,,,,,,,,,,,,,,,,,,,,,,,,,,,,,,,,,,,,,,,,
,,,,,43195,1,2024-06-17_11h07.48.245,experiment,2024.1.5,Win32,59.52380952,667045947eb812cbdacbf325,66704e77ed47d583c562d56b,,,,,,,,,,,,,,,,,,,,,,,,,,,,,,,,,,,,,,,,,,,,1175.9123,1177.562,5.955555725,1.6344,0.0,21.0,21.0,22.0,1.0,song_indices/HeyYa_Outkast.csv,,,,,,,,,,,,,,,,,,,,,,,,,,,,,,,,,,,,,,,,,,,,,,,
,,,,,43195,1,2024-06-17_11h07.48.245,experiment,2024.1.5,Win32,59.52380952,667045947eb812cbdacbf325,66704e77ed47d583c562d56b,,,,,,,,,,,,,,,,,,,,,,,,,,,,,,,,,,,,1177.5637,1183.8781,0.0,0.0,0.0,1.0,1.0,SoundStimuli/ShapeofYou_EdSheeran_Cover5S.wav,,,,,,,,,,,,,,,,,,,,,,,,,,,,,,,,,,,,,,,,,,,,,,,,,,,,,,,,,
,,,,,43195,1,2024-06-17_11h07.48.245,experiment,2024.1.5,Win32,59.52380952,667045947eb812cbdacbf325,66704e77ed47d583c562d56b,,,,,,,,,,,,,,,,,,,,,,,,,,,,,,,,,,,,1183.9164,1190.3773,0.0,1.0,1.0,0.0,1.0,SoundStimuli/ShapeofYou_EdSheeran_Original5S.wav,,,,,,,,,,,,,,,,,,,,,,,,,,,,,,,,,,,,,,,,,,,,,,,,,,,,,,,,,
,,,,,43195,1,2024-06-17_11h07.48.245,experiment,2024.1.5,Win32,59.52380952,667045947eb812cbdacbf325,66704e77ed47d583c562d56b,,,,,,,,,,,,,,,,,,,,,,,,,,,,,,,,,,,,,,,,,,,,1190.3777,1195.5272,5.955555725,5.1038,0.0,22.0,22.0,21.0,1.0,song_indices/ShapeofYou_EdSheeran.csv,,,,,,,,,,,,,,,,,,,,,,,,,,,,,,,,,,,,,,,,,,,,,,,
,,,,,43195,1,2024-06-17_11h07.48.245,experiment,2024.1.5,Win32,59.52380952,667045947eb812cbdacbf325,66704e77ed47d583c562d56b,,,,,,,,,,,,,,,,,,,,,,,,,,,,,,,,,,,,,,,,,,,,,,,,,,,,,,1195.5274,1197.9443,space,2.4012,,0.0,1.0,1.0,1.0,1.0,choose_song_b2.csv,,,,,,,,,,,,,,,,,,,,,,,,,,,,,,,,,,,,
,,,,,43195,1,2024-06-17_11h07.48.245,experiment,2024.1.5,Win32,59.52380952,667045947eb812cbdacbf325,66704e77ed47d583c562d56b,,,,,,,,,,,,,,,,,,,,,,,,,,,,,,,,,,,,1197.9495,1203.959,0.0,0.0,0.0,1.0,1.0,SoundStimuli/TheSign_AceOfBase_Cover5S.wav,,,,,,,,,,,,,,,,,,,,,,,,,,,,,,,,,,,,,,,,,,,,,,,,,,,,,,,,,
,,,,,43195,1,2024-06-17_11h07.48.245,experiment,2024.1.5,Win32,59.52380952,667045947eb812cbdacbf325,66704e77ed47d583c562d56b,,,,,,,,,,,,,,,,,,,,,,,,,,,,,,,,,,,,1203.994,1210.148,0.0,1.0,1.0,0.0,1.0,SoundStimuli/TheSign_AceOfBase_Original5S.wav,,,,,,,,,,,,,,,,,,,,,,,,,,,,,,,,,,,,,,,,,,,,,,,,,,,,,,,,,
,,,,,43195,1,2024-06-17_11h07.48.245,experiment,2024.1.5,Win32,59.52380952,667045947eb812cbdacbf325,66704e77ed47d583c562d56b,,,,,,,,,,,,,,,,,,,,,,,,,,,,,,,,,,,,,,,,,,,,1210.1485,1215.8086,5.772222392,5.6132,0.0,0.0,0.0,5.0,1.0,song_indices/TheSign_AceOfBase.csv,,,,,,,,,,,,,,,,,,,,,,,,,,,,,,,,,,,,,,,,,,,,,,,
,,,,,43195,1,2024-06-17_11h07.48.245,experiment,2024.1.5,Win32,59.52380952,667045947eb812cbdacbf325,66704e77ed47d583c562d56b,,,,,,,,,,,,,,,,,,,,,,,,,,,,,,,,,,,,1215.8099,1222.6067,0.0,0.0,0.0,1.0,1.0,SoundStimuli/BlindingLights_TheWeeknd_Cover5S.wav,,,,,,,,,,,,,,,,,,,,,,,,,,,,,,,,,,,,,,,,,,,,,,,,,,,,,,,,,
,,,,,43195,1,2024-06-17_11h07.48.245,experiment,2024.1.5,Win32,59.52380952,667045947eb812cbdacbf325,66704e77ed47d583c562d56b,,,,,,,,,,,,,,,,,,,,,,,,,,,,,,,,,,,,1222.6613,1229.1407,0.0,1.0,1.0,0.0,1.0,SoundStimuli/BlindingLights_TheWeeknd_Original5S.wav,,,,,,,,,,,,,,,,,,,,,,,,,,,,,,,,,,,,,,,,,,,,,,,,,,,,,,,,,
,,,,,43195,1,2024-06-17_11h07.48.245,experiment,2024.1.5,Win32,59.52380952,667045947eb812cbdacbf325,66704e77ed47d583c562d56b,,,,,,,,,,,,,,,,,,,,,,,,,,,,,,,,,,,,,,,,,,,,1229.1411,1230.7551,6.344444784,1.5787,0.0,1.0,1.0,21.0,1.0,song_indices/BlindingLights_TheWeeknd.csv,,,,,,,,,,,,,,,,,,,,,,,,,,,,,,,,,,,,,,,,,,,,,,,
,,,,,43195,1,2024-06-17_11h07.48.245,experiment,2024.1.5,Win32,59.52380952,667045947eb812cbdacbf325,66704e77ed47d583c562d56b,,,,,,,,,,,,,,,,,,,,,,,,,,,,,,,,,,,,1230.7564,1236.9049,0.0,0.0,0.0,0.0,1.0,SoundStimuli/Superstition_StevieWonder_Original5S.wav,,,,,,,,,,,,,,,,,,,,,,,,,,,,,,,,,,,,,,,,,,,,,,,,,,,,,,,,,
,,,,,43195,1,2024-06-17_11h07.48.245,experiment,2024.1.5,Win32,59.52380952,667045947eb812cbdacbf325,66704e77ed47d583c562d56b,,,,,,,,,,,,,,,,,,,,,,,,,,,,,,,,,,,,1236.9414,1242.2548,0.0,1.0,1.0,1.0,1.0,SoundStimuli/Superstition_StevieWonder_Cover5S.wav,,,,,,,,,,,,,,,,,,,,,,,,,,,,,,,,,,,,,,,,,,,,,,,,,,,,,,,,,
,,,,,43195,1,2024-06-17_11h07.48.245,experiment,2024.1.5,Win32,59.52380952,667045947eb812cbdacbf325,66704e77ed47d583c562d56b,,,,,,,,,,,,,,,,,,,,,,,,,,,,,,,,,,,,,,,,,,,,1242.2552,1247.1726,3.277778117,4.8704,0.0,2.0,2.0,15.0,1.0,song_indices/Superstition_StevieWonder.csv,,,,,,,,,,,,,,,,,,,,,,,,,,,,,,,,,,,,,,,,,,,,,,,
,,,,,43195,1,2024-06-17_11h07.48.245,experiment,2024.1.5,Win32,59.52380952,667045947eb812cbdacbf325,66704e77ed47d583c562d56b,,,,,,,,,,,,,,,,,,,,,,,,,,,,,,,,,,,,1247.1734,1252.6864,0.0,0.0,0.0,1.0,1.0,SoundStimuli/LeFreak_Chic_Cover5S.wav,,,,,,,,,,,,,,,,,,,,,,,,,,,,,,,,,,,,,,,,,,,,,,,,,,,,,,,,,
,,,,,43195,1,2024-06-17_11h07.48.245,experiment,2024.1.5,Win32,59.52380952,667045947eb812cbdacbf325,66704e77ed47d583c562d56b,,,,,,,,,,,,,,,,,,,,,,,,,,,,,,,,,,,,1252.7205,1258.7527,0.0,1.0,1.0,0.0,1.0,SoundStimuli/LeFreak_Chic_Original5S.wav,,,,,,,,,,,,,,,,,,,,,,,,,,,,,,,,,,,,,,,,,,,,,,,,,,,,,,,,,
,,,,,43195,1,2024-06-17_11h07.48.245,experiment,2024.1.5,Win32,59.52380952,667045947eb812cbdacbf325,66704e77ed47d583c562d56b,,,,,,,,,,,,,,,,,,,,,,,,,,,,,,,,,,,,,,,,,,,,1258.7532,1261.0014,5.81111145,2.1979,0.0,3.0,3.0,11.0,1.0,song_indices/LeFreak_Chic.csv,,,,,,,,,,,,,,,,,,,,,,,,,,,,,,,,,,,,,,,,,,,,,,,
,,,,,43195,1,2024-06-17_11h07.48.245,experiment,2024.1.5,Win32,59.52380952,667045947eb812cbdacbf325,66704e77ed47d583c562d56b,,,,,,,,,,,,,,,,,,,,,,,,,,,,,,,,,,,,1261.0027,1267.2844,0.0,0.0,0.0,1.0,1.0,SoundStimuli/Kiss_Prince_Cover5S.wav,,,,,,,,,,,,,,,,,,,,,,,,,,,,,,,,,,,,,,,,,,,,,,,,,,,,,,,,,
,,,,,43195,1,2024-06-17_11h07.48.245,experiment,2024.1.5,Win32,59.52380952,667045947eb812cbdacbf325,66704e77ed47d583c562d56b,,,,,,,,,,,,,,,,,,,,,,,,,,,,,,,,,,,,1267.3182,1274.7497,0.0,1.0,1.0,0.0,1.0,SoundStimuli/Kiss_Prince_Original5S.wav,,,,,,,,,,,,,,,,,,,,,,,,,,,,,,,,,,,,,,,,,,,,,,,,,,,,,,,,,
,,,,,43195,1,2024-06-17_11h07.48.245,experiment,2024.1.5,Win32,59.52380952,667045947eb812cbdacbf325,66704e77ed47d583c562d56b,,,,,,,,,,,,,,,,,,,,,,,,,,,,,,,,,,,,,,,,,,,,1274.75,1277.4662,3.338889058,2.6712,0.0,4.0,4.0,14.0,1.0,song_indices/Kiss_Prince.csv,,,,,,,,,,,,,,,,,,,,,,,,,,,,,,,,,,,,,,,,,,,,,,,
,,,,,43195,1,2024-06-17_11h07.48.245,experiment,2024.1.5,Win32,59.52380952,667045947eb812cbdacbf325,66704e77ed47d583c562d56b,,,,,,,,,,,,,,,,,,,,,,,,,,,,,,,,,,,,1277.4677,1285.2986,0.0,0.0,0.0,1.0,1.0,SoundStimuli/Dreams_FleetwoodMac_Cover5S.wav,,,,,,,,,,,,,,,,,,,,,,,,,,,,,,,,,,,,,,,,,,,,,,,,,,,,,,,,,
,,,,,43195,1,2024-06-17_11h07.48.245,experiment,2024.1.5,Win32,59.52380952,667045947eb812cbdacbf325,66704e77ed47d583c562d56b,,,,,,,,,,,,,,,,,,,,,,,,,,,,,,,,,,,,1285.3332,1291.8313,0.0,1.0,1.0,0.0,1.0,SoundStimuli/Dreams_FleetwoodMac_Original5S.wav,,,,,,,,,,,,,,,,,,,,,,,,,,,,,,,,,,,,,,,,,,,,,,,,,,,,,,,,,
,,,,,43195,1,2024-06-17_11h07.48.245,experiment,2024.1.5,Win32,59.52380952,667045947eb812cbdacbf325,66704e77ed47d583c562d56b,,,,,,,,,,,,,,,,,,,,,,,,,,,,,,,,,,,,,,,,,,,,1291.8318,1293.8306,3.838889058,1.9608,0.0,5.0,5.0,1.0,1.0,song_indices/Dreams_FleetwoodMac.csv,,,,,,,,,,,,,,,,,,,,,,,,,,,,,,,,,,,,,,,,,,,,,,,
,,,,,43195,1,2024-06-17_11h07.48.245,experiment,2024.1.5,Win32,59.52380952,667045947eb812cbdacbf325,66704e77ed47d583c562d56b,,,,,,,,,,,,,,,,,,,,,,,,,,,,,,,,,,,,1293.8321,1299.3145,0.0,0.0,0.0,1.0,1.0,SoundStimuli/HowDoILive_LeAnnRimes_Cover5S.wav,,,,,,,,,,,,,,,,,,,,,,,,,,,,,,,,,,,,,,,,,,,,,,,,,,,,,,,,,
,,,,,43195,1,2024-06-17_11h07.48.245,experiment,2024.1.5,Win32,59.52380952,667045947eb812cbdacbf325,66704e77ed47d583c562d56b,,,,,,,,,,,,,,,,,,,,,,,,,,,,,,,,,,,,1299.3497,1305.3871,0.0,1.0,1.0,0.0,1.0,SoundStimuli/HowDoILive_LeAnnRimes_Original5S.wav,,,,,,,,,,,,,,,,,,,,,,,,,,,,,,,,,,,,,,,,,,,,,,,,,,,,,,,,,
,,,,,43195,1,2024-06-17_11h07.48.245,experiment,2024.1.5,Win32,59.52380952,667045947eb812cbdacbf325,66704e77ed47d583c562d56b,,,,,,,,,,,,,,,,,,,,,,,,,,,,,,,,,,,,,,,,,,,,1305.3874,1306.6347,5.705555725,1.2092,0.0,6.0,6.0,17.0,1.0,song_indices/HowDoILive_LeAnnRimes.csv,,,,,,,,,,,,,,,,,,,,,,,,,,,,,,,,,,,,,,,,,,,,,,,
,,,,,43195,1,2024-06-17_11h07.48.245,experiment,2024.1.5,Win32,59.52380952,667045947eb812cbdacbf325,66704e77ed47d583c562d56b,,,,,,,,,,,,,,,,,,,,,,,,,,,,,,,,,,,,1306.6354,1313.4287,0.0,0.0,0.0,1.0,1.0,SoundStimuli/SomebodyThatIUsedtoKnow_Gotye_Cover5S.wav,,,,,,,,,,,,,,,,,,,,,,,,,,,,,,,,,,,,,,,,,,,,,,,,,,,,,,,,,
,,,,,43195,1,2024-06-17_11h07.48.245,experiment,2024.1.5,Win32,59.52380952,667045947eb812cbdacbf325,66704e77ed47d583c562d56b,,,,,,,,,,,,,,,,,,,,,,,,,,,,,,,,,,,,1313.4655,1320.6944,0.0,1.0,1.0,0.0,1.0,SoundStimuli/SomebodyThatIUsedtoKnow_Gotye_Original5S.wav,,,,,,,,,,,,,,,,,,,,,,,,,,,,,,,,,,,,,,,,,,,,,,,,,,,,,,,,,
,,,,,43195,1,2024-06-17_11h07.48.245,experiment,2024.1.5,Win32,59.52380952,667045947eb812cbdacbf325,66704e77ed47d583c562d56b,,,,,,,,,,,,,,,,,,,,,,,,,,,,,,,,,,,,,,,,,,,,1320.6949,1322.6935,5.705555725,1.9552,0.0,7.0,7.0,7.0,1.0,song_indices/SomebodyThatIUsedtoKnow_Gotye.csv,,,,,,,,,,,,,,,,,,,,,,,,,,,,,,,,,,,,,,,,,,,,,,,
,,,,,43195,1,2024-06-17_11h07.48.245,experiment,2024.1.5,Win32,59.52380952,667045947eb812cbdacbf325,66704e77ed47d583c562d56b,,,,,,,,,,,,,,,,,,,,,,,,,,,,,,,,,,,,1322.695,1328.8099,0.0,0.0,0.0,0.0,1.0,SoundStimuli/UnbreakMyHeart_ToniBraxton_Original5S.wav,,,,,,,,,,,,,,,,,,,,,,,,,,,,,,,,,,,,,,,,,,,,,,,,,,,,,,,,,
,,,,,43195,1,2024-06-17_11h07.48.245,experiment,2024.1.5,Win32,59.52380952,667045947eb812cbdacbf325,66704e77ed47d583c562d56b,,,,,,,,,,,,,,,,,,,,,,,,,,,,,,,,,,,,1328.8445,1332.816,0.0,1.0,1.0,1.0,1.0,SoundStimuli/UnbreakMyHeart_ToniBraxton_Cover5S.wav,,,,,,,,,,,,,,,,,,,,,,,,,,,,,,,,,,,,,,,,,,,,,,,,,,,,,,,,,
,,,,,43195,1,2024-06-17_11h07.48.245,experiment,2024.1.5,Win32,59.52380952,667045947eb812cbdacbf325,66704e77ed47d583c562d56b,,,,,,,,,,,,,,,,,,,,,,,,,,,,,,,,,,,,,,,,,,,,1332.8167,1335.0312,5.783333333,2.178,0.0,8.0,8.0,16.0,1.0,song_indices/UnbreakMyHeart_ToniBraxton.csv,,,,,,,,,,,,,,,,,,,,,,,,,,,,,,,,,,,,,,,,,,,,,,,
,,,,,43195,1,2024-06-17_11h07.48.245,experiment,2024.1.5,Win32,59.52380952,667045947eb812cbdacbf325,66704e77ed47d583c562d56b,,,,,,,,,,,,,,,,,,,,,,,,,,,,,,,,,,,,1335.0321,1341.0916,0.0,0.0,0.0,1.0,1.0,SoundStimuli/Respect_ArethaFranklin_Cover5S.wav,,,,,,,,,,,,,,,,,,,,,,,,,,,,,,,,,,,,,,,,,,,,,,,,,,,,,,,,,
,,,,,43195,1,2024-06-17_11h07.48.245,experiment,2024.1.5,Win32,59.52380952,667045947eb812cbdacbf325,66704e77ed47d583c562d56b,,,,,,,,,,,,,,,,,,,,,,,,,,,,,,,,,,,,1341.1266,1347.0576,0.0,1.0,1.0,0.0,1.0,SoundStimuli/Respect_ArethaFranklin_Original5S.wav,,,,,,,,,,,,,,,,,,,,,,,,,,,,,,,,,,,,,,,,,,,,,,,,,,,,,,,,,
,,,,,43195,1,2024-06-17_11h07.48.245,experiment,2024.1.5,Win32,59.52380952,667045947eb812cbdacbf325,66704e77ed47d583c562d56b,,,,,,,,,,,,,,,,,,,,,,,,,,,,,,,,,,,,,,,,,,,,1347.058,1360.2457,5.816666667,13.142,0.0,9.0,9.0,0.0,1.0,song_indices/Respect_ArethaFranklin.csv,,,,,,,,,,,,,,,,,,,,,,,,,,,,,,,,,,,,,,,,,,,,,,,
,,,,,43195,1,2024-06-17_11h07.48.245,experiment,2024.1.5,Win32,59.52380952,667045947eb812cbdacbf325,66704e77ed47d583c562d56b,,,,,,,,,,,,,,,,,,,,,,,,,,,,,,,,,,,,1360.2465,1365.9549,0.0,0.0,0.0,1.0,1.0,SoundStimuli/Levitating_DuaLipa_Cover5S.wav,,,,,,,,,,,,,,,,,,,,,,,,,,,,,,,,,,,,,,,,,,,,,,,,,,,,,,,,,
,,,,,43195,1,2024-06-17_11h07.48.245,experiment,2024.1.5,Win32,59.52380952,667045947eb812cbdacbf325,66704e77ed47d583c562d56b,,,,,,,,,,,,,,,,,,,,,,,,,,,,,,,,,,,,1365.9893,1372.0041,0.0,1.0,1.0,0.0,1.0,SoundStimuli/Levitating_DuaLipa_Original5S.wav,,,,,,,,,,,,,,,,,,,,,,,,,,,,,,,,,,,,,,,,,,,,,,,,,,,,,,,,,
,,,,,43195,1,2024-06-17_11h07.48.245,experiment,2024.1.5,Win32,59.52380952,667045947eb812cbdacbf325,66704e77ed47d583c562d56b,,,,,,,,,,,,,,,,,,,,,,,,,,,,,,,,,,,,,,,,,,,,1372.0046,1373.5208,5.816666667,1.4724,0.0,10.0,10.0,10.0,1.0,song_indices/Levitating_DuaLipa.csv,,,,,,,,,,,,,,,,,,,,,,,,,,,,,,,,,,,,,,,,,,,,,,,
,,,,,43195,1,2024-06-17_11h07.48.245,experiment,2024.1.5,Win32,59.52380952,667045947eb812cbdacbf325,66704e77ed47d583c562d56b,,,,,,,,,,,,,,,,,,,,,,,,,,,,,,,,,,,,1373.5222,1379.7207,0.0,0.0,0.0,0.0,1.0,SoundStimuli/SaveYourTears_TheWeekndArianaGrande_Original5S.wav,,,,,,,,,,,,,,,,,,,,,,,,,,,,,,,,,,,,,,,,,,,,,,,,,,,,,,,,,
,,,,,43195,1,2024-06-17_11h07.48.245,experiment,2024.1.5,Win32,59.52380952,667045947eb812cbdacbf325,66704e77ed47d583c562d56b,,,,,,,,,,,,,,,,,,,,,,,,,,,,,,,,,,,,1379.7627,1385.6533,0.0,1.0,1.0,1.0,1.0,SoundStimuli/SaveYourTears_TheWeekndArianaGrande_Cover5S.wav,,,,,,,,,,,,,,,,,,,,,,,,,,,,,,,,,,,,,,,,,,,,,,,,,,,,,,,,,
,,,,,43195,1,2024-06-17_11h07.48.245,experiment,2024.1.5,Win32,59.52380952,667045947eb812cbdacbf325,66704e77ed47d583c562d56b,,,,,,,,,,,,,,,,,,,,,,,,,,,,,,,,,,,,,,,,,,,,1385.655,1388.1575,3.76111145,2.4586,0.0,11.0,11.0,12.0,1.0,song_indices/SaveYourTears_TheWeekndArianaGrande.csv,,,,,,,,,,,,,,,,,,,,,,,,,,,,,,,,,,,,,,,,,,,,,,,
,,,,,43195,1,2024-06-17_11h07.48.245,experiment,2024.1.5,Win32,59.52380952,667045947eb812cbdacbf325,66704e77ed47d583c562d56b,,,,,,,,,,,,,,,,,,,,,,,,,,,,,,,,,,,,1388.1582,1394.2681,0.0,0.0,0.0,1.0,1.0,SoundStimuli/TossinAndTurnin_BobbyLewis_Cover5S.wav,,,,,,,,,,,,,,,,,,,,,,,,,,,,,,,,,,,,,,,,,,,,,,,,,,,,,,,,,
,,,,,43195,1,2024-06-17_11h07.48.245,experiment,2024.1.5,Win32,59.52380952,667045947eb812cbdacbf325,66704e77ed47d583c562d56b,,,,,,,,,,,,,,,,,,,,,,,,,,,,,,,,,,,,1394.3032,1400.3676,0.0,1.0,1.0,0.0,1.0,SoundStimuli/TossinAndTurnin_BobbyLewis_Original5S.wav,,,,,,,,,,,,,,,,,,,,,,,,,,,,,,,,,,,,,,,,,,,,,,,,,,,,,,,,,
,,,,,43195,1,2024-06-17_11h07.48.245,experiment,2024.1.5,Win32,59.52380952,667045947eb812cbdacbf325,66704e77ed47d583c562d56b,,,,,,,,,,,,,,,,,,,,,,,,,,,,,,,,,,,,,,,,,,,,1400.3685,1404.4191,5.405555725,4.0046,0.0,12.0,12.0,13.0,1.0,song_indices/TossinAndTurnin_BobbyLewis.csv,,,,,,,,,,,,,,,,,,,,,,,,,,,,,,,,,,,,,,,,,,,,,,,
,,,,,43195,1,2024-06-17_11h07.48.245,experiment,2024.1.5,Win32,59.52380952,667045947eb812cbdacbf325,66704e77ed47d583c562d56b,,,,,,,,,,,,,,,,,,,,,,,,,,,,,,,,,,,,1404.4198,1410.5325,0.0,0.0,0.0,0.0,1.0,SoundStimuli/JoyToTheWorld_ThreeDogNight_Original5S.wav,,,,,,,,,,,,,,,,,,,,,,,,,,,,,,,,,,,,,,,,,,,,,,,,,,,,,,,,,
,,,,,43195,1,2024-06-17_11h07.48.245,experiment,2024.1.5,Win32,59.52380952,667045947eb812cbdacbf325,66704e77ed47d583c562d56b,,,,,,,,,,,,,,,,,,,,,,,,,,,,,,,,,,,,1410.5674,1415.6988,0.0,1.0,1.0,1.0,1.0,SoundStimuli/JoyToTheWorld_ThreeDogNight_Cover5S.wav,,,,,,,,,,,,,,,,,,,,,,,,,,,,,,,,,,,,,,,,,,,,,,,,,,,,,,,,,
,,,,,43195,1,2024-06-17_11h07.48.245,experiment,2024.1.5,Win32,59.52380952,667045947eb812cbdacbf325,66704e77ed47d583c562d56b,,,,,,,,,,,,,,,,,,,,,,,,,,,,,,,,,,,,,,,,,,,,1415.699,1422.282,5.677778117,6.5383,0.0,13.0,13.0,8.0,1.0,song_indices/JoyToTheWorld_ThreeDogNight.csv,,,,,,,,,,,,,,,,,,,,,,,,,,,,,,,,,,,,,,,,,,,,,,,
,,,,,43195,1,2024-06-17_11h07.48.245,experiment,2024.1.5,Win32,59.52380952,667045947eb812cbdacbf325,66704e77ed47d583c562d56b,,,,,,,,,,,,,,,,,,,,,,,,,,,,,,,,,,,,1422.2832,1428.4804,0.0,0.0,0.0,0.0,1.0,SoundStimuli/Dilemma_NellyKellyRowland_Original5S.wav,,,,,,,,,,,,,,,,,,,,,,,,,,,,,,,,,,,,,,,,,,,,,,,,,,,,,,,,,
,,,,,43195,1,2024-06-17_11h07.48.245,experiment,2024.1.5,Win32,59.52380952,667045947eb812cbdacbf325,66704e77ed47d583c562d56b,,,,,,,,,,,,,,,,,,,,,,,,,,,,,,,,,,,,1428.5165,1435.5127,0.0,1.0,1.0,1.0,1.0,SoundStimuli/Dilemma_NellyKellyRowland_Cover5S.wav,,,,,,,,,,,,,,,,,,,,,,,,,,,,,,,,,,,,,,,,,,,,,,,,,,,,,,,,,
,,,,,43195,1,2024-06-17_11h07.48.245,experiment,2024.1.5,Win32,59.52380952,667045947eb812cbdacbf325,66704e77ed47d583c562d56b,,,,,,,,,,,,,,,,,,,,,,,,,,,,,,,,,,,,,,,,,,,,1435.5131,1437.7455,3.394444784,2.1943,0.0,14.0,14.0,2.0,1.0,song_indices/Dilemma_NellyKellyRowland.csv,,,,,,,,,,,,,,,,,,,,,,,,,,,,,,,,,,,,,,,,,,,,,,,
,,,,,43195,1,2024-06-17_11h07.48.245,experiment,2024.1.5,Win32,59.52380952,667045947eb812cbdacbf325,66704e77ed47d583c562d56b,,,,,,,,,,,,,,,,,,,,,,,,,,,,,,,,,,,,1437.7469,1444.045,0.0,0.0,0.0,0.0,1.0,SoundStimuli/LetsGetItOn_MarvinGaye_Original5S.wav,,,,,,,,,,,,,,,,,,,,,,,,,,,,,,,,,,,,,,,,,,,,,,,,,,,,,,,,,
,,,,,43195,1,2024-06-17_11h07.48.245,experiment,2024.1.5,Win32,59.52380952,667045947eb812cbdacbf325,66704e77ed47d583c562d56b,,,,,,,,,,,,,,,,,,,,,,,,,,,,,,,,,,,,1444.0782,1450.7108,0.0,1.0,1.0,1.0,1.0,SoundStimuli/LetsGetItOn_MarvinGaye_Cover5S.wav,,,,,,,,,,,,,,,,,,,,,,,,,,,,,,,,,,,,,,,,,,,,,,,,,,,,,,,,,
,,,,,43195,1,2024-06-17_11h07.48.245,experiment,2024.1.5,Win32,59.52380952,667045947eb812cbdacbf325,66704e77ed47d583c562d56b,,,,,,,,,,,,,,,,,,,,,,,,,,,,,,,,,,,,,,,,,,,,1450.7113,1459.7761,3.15,9.0199,0.0,15.0,15.0,20.0,1.0,song_indices/LetsGetItOn_MarvinGaye.csv,,,,,,,,,,,,,,,,,,,,,,,,,,,,,,,,,,,,,,,,,,,,,,,
,,,,,43195,1,2024-06-17_11h07.48.245,experiment,2024.1.5,Win32,59.52380952,667045947eb812cbdacbf325,66704e77ed47d583c562d56b,,,,,,,,,,,,,,,,,,,,,,,,,,,,,,,,,,,,1459.7775,1467.0591,0.0,0.0,0.0,1.0,1.0,SoundStimuli/FlashdanceWhatAFeeling_IreneCara_Cover5S.wav,,,,,,,,,,,,,,,,,,,,,,,,,,,,,,,,,,,,,,,,,,,,,,,,,,,,,,,,,
,,,,,43195,1,2024-06-17_11h07.48.245,experiment,2024.1.5,Win32,59.52380952,667045947eb812cbdacbf325,66704e77ed47d583c562d56b,,,,,,,,,,,,,,,,,,,,,,,,,,,,,,,,,,,,1467.0968,1473.4916,0.0,1.0,1.0,0.0,1.0,SoundStimuli/FlashdanceWhatAFeeling_IreneCara_Original5S.wav,,,,,,,,,,,,,,,,,,,,,,,,,,,,,,,,,,,,,,,,,,,,,,,,,,,,,,,,,
,,,,,43195,1,2024-06-17_11h07.48.245,experiment,2024.1.5,Win32,59.52380952,667045947eb812cbdacbf325,66704e77ed47d583c562d56b,,,,,,,,,,,,,,,,,,,,,,,,,,,,,,,,,,,,,,,,,,,,1473.4919,1475.1075,5.666666667,1.574,0.0,16.0,16.0,18.0,1.0,song_indices/FlashdanceWhatAFeeling_IreneCara.csv,,,,,,,,,,,,,,,,,,,,,,,,,,,,,,,,,,,,,,,,,,,,,,,
,,,,,43195,1,2024-06-17_11h07.48.245,experiment,2024.1.5,Win32,59.52380952,667045947eb812cbdacbf325,66704e77ed47d583c562d56b,,,,,,,,,,,,,,,,,,,,,,,,,,,,,,,,,,,,1475.1086,1481.5573,0.0,0.0,0.0,1.0,1.0,SoundStimuli/YouLightUpMyLife_DebbyBoone_Cover5S.wav,,,,,,,,,,,,,,,,,,,,,,,,,,,,,,,,,,,,,,,,,,,,,,,,,,,,,,,,,
,,,,,43195,1,2024-06-17_11h07.48.245,experiment,2024.1.5,Win32,59.52380952,667045947eb812cbdacbf325,66704e77ed47d583c562d56b,,,,,,,,,,,,,,,,,,,,,,,,,,,,,,,,,,,,1481.592,1487.6559,0.0,1.0,1.0,0.0,1.0,SoundStimuli/YouLightUpMyLife_DebbyBoone_Original5S.wav,,,,,,,,,,,,,,,,,,,,,,,,,,,,,,,,,,,,,,,,,,,,,,,,,,,,,,,,,
,,,,,43195,1,2024-06-17_11h07.48.245,experiment,2024.1.5,Win32,59.52380952,667045947eb812cbdacbf325,66704e77ed47d583c562d56b,,,,,,,,,,,,,,,,,,,,,,,,,,,,,,,,,,,,,,,,,,,,1487.6565,1490.0557,5.577778117,2.3592,0.0,17.0,17.0,4.0,1.0,song_indices/YouLightUpMyLife_DebbyBoone.csv,,,,,,,,,,,,,,,,,,,,,,,,,,,,,,,,,,,,,,,,,,,,,,,
,,,,,43195,1,2024-06-17_11h07.48.245,experiment,2024.1.5,Win32,59.52380952,667045947eb812cbdacbf325,66704e77ed47d583c562d56b,,,,,,,,,,,,,,,,,,,,,,,,,,,,,,,,,,,,1490.0571,1496.2717,0.0,0.0,0.0,0.0,1.0,SoundStimuli/TikTok_Kesha_Original5S.wav,,,,,,,,,,,,,,,,,,,,,,,,,,,,,,,,,,,,,,,,,,,,,,,,,,,,,,,,,
,,,,,43195,1,2024-06-17_11h07.48.245,experiment,2024.1.5,Win32,59.52380952,667045947eb812cbdacbf325,66704e77ed47d583c562d56b,,,,,,,,,,,,,,,,,,,,,,,,,,,,,,,,,,,,1496.3051,1503.8375,0.0,1.0,1.0,1.0,1.0,SoundStimuli/TikTok_Kesha_Cover5S.wav,,,,,,,,,,,,,,,,,,,,,,,,,,,,,,,,,,,,,,,,,,,,,,,,,,,,,,,,,
,,,,,43195,1,2024-06-17_11h07.48.245,experiment,2024.1.5,Win32,59.52380952,667045947eb812cbdacbf325,66704e77ed47d583c562d56b,,,,,,,,,,,,,,,,,,,,,,,,,,,,,,,,,,,,,,,,,,,,1503.8379,1506.2203,5.733333333,2.3459,0.0,18.0,18.0,3.0,1.0,song_indices/TikTok_Kesha.csv,,,,,,,,,,,,,,,,,,,,,,,,,,,,,,,,,,,,,,,,,,,,,,,
,,,,,43195,1,2024-06-17_11h07.48.245,experiment,2024.1.5,Win32,59.52380952,667045947eb812cbdacbf325,66704e77ed47d583c562d56b,,,,,,,,,,,,,,,,,,,,,,,,,,,,,,,,,,,,1506.2216,1513.286,0.0,0.0,0.0,1.0,1.0,SoundStimuli/ComeAndGetYourLove_Redbone_Cover5S.wav,,,,,,,,,,,,,,,,,,,,,,,,,,,,,,,,,,,,,,,,,,,,,,,,,,,,,,,,,
,,,,,43195,1,2024-06-17_11h07.48.245,experiment,2024.1.5,Win32,59.52380952,667045947eb812cbdacbf325,66704e77ed47d583c562d56b,,,,,,,,,,,,,,,,,,,,,,,,,,,,,,,,,,,,1513.3206,1519.4189,0.0,1.0,1.0,0.0,1.0,SoundStimuli/ComeAndGetYourLove_Redbone_Original5S.wav,,,,,,,,,,,,,,,,,,,,,,,,,,,,,,,,,,,,,,,,,,,,,,,,,,,,,,,,,
,,,,,43195,1,2024-06-17_11h07.48.245,experiment,2024.1.5,Win32,59.52380952,667045947eb812cbdacbf325,66704e77ed47d583c562d56b,,,,,,,,,,,,,,,,,,,,,,,,,,,,,,,,,,,,,,,,,,,,1519.4194,1521.4516,5.91111145,1.9942,0.0,19.0,19.0,22.0,1.0,song_indices/ComeAndGetYourLove_Redbone.csv,,,,,,,,,,,,,,,,,,,,,,,,,,,,,,,,,,,,,,,,,,,,,,,
,,,,,43195,1,2024-06-17_11h07.48.245,experiment,2024.1.5,Win32,59.52380952,667045947eb812cbdacbf325,66704e77ed47d583c562d56b,,,,,,,,,,,,,,,,,,,,,,,,,,,,,,,,,,,,1521.4532,1527.3573,0.0,0.0,0.0,1.0,1.0,SoundStimuli/Irreplaceable_Beyonce_Cover5S.wav,,,,,,,,,,,,,,,,,,,,,,,,,,,,,,,,,,,,,,,,,,,,,,,,,,,,,,,,,
,,,,,43195,1,2024-06-17_11h07.48.245,experiment,2024.1.5,Win32,59.52380952,667045947eb812cbdacbf325,66704e77ed47d583c562d56b,,,,,,,,,,,,,,,,,,,,,,,,,,,,,,,,,,,,1527.392,1533.2505,0.0,1.0,1.0,0.0,1.0,SoundStimuli/Irreplaceable_Beyonce_Original5S.wav,,,,,,,,,,,,,,,,,,,,,,,,,,,,,,,,,,,,,,,,,,,,,,,,,,,,,,,,,
,,,,,43195,1,2024-06-17_11h07.48.245,experiment,2024.1.5,Win32,59.52380952,667045947eb812cbdacbf325,66704e77ed47d583c562d56b,,,,,,,,,,,,,,,,,,,,,,,,,,,,,,,,,,,,,,,,,,,,1533.251,1541.7685,5.566666667,8.4695,0.0,20.0,20.0,19.0,1.0,song_indices/Irreplaceable_Beyonce.csv,,,,,,,,,,,,,,,,,,,,,,,,,,,,,,,,,,,,,,,,,,,,,,,
,,,,,43195,1,2024-06-17_11h07.48.245,experiment,2024.1.5,Win32,59.52380952,667045947eb812cbdacbf325,66704e77ed47d583c562d56b,,,,,,,,,,,,,,,,,,,,,,,,,,,,,,,,,,,,1541.7692,1548.865,0.0,0.0,0.0,1.0,1.0,SoundStimuli/BlurredLines_RobinThicke_Cover5S.wav,,,,,,,,,,,,,,,,,,,,,,,,,,,,,,,,,,,,,,,,,,,,,,,,,,,,,,,,,
,,,,,43195,1,2024-06-17_11h07.48.245,experiment,2024.1.5,Win32,59.52380952,667045947eb812cbdacbf325,66704e77ed47d583c562d56b,,,,,,,,,,,,,,,,,,,,,,,,,,,,,,,,,,,,1548.8988,1555.6642,0.0,1.0,1.0,0.0,1.0,SoundStimuli/BlurredLines_RobinThicke_Original5S.wav,,,,,,,,,,,,,,,,,,,,,,,,,,,,,,,,,,,,,,,,,,,,,,,,,,,,,,,,,
,,,,,43195,1,2024-06-17_11h07.48.245,experiment,2024.1.5,Win32,59.52380952,667045947eb812cbdacbf325,66704e77ed47d583c562d56b,,,,,,,,,,,,,,,,,,,,,,,,,,,,,,,,,,,,,,,,,,,,1555.6646,1561.0665,5.65,5.3572,0.0,21.0,21.0,9.0,1.0,song_indices/BlurredLines_RobinThicke.csv,,,,,,,,,,,,,,,,,,,,,,,,,,,,,,,,,,,,,,,,,,,,,,,
,,,,,43195,1,2024-06-17_11h07.48.245,experiment,2024.1.5,Win32,59.52380952,667045947eb812cbdacbf325,66704e77ed47d583c562d56b,,,,,,,,,,,,,,,,,,,,,,,,,,,,,,,,,,,,1561.0671,1567.13,0.0,0.0,0.0,0.0,1.0,SoundStimuli/Weak_SWV_Original5S.wav,,,,,,,,,,,,,,,,,,,,,,,,,,,,,,,,,,,,,,,,,,,,,,,,,,,,,,,,,
,,,,,43195,1,2024-06-17_11h07.48.245,experiment,2024.1.5,Win32,59.52380952,667045947eb812cbdacbf325,66704e77ed47d583c562d56b,,,,,,,,,,,,,,,,,,,,,,,,,,,,,,,,,,,,1567.1664,1573.6453,0.0,1.0,1.0,1.0,1.0,SoundStimuli/Weak_SWV_Cover5S.wav,,,,,,,,,,,,,,,,,,,,,,,,,,,,,,,,,,,,,,,,,,,,,,,,,,,,,,,,,
,,,,,43195,1,2024-06-17_11h07.48.245,experiment,2024.1.5,Win32,59.52380952,667045947eb812cbdacbf325,66704e77ed47d583c562d56b,,,,,,,,,,,,,,,,,,,,,,,,,,,,,,,,,,,,,,,,,,,,1573.6458,1578.8124,5.65,5.1209,0.0,22.0,22.0,6.0,1.0,song_indices/Weak_SWV.csv,,,,,,,,,,,,,,,,,,,,,,,,,,,,,,,,,,,,,,,,,,,,,,,
,,,,,43195,1,2024-06-17_11h07.48.245,experiment,2024.1.5,Win32,59.52380952,667045947eb812cbdacbf325,66704e77ed47d583c562d56b,,,,,,,,,,,,,,,,,,,,,,,,,,,,,,,,,,,,1578.8135,1585.8271,0.0,0.0,0.0,0.0,1.0,SoundStimuli/PokerFace_LadyGaga_Original5S.wav,,,,,,,,,,,,,,,,,,,,,,,,,,,,,,,,,,,,,,,,,,,,,,,,,,,,,,,,,
,,,,,43195,1,2024-06-17_11h07.48.245,experiment,2024.1.5,Win32,59.52380952,667045947eb812cbdacbf325,66704e77ed47d583c562d56b,,,,,,,,,,,,,,,,,,,,,,,,,,,,,,,,,,,,1585.8619,1592.7097,0.0,1.0,1.0,1.0,1.0,SoundStimuli/PokerFace_LadyGaga_Cover5S.wav,,,,,,,,,,,,,,,,,,,,,,,,,,,,,,,,,,,,,,,,,,,,,,,,,,,,,,,,,
,,,,,43195,1,2024-06-17_11h07.48.245,experiment,2024.1.5,Win32,59.52380952,667045947eb812cbdacbf325,66704e77ed47d583c562d56b,,,,,,,,,,,,,,,,,,,,,,,,,,,,,,,,,,,,,,,,,,,,1592.7101,1597.1594,5.894444784,4.405,0.0,23.0,23.0,23.0,1.0,song_indices/PokerFace_LadyGaga.csv,,,,,,,,,,,,,,,,,,,,,,,,,,,,,,,,,,,,,,,,,,,,,,,
,,,,,43195,1,2024-06-17_11h07.48.245,experiment,2024.1.5,Win32,59.52380952,667045947eb812cbdacbf325,66704e77ed47d583c562d56b,,,,,,,,,,,,,,,,,,,,,,,,,,,,,,,,,,,,,,,,,,,,,,,,,,,,,,1597.1595,1597.1596,,,,0.0,2.0,2.0,2.0,1.0,choose_song_b3.csv,,,,,,,,,,,,,,,,,,,,,,,,,,,,,,,,,,,,
,,,,,43195,1,2024-06-17_11h07.48.245,experiment,2024.1.5,Win32,59.52380952,667045947eb812cbdacbf325,66704e77ed47d583c562d56b,,,,,,,,,,,,,,,,,,,,,,,,,,,,,,,,,,,,,,,,,,,,,,,,,,,,,,,,,,,,,,,,,30.0,Item 2,Self taught pianist playing from age 11-20,Item 5,SPOTIFY,5.0,3.0,EXERCISING,Always,Often,Rarely,Rarely,Sometimes,Never,Rarely,Rarely,Sometimes,Often,Always,Sometimes,Rarely,Rarely,Rarely,Never,AFROBEATS,HIP HOP,AFROBEATS,RAGGAE,IT HAS BEEN WAY BETTER OVER TIME,0.0,0.0,0.0,0.0,1.0,,
,,,,,43195,1,2024-06-17_11h07.48.245,experiment,2024.1.5,Win32,59.52380952,667045947eb812cbdacbf325,66704e77ed47d583c562d56b,,,,,,,,,,,,,,,,,,,,,,,,,,,,,,,,,,,,,,,,,,,,,,,,,,,,,,,,,,,,,,,,,,,,,,,,,,,,,,,,,,,,,,,,,,,,,,,,,,,1868.162,1868.6272
