welcome.started,welcome.stopped,space_to_continue.keys,space_to_continue.rt,space_to_continue.duration,participant,session,date,expName,psychopyVersion,OS,frameRate,STUDY_ID,SESSION_ID,consent.consent,consent.consent_recontact,consent_check.started,consent_check.stopped,calibration_ready.started,calibration_ready.stopped,cal_ready.keys,cal_ready.rt,cal_ready.duration,calibration.started,calibration.stopped,mouse.x,mouse.y,mouse.leftButton,mouse.midButton,mouse.rightButton,mouse.time,mouse.clicked_name,move_on.keys,move_on.rt,move_on.duration,instructions.started,instructions.stopped,next.keys,next.rt,next.duration,practice_trial.started,practice_trial.stopped,practice_slider.response,practice_slider.rt,ready.started,ready.stopped,key_resp.keys,key_resp.rt,key_resp.duration,play_sound.started,play_sound.stopped,trials.thisRepN,trials.thisTrialN,trials.thisN,trials.thisIndex,trials.ran,orig_or_cover,rating.started,rating.stopped,slider.response,slider.rt,songs.thisRepN,songs.thisTrialN,songs.thisN,songs.thisIndex,songs.ran,song_id,short_break.started,short_break.stopped,space_to_move_on.keys,space_to_move_on.rt,space_to_move_on.duration,blocks.thisRepN,blocks.thisTrialN,blocks.thisN,blocks.thisIndex,blocks.ran,block,survey.age,survey.musician,survey.music_making,survey.listen_time,survey.medium,survey.music_seeking,survey.music_choice,survey.activities,survey.question1.Ambient,survey.question1.Reggae,survey.question1.Alternative rock,survey.question1.Folk/indie,survey.question1.Classic rock,survey.question1.R&B,survey.question1.Hip hop,survey.question1.A cappella,survey.question1.Country,survey.question1.Jazz,survey.question1.Pop,survey.question1.Metal,survey.question1.Classical,survey.question1.Latin,survey.question1.Electronic (EDM),survey.question1.Disco,survey.other_genres,survey.genres_ranked.text1,survey.genres_ranked.text2,survey.genres_ranked.text3,survey.habit_change,survey.habits,experiment.thisRepN,experiment.thisTrialN,experiment.thisN,experiment.thisIndex,experiment.ran,goodbye.started,goodbye.stopped
0.001,3.152,space,3.076,0.021,75360,1,2024-06-17_15h27.29.415,experiment,2024.1.5,Win32,30.12048193,667045947eb812cbdacbf325,66704cf4bf60d8ce1793e0a7,,,,,,,,,,,,,,,,,,,,,,,,,,,,,,,,,,,,,,,,,,,,,,,,,,,,,,,,,,,,,,,,,,,,,,,,,,,,,,,,,,,,,,,,,,,,,,,,,,,,,
,,,,,75360,1,2024-06-17_15h27.29.415,experiment,2024.1.5,Win32,30.12048193,667045947eb812cbdacbf325,66704cf4bf60d8ce1793e0a7,yes,yes,,,,,,,,,,,,,,,,,,,,,,,,,,,,,,,,,,,,,,,,,,,,,,,,,,,,,,,,,,,,,,,,,,,,,,,,,,,,,,,,,,,,,,,,,,,,,,,,,,,
,,,,,75360,1,2024-06-17_15h27.29.415,experiment,2024.1.5,Win32,30.12048193,667045947eb812cbdacbf325,66704cf4bf60d8ce1793e0a7,,,20.172,20.172,,,,,,,,,,,,,,,,,,,,,,,,,,,,,,,,,,,,,,,,,,,,,,,,,,,,,,,,,,,,,,,,,,,,,,,,,,,,,,,,,,,,,,,,,,,,,,,,,
,,,,,75360,1,2024-06-17_15h27.29.415,experiment,2024.1.5,Win32,30.12048193,667045947eb812cbdacbf325,66704cf4bf60d8ce1793e0a7,,,,,20.175,23.679,space,3.437,,23.679,47.763,"[-0.04337631887456037,-0.0011723329425556857,0.4876905041031653]","[-0.44607268464243843,-0.43669402110199296,-0.17174677608440797]","[1,1,1]","[0,0,0]","[0,0,0]","[2.092000000000013,4.244,14.957999999999998]","[""play_button""]",right,13.996,,47.765,61.295,space,13.365,,61.296,76.736,6.046893318,15.427,76.737,78.571,space,1.781,0.005,78.714,84.584,0.0,0.0,0.0,1.0,1.0,SoundStimuli/IWillAlwaysLoveYou_WhitneyHouston_Cover5S.wav,,,,,,,,,,,,,,,,,,,,,,,,,,,,,,,,,,,,,,,,,,,,,,,,,,,,,,,,,,
,,,,,75360,1,2024-06-17_15h27.29.415,experiment,2024.1.5,Win32,30.12048193,667045947eb812cbdacbf325,66704cf4bf60d8ce1793e0a7,,,,,,,,,,,,,,,,,,,,,,,,,,,,,,,,,,,,84.587,91.003,0.0,1.0,1.0,0.0,1.0,SoundStimuli/IWillAlwaysLoveYou_WhitneyHouston_Original5S.wav,,,,,,,,,,,,,,,,,,,,,,,,,,,,,,,,,,,,,,,,,,,,,,,,,,,,,,,,,,
,,,,,75360,1,2024-06-17_15h27.29.415,experiment,2024.1.5,Win32,30.12048193,667045947eb812cbdacbf325,66704cf4bf60d8ce1793e0a7,,,,,,,,,,,,,,,,,,,,,,,,,,,,,,,,,,,,,,,,,,,,91.005,94.461,6.982415006,3.417,0.0,0.0,0.0,10.0,1.0,song_indices/IWillAlwaysLoveYou_WhitneyHouston.csv,,,,,,,,,,,,,,,,,,,,,,,,,,,,,,,,,,,,,,,,,,,,,,,,
,,,,,75360,1,2024-06-17_15h27.29.415,experiment,2024.1.5,Win32,30.12048193,667045947eb812cbdacbf325,66704cf4bf60d8ce1793e0a7,,,,,,,,,,,,,,,,,,,,,,,,,,,,,,,,,,,,94.471,100.691,0.0,0.0,0.0,1.0,1.0,SoundStimuli/NoScrubs_TLC_Cover5S.wav,,,,,,,,,,,,,,,,,,,,,,,,,,,,,,,,,,,,,,,,,,,,,,,,,,,,,,,,,,
,,,,,75360,1,2024-06-17_15h27.29.415,experiment,2024.1.5,Win32,30.12048193,667045947eb812cbdacbf325,66704cf4bf60d8ce1793e0a7,,,,,,,,,,,,,,,,,,,,,,,,,,,,,,,,,,,,100.704,106.903,0.0,1.0,1.0,0.0,1.0,SoundStimuli/NoScrubs_TLC_Original5S.wav,,,,,,,,,,,,,,,,,,,,,,,,,,,,,,,,,,,,,,,,,,,,,,,,,,,,,,,,,,
,,,,,75360,1,2024-06-17_15h27.29.415,experiment,2024.1.5,Win32,30.12048193,667045947eb812cbdacbf325,66704cf4bf60d8ce1793e0a7,,,,,,,,,,,,,,,,,,,,,,,,,,,,,,,,,,,,,,,,,,,,106.917,108.773,4.977725674,1.835,0.0,1.0,1.0,14.0,1.0,song_indices/NoScrubs_TLC.csv,,,,,,,,,,,,,,,,,,,,,,,,,,,,,,,,,,,,,,,,,,,,,,,,
,,,,,75360,1,2024-06-17_15h27.29.415,experiment,2024.1.5,Win32,30.12048193,667045947eb812cbdacbf325,66704cf4bf60d8ce1793e0a7,,,,,,,,,,,,,,,,,,,,,,,,,,,,,,,,,,,,108.792,116.519,0.0,0.0,0.0,0.0,1.0,SoundStimuli/Happy_PharellWilliams_Original5S.wav,,,,,,,,,,,,,,,,,,,,,,,,,,,,,,,,,,,,,,,,,,,,,,,,,,,,,,,,,,
,,,,,75360,1,2024-06-17_15h27.29.415,experiment,2024.1.5,Win32,30.12048193,667045947eb812cbdacbf325,66704cf4bf60d8ce1793e0a7,,,,,,,,,,,,,,,,,,,,,,,,,,,,,,,,,,,,116.522,123.892,0.0,1.0,1.0,1.0,1.0,SoundStimuli/Happy_PharellWilliams_Cover5S.wav,,,,,,,,,,,,,,,,,,,,,,,,,,,,,,,,,,,,,,,,,,,,,,,,,,,,,,,,,,
,,,,,75360,1,2024-06-17_15h27.29.415,experiment,2024.1.5,Win32,30.12048193,667045947eb812cbdacbf325,66704cf4bf60d8ce1793e0a7,,,,,,,,,,,,,,,,,,,,,,,,,,,,,,,,,,,,,,,,,,,,123.897,126.397,4.963657679,2.494,0.0,2.0,2.0,7.0,1.0,song_indices/Happy_PharellWilliams.csv,,,,,,,,,,,,,,,,,,,,,,,,,,,,,,,,,,,,,,,,,,,,,,,,
,,,,,75360,1,2024-06-17_15h27.29.415,experiment,2024.1.5,Win32,30.12048193,667045947eb812cbdacbf325,66704cf4bf60d8ce1793e0a7,,,,,,,,,,,,,,,,,,,,,,,,,,,,,,,,,,,,126.405,133.297,0.0,0.0,0.0,1.0,1.0,SoundStimuli/PartyRockAnthem_LMFAO_Cover5S.wav,,,,,,,,,,,,,,,,,,,,,,,,,,,,,,,,,,,,,,,,,,,,,,,,,,,,,,,,,,
,,,,,75360,1,2024-06-17_15h27.29.415,experiment,2024.1.5,Win32,30.12048193,667045947eb812cbdacbf325,66704cf4bf60d8ce1793e0a7,,,,,,,,,,,,,,,,,,,,,,,,,,,,,,,,,,,,133.306,140.064,0.0,1.0,1.0,0.0,1.0,SoundStimuli/PartyRockAnthem_LMFAO_Original5S.wav,,,,,,,,,,,,,,,,,,,,,,,,,,,,,,,,,,,,,,,,,,,,,,,,,,,,,,,,,,
,,,,,75360,1,2024-06-17_15h27.29.415,experiment,2024.1.5,Win32,30.12048193,667045947eb812cbdacbf325,66704cf4bf60d8ce1793e0a7,,,,,,,,,,,,,,,,,,,,,,,,,,,,,,,,,,,,,,,,,,,,140.064,141.362,5.005861665,1.289,0.0,3.0,3.0,2.0,1.0,song_indices/PartyRockAnthem_LMFAO.csv,,,,,,,,,,,,,,,,,,,,,,,,,,,,,,,,,,,,,,,,,,,,,,,,
,,,,,75360,1,2024-06-17_15h27.29.415,experiment,2024.1.5,Win32,30.12048193,667045947eb812cbdacbf325,66704cf4bf60d8ce1793e0a7,,,,,,,,,,,,,,,,,,,,,,,,,,,,,,,,,,,,141.378,147.608,0.0,0.0,0.0,1.0,1.0,SoundStimuli/RockWithYou_MichaelJackson_Cover5S.wav,,,,,,,,,,,,,,,,,,,,,,,,,,,,,,,,,,,,,,,,,,,,,,,,,,,,,,,,,,
,,,,,75360,1,2024-06-17_15h27.29.415,experiment,2024.1.5,Win32,30.12048193,667045947eb812cbdacbf325,66704cf4bf60d8ce1793e0a7,,,,,,,,,,,,,,,,,,,,,,,,,,,,,,,,,,,,147.613,153.925,0.0,1.0,1.0,0.0,1.0,SoundStimuli/RockWithYou_MichaelJackson_Original5S.wav,,,,,,,,,,,,,,,,,,,,,,,,,,,,,,,,,,,,,,,,,,,,,,,,,,,,,,,,,,
,,,,,75360,1,2024-06-17_15h27.29.415,experiment,2024.1.5,Win32,30.12048193,667045947eb812cbdacbf325,66704cf4bf60d8ce1793e0a7,,,,,,,,,,,,,,,,,,,,,,,,,,,,,,,,,,,,,,,,,,,,153.926,156.273,4.0,2.317,0.0,4.0,4.0,16.0,1.0,song_indices/RockWithYou_MichaelJackson.csv,,,,,,,,,,,,,,,,,,,,,,,,,,,,,,,,,,,,,,,,,,,,,,,,
,,,,,75360,1,2024-06-17_15h27.29.415,experiment,2024.1.5,Win32,30.12048193,667045947eb812cbdacbf325,66704cf4bf60d8ce1793e0a7,,,,,,,,,,,,,,,,,,,,,,,,,,,,,,,,,,,,156.281,162.177,0.0,0.0,0.0,0.0,1.0,SoundStimuli/EyeOfTheTiger_Survivor_Original5S.wav,,,,,,,,,,,,,,,,,,,,,,,,,,,,,,,,,,,,,,,,,,,,,,,,,,,,,,,,,,
,,,,,75360,1,2024-06-17_15h27.29.415,experiment,2024.1.5,Win32,30.12048193,667045947eb812cbdacbf325,66704cf4bf60d8ce1793e0a7,,,,,,,,,,,,,,,,,,,,,,,,,,,,,,,,,,,,162.192,168.317,0.0,1.0,1.0,1.0,1.0,SoundStimuli/EyeOfTheTiger_Survivor_Cover5S.wav,,,,,,,,,,,,,,,,,,,,,,,,,,,,,,,,,,,,,,,,,,,,,,,,,,,,,,,,,,
,,,,,75360,1,2024-06-17_15h27.29.415,experiment,2024.1.5,Win32,30.12048193,667045947eb812cbdacbf325,66704cf4bf60d8ce1793e0a7,,,,,,,,,,,,,,,,,,,,,,,,,,,,,,,,,,,,,,,,,,,,168.32,169.214,5.976553341,0.881,0.0,5.0,5.0,11.0,1.0,song_indices/EyeOfTheTiger_Survivor.csv,,,,,,,,,,,,,,,,,,,,,,,,,,,,,,,,,,,,,,,,,,,,,,,,
,,,,,75360,1,2024-06-17_15h27.29.415,experiment,2024.1.5,Win32,30.12048193,667045947eb812cbdacbf325,66704cf4bf60d8ce1793e0a7,,,,,,,,,,,,,,,,,,,,,,,,,,,,,,,,,,,,169.231,175.506,0.0,0.0,0.0,0.0,1.0,SoundStimuli/ItsAllInTheGame_TommyEdwards_Original5S.wav,,,,,,,,,,,,,,,,,,,,,,,,,,,,,,,,,,,,,,,,,,,,,,,,,,,,,,,,,,
,,,,,75360,1,2024-06-17_15h27.29.415,experiment,2024.1.5,Win32,30.12048193,667045947eb812cbdacbf325,66704cf4bf60d8ce1793e0a7,,,,,,,,,,,,,,,,,,,,,,,,,,,,,,,,,,,,175.509,181.916,0.0,1.0,1.0,1.0,1.0,SoundStimuli/ItsAllInTheGame_TommyEdwards_Cover5S.wav,,,,,,,,,,,,,,,,,,,,,,,,,,,,,,,,,,,,,,,,,,,,,,,,,,,,,,,,,,
,,,,,75360,1,2024-06-17_15h27.29.415,experiment,2024.1.5,Win32,30.12048193,667045947eb812cbdacbf325,66704cf4bf60d8ce1793e0a7,,,,,,,,,,,,,,,,,,,,,,,,,,,,,,,,,,,,,,,,,,,,181.918,182.993,4.049237984,1.067,0.0,6.0,6.0,13.0,1.0,song_indices/ItsAllInTheGame_TommyEdwards.csv,,,,,,,,,,,,,,,,,,,,,,,,,,,,,,,,,,,,,,,,,,,,,,,,
,,,,,75360,1,2024-06-17_15h27.29.415,experiment,2024.1.5,Win32,30.12048193,667045947eb812cbdacbf325,66704cf4bf60d8ce1793e0a7,,,,,,,,,,,,,,,,,,,,,,,,,,,,,,,,,,,,183.007,189.59,0.0,0.0,0.0,1.0,1.0,SoundStimuli/GoodGollyMissMolly_LittleRichard_Cover5S.wav,,,,,,,,,,,,,,,,,,,,,,,,,,,,,,,,,,,,,,,,,,,,,,,,,,,,,,,,,,
,,,,,75360,1,2024-06-17_15h27.29.415,experiment,2024.1.5,Win32,30.12048193,667045947eb812cbdacbf325,66704cf4bf60d8ce1793e0a7,,,,,,,,,,,,,,,,,,,,,,,,,,,,,,,,,,,,189.592,195.857,0.0,1.0,1.0,0.0,1.0,SoundStimuli/GoodGollyMissMolly_LittleRichard_Original5S.wav,,,,,,,,,,,,,,,,,,,,,,,,,,,,,,,,,,,,,,,,,,,,,,,,,,,,,,,,,,
,,,,,75360,1,2024-06-17_15h27.29.415,experiment,2024.1.5,Win32,30.12048193,667045947eb812cbdacbf325,66704cf4bf60d8ce1793e0a7,,,,,,,,,,,,,,,,,,,,,,,,,,,,,,,,,,,,,,,,,,,,195.86,196.944,2.98007034,1.066,0.0,7.0,7.0,0.0,1.0,song_indices/GoodGollyMissMolly_LittleRichard.csv,,,,,,,,,,,,,,,,,,,,,,,,,,,,,,,,,,,,,,,,,,,,,,,,
,,,,,75360,1,2024-06-17_15h27.29.415,experiment,2024.1.5,Win32,30.12048193,667045947eb812cbdacbf325,66704cf4bf60d8ce1793e0a7,,,,,,,,,,,,,,,,,,,,,,,,,,,,,,,,,,,,196.962,203.208,0.0,0.0,0.0,1.0,1.0,SoundStimuli/NoOne_AliciaKeys_Cover5S.wav,,,,,,,,,,,,,,,,,,,,,,,,,,,,,,,,,,,,,,,,,,,,,,,,,,,,,,,,,,
,,,,,75360,1,2024-06-17_15h27.29.415,experiment,2024.1.5,Win32,30.12048193,667045947eb812cbdacbf325,66704cf4bf60d8ce1793e0a7,,,,,,,,,,,,,,,,,,,,,,,,,,,,,,,,,,,,203.211,210.939,0.0,1.0,1.0,0.0,1.0,SoundStimuli/NoOne_AliciaKeys_Original5S.wav,,,,,,,,,,,,,,,,,,,,,,,,,,,,,,,,,,,,,,,,,,,,,,,,,,,,,,,,,,
,,,,,75360,1,2024-06-17_15h27.29.415,experiment,2024.1.5,Win32,30.12048193,667045947eb812cbdacbf325,66704cf4bf60d8ce1793e0a7,,,,,,,,,,,,,,,,,,,,,,,,,,,,,,,,,,,,,,,,,,,,210.941,212.188,2.874560375,1.239,0.0,8.0,8.0,19.0,1.0,song_indices/NoOne_AliciaKeys.csv,,,,,,,,,,,,,,,,,,,,,,,,,,,,,,,,,,,,,,,,,,,,,,,,
,,,,,75360,1,2024-06-17_15h27.29.415,experiment,2024.1.5,Win32,30.12048193,667045947eb812cbdacbf325,66704cf4bf60d8ce1793e0a7,,,,,,,,,,,,,,,,,,,,,,,,,,,,,,,,,,,,212.195,219.237,0.0,0.0,0.0,1.0,1.0,SoundStimuli/UptownFunk_MarkRonson_Cover5S.wav,,,,,,,,,,,,,,,,,,,,,,,,,,,,,,,,,,,,,,,,,,,,,,,,,,,,,,,,,,
,,,,,75360,1,2024-06-17_15h27.29.415,experiment,2024.1.5,Win32,30.12048193,667045947eb812cbdacbf325,66704cf4bf60d8ce1793e0a7,,,,,,,,,,,,,,,,,,,,,,,,,,,,,,,,,,,,219.238,226.468,0.0,1.0,1.0,0.0,1.0,SoundStimuli/UptownFunk_MarkRonson_Original5S.wav,,,,,,,,,,,,,,,,,,,,,,,,,,,,,,,,,,,,,,,,,,,,,,,,,,,,,,,,,,
,,,,,75360,1,2024-06-17_15h27.29.415,experiment,2024.1.5,Win32,30.12048193,667045947eb812cbdacbf325,66704cf4bf60d8ce1793e0a7,,,,,,,,,,,,,,,,,,,,,,,,,,,,,,,,,,,,,,,,,,,,226.468,227.676,5.005861665,1.193,0.0,9.0,9.0,15.0,1.0,song_indices/UptownFunk_MarkRonson.csv,,,,,,,,,,,,,,,,,,,,,,,,,,,,,,,,,,,,,,,,,,,,,,,,
,,,,,75360,1,2024-06-17_15h27.29.415,experiment,2024.1.5,Win32,30.12048193,667045947eb812cbdacbf325,66704cf4bf60d8ce1793e0a7,,,,,,,,,,,,,,,,,,,,,,,,,,,,,,,,,,,,227.691,233.465,0.0,0.0,0.0,1.0,1.0,SoundStimuli/SmellsLikeTeenSpirit_Nirvana_Cover5S.wav,,,,,,,,,,,,,,,,,,,,,,,,,,,,,,,,,,,,,,,,,,,,,,,,,,,,,,,,,,
,,,,,75360,1,2024-06-17_15h27.29.415,experiment,2024.1.5,Win32,30.12048193,667045947eb812cbdacbf325,66704cf4bf60d8ce1793e0a7,,,,,,,,,,,,,,,,,,,,,,,,,,,,,,,,,,,,233.471,239.683,0.0,1.0,1.0,0.0,1.0,SoundStimuli/SmellsLikeTeenSpirit_Nirvana_Original5S.wav,,,,,,,,,,,,,,,,,,,,,,,,,,,,,,,,,,,,,,,,,,,,,,,,,,,,,,,,,,
,,,,,75360,1,2024-06-17_15h27.29.415,experiment,2024.1.5,Win32,30.12048193,667045947eb812cbdacbf325,66704cf4bf60d8ce1793e0a7,,,,,,,,,,,,,,,,,,,,,,,,,,,,,,,,,,,,,,,,,,,,239.684,240.932,4.161781946,1.24,0.0,10.0,10.0,8.0,1.0,song_indices/SmellsLikeTeenSpirit_Nirvana.csv,,,,,,,,,,,,,,,,,,,,,,,,,,,,,,,,,,,,,,,,,,,,,,,,
,,,,,75360,1,2024-06-17_15h27.29.415,experiment,2024.1.5,Win32,30.12048193,667045947eb812cbdacbf325,66704cf4bf60d8ce1793e0a7,,,,,,,,,,,,,,,,,,,,,,,,,,,,,,,,,,,,240.94,249.868,0.0,0.0,0.0,1.0,1.0,SoundStimuli/HeyYa_Outkast_Cover5S.wav,,,,,,,,,,,,,,,,,,,,,,,,,,,,,,,,,,,,,,,,,,,,,,,,,,,,,,,,,,
,,,,,75360,1,2024-06-17_15h27.29.415,experiment,2024.1.5,Win32,30.12048193,667045947eb812cbdacbf325,66704cf4bf60d8ce1793e0a7,,,,,,,,,,,,,,,,,,,,,,,,,,,,,,,,,,,,249.87,256.147,0.0,1.0,1.0,0.0,1.0,SoundStimuli/HeyYa_Outkast_Original5S.wav,,,,,,,,,,,,,,,,,,,,,,,,,,,,,,,,,,,,,,,,,,,,,,,,,,,,,,,,,,
,,,,,75360,1,2024-06-17_15h27.29.415,experiment,2024.1.5,Win32,30.12048193,667045947eb812cbdacbf325,66704cf4bf60d8ce1793e0a7,,,,,,,,,,,,,,,,,,,,,,,,,,,,,,,,,,,,,,,,,,,,256.15,257.086,1.896834701,0.93,0.0,11.0,11.0,22.0,1.0,song_indices/HeyYa_Outkast.csv,,,,,,,,,,,,,,,,,,,,,,,,,,,,,,,,,,,,,,,,,,,,,,,,
,,,,,75360,1,2024-06-17_15h27.29.415,experiment,2024.1.5,Win32,30.12048193,667045947eb812cbdacbf325,66704cf4bf60d8ce1793e0a7,,,,,,,,,,,,,,,,,,,,,,,,,,,,,,,,,,,,257.102,263.13,0.0,0.0,0.0,1.0,1.0,SoundStimuli/StandByMe_BenEKing_Cover5S.wav,,,,,,,,,,,,,,,,,,,,,,,,,,,,,,,,,,,,,,,,,,,,,,,,,,,,,,,,,,
,,,,,75360,1,2024-06-17_15h27.29.415,experiment,2024.1.5,Win32,30.12048193,667045947eb812cbdacbf325,66704cf4bf60d8ce1793e0a7,,,,,,,,,,,,,,,,,,,,,,,,,,,,,,,,,,,,263.138,269.051,0.0,1.0,1.0,0.0,1.0,SoundStimuli/StandByMe_BenEKing_Original5S.wav,,,,,,,,,,,,,,,,,,,,,,,,,,,,,,,,,,,,,,,,,,,,,,,,,,,,,,,,,,
,,,,,75360,1,2024-06-17_15h27.29.415,experiment,2024.1.5,Win32,30.12048193,667045947eb812cbdacbf325,66704cf4bf60d8ce1793e0a7,,,,,,,,,,,,,,,,,,,,,,,,,,,,,,,,,,,,,,,,,,,,269.052,270.032,3.127784291,0.973,0.0,12.0,12.0,1.0,1.0,song_indices/StandByMe_BenEKing.csv,,,,,,,,,,,,,,,,,,,,,,,,,,,,,,,,,,,,,,,,,,,,,,,,
,,,,,75360,1,2024-06-17_15h27.29.415,experiment,2024.1.5,Win32,30.12048193,667045947eb812cbdacbf325,66704cf4bf60d8ce1793e0a7,,,,,,,,,,,,,,,,,,,,,,,,,,,,,,,,,,,,270.049,276.252,0.0,0.0,0.0,1.0,1.0,SoundStimuli/GimmeShelter_RollingStones_Cover5S.wav,,,,,,,,,,,,,,,,,,,,,,,,,,,,,,,,,,,,,,,,,,,,,,,,,,,,,,,,,,
,,,,,75360,1,2024-06-17_15h27.29.415,experiment,2024.1.5,Win32,30.12048193,667045947eb812cbdacbf325,66704cf4bf60d8ce1793e0a7,,,,,,,,,,,,,,,,,,,,,,,,,,,,,,,,,,,,276.253,282.369,0.0,1.0,1.0,0.0,1.0,SoundStimuli/GimmeShelter_RollingStones_Original5S.wav,,,,,,,,,,,,,,,,,,,,,,,,,,,,,,,,,,,,,,,,,,,,,,,,,,,,,,,,,,
,,,,,75360,1,2024-06-17_15h27.29.415,experiment,2024.1.5,Win32,30.12048193,667045947eb812cbdacbf325,66704cf4bf60d8ce1793e0a7,,,,,,,,,,,,,,,,,,,,,,,,,,,,,,,,,,,,,,,,,,,,282.371,283.468,5.92028136,1.093,0.0,13.0,13.0,20.0,1.0,song_indices/GimmeShelter_RollingStones.csv,,,,,,,,,,,,,,,,,,,,,,,,,,,,,,,,,,,,,,,,,,,,,,,,
,,,,,75360,1,2024-06-17_15h27.29.415,experiment,2024.1.5,Win32,30.12048193,667045947eb812cbdacbf325,66704cf4bf60d8ce1793e0a7,,,,,,,,,,,,,,,,,,,,,,,,,,,,,,,,,,,,283.475,289.91,0.0,0.0,0.0,1.0,1.0,SoundStimuli/Fallin_AliciaKeys_Cover5S.wav,,,,,,,,,,,,,,,,,,,,,,,,,,,,,,,,,,,,,,,,,,,,,,,,,,,,,,,,,,
,,,,,75360,1,2024-06-17_15h27.29.415,experiment,2024.1.5,Win32,30.12048193,667045947eb812cbdacbf325,66704cf4bf60d8ce1793e0a7,,,,,,,,,,,,,,,,,,,,,,,,,,,,,,,,,,,,289.912,296.077,0.0,1.0,1.0,0.0,1.0,SoundStimuli/Fallin_AliciaKeys_Original5S.wav,,,,,,,,,,,,,,,,,,,,,,,,,,,,,,,,,,,,,,,,,,,,,,,,,,,,,,,,,,
,,,,,75360,1,2024-06-17_15h27.29.415,experiment,2024.1.5,Win32,30.12048193,667045947eb812cbdacbf325,66704cf4bf60d8ce1793e0a7,,,,,,,,,,,,,,,,,,,,,,,,,,,,,,,,,,,,,,,,,,,,296.079,296.994,5.062133646,0.909,0.0,14.0,14.0,12.0,1.0,song_indices/Fallin_AliciaKeys.csv,,,,,,,,,,,,,,,,,,,,,,,,,,,,,,,,,,,,,,,,,,,,,,,,
,,,,,75360,1,2024-06-17_15h27.29.415,experiment,2024.1.5,Win32,30.12048193,667045947eb812cbdacbf325,66704cf4bf60d8ce1793e0a7,,,,,,,,,,,,,,,,,,,,,,,,,,,,,,,,,,,,297.01,303.565,0.0,0.0,0.0,0.0,1.0,SoundStimuli/CrazyInLove_BeyonceFtJayZ_Original5S.wav,,,,,,,,,,,,,,,,,,,,,,,,,,,,,,,,,,,,,,,,,,,,,,,,,,,,,,,,,,
,,,,,75360,1,2024-06-17_15h27.29.415,experiment,2024.1.5,Win32,30.12048193,667045947eb812cbdacbf325,66704cf4bf60d8ce1793e0a7,,,,,,,,,,,,,,,,,,,,,,,,,,,,,,,,,,,,303.571,313.816,0.0,1.0,1.0,1.0,1.0,SoundStimuli/CrazyInLove_BeyonceFtJayZ_Cover5S.wav,,,,,,,,,,,,,,,,,,,,,,,,,,,,,,,,,,,,,,,,,,,,,,,,,,,,,,,,,,
,,,,,75360,1,2024-06-17_15h27.29.415,experiment,2024.1.5,Win32,30.12048193,667045947eb812cbdacbf325,66704cf4bf60d8ce1793e0a7,,,,,,,,,,,,,,,,,,,,,,,,,,,,,,,,,,,,,,,,,,,,313.819,314.98,3.936694021,1.153,0.0,15.0,15.0,3.0,1.0,song_indices/CrazyInLove_BeyonceFtJayZ.csv,,,,,,,,,,,,,,,,,,,,,,,,,,,,,,,,,,,,,,,,,,,,,,,,
,,,,,75360,1,2024-06-17_15h27.29.415,experiment,2024.1.5,Win32,30.12048193,667045947eb812cbdacbf325,66704cf4bf60d8ce1793e0a7,,,,,,,,,,,,,,,,,,,,,,,,,,,,,,,,,,,,314.987,321.195,0.0,0.0,0.0,0.0,1.0,SoundStimuli/TheBoyIsMine_BrandyMonica_Original5S.wav,,,,,,,,,,,,,,,,,,,,,,,,,,,,,,,,,,,,,,,,,,,,,,,,,,,,,,,,,,
,,,,,75360,1,2024-06-17_15h27.29.415,experiment,2024.1.5,Win32,30.12048193,667045947eb812cbdacbf325,66704cf4bf60d8ce1793e0a7,,,,,,,,,,,,,,,,,,,,,,,,,,,,,,,,,,,,321.2,327.149,0.0,1.0,1.0,1.0,1.0,SoundStimuli/TheBoyIsMine_BrandyMonica_Cover5S.wav,,,,,,,,,,,,,,,,,,,,,,,,,,,,,,,,,,,,,,,,,,,,,,,,,,,,,,,,,,
,,,,,75360,1,2024-06-17_15h27.29.415,experiment,2024.1.5,Win32,30.12048193,667045947eb812cbdacbf325,66704cf4bf60d8ce1793e0a7,,,,,,,,,,,,,,,,,,,,,,,,,,,,,,,,,,,,,,,,,,,,327.15,328.343,5.146541618,1.185,0.0,16.0,16.0,6.0,1.0,song_indices/TheBoyIsMine_BrandyMonica.csv,,,,,,,,,,,,,,,,,,,,,,,,,,,,,,,,,,,,,,,,,,,,,,,,
,,,,,75360,1,2024-06-17_15h27.29.415,experiment,2024.1.5,Win32,30.12048193,667045947eb812cbdacbf325,66704cf4bf60d8ce1793e0a7,,,,,,,,,,,,,,,,,,,,,,,,,,,,,,,,,,,,328.358,334.824,0.0,0.0,0.0,0.0,1.0,SoundStimuli/ShapeofYou_EdSheeran_Original5S.wav,,,,,,,,,,,,,,,,,,,,,,,,,,,,,,,,,,,,,,,,,,,,,,,,,,,,,,,,,,
,,,,,75360,1,2024-06-17_15h27.29.415,experiment,2024.1.5,Win32,30.12048193,667045947eb812cbdacbf325,66704cf4bf60d8ce1793e0a7,,,,,,,,,,,,,,,,,,,,,,,,,,,,,,,,,,,,334.83,341.149,0.0,1.0,1.0,1.0,1.0,SoundStimuli/ShapeofYou_EdSheeran_Cover5S.wav,,,,,,,,,,,,,,,,,,,,,,,,,,,,,,,,,,,,,,,,,,,,,,,,,,,,,,,,,,
,,,,,75360,1,2024-06-17_15h27.29.415,experiment,2024.1.5,Win32,30.12048193,667045947eb812cbdacbf325,66704cf4bf60d8ce1793e0a7,,,,,,,,,,,,,,,,,,,,,,,,,,,,,,,,,,,,,,,,,,,,341.15,343.081,3.535756155,1.917,0.0,17.0,17.0,21.0,1.0,song_indices/ShapeofYou_EdSheeran.csv,,,,,,,,,,,,,,,,,,,,,,,,,,,,,,,,,,,,,,,,,,,,,,,,
,,,,,75360,1,2024-06-17_15h27.29.415,experiment,2024.1.5,Win32,30.12048193,667045947eb812cbdacbf325,66704cf4bf60d8ce1793e0a7,,,,,,,,,,,,,,,,,,,,,,,,,,,,,,,,,,,,343.103,349.305,0.0,0.0,0.0,0.0,1.0,SoundStimuli/BetteDavisEyes_KimCarnes_Original5S.wav,,,,,,,,,,,,,,,,,,,,,,,,,,,,,,,,,,,,,,,,,,,,,,,,,,,,,,,,,,
,,,,,75360,1,2024-06-17_15h27.29.415,experiment,2024.1.5,Win32,30.12048193,667045947eb812cbdacbf325,66704cf4bf60d8ce1793e0a7,,,,,,,,,,,,,,,,,,,,,,,,,,,,,,,,,,,,349.308,355.003,0.0,1.0,1.0,1.0,1.0,SoundStimuli/BetteDavisEyes_KimCarnes_Cover5S.wav,,,,,,,,,,,,,,,,,,,,,,,,,,,,,,,,,,,,,,,,,,,,,,,,,,,,,,,,,,
,,,,,75360,1,2024-06-17_15h27.29.415,experiment,2024.1.5,Win32,30.12048193,667045947eb812cbdacbf325,66704cf4bf60d8ce1793e0a7,,,,,,,,,,,,,,,,,,,,,,,,,,,,,,,,,,,,,,,,,,,,355.005,355.835,6.989449004,0.822,0.0,18.0,18.0,5.0,1.0,song_indices/BetteDavisEyes_KimCarnes.csv,,,,,,,,,,,,,,,,,,,,,,,,,,,,,,,,,,,,,,,,,,,,,,,,
,,,,,75360,1,2024-06-17_15h27.29.415,experiment,2024.1.5,Win32,30.12048193,667045947eb812cbdacbf325,66704cf4bf60d8ce1793e0a7,,,,,,,,,,,,,,,,,,,,,,,,,,,,,,,,,,,,355.839,362.181,0.0,0.0,0.0,1.0,1.0,SoundStimuli/Stronger_KanyeWest_Cover5S.wav,,,,,,,,,,,,,,,,,,,,,,,,,,,,,,,,,,,,,,,,,,,,,,,,,,,,,,,,,,
,,,,,75360,1,2024-06-17_15h27.29.415,experiment,2024.1.5,Win32,30.12048193,667045947eb812cbdacbf325,66704cf4bf60d8ce1793e0a7,,,,,,,,,,,,,,,,,,,,,,,,,,,,,,,,,,,,362.191,368.275,0.0,1.0,1.0,0.0,1.0,SoundStimuli/Stronger_KanyeWest_Original5S.wav,,,,,,,,,,,,,,,,,,,,,,,,,,,,,,,,,,,,,,,,,,,,,,,,,,,,,,,,,,
,,,,,75360,1,2024-06-17_15h27.29.415,experiment,2024.1.5,Win32,30.12048193,667045947eb812cbdacbf325,66704cf4bf60d8ce1793e0a7,,,,,,,,,,,,,,,,,,,,,,,,,,,,,,,,,,,,,,,,,,,,368.28,369.317,4.070339977,1.024,0.0,19.0,19.0,9.0,1.0,song_indices/Stronger_KanyeWest.csv,,,,,,,,,,,,,,,,,,,,,,,,,,,,,,,,,,,,,,,,,,,,,,,,
,,,,,75360,1,2024-06-17_15h27.29.415,experiment,2024.1.5,Win32,30.12048193,667045947eb812cbdacbf325,66704cf4bf60d8ce1793e0a7,,,,,,,,,,,,,,,,,,,,,,,,,,,,,,,,,,,,369.326,377.31,0.0,0.0,0.0,1.0,1.0,SoundStimuli/TheBattleOfNewOrleans_JohnnyHorton_Cover5S.wav,,,,,,,,,,,,,,,,,,,,,,,,,,,,,,,,,,,,,,,,,,,,,,,,,,,,,,,,,,
,,,,,75360,1,2024-06-17_15h27.29.415,experiment,2024.1.5,Win32,30.12048193,667045947eb812cbdacbf325,66704cf4bf60d8ce1793e0a7,,,,,,,,,,,,,,,,,,,,,,,,,,,,,,,,,,,,377.318,383.547,0.0,1.0,1.0,0.0,1.0,SoundStimuli/TheBattleOfNewOrleans_JohnnyHorton_Original5S.wav,,,,,,,,,,,,,,,,,,,,,,,,,,,,,,,,,,,,,,,,,,,,,,,,,,,,,,,,,,
,,,,,75360,1,2024-06-17_15h27.29.415,experiment,2024.1.5,Win32,30.12048193,667045947eb812cbdacbf325,66704cf4bf60d8ce1793e0a7,,,,,,,,,,,,,,,,,,,,,,,,,,,,,,,,,,,,,,,,,,,,383.548,385.082,5.041031653,1.519,0.0,20.0,20.0,4.0,1.0,song_indices/TheBattleOfNewOrleans_JohnnyHorton.csv,,,,,,,,,,,,,,,,,,,,,,,,,,,,,,,,,,,,,,,,,,,,,,,,
,,,,,75360,1,2024-06-17_15h27.29.415,experiment,2024.1.5,Win32,30.12048193,667045947eb812cbdacbf325,66704cf4bf60d8ce1793e0a7,,,,,,,,,,,,,,,,,,,,,,,,,,,,,,,,,,,,385.088,391.684,0.0,0.0,0.0,1.0,1.0,SoundStimuli/GetUrFreakOn_MissyElliot_Cover5S.wav,,,,,,,,,,,,,,,,,,,,,,,,,,,,,,,,,,,,,,,,,,,,,,,,,,,,,,,,,,
,,,,,75360,1,2024-06-17_15h27.29.415,experiment,2024.1.5,Win32,30.12048193,667045947eb812cbdacbf325,66704cf4bf60d8ce1793e0a7,,,,,,,,,,,,,,,,,,,,,,,,,,,,,,,,,,,,391.686,397.762,0.0,1.0,1.0,0.0,1.0,SoundStimuli/GetUrFreakOn_MissyElliot_Original5S.wav,,,,,,,,,,,,,,,,,,,,,,,,,,,,,,,,,,,,,,,,,,,,,,,,,,,,,,,,,,
,,,,,75360,1,2024-06-17_15h27.29.415,experiment,2024.1.5,Win32,30.12048193,667045947eb812cbdacbf325,66704cf4bf60d8ce1793e0a7,,,,,,,,,,,,,,,,,,,,,,,,,,,,,,,,,,,,,,,,,,,,397.765,399.06,3.254396249,1.277,0.0,21.0,21.0,18.0,1.0,song_indices/GetUrFreakOn_MissyElliot.csv,,,,,,,,,,,,,,,,,,,,,,,,,,,,,,,,,,,,,,,,,,,,,,,,
,,,,,75360,1,2024-06-17_15h27.29.415,experiment,2024.1.5,Win32,30.12048193,667045947eb812cbdacbf325,66704cf4bf60d8ce1793e0a7,,,,,,,,,,,,,,,,,,,,,,,,,,,,,,,,,,,,399.065,405.046,0.0,0.0,0.0,0.0,1.0,SoundStimuli/IWalkTheLine_JohnnyCash_Original5S.wav,,,,,,,,,,,,,,,,,,,,,,,,,,,,,,,,,,,,,,,,,,,,,,,,,,,,,,,,,,
,,,,,75360,1,2024-06-17_15h27.29.415,experiment,2024.1.5,Win32,30.12048193,667045947eb812cbdacbf325,66704cf4bf60d8ce1793e0a7,,,,,,,,,,,,,,,,,,,,,,,,,,,,,,,,,,,,405.05,412.193,0.0,1.0,1.0,1.0,1.0,SoundStimuli/IWalkTheLine_JohnnyCash_Cover5S.wav,,,,,,,,,,,,,,,,,,,,,,,,,,,,,,,,,,,,,,,,,,,,,,,,,,,,,,,,,,
,,,,,75360,1,2024-06-17_15h27.29.415,experiment,2024.1.5,Win32,30.12048193,667045947eb812cbdacbf325,66704cf4bf60d8ce1793e0a7,,,,,,,,,,,,,,,,,,,,,,,,,,,,,,,,,,,,,,,,,,,,412.196,413.11,3.978898007,0.903,0.0,22.0,22.0,17.0,1.0,song_indices/IWalkTheLine_JohnnyCash.csv,,,,,,,,,,,,,,,,,,,,,,,,,,,,,,,,,,,,,,,,,,,,,,,,
,,,,,75360,1,2024-06-17_15h27.29.415,experiment,2024.1.5,Win32,30.12048193,667045947eb812cbdacbf325,66704cf4bf60d8ce1793e0a7,,,,,,,,,,,,,,,,,,,,,,,,,,,,,,,,,,,,,,,,,,,,,,,,,,,,,,413.111,415.666,space,2.524,0.002,0.0,0.0,0.0,1.0,1.0,choose_song_b2.csv,,,,,,,,,,,,,,,,,,,,,,,,,,,,,,,,,,,,,
,,,,,75360,1,2024-06-17_15h27.29.415,experiment,2024.1.5,Win32,30.12048193,667045947eb812cbdacbf325,66704cf4bf60d8ce1793e0a7,,,,,,,,,,,,,,,,,,,,,,,,,,,,,,,,,,,,415.68,420.083,0.0,0.0,0.0,1.0,1.0,SoundStimuli/LikeARollingStone_BobDylan_Cover5S.wav,,,,,,,,,,,,,,,,,,,,,,,,,,,,,,,,,,,,,,,,,,,,,,,,,,,,,,,,,,
,,,,,75360,1,2024-06-17_15h27.29.415,experiment,2024.1.5,Win32,30.12048193,667045947eb812cbdacbf325,66704cf4bf60d8ce1793e0a7,,,,,,,,,,,,,,,,,,,,,,,,,,,,,,,,,,,,420.087,426.247,0.0,1.0,1.0,0.0,1.0,SoundStimuli/LikeARollingStone_BobDylan_Original5S.wav,,,,,,,,,,,,,,,,,,,,,,,,,,,,,,,,,,,,,,,,,,,,,,,,,,,,,,,,,,
,,,,,75360,1,2024-06-17_15h27.29.415,experiment,2024.1.5,Win32,30.12048193,667045947eb812cbdacbf325,66704cf4bf60d8ce1793e0a7,,,,,,,,,,,,,,,,,,,,,,,,,,,,,,,,,,,,,,,,,,,,426.249,427.268,4.035169988,1.014,0.0,0.0,0.0,12.0,1.0,song_indices/LikeARollingStone_BobDylan.csv,,,,,,,,,,,,,,,,,,,,,,,,,,,,,,,,,,,,,,,,,,,,,,,,
,,,,,75360,1,2024-06-17_15h27.29.415,experiment,2024.1.5,Win32,30.12048193,667045947eb812cbdacbf325,66704cf4bf60d8ce1793e0a7,,,,,,,,,,,,,,,,,,,,,,,,,,,,,,,,,,,,427.274,433.349,0.0,0.0,0.0,1.0,1.0,SoundStimuli/IWantToHoldYourHand_TheBeatles_Cover5S.wav,,,,,,,,,,,,,,,,,,,,,,,,,,,,,,,,,,,,,,,,,,,,,,,,,,,,,,,,,,
,,,,,75360,1,2024-06-17_15h27.29.415,experiment,2024.1.5,Win32,30.12048193,667045947eb812cbdacbf325,66704cf4bf60d8ce1793e0a7,,,,,,,,,,,,,,,,,,,,,,,,,,,,,,,,,,,,433.361,439.15,0.0,1.0,1.0,0.0,1.0,SoundStimuli/IWantToHoldYourHand_TheBeatles_Original5S.wav,,,,,,,,,,,,,,,,,,,,,,,,,,,,,,,,,,,,,,,,,,,,,,,,,,,,,,,,,,
,,,,,75360,1,2024-06-17_15h27.29.415,experiment,2024.1.5,Win32,30.12048193,667045947eb812cbdacbf325,66704cf4bf60d8ce1793e0a7,,,,,,,,,,,,,,,,,,,,,,,,,,,,,,,,,,,,,,,,,,,,439.151,440.703,4.872215709,1.545,0.0,1.0,1.0,19.0,1.0,song_indices/IWantToHoldYourHand_TheBeatles.csv,,,,,,,,,,,,,,,,,,,,,,,,,,,,,,,,,,,,,,,,,,,,,,,,
,,,,,75360,1,2024-06-17_15h27.29.415,experiment,2024.1.5,Win32,30.12048193,667045947eb812cbdacbf325,66704cf4bf60d8ce1793e0a7,,,,,,,,,,,,,,,,,,,,,,,,,,,,,,,,,,,,440.712,446.845,0.0,0.0,0.0,0.0,1.0,SoundStimuli/StrawberryFieldsForever_TheBeatles_Original5S.wav,,,,,,,,,,,,,,,,,,,,,,,,,,,,,,,,,,,,,,,,,,,,,,,,,,,,,,,,,,
,,,,,75360,1,2024-06-17_15h27.29.415,experiment,2024.1.5,Win32,30.12048193,667045947eb812cbdacbf325,66704cf4bf60d8ce1793e0a7,,,,,,,,,,,,,,,,,,,,,,,,,,,,,,,,,,,,446.854,453.885,0.0,1.0,1.0,1.0,1.0,SoundStimuli/StrawberryFieldsForever_TheBeatles_Cover5S.wav,,,,,,,,,,,,,,,,,,,,,,,,,,,,,,,,,,,,,,,,,,,,,,,,,,,,,,,,,,
,,,,,75360,1,2024-06-17_15h27.29.415,experiment,2024.1.5,Win32,30.12048193,667045947eb812cbdacbf325,66704cf4bf60d8ce1793e0a7,,,,,,,,,,,,,,,,,,,,,,,,,,,,,,,,,,,,,,,,,,,,453.888,456.564,5.005861665,2.67,0.0,2.0,2.0,14.0,1.0,song_indices/StrawberryFieldsForever_TheBeatles.csv,,,,,,,,,,,,,,,,,,,,,,,,,,,,,,,,,,,,,,,,,,,,,,,,
,,,,,75360,1,2024-06-17_15h27.29.415,experiment,2024.1.5,Win32,30.12048193,667045947eb812cbdacbf325,66704cf4bf60d8ce1793e0a7,,,,,,,,,,,,,,,,,,,,,,,,,,,,,,,,,,,,456.576,461.307,0.0,0.0,0.0,1.0,1.0,SoundStimuli/AChangeIsGonnaCome_SamCooke_Cover5S.wav,,,,,,,,,,,,,,,,,,,,,,,,,,,,,,,,,,,,,,,,,,,,,,,,,,,,,,,,,,
,,,,,75360,1,2024-06-17_15h27.29.415,experiment,2024.1.5,Win32,30.12048193,667045947eb812cbdacbf325,66704cf4bf60d8ce1793e0a7,,,,,,,,,,,,,,,,,,,,,,,,,,,,,,,,,,,,461.31,467.348,0.0,1.0,1.0,0.0,1.0,SoundStimuli/AChangeIsGonnaCome_SamCooke_Original5S.wav,,,,,,,,,,,,,,,,,,,,,,,,,,,,,,,,,,,,,,,,,,,,,,,,,,,,,,,,,,
,,,,,75360,1,2024-06-17_15h27.29.415,experiment,2024.1.5,Win32,30.12048193,667045947eb812cbdacbf325,66704cf4bf60d8ce1793e0a7,,,,,,,,,,,,,,,,,,,,,,,,,,,,,,,,,,,,,,,,,,,,467.35,469.419,5.069167644,2.058,0.0,3.0,3.0,17.0,1.0,song_indices/AChangeIsGonnaCome_SamCooke.csv,,,,,,,,,,,,,,,,,,,,,,,,,,,,,,,,,,,,,,,,,,,,,,,,
,,,,,75360,1,2024-06-17_15h27.29.415,experiment,2024.1.5,Win32,30.12048193,667045947eb812cbdacbf325,66704cf4bf60d8ce1793e0a7,,,,,,,,,,,,,,,,,,,,,,,,,,,,,,,,,,,,469.427,475.463,0.0,0.0,0.0,0.0,1.0,SoundStimuli/AnotherOneBitesTheDust_Queen_Original5S.wav,,,,,,,,,,,,,,,,,,,,,,,,,,,,,,,,,,,,,,,,,,,,,,,,,,,,,,,,,,
,,,,,75360,1,2024-06-17_15h27.29.415,experiment,2024.1.5,Win32,30.12048193,667045947eb812cbdacbf325,66704cf4bf60d8ce1793e0a7,,,,,,,,,,,,,,,,,,,,,,,,,,,,,,,,,,,,475.465,483.588,0.0,1.0,1.0,1.0,1.0,SoundStimuli/AnotherOneBitesTheDust_Queen_Cover5S.wav,,,,,,,,,,,,,,,,,,,,,,,,,,,,,,,,,,,,,,,,,,,,,,,,,,,,,,,,,,
,,,,,75360,1,2024-06-17_15h27.29.415,experiment,2024.1.5,Win32,30.12048193,667045947eb812cbdacbf325,66704cf4bf60d8ce1793e0a7,,,,,,,,,,,,,,,,,,,,,,,,,,,,,,,,,,,,,,,,,,,,483.59,484.981,3.155920281,1.385,0.0,4.0,4.0,9.0,1.0,song_indices/AnotherOneBitesTheDust_Queen.csv,,,,,,,,,,,,,,,,,,,,,,,,,,,,,,,,,,,,,,,,,,,,,,,,
,,,,,75360,1,2024-06-17_15h27.29.415,experiment,2024.1.5,Win32,30.12048193,667045947eb812cbdacbf325,66704cf4bf60d8ce1793e0a7,,,,,,,,,,,,,,,,,,,,,,,,,,,,,,,,,,,,484.985,491.213,0.0,0.0,0.0,0.0,1.0,SoundStimuli/GodOnlyKnows_TheBeachBoys_Original5S.wav,,,,,,,,,,,,,,,,,,,,,,,,,,,,,,,,,,,,,,,,,,,,,,,,,,,,,,,,,,
,,,,,75360,1,2024-06-17_15h27.29.415,experiment,2024.1.5,Win32,30.12048193,667045947eb812cbdacbf325,66704cf4bf60d8ce1793e0a7,,,,,,,,,,,,,,,,,,,,,,,,,,,,,,,,,,,,491.216,498.08,0.0,1.0,1.0,1.0,1.0,SoundStimuli/GodOnlyKnows_TheBeachBoys_Cover5S.wav,,,,,,,,,,,,,,,,,,,,,,,,,,,,,,,,,,,,,,,,,,,,,,,,,,,,,,,,,,
,,,,,75360,1,2024-06-17_15h27.29.415,experiment,2024.1.5,Win32,30.12048193,667045947eb812cbdacbf325,66704cf4bf60d8ce1793e0a7,,,,,,,,,,,,,,,,,,,,,,,,,,,,,,,,,,,,,,,,,,,,498.081,499.454,4.914419695,1.349,0.0,5.0,5.0,8.0,1.0,song_indices/GodOnlyKnows_TheBeachBoys.csv,,,,,,,,,,,,,,,,,,,,,,,,,,,,,,,,,,,,,,,,,,,,,,,,
,,,,,75360,1,2024-06-17_15h27.29.415,experiment,2024.1.5,Win32,30.12048193,667045947eb812cbdacbf325,66704cf4bf60d8ce1793e0a7,,,,,,,,,,,,,,,,,,,,,,,,,,,,,,,,,,,,499.469,506.184,0.0,0.0,0.0,1.0,1.0,SoundStimuli/BridgeOverTroubledWater_SimonAndGarfunkel_Cover5S.wav,,,,,,,,,,,,,,,,,,,,,,,,,,,,,,,,,,,,,,,,,,,,,,,,,,,,,,,,,,
,,,,,75360,1,2024-06-17_15h27.29.415,experiment,2024.1.5,Win32,30.12048193,667045947eb812cbdacbf325,66704cf4bf60d8ce1793e0a7,,,,,,,,,,,,,,,,,,,,,,,,,,,,,,,,,,,,506.188,512.494,0.0,1.0,1.0,0.0,1.0,SoundStimuli/BridgeOverTroubledWater_SimonAndGarfunkel_Original5S.wav,,,,,,,,,,,,,,,,,,,,,,,,,,,,,,,,,,,,,,,,,,,,,,,,,,,,,,,,,,
,,,,,75360,1,2024-06-17_15h27.29.415,experiment,2024.1.5,Win32,30.12048193,667045947eb812cbdacbf325,66704cf4bf60d8ce1793e0a7,,,,,,,,,,,,,,,,,,,,,,,,,,,,,,,,,,,,,,,,,,,,512.495,513.815,4.042203986,1.312,0.0,6.0,6.0,1.0,1.0,song_indices/BridgeOverTroubledWater_SimonAndGarfunkel.csv,,,,,,,,,,,,,,,,,,,,,,,,,,,,,,,,,,,,,,,,,,,,,,,,
,,,,,75360,1,2024-06-17_15h27.29.415,experiment,2024.1.5,Win32,30.12048193,667045947eb812cbdacbf325,66704cf4bf60d8ce1793e0a7,,,,,,,,,,,,,,,,,,,,,,,,,,,,,,,,,,,,513.821,519.961,0.0,0.0,0.0,0.0,1.0,SoundStimuli/MackTheKnife_BobbyDarin_Original5S.wav,,,,,,,,,,,,,,,,,,,,,,,,,,,,,,,,,,,,,,,,,,,,,,,,,,,,,,,,,,
,,,,,75360,1,2024-06-17_15h27.29.415,experiment,2024.1.5,Win32,30.12048193,667045947eb812cbdacbf325,66704cf4bf60d8ce1793e0a7,,,,,,,,,,,,,,,,,,,,,,,,,,,,,,,,,,,,519.97,526.224,0.0,1.0,1.0,1.0,1.0,SoundStimuli/MackTheKnife_BobbyDarin_Cover5S.wav,,,,,,,,,,,,,,,,,,,,,,,,,,,,,,,,,,,,,,,,,,,,,,,,,,,,,,,,,,
,,,,,75360,1,2024-06-17_15h27.29.415,experiment,2024.1.5,Win32,30.12048193,667045947eb812cbdacbf325,66704cf4bf60d8ce1793e0a7,,,,,,,,,,,,,,,,,,,,,,,,,,,,,,,,,,,,,,,,,,,,526.229,527.368,3.008206331,1.128,0.0,7.0,7.0,21.0,1.0,song_indices/MackTheKnife_BobbyDarin.csv,,,,,,,,,,,,,,,,,,,,,,,,,,,,,,,,,,,,,,,,,,,,,,,,
,,,,,75360,1,2024-06-17_15h27.29.415,experiment,2024.1.5,Win32,30.12048193,667045947eb812cbdacbf325,66704cf4bf60d8ce1793e0a7,,,,,,,,,,,,,,,,,,,,,,,,,,,,,,,,,,,,527.376,533.503,0.0,0.0,0.0,1.0,1.0,SoundStimuli/Smooth_SantanaRobThomas_Cover5S.wav,,,,,,,,,,,,,,,,,,,,,,,,,,,,,,,,,,,,,,,,,,,,,,,,,,,,,,,,,,
,,,,,75360,1,2024-06-17_15h27.29.415,experiment,2024.1.5,Win32,30.12048193,667045947eb812cbdacbf325,66704cf4bf60d8ce1793e0a7,,,,,,,,,,,,,,,,,,,,,,,,,,,,,,,,,,,,533.517,539.733,0.0,1.0,1.0,0.0,1.0,SoundStimuli/Smooth_SantanaRobThomas_Original5S.wav,,,,,,,,,,,,,,,,,,,,,,,,,,,,,,,,,,,,,,,,,,,,,,,,,,,,,,,,,,
,,,,,75360,1,2024-06-17_15h27.29.415,experiment,2024.1.5,Win32,30.12048193,667045947eb812cbdacbf325,66704cf4bf60d8ce1793e0a7,,,,,,,,,,,,,,,,,,,,,,,,,,,,,,,,,,,,,,,,,,,,539.734,540.739,6.032825322,0.994,0.0,8.0,8.0,4.0,1.0,song_indices/Smooth_SantanaRobThomas.csv,,,,,,,,,,,,,,,,,,,,,,,,,,,,,,,,,,,,,,,,,,,,,,,,
,,,,,75360,1,2024-06-17_15h27.29.415,experiment,2024.1.5,Win32,30.12048193,667045947eb812cbdacbf325,66704cf4bf60d8ce1793e0a7,,,,,,,,,,,,,,,,,,,,,,,,,,,,,,,,,,,,540.748,547.115,0.0,0.0,0.0,0.0,1.0,SoundStimuli/MyGirl_TheTemptations_Original5S.wav,,,,,,,,,,,,,,,,,,,,,,,,,,,,,,,,,,,,,,,,,,,,,,,,,,,,,,,,,,
,,,,,75360,1,2024-06-17_15h27.29.415,experiment,2024.1.5,Win32,30.12048193,667045947eb812cbdacbf325,66704cf4bf60d8ce1793e0a7,,,,,,,,,,,,,,,,,,,,,,,,,,,,,,,,,,,,547.117,554.788,0.0,1.0,1.0,1.0,1.0,SoundStimuli/MyGirl_TheTemptations_Cover5S.wav,,,,,,,,,,,,,,,,,,,,,,,,,,,,,,,,,,,,,,,,,,,,,,,,,,,,,,,,,,
,,,,,75360,1,2024-06-17_15h27.29.415,experiment,2024.1.5,Win32,30.12048193,667045947eb812cbdacbf325,66704cf4bf60d8ce1793e0a7,,,,,,,,,,,,,,,,,,,,,,,,,,,,,,,,,,,,,,,,,,,,554.789,557.37,1.158264947,2.578,0.0,9.0,9.0,15.0,1.0,song_indices/MyGirl_TheTemptations.csv,,,,,,,,,,,,,,,,,,,,,,,,,,,,,,,,,,,,,,,,,,,,,,,,
,,,,,75360,1,2024-06-17_15h27.29.415,experiment,2024.1.5,Win32,30.12048193,667045947eb812cbdacbf325,66704cf4bf60d8ce1793e0a7,,,,,,,,,,,,,,,,,,,,,,,,,,,,,,,,,,,,557.378,565.636,0.0,0.0,0.0,1.0,1.0,SoundStimuli/Perfect_EdSheeran_Cover5S.wav,,,,,,,,,,,,,,,,,,,,,,,,,,,,,,,,,,,,,,,,,,,,,,,,,,,,,,,,,,
,,,,,75360,1,2024-06-17_15h27.29.415,experiment,2024.1.5,Win32,30.12048193,667045947eb812cbdacbf325,66704cf4bf60d8ce1793e0a7,,,,,,,,,,,,,,,,,,,,,,,,,,,,,,,,,,,,565.638,574.504,0.0,1.0,1.0,0.0,1.0,SoundStimuli/Perfect_EdSheeran_Original5S.wav,,,,,,,,,,,,,,,,,,,,,,,,,,,,,,,,,,,,,,,,,,,,,,,,,,,,,,,,,,
,,,,,75360,1,2024-06-17_15h27.29.415,experiment,2024.1.5,Win32,30.12048193,667045947eb812cbdacbf325,66704cf4bf60d8ce1793e0a7,,,,,,,,,,,,,,,,,,,,,,,,,,,,,,,,,,,,,,,,,,,,574.513,575.964,6.075029308,1.438,0.0,10.0,10.0,0.0,1.0,song_indices/Perfect_EdSheeran.csv,,,,,,,,,,,,,,,,,,,,,,,,,,,,,,,,,,,,,,,,,,,,,,,,
,,,,,75360,1,2024-06-17_15h27.29.415,experiment,2024.1.5,Win32,30.12048193,667045947eb812cbdacbf325,66704cf4bf60d8ce1793e0a7,,,,,,,,,,,,,,,,,,,,,,,,,,,,,,,,,,,,575.974,583.344,0.0,0.0,0.0,0.0,1.0,SoundStimuli/OldTownRoad_LilNasX_Original5S.wav,,,,,,,,,,,,,,,,,,,,,,,,,,,,,,,,,,,,,,,,,,,,,,,,,,,,,,,,,,
,,,,,75360,1,2024-06-17_15h27.29.415,experiment,2024.1.5,Win32,30.12048193,667045947eb812cbdacbf325,66704cf4bf60d8ce1793e0a7,,,,,,,,,,,,,,,,,,,,,,,,,,,,,,,,,,,,583.347,589.867,0.0,1.0,1.0,1.0,1.0,SoundStimuli/OldTownRoad_LilNasX_Cover5S.wav,,,,,,,,,,,,,,,,,,,,,,,,,,,,,,,,,,,,,,,,,,,,,,,,,,,,,,,,,,
,,,,,75360,1,2024-06-17_15h27.29.415,experiment,2024.1.5,Win32,30.12048193,667045947eb812cbdacbf325,66704cf4bf60d8ce1793e0a7,,,,,,,,,,,,,,,,,,,,,,,,,,,,,,,,,,,,,,,,,,,,589.867,592.544,5.969519343,2.669,0.0,11.0,11.0,20.0,1.0,song_indices/OldTownRoad_LilNasX.csv,,,,,,,,,,,,,,,,,,,,,,,,,,,,,,,,,,,,,,,,,,,,,,,,
,,,,,75360,1,2024-06-17_15h27.29.415,experiment,2024.1.5,Win32,30.12048193,667045947eb812cbdacbf325,66704cf4bf60d8ce1793e0a7,,,,,,,,,,,,,,,,,,,,,,,,,,,,,,,,,,,,592.56,600.07,0.0,0.0,0.0,1.0,1.0,SoundStimuli/BadDay_DanielPowter_Cover5S.wav,,,,,,,,,,,,,,,,,,,,,,,,,,,,,,,,,,,,,,,,,,,,,,,,,,,,,,,,,,
,,,,,75360,1,2024-06-17_15h27.29.415,experiment,2024.1.5,Win32,30.12048193,667045947eb812cbdacbf325,66704cf4bf60d8ce1793e0a7,,,,,,,,,,,,,,,,,,,,,,,,,,,,,,,,,,,,600.075,606.532,0.0,1.0,1.0,0.0,1.0,SoundStimuli/BadDay_DanielPowter_Original5S.wav,,,,,,,,,,,,,,,,,,,,,,,,,,,,,,,,,,,,,,,,,,,,,,,,,,,,,,,,,,
,,,,,75360,1,2024-06-17_15h27.29.415,experiment,2024.1.5,Win32,30.12048193,667045947eb812cbdacbf325,66704cf4bf60d8ce1793e0a7,,,,,,,,,,,,,,,,,,,,,,,,,,,,,,,,,,,,,,,,,,,,606.535,607.497,4.105509965,0.954,0.0,12.0,12.0,22.0,1.0,song_indices/BadDay_DanielPowter.csv,,,,,,,,,,,,,,,,,,,,,,,,,,,,,,,,,,,,,,,,,,,,,,,,
,,,,,75360,1,2024-06-17_15h27.29.415,experiment,2024.1.5,Win32,30.12048193,667045947eb812cbdacbf325,66704cf4bf60d8ce1793e0a7,,,,,,,,,,,,,,,,,,,,,,,,,,,,,,,,,,,,607.507,613.519,0.0,0.0,0.0,0.0,1.0,SoundStimuli/StayinAlive_BeeGees_Original5S.wav,,,,,,,,,,,,,,,,,,,,,,,,,,,,,,,,,,,,,,,,,,,,,,,,,,,,,,,,,,
,,,,,75360,1,2024-06-17_15h27.29.415,experiment,2024.1.5,Win32,30.12048193,667045947eb812cbdacbf325,66704cf4bf60d8ce1793e0a7,,,,,,,,,,,,,,,,,,,,,,,,,,,,,,,,,,,,613.524,619.364,0.0,1.0,1.0,1.0,1.0,SoundStimuli/StayinAlive_BeeGees_Cover5S.wav,,,,,,,,,,,,,,,,,,,,,,,,,,,,,,,,,,,,,,,,,,,,,,,,,,,,,,,,,,
,,,,,75360,1,2024-06-17_15h27.29.415,experiment,2024.1.5,Win32,30.12048193,667045947eb812cbdacbf325,66704cf4bf60d8ce1793e0a7,,,,,,,,,,,,,,,,,,,,,,,,,,,,,,,,,,,,,,,,,,,,619.366,621.43,5.012895662,2.055,0.0,13.0,13.0,2.0,1.0,song_indices/StayinAlive_BeeGees.csv,,,,,,,,,,,,,,,,,,,,,,,,,,,,,,,,,,,,,,,,,,,,,,,,
,,,,,75360,1,2024-06-17_15h27.29.415,experiment,2024.1.5,Win32,30.12048193,667045947eb812cbdacbf325,66704cf4bf60d8ce1793e0a7,,,,,,,,,,,,,,,,,,,,,,,,,,,,,,,,,,,,621.437,627.984,0.0,0.0,0.0,0.0,1.0,SoundStimuli/Despacito_LuisFonsiDaddyYankee_Original5S.wav,,,,,,,,,,,,,,,,,,,,,,,,,,,,,,,,,,,,,,,,,,,,,,,,,,,,,,,,,,
,,,,,75360,1,2024-06-17_15h27.29.415,experiment,2024.1.5,Win32,30.12048193,667045947eb812cbdacbf325,66704cf4bf60d8ce1793e0a7,,,,,,,,,,,,,,,,,,,,,,,,,,,,,,,,,,,,627.985,634.586,0.0,1.0,1.0,1.0,1.0,SoundStimuli/Despacito_LuisFonsiDaddyYankee_Cover5S.wav,,,,,,,,,,,,,,,,,,,,,,,,,,,,,,,,,,,,,,,,,,,,,,,,,,,,,,,,,,
,,,,,75360,1,2024-06-17_15h27.29.415,experiment,2024.1.5,Win32,30.12048193,667045947eb812cbdacbf325,66704cf4bf60d8ce1793e0a7,,,,,,,,,,,,,,,,,,,,,,,,,,,,,,,,,,,,,,,,,,,,634.587,636.759,3.985932005,2.165,0.0,14.0,14.0,11.0,1.0,song_indices/Despacito_LuisFonsiDaddyYankee.csv,,,,,,,,,,,,,,,,,,,,,,,,,,,,,,,,,,,,,,,,,,,,,,,,
,,,,,75360,1,2024-06-17_15h27.29.415,experiment,2024.1.5,Win32,30.12048193,667045947eb812cbdacbf325,66704cf4bf60d8ce1793e0a7,,,,,,,,,,,,,,,,,,,,,,,,,,,,,,,,,,,,636.771,642.978,0.0,0.0,0.0,1.0,1.0,SoundStimuli/LikeAPrayer_Madonna_Cover5S.wav,,,,,,,,,,,,,,,,,,,,,,,,,,,,,,,,,,,,,,,,,,,,,,,,,,,,,,,,,,
,,,,,75360,1,2024-06-17_15h27.29.415,experiment,2024.1.5,Win32,30.12048193,667045947eb812cbdacbf325,66704cf4bf60d8ce1793e0a7,,,,,,,,,,,,,,,,,,,,,,,,,,,,,,,,,,,,642.986,649.176,0.0,1.0,1.0,0.0,1.0,SoundStimuli/LikeAPrayer_Madonna_Original5S.wav,,,,,,,,,,,,,,,,,,,,,,,,,,,,,,,,,,,,,,,,,,,,,,,,,,,,,,,,,,
,,,,,75360,1,2024-06-17_15h27.29.415,experiment,2024.1.5,Win32,30.12048193,667045947eb812cbdacbf325,66704cf4bf60d8ce1793e0a7,,,,,,,,,,,,,,,,,,,,,,,,,,,,,,,,,,,,,,,,,,,,649.178,650.377,5.01992966,1.194,0.0,15.0,15.0,7.0,1.0,song_indices/LikeAPrayer_Madonna.csv,,,,,,,,,,,,,,,,,,,,,,,,,,,,,,,,,,,,,,,,,,,,,,,,
,,,,,75360,1,2024-06-17_15h27.29.415,experiment,2024.1.5,Win32,30.12048193,667045947eb812cbdacbf325,66704cf4bf60d8ce1793e0a7,,,,,,,,,,,,,,,,,,,,,,,,,,,,,,,,,,,,650.387,654.467,0.0,0.0,0.0,1.0,1.0,SoundStimuli/BohemianRhapsody_Queen_Cover5S.wav,,,,,,,,,,,,,,,,,,,,,,,,,,,,,,,,,,,,,,,,,,,,,,,,,,,,,,,,,,
,,,,,75360,1,2024-06-17_15h27.29.415,experiment,2024.1.5,Win32,30.12048193,667045947eb812cbdacbf325,66704cf4bf60d8ce1793e0a7,,,,,,,,,,,,,,,,,,,,,,,,,,,,,,,,,,,,654.469,660.425,0.0,1.0,1.0,0.0,1.0,SoundStimuli/BohemianRhapsody_Queen_Original5S.wav,,,,,,,,,,,,,,,,,,,,,,,,,,,,,,,,,,,,,,,,,,,,,,,,,,,,,,,,,,
,,,,,75360,1,2024-06-17_15h27.29.415,experiment,2024.1.5,Win32,30.12048193,667045947eb812cbdacbf325,66704cf4bf60d8ce1793e0a7,,,,,,,,,,,,,,,,,,,,,,,,,,,,,,,,,,,,,,,,,,,,660.428,661.735,3.838218054,1.296,0.0,16.0,16.0,18.0,1.0,song_indices/BohemianRhapsody_Queen.csv,,,,,,,,,,,,,,,,,,,,,,,,,,,,,,,,,,,,,,,,,,,,,,,,
,,,,,75360,1,2024-06-17_15h27.29.415,experiment,2024.1.5,Win32,30.12048193,667045947eb812cbdacbf325,66704cf4bf60d8ce1793e0a7,,,,,,,,,,,,,,,,,,,,,,,,,,,,,,,,,,,,661.742,668.574,0.0,0.0,0.0,1.0,1.0,SoundStimuli/IWannaDanceWithSomebody_WhitneyHouston_Cover5S.wav,,,,,,,,,,,,,,,,,,,,,,,,,,,,,,,,,,,,,,,,,,,,,,,,,,,,,,,,,,
,,,,,75360,1,2024-06-17_15h27.29.415,experiment,2024.1.5,Win32,30.12048193,667045947eb812cbdacbf325,66704cf4bf60d8ce1793e0a7,,,,,,,,,,,,,,,,,,,,,,,,,,,,,,,,,,,,668.579,674.174,0.0,1.0,1.0,0.0,1.0,SoundStimuli/IWannaDanceWithSomebody_WhitneyHouston_Original5S.wav,,,,,,,,,,,,,,,,,,,,,,,,,,,,,,,,,,,,,,,,,,,,,,,,,,,,,,,,,,
,,,,,75360,1,2024-06-17_15h27.29.415,experiment,2024.1.5,Win32,30.12048193,667045947eb812cbdacbf325,66704cf4bf60d8ce1793e0a7,,,,,,,,,,,,,,,,,,,,,,,,,,,,,,,,,,,,,,,,,,,,674.177,675.463,2.065650645,1.277,0.0,17.0,17.0,13.0,1.0,song_indices/IWannaDanceWithSomebody_WhitneyHouston.csv,,,,,,,,,,,,,,,,,,,,,,,,,,,,,,,,,,,,,,,,,,,,,,,,
,,,,,75360,1,2024-06-17_15h27.29.415,experiment,2024.1.5,Win32,30.12048193,667045947eb812cbdacbf325,66704cf4bf60d8ce1793e0a7,,,,,,,,,,,,,,,,,,,,,,,,,,,,,,,,,,,,675.471,681.806,0.0,0.0,0.0,0.0,1.0,SoundStimuli/EndlessLove_DianaRossLionelRichie_Original5S.wav,,,,,,,,,,,,,,,,,,,,,,,,,,,,,,,,,,,,,,,,,,,,,,,,,,,,,,,,,,
,,,,,75360,1,2024-06-17_15h27.29.415,experiment,2024.1.5,Win32,30.12048193,667045947eb812cbdacbf325,66704cf4bf60d8ce1793e0a7,,,,,,,,,,,,,,,,,,,,,,,,,,,,,,,,,,,,681.812,689.328,0.0,1.0,1.0,1.0,1.0,SoundStimuli/EndlessLove_DianaRossLionelRichie_Cover5S.wav,,,,,,,,,,,,,,,,,,,,,,,,,,,,,,,,,,,,,,,,,,,,,,,,,,,,,,,,,,
,,,,,75360,1,2024-06-17_15h27.29.415,experiment,2024.1.5,Win32,30.12048193,667045947eb812cbdacbf325,66704cf4bf60d8ce1793e0a7,,,,,,,,,,,,,,,,,,,,,,,,,,,,,,,,,,,,,,,,,,,,689.333,691.508,6.926143025,2.165,0.0,18.0,18.0,3.0,1.0,song_indices/EndlessLove_DianaRossLionelRichie.csv,,,,,,,,,,,,,,,,,,,,,,,,,,,,,,,,,,,,,,,,,,,,,,,,
,,,,,75360,1,2024-06-17_15h27.29.415,experiment,2024.1.5,Win32,30.12048193,667045947eb812cbdacbf325,66704cf4bf60d8ce1793e0a7,,,,,,,,,,,,,,,,,,,,,,,,,,,,,,,,,,,,691.515,697.587,0.0,0.0,0.0,0.0,1.0,SoundStimuli/IllMakeLoveToYou_BoyzIIMen_Original5S.wav,,,,,,,,,,,,,,,,,,,,,,,,,,,,,,,,,,,,,,,,,,,,,,,,,,,,,,,,,,
,,,,,75360,1,2024-06-17_15h27.29.415,experiment,2024.1.5,Win32,30.12048193,667045947eb812cbdacbf325,66704cf4bf60d8ce1793e0a7,,,,,,,,,,,,,,,,,,,,,,,,,,,,,,,,,,,,697.591,703.549,0.0,1.0,1.0,1.0,1.0,SoundStimuli/IllMakeLoveToYou_BoyzIIMen_Cover5S.wav,,,,,,,,,,,,,,,,,,,,,,,,,,,,,,,,,,,,,,,,,,,,,,,,,,,,,,,,,,
,,,,,75360,1,2024-06-17_15h27.29.415,experiment,2024.1.5,Win32,30.12048193,667045947eb812cbdacbf325,66704cf4bf60d8ce1793e0a7,,,,,,,,,,,,,,,,,,,,,,,,,,,,,,,,,,,,,,,,,,,,703.55,705.563,2.923798359,1.994,0.0,19.0,19.0,6.0,1.0,song_indices/IllMakeLoveToYou_BoyzIIMen.csv,,,,,,,,,,,,,,,,,,,,,,,,,,,,,,,,,,,,,,,,,,,,,,,,
,,,,,75360,1,2024-06-17_15h27.29.415,experiment,2024.1.5,Win32,30.12048193,667045947eb812cbdacbf325,66704cf4bf60d8ce1793e0a7,,,,,,,,,,,,,,,,,,,,,,,,,,,,,,,,,,,,705.574,711.879,0.0,0.0,0.0,0.0,1.0,SoundStimuli/Mood_24kGoldnianndior_Original5S.wav,,,,,,,,,,,,,,,,,,,,,,,,,,,,,,,,,,,,,,,,,,,,,,,,,,,,,,,,,,
,,,,,75360,1,2024-06-17_15h27.29.415,experiment,2024.1.5,Win32,30.12048193,667045947eb812cbdacbf325,66704cf4bf60d8ce1793e0a7,,,,,,,,,,,,,,,,,,,,,,,,,,,,,,,,,,,,711.881,720.196,0.0,1.0,1.0,1.0,1.0,SoundStimuli/Mood_24kGoldnianndior_Cover5S.wav,,,,,,,,,,,,,,,,,,,,,,,,,,,,,,,,,,,,,,,,,,,,,,,,,,,,,,,,,,
,,,,,75360,1,2024-06-17_15h27.29.415,experiment,2024.1.5,Win32,30.12048193,667045947eb812cbdacbf325,66704cf4bf60d8ce1793e0a7,,,,,,,,,,,,,,,,,,,,,,,,,,,,,,,,,,,,,,,,,,,,720.198,721.155,3.971864009,0.952,0.0,20.0,20.0,5.0,1.0,song_indices/Mood_24kGoldnianndior.csv,,,,,,,,,,,,,,,,,,,,,,,,,,,,,,,,,,,,,,,,,,,,,,,,
,,,,,75360,1,2024-06-17_15h27.29.415,experiment,2024.1.5,Win32,30.12048193,667045947eb812cbdacbf325,66704cf4bf60d8ce1793e0a7,,,,,,,,,,,,,,,,,,,,,,,,,,,,,,,,,,,,721.161,727.421,0.0,0.0,0.0,0.0,1.0,SoundStimuli/LivinOnAPrayer_BonJovi_Original5S.wav,,,,,,,,,,,,,,,,,,,,,,,,,,,,,,,,,,,,,,,,,,,,,,,,,,,,,,,,,,
,,,,,75360,1,2024-06-17_15h27.29.415,experiment,2024.1.5,Win32,30.12048193,667045947eb812cbdacbf325,66704cf4bf60d8ce1793e0a7,,,,,,,,,,,,,,,,,,,,,,,,,,,,,,,,,,,,727.434,735.108,0.0,1.0,1.0,1.0,1.0,SoundStimuli/LivinOnAPrayer_BonJovi_Cover5S.wav,,,,,,,,,,,,,,,,,,,,,,,,,,,,,,,,,,,,,,,,,,,,,,,,,,,,,,,,,,
,,,,,75360,1,2024-06-17_15h27.29.415,experiment,2024.1.5,Win32,30.12048193,667045947eb812cbdacbf325,66704cf4bf60d8ce1793e0a7,,,,,,,,,,,,,,,,,,,,,,,,,,,,,,,,,,,,,,,,,,,,735.109,736.474,1.967174678,1.359,0.0,21.0,21.0,16.0,1.0,song_indices/LivinOnAPrayer_BonJovi.csv,,,,,,,,,,,,,,,,,,,,,,,,,,,,,,,,,,,,,,,,,,,,,,,,
,,,,,75360,1,2024-06-17_15h27.29.415,experiment,2024.1.5,Win32,30.12048193,667045947eb812cbdacbf325,66704cf4bf60d8ce1793e0a7,,,,,,,,,,,,,,,,,,,,,,,,,,,,,,,,,,,,736.479,745.066,0.0,0.0,0.0,1.0,1.0,SoundStimuli/HeatWaves_GlassAnimals_Cover5S.wav,,,,,,,,,,,,,,,,,,,,,,,,,,,,,,,,,,,,,,,,,,,,,,,,,,,,,,,,,,
,,,,,75360,1,2024-06-17_15h27.29.415,experiment,2024.1.5,Win32,30.12048193,667045947eb812cbdacbf325,66704cf4bf60d8ce1793e0a7,,,,,,,,,,,,,,,,,,,,,,,,,,,,,,,,,,,,745.083,751.185,0.0,1.0,1.0,0.0,1.0,SoundStimuli/HeatWaves_GlassAnimals_Original5S.wav,,,,,,,,,,,,,,,,,,,,,,,,,,,,,,,,,,,,,,,,,,,,,,,,,,,,,,,,,,
,,,,,75360,1,2024-06-17_15h27.29.415,experiment,2024.1.5,Win32,30.12048193,667045947eb812cbdacbf325,66704cf4bf60d8ce1793e0a7,,,,,,,,,,,,,,,,,,,,,,,,,,,,,,,,,,,,,,,,,,,,751.187,752.702,3.992966002,1.506,0.0,22.0,22.0,10.0,1.0,song_indices/HeatWaves_GlassAnimals.csv,,,,,,,,,,,,,,,,,,,,,,,,,,,,,,,,,,,,,,,,,,,,,,,,
,,,,,75360,1,2024-06-17_15h27.29.415,experiment,2024.1.5,Win32,30.12048193,667045947eb812cbdacbf325,66704cf4bf60d8ce1793e0a7,,,,,,,,,,,,,,,,,,,,,,,,,,,,,,,,,,,,,,,,,,,,,,,,,,,,,,752.703,766.329,space,13.602,0.001,0.0,1.0,1.0,0.0,1.0,choose_song_b1.csv,,,,,,,,,,,,,,,,,,,,,,,,,,,,,,,,,,,,,
,,,,,75360,1,2024-06-17_15h27.29.415,experiment,2024.1.5,Win32,30.12048193,667045947eb812cbdacbf325,66704cf4bf60d8ce1793e0a7,,,,,,,,,,,,,,,,,,,,,,,,,,,,,,,,,,,,766.343,772.526,0.0,0.0,0.0,0.0,1.0,SoundStimuli/SaveYourTears_TheWeekndArianaGrande_Original5S.wav,,,,,,,,,,,,,,,,,,,,,,,,,,,,,,,,,,,,,,,,,,,,,,,,,,,,,,,,,,
,,,,,75360,1,2024-06-17_15h27.29.415,experiment,2024.1.5,Win32,30.12048193,667045947eb812cbdacbf325,66704cf4bf60d8ce1793e0a7,,,,,,,,,,,,,,,,,,,,,,,,,,,,,,,,,,,,772.536,778.432,0.0,1.0,1.0,1.0,1.0,SoundStimuli/SaveYourTears_TheWeekndArianaGrande_Cover5S.wav,,,,,,,,,,,,,,,,,,,,,,,,,,,,,,,,,,,,,,,,,,,,,,,,,,,,,,,,,,
,,,,,75360,1,2024-06-17_15h27.29.415,experiment,2024.1.5,Win32,30.12048193,667045947eb812cbdacbf325,66704cf4bf60d8ce1793e0a7,,,,,,,,,,,,,,,,,,,,,,,,,,,,,,,,,,,,,,,,,,,,778.435,779.825,5.01992966,1.372,0.0,0.0,0.0,12.0,1.0,song_indices/SaveYourTears_TheWeekndArianaGrande.csv,,,,,,,,,,,,,,,,,,,,,,,,,,,,,,,,,,,,,,,,,,,,,,,,
,,,,,75360,1,2024-06-17_15h27.29.415,experiment,2024.1.5,Win32,30.12048193,667045947eb812cbdacbf325,66704cf4bf60d8ce1793e0a7,,,,,,,,,,,,,,,,,,,,,,,,,,,,,,,,,,,,779.842,786.844,0.0,0.0,0.0,0.0,1.0,SoundStimuli/PokerFace_LadyGaga_Original5S.wav,,,,,,,,,,,,,,,,,,,,,,,,,,,,,,,,,,,,,,,,,,,,,,,,,,,,,,,,,,
,,,,,75360,1,2024-06-17_15h27.29.415,experiment,2024.1.5,Win32,30.12048193,667045947eb812cbdacbf325,66704cf4bf60d8ce1793e0a7,,,,,,,,,,,,,,,,,,,,,,,,,,,,,,,,,,,,786.849,793.682,0.0,1.0,1.0,1.0,1.0,SoundStimuli/PokerFace_LadyGaga_Cover5S.wav,,,,,,,,,,,,,,,,,,,,,,,,,,,,,,,,,,,,,,,,,,,,,,,,,,,,,,,,,,
,,,,,75360,1,2024-06-17_15h27.29.415,experiment,2024.1.5,Win32,30.12048193,667045947eb812cbdacbf325,66704cf4bf60d8ce1793e0a7,,,,,,,,,,,,,,,,,,,,,,,,,,,,,,,,,,,,,,,,,,,,793.684,794.742,3.922626026,1.056,0.0,1.0,1.0,23.0,1.0,song_indices/PokerFace_LadyGaga.csv,,,,,,,,,,,,,,,,,,,,,,,,,,,,,,,,,,,,,,,,,,,,,,,,
,,,,,75360,1,2024-06-17_15h27.29.415,experiment,2024.1.5,Win32,30.12048193,667045947eb812cbdacbf325,66704cf4bf60d8ce1793e0a7,,,,,,,,,,,,,,,,,,,,,,,,,,,,,,,,,,,,794.751,800.272,0.0,0.0,0.0,1.0,1.0,SoundStimuli/LeFreak_Chic_Cover5S.wav,,,,,,,,,,,,,,,,,,,,,,,,,,,,,,,,,,,,,,,,,,,,,,,,,,,,,,,,,,
,,,,,75360,1,2024-06-17_15h27.29.415,experiment,2024.1.5,Win32,30.12048193,667045947eb812cbdacbf325,66704cf4bf60d8ce1793e0a7,,,,,,,,,,,,,,,,,,,,,,,,,,,,,,,,,,,,800.273,806.313,0.0,1.0,1.0,0.0,1.0,SoundStimuli/LeFreak_Chic_Original5S.wav,,,,,,,,,,,,,,,,,,,,,,,,,,,,,,,,,,,,,,,,,,,,,,,,,,,,,,,,,,
,,,,,75360,1,2024-06-17_15h27.29.415,experiment,2024.1.5,Win32,30.12048193,667045947eb812cbdacbf325,66704cf4bf60d8ce1793e0a7,,,,,,,,,,,,,,,,,,,,,,,,,,,,,,,,,,,,,,,,,,,,806.319,807.859,5.041031653,1.527,0.0,2.0,2.0,11.0,1.0,song_indices/LeFreak_Chic.csv,,,,,,,,,,,,,,,,,,,,,,,,,,,,,,,,,,,,,,,,,,,,,,,,
,,,,,75360,1,2024-06-17_15h27.29.415,experiment,2024.1.5,Win32,30.12048193,667045947eb812cbdacbf325,66704cf4bf60d8ce1793e0a7,,,,,,,,,,,,,,,,,,,,,,,,,,,,,,,,,,,,807.867,814.358,0.0,0.0,0.0,1.0,1.0,SoundStimuli/Weak_SWV_Cover5S.wav,,,,,,,,,,,,,,,,,,,,,,,,,,,,,,,,,,,,,,,,,,,,,,,,,,,,,,,,,,
,,,,,75360,1,2024-06-17_15h27.29.415,experiment,2024.1.5,Win32,30.12048193,667045947eb812cbdacbf325,66704cf4bf60d8ce1793e0a7,,,,,,,,,,,,,,,,,,,,,,,,,,,,,,,,,,,,814.359,820.438,0.0,1.0,1.0,0.0,1.0,SoundStimuli/Weak_SWV_Original5S.wav,,,,,,,,,,,,,,,,,,,,,,,,,,,,,,,,,,,,,,,,,,,,,,,,,,,,,,,,,,
,,,,,75360,1,2024-06-17_15h27.29.415,experiment,2024.1.5,Win32,30.12048193,667045947eb812cbdacbf325,66704cf4bf60d8ce1793e0a7,,,,,,,,,,,,,,,,,,,,,,,,,,,,,,,,,,,,,,,,,,,,820.439,821.725,4.942555686,1.261,0.0,3.0,3.0,6.0,1.0,song_indices/Weak_SWV.csv,,,,,,,,,,,,,,,,,,,,,,,,,,,,,,,,,,,,,,,,,,,,,,,,
,,,,,75360,1,2024-06-17_15h27.29.415,experiment,2024.1.5,Win32,30.12048193,667045947eb812cbdacbf325,66704cf4bf60d8ce1793e0a7,,,,,,,,,,,,,,,,,,,,,,,,,,,,,,,,,,,,821.735,827.74,0.0,0.0,0.0,1.0,1.0,SoundStimuli/TheSign_AceOfBase_Cover5S.wav,,,,,,,,,,,,,,,,,,,,,,,,,,,,,,,,,,,,,,,,,,,,,,,,,,,,,,,,,,
,,,,,75360,1,2024-06-17_15h27.29.415,experiment,2024.1.5,Win32,30.12048193,667045947eb812cbdacbf325,66704cf4bf60d8ce1793e0a7,,,,,,,,,,,,,,,,,,,,,,,,,,,,,,,,,,,,827.751,833.912,0.0,1.0,1.0,0.0,1.0,SoundStimuli/TheSign_AceOfBase_Original5S.wav,,,,,,,,,,,,,,,,,,,,,,,,,,,,,,,,,,,,,,,,,,,,,,,,,,,,,,,,,,
,,,,,75360,1,2024-06-17_15h27.29.415,experiment,2024.1.5,Win32,30.12048193,667045947eb812cbdacbf325,66704cf4bf60d8ce1793e0a7,,,,,,,,,,,,,,,,,,,,,,,,,,,,,,,,,,,,,,,,,,,,833.914,835.544,2.98007034,1.619,0.0,4.0,4.0,5.0,1.0,song_indices/TheSign_AceOfBase.csv,,,,,,,,,,,,,,,,,,,,,,,,,,,,,,,,,,,,,,,,,,,,,,,,
,,,,,75360,1,2024-06-17_15h27.29.415,experiment,2024.1.5,Win32,30.12048193,667045947eb812cbdacbf325,66704cf4bf60d8ce1793e0a7,,,,,,,,,,,,,,,,,,,,,,,,,,,,,,,,,,,,835.548,843.393,0.0,0.0,0.0,1.0,1.0,SoundStimuli/Dreams_FleetwoodMac_Cover5S.wav,,,,,,,,,,,,,,,,,,,,,,,,,,,,,,,,,,,,,,,,,,,,,,,,,,,,,,,,,,
,,,,,75360,1,2024-06-17_15h27.29.415,experiment,2024.1.5,Win32,30.12048193,667045947eb812cbdacbf325,66704cf4bf60d8ce1793e0a7,,,,,,,,,,,,,,,,,,,,,,,,,,,,,,,,,,,,843.41,849.923,0.0,1.0,1.0,0.0,1.0,SoundStimuli/Dreams_FleetwoodMac_Original5S.wav,,,,,,,,,,,,,,,,,,,,,,,,,,,,,,,,,,,,,,,,,,,,,,,,,,,,,,,,,,
,,,,,75360,1,2024-06-17_15h27.29.415,experiment,2024.1.5,Win32,30.12048193,667045947eb812cbdacbf325,66704cf4bf60d8ce1793e0a7,,,,,,,,,,,,,,,,,,,,,,,,,,,,,,,,,,,,,,,,,,,,849.924,851.33,4.007033998,1.4,0.0,5.0,5.0,1.0,1.0,song_indices/Dreams_FleetwoodMac.csv,,,,,,,,,,,,,,,,,,,,,,,,,,,,,,,,,,,,,,,,,,,,,,,,
,,,,,75360,1,2024-06-17_15h27.29.415,experiment,2024.1.5,Win32,30.12048193,667045947eb812cbdacbf325,66704cf4bf60d8ce1793e0a7,,,,,,,,,,,,,,,,,,,,,,,,,,,,,,,,,,,,851.338,857.985,0.0,0.0,0.0,1.0,1.0,SoundStimuli/LetsGetItOn_MarvinGaye_Cover5S.wav,,,,,,,,,,,,,,,,,,,,,,,,,,,,,,,,,,,,,,,,,,,,,,,,,,,,,,,,,,
,,,,,75360,1,2024-06-17_15h27.29.415,experiment,2024.1.5,Win32,30.12048193,667045947eb812cbdacbf325,66704cf4bf60d8ce1793e0a7,,,,,,,,,,,,,,,,,,,,,,,,,,,,,,,,,,,,857.988,864.285,0.0,1.0,1.0,0.0,1.0,SoundStimuli/LetsGetItOn_MarvinGaye_Original5S.wav,,,,,,,,,,,,,,,,,,,,,,,,,,,,,,,,,,,,,,,,,,,,,,,,,,,,,,,,,,
,,,,,75360,1,2024-06-17_15h27.29.415,experiment,2024.1.5,Win32,30.12048193,667045947eb812cbdacbf325,66704cf4bf60d8ce1793e0a7,,,,,,,,,,,,,,,,,,,,,,,,,,,,,,,,,,,,,,,,,,,,864.285,865.418,2.128956624,1.129,0.0,6.0,6.0,20.0,1.0,song_indices/LetsGetItOn_MarvinGaye.csv,,,,,,,,,,,,,,,,,,,,,,,,,,,,,,,,,,,,,,,,,,,,,,,,
,,,,,75360,1,2024-06-17_15h27.29.415,experiment,2024.1.5,Win32,30.12048193,667045947eb812cbdacbf325,66704cf4bf60d8ce1793e0a7,,,,,,,,,,,,,,,,,,,,,,,,,,,,,,,,,,,,865.424,871.334,0.0,0.0,0.0,1.0,1.0,SoundStimuli/Irreplaceable_Beyonce_Cover5S.wav,,,,,,,,,,,,,,,,,,,,,,,,,,,,,,,,,,,,,,,,,,,,,,,,,,,,,,,,,,
,,,,,75360,1,2024-06-17_15h27.29.415,experiment,2024.1.5,Win32,30.12048193,667045947eb812cbdacbf325,66704cf4bf60d8ce1793e0a7,,,,,,,,,,,,,,,,,,,,,,,,,,,,,,,,,,,,871.336,877.234,0.0,1.0,1.0,0.0,1.0,SoundStimuli/Irreplaceable_Beyonce_Original5S.wav,,,,,,,,,,,,,,,,,,,,,,,,,,,,,,,,,,,,,,,,,,,,,,,,,,,,,,,,,,
,,,,,75360,1,2024-06-17_15h27.29.415,experiment,2024.1.5,Win32,30.12048193,667045947eb812cbdacbf325,66704cf4bf60d8ce1793e0a7,,,,,,,,,,,,,,,,,,,,,,,,,,,,,,,,,,,,,,,,,,,,877.238,878.74,4.063305979,1.484,0.0,7.0,7.0,19.0,1.0,song_indices/Irreplaceable_Beyonce.csv,,,,,,,,,,,,,,,,,,,,,,,,,,,,,,,,,,,,,,,,,,,,,,,,
,,,,,75360,1,2024-06-17_15h27.29.415,experiment,2024.1.5,Win32,30.12048193,667045947eb812cbdacbf325,66704cf4bf60d8ce1793e0a7,,,,,,,,,,,,,,,,,,,,,,,,,,,,,,,,,,,,878.746,884.946,0.0,0.0,0.0,0.0,1.0,SoundStimuli/Dilemma_NellyKellyRowland_Original5S.wav,,,,,,,,,,,,,,,,,,,,,,,,,,,,,,,,,,,,,,,,,,,,,,,,,,,,,,,,,,
,,,,,75360,1,2024-06-17_15h27.29.415,experiment,2024.1.5,Win32,30.12048193,667045947eb812cbdacbf325,66704cf4bf60d8ce1793e0a7,,,,,,,,,,,,,,,,,,,,,,,,,,,,,,,,,,,,884.951,891.95,0.0,1.0,1.0,1.0,1.0,SoundStimuli/Dilemma_NellyKellyRowland_Cover5S.wav,,,,,,,,,,,,,,,,,,,,,,,,,,,,,,,,,,,,,,,,,,,,,,,,,,,,,,,,,,
,,,,,75360,1,2024-06-17_15h27.29.415,experiment,2024.1.5,Win32,30.12048193,667045947eb812cbdacbf325,66704cf4bf60d8ce1793e0a7,,,,,,,,,,,,,,,,,,,,,,,,,,,,,,,,,,,,,,,,,,,,891.953,893.88,1.066822978,1.902,0.0,8.0,8.0,2.0,1.0,song_indices/Dilemma_NellyKellyRowland.csv,,,,,,,,,,,,,,,,,,,,,,,,,,,,,,,,,,,,,,,,,,,,,,,,
,,,,,75360,1,2024-06-17_15h27.29.415,experiment,2024.1.5,Win32,30.12048193,667045947eb812cbdacbf325,66704cf4bf60d8ce1793e0a7,,,,,,,,,,,,,,,,,,,,,,,,,,,,,,,,,,,,893.893,899.9,0.0,0.0,0.0,0.0,1.0,SoundStimuli/Levitating_DuaLipa_Original5S.wav,,,,,,,,,,,,,,,,,,,,,,,,,,,,,,,,,,,,,,,,,,,,,,,,,,,,,,,,,,
,,,,,75360,1,2024-06-17_15h27.29.415,experiment,2024.1.5,Win32,30.12048193,667045947eb812cbdacbf325,66704cf4bf60d8ce1793e0a7,,,,,,,,,,,,,,,,,,,,,,,,,,,,,,,,,,,,899.907,905.627,0.0,1.0,1.0,1.0,1.0,SoundStimuli/Levitating_DuaLipa_Cover5S.wav,,,,,,,,,,,,,,,,,,,,,,,,,,,,,,,,,,,,,,,,,,,,,,,,,,,,,,,,,,
,,,,,75360,1,2024-06-17_15h27.29.415,experiment,2024.1.5,Win32,30.12048193,667045947eb812cbdacbf325,66704cf4bf60d8ce1793e0a7,,,,,,,,,,,,,,,,,,,,,,,,,,,,,,,,,,,,,,,,,,,,905.628,907.163,3.929660023,1.532,0.0,9.0,9.0,10.0,1.0,song_indices/Levitating_DuaLipa.csv,,,,,,,,,,,,,,,,,,,,,,,,,,,,,,,,,,,,,,,,,,,,,,,,
,,,,,75360,1,2024-06-17_15h27.29.415,experiment,2024.1.5,Win32,30.12048193,667045947eb812cbdacbf325,66704cf4bf60d8ce1793e0a7,,,,,,,,,,,,,,,,,,,,,,,,,,,,,,,,,,,,907.169,913.314,0.0,0.0,0.0,0.0,1.0,SoundStimuli/JoyToTheWorld_ThreeDogNight_Original5S.wav,,,,,,,,,,,,,,,,,,,,,,,,,,,,,,,,,,,,,,,,,,,,,,,,,,,,,,,,,,
,,,,,75360,1,2024-06-17_15h27.29.415,experiment,2024.1.5,Win32,30.12048193,667045947eb812cbdacbf325,66704cf4bf60d8ce1793e0a7,,,,,,,,,,,,,,,,,,,,,,,,,,,,,,,,,,,,913.323,918.471,0.0,1.0,1.0,1.0,1.0,SoundStimuli/JoyToTheWorld_ThreeDogNight_Cover5S.wav,,,,,,,,,,,,,,,,,,,,,,,,,,,,,,,,,,,,,,,,,,,,,,,,,,,,,,,,,,
,,,,,75360,1,2024-06-17_15h27.29.415,experiment,2024.1.5,Win32,30.12048193,667045947eb812cbdacbf325,66704cf4bf60d8ce1793e0a7,,,,,,,,,,,,,,,,,,,,,,,,,,,,,,,,,,,,,,,,,,,,918.472,920.633,4.007033998,2.148,0.0,10.0,10.0,8.0,1.0,song_indices/JoyToTheWorld_ThreeDogNight.csv,,,,,,,,,,,,,,,,,,,,,,,,,,,,,,,,,,,,,,,,,,,,,,,,
,,,,,75360,1,2024-06-17_15h27.29.415,experiment,2024.1.5,Win32,30.12048193,667045947eb812cbdacbf325,66704cf4bf60d8ce1793e0a7,,,,,,,,,,,,,,,,,,,,,,,,,,,,,,,,,,,,920.656,926.877,0.0,0.0,0.0,0.0,1.0,SoundStimuli/TikTok_Kesha_Original5S.wav,,,,,,,,,,,,,,,,,,,,,,,,,,,,,,,,,,,,,,,,,,,,,,,,,,,,,,,,,,
,,,,,75360,1,2024-06-17_15h27.29.415,experiment,2024.1.5,Win32,30.12048193,667045947eb812cbdacbf325,66704cf4bf60d8ce1793e0a7,,,,,,,,,,,,,,,,,,,,,,,,,,,,,,,,,,,,926.881,934.41,0.0,1.0,1.0,1.0,1.0,SoundStimuli/TikTok_Kesha_Cover5S.wav,,,,,,,,,,,,,,,,,,,,,,,,,,,,,,,,,,,,,,,,,,,,,,,,,,,,,,,,,,
,,,,,75360,1,2024-06-17_15h27.29.415,experiment,2024.1.5,Win32,30.12048193,667045947eb812cbdacbf325,66704cf4bf60d8ce1793e0a7,,,,,,,,,,,,,,,,,,,,,,,,,,,,,,,,,,,,,,,,,,,,934.411,936.621,3.036342321,2.203,0.0,11.0,11.0,3.0,1.0,song_indices/TikTok_Kesha.csv,,,,,,,,,,,,,,,,,,,,,,,,,,,,,,,,,,,,,,,,,,,,,,,,
,,,,,75360,1,2024-06-17_15h27.29.415,experiment,2024.1.5,Win32,30.12048193,667045947eb812cbdacbf325,66704cf4bf60d8ce1793e0a7,,,,,,,,,,,,,,,,,,,,,,,,,,,,,,,,,,,,936.638,942.559,0.0,0.0,0.0,0.0,1.0,SoundStimuli/Respect_ArethaFranklin_Original5S.wav,,,,,,,,,,,,,,,,,,,,,,,,,,,,,,,,,,,,,,,,,,,,,,,,,,,,,,,,,,
,,,,,75360,1,2024-06-17_15h27.29.415,experiment,2024.1.5,Win32,30.12048193,667045947eb812cbdacbf325,66704cf4bf60d8ce1793e0a7,,,,,,,,,,,,,,,,,,,,,,,,,,,,,,,,,,,,942.561,948.612,0.0,1.0,1.0,1.0,1.0,SoundStimuli/Respect_ArethaFranklin_Cover5S.wav,,,,,,,,,,,,,,,,,,,,,,,,,,,,,,,,,,,,,,,,,,,,,,,,,,,,,,,,,,
,,,,,75360,1,2024-06-17_15h27.29.415,experiment,2024.1.5,Win32,30.12048193,667045947eb812cbdacbf325,66704cf4bf60d8ce1793e0a7,,,,,,,,,,,,,,,,,,,,,,,,,,,,,,,,,,,,,,,,,,,,948.614,950.171,1.045720985,1.551,0.0,12.0,12.0,0.0,1.0,song_indices/Respect_ArethaFranklin.csv,,,,,,,,,,,,,,,,,,,,,,,,,,,,,,,,,,,,,,,,,,,,,,,,
,,,,,75360,1,2024-06-17_15h27.29.415,experiment,2024.1.5,Win32,30.12048193,667045947eb812cbdacbf325,66704cf4bf60d8ce1793e0a7,,,,,,,,,,,,,,,,,,,,,,,,,,,,,,,,,,,,950.19,956.584,0.0,0.0,0.0,0.0,1.0,SoundStimuli/FlashdanceWhatAFeeling_IreneCara_Original5S.wav,,,,,,,,,,,,,,,,,,,,,,,,,,,,,,,,,,,,,,,,,,,,,,,,,,,,,,,,,,
,,,,,75360,1,2024-06-17_15h27.29.415,experiment,2024.1.5,Win32,30.12048193,667045947eb812cbdacbf325,66704cf4bf60d8ce1793e0a7,,,,,,,,,,,,,,,,,,,,,,,,,,,,,,,,,,,,956.586,963.882,0.0,1.0,1.0,1.0,1.0,SoundStimuli/FlashdanceWhatAFeeling_IreneCara_Cover5S.wav,,,,,,,,,,,,,,,,,,,,,,,,,,,,,,,,,,,,,,,,,,,,,,,,,,,,,,,,,,
,,,,,75360,1,2024-06-17_15h27.29.415,experiment,2024.1.5,Win32,30.12048193,667045947eb812cbdacbf325,66704cf4bf60d8ce1793e0a7,,,,,,,,,,,,,,,,,,,,,,,,,,,,,,,,,,,,,,,,,,,,963.882,964.674,5.976553341,0.777,0.0,13.0,13.0,18.0,1.0,song_indices/FlashdanceWhatAFeeling_IreneCara.csv,,,,,,,,,,,,,,,,,,,,,,,,,,,,,,,,,,,,,,,,,,,,,,,,
,,,,,75360,1,2024-06-17_15h27.29.415,experiment,2024.1.5,Win32,30.12048193,667045947eb812cbdacbf325,66704cf4bf60d8ce1793e0a7,,,,,,,,,,,,,,,,,,,,,,,,,,,,,,,,,,,,964.687,970.968,0.0,0.0,0.0,1.0,1.0,SoundStimuli/Kiss_Prince_Cover5S.wav,,,,,,,,,,,,,,,,,,,,,,,,,,,,,,,,,,,,,,,,,,,,,,,,,,,,,,,,,,
,,,,,75360,1,2024-06-17_15h27.29.415,experiment,2024.1.5,Win32,30.12048193,667045947eb812cbdacbf325,66704cf4bf60d8ce1793e0a7,,,,,,,,,,,,,,,,,,,,,,,,,,,,,,,,,,,,970.969,978.403,0.0,1.0,1.0,0.0,1.0,SoundStimuli/Kiss_Prince_Original5S.wav,,,,,,,,,,,,,,,,,,,,,,,,,,,,,,,,,,,,,,,,,,,,,,,,,,,,,,,,,,
,,,,,75360,1,2024-06-17_15h27.29.415,experiment,2024.1.5,Win32,30.12048193,667045947eb812cbdacbf325,66704cf4bf60d8ce1793e0a7,,,,,,,,,,,,,,,,,,,,,,,,,,,,,,,,,,,,,,,,,,,,978.405,979.928,3.036342321,1.511,0.0,14.0,14.0,14.0,1.0,song_indices/Kiss_Prince.csv,,,,,,,,,,,,,,,,,,,,,,,,,,,,,,,,,,,,,,,,,,,,,,,,
,,,,,75360,1,2024-06-17_15h27.29.415,experiment,2024.1.5,Win32,30.12048193,667045947eb812cbdacbf325,66704cf4bf60d8ce1793e0a7,,,,,,,,,,,,,,,,,,,,,,,,,,,,,,,,,,,,979.93,985.41,0.0,0.0,0.0,1.0,1.0,SoundStimuli/HowDoILive_LeAnnRimes_Cover5S.wav,,,,,,,,,,,,,,,,,,,,,,,,,,,,,,,,,,,,,,,,,,,,,,,,,,,,,,,,,,
,,,,,75360,1,2024-06-17_15h27.29.415,experiment,2024.1.5,Win32,30.12048193,667045947eb812cbdacbf325,66704cf4bf60d8ce1793e0a7,,,,,,,,,,,,,,,,,,,,,,,,,,,,,,,,,,,,985.414,991.436,0.0,1.0,1.0,0.0,1.0,SoundStimuli/HowDoILive_LeAnnRimes_Original5S.wav,,,,,,,,,,,,,,,,,,,,,,,,,,,,,,,,,,,,,,,,,,,,,,,,,,,,,,,,,,
,,,,,75360,1,2024-06-17_15h27.29.415,experiment,2024.1.5,Win32,30.12048193,667045947eb812cbdacbf325,66704cf4bf60d8ce1793e0a7,,,,,,,,,,,,,,,,,,,,,,,,,,,,,,,,,,,,,,,,,,,,991.437,992.985,4.956623681,1.542,0.0,15.0,15.0,17.0,1.0,song_indices/HowDoILive_LeAnnRimes.csv,,,,,,,,,,,,,,,,,,,,,,,,,,,,,,,,,,,,,,,,,,,,,,,,
,,,,,75360,1,2024-06-17_15h27.29.415,experiment,2024.1.5,Win32,30.12048193,667045947eb812cbdacbf325,66704cf4bf60d8ce1793e0a7,,,,,,,,,,,,,,,,,,,,,,,,,,,,,,,,,,,,992.996,1000.092,0.0,0.0,0.0,1.0,1.0,SoundStimuli/BlurredLines_RobinThicke_Cover5S.wav,,,,,,,,,,,,,,,,,,,,,,,,,,,,,,,,,,,,,,,,,,,,,,,,,,,,,,,,,,
,,,,,75360,1,2024-06-17_15h27.29.415,experiment,2024.1.5,Win32,30.12048193,667045947eb812cbdacbf325,66704cf4bf60d8ce1793e0a7,,,,,,,,,,,,,,,,,,,,,,,,,,,,,,,,,,,,1000.094,1006.852,0.0,1.0,1.0,0.0,1.0,SoundStimuli/BlurredLines_RobinThicke_Original5S.wav,,,,,,,,,,,,,,,,,,,,,,,,,,,,,,,,,,,,,,,,,,,,,,,,,,,,,,,,,,
,,,,,75360,1,2024-06-17_15h27.29.415,experiment,2024.1.5,Win32,30.12048193,667045947eb812cbdacbf325,66704cf4bf60d8ce1793e0a7,,,,,,,,,,,,,,,,,,,,,,,,,,,,,,,,,,,,,,,,,,,,1006.853,1008.651,4.049237984,1.795,0.0,16.0,16.0,9.0,1.0,song_indices/BlurredLines_RobinThicke.csv,,,,,,,,,,,,,,,,,,,,,,,,,,,,,,,,,,,,,,,,,,,,,,,,
,,,,,75360,1,2024-06-17_15h27.29.415,experiment,2024.1.5,Win32,30.12048193,667045947eb812cbdacbf325,66704cf4bf60d8ce1793e0a7,,,,,,,,,,,,,,,,,,,,,,,,,,,,,,,,,,,,1008.658,1013.964,0.0,0.0,0.0,1.0,1.0,SoundStimuli/Superstition_StevieWonder_Cover5S.wav,,,,,,,,,,,,,,,,,,,,,,,,,,,,,,,,,,,,,,,,,,,,,,,,,,,,,,,,,,
,,,,,75360,1,2024-06-17_15h27.29.415,experiment,2024.1.5,Win32,30.12048193,667045947eb812cbdacbf325,66704cf4bf60d8ce1793e0a7,,,,,,,,,,,,,,,,,,,,,,,,,,,,,,,,,,,,1013.966,1020.112,0.0,1.0,1.0,0.0,1.0,SoundStimuli/Superstition_StevieWonder_Original5S.wav,,,,,,,,,,,,,,,,,,,,,,,,,,,,,,,,,,,,,,,,,,,,,,,,,,,,,,,,,,
,,,,,75360,1,2024-06-17_15h27.29.415,experiment,2024.1.5,Win32,30.12048193,667045947eb812cbdacbf325,66704cf4bf60d8ce1793e0a7,,,,,,,,,,,,,,,,,,,,,,,,,,,,,,,,,,,,,,,,,,,,1020.114,1021.378,2.002344666,1.25,0.0,17.0,17.0,15.0,1.0,song_indices/Superstition_StevieWonder.csv,,,,,,,,,,,,,,,,,,,,,,,,,,,,,,,,,,,,,,,,,,,,,,,,
,,,,,75360,1,2024-06-17_15h27.29.415,experiment,2024.1.5,Win32,30.12048193,667045947eb812cbdacbf325,66704cf4bf60d8ce1793e0a7,,,,,,,,,,,,,,,,,,,,,,,,,,,,,,,,,,,,1021.389,1027.496,0.0,0.0,0.0,0.0,1.0,SoundStimuli/UnbreakMyHeart_ToniBraxton_Original5S.wav,,,,,,,,,,,,,,,,,,,,,,,,,,,,,,,,,,,,,,,,,,,,,,,,,,,,,,,,,,
,,,,,75360,1,2024-06-17_15h27.29.415,experiment,2024.1.5,Win32,30.12048193,667045947eb812cbdacbf325,66704cf4bf60d8ce1793e0a7,,,,,,,,,,,,,,,,,,,,,,,,,,,,,,,,,,,,1027.51,1031.49,0.0,1.0,1.0,1.0,1.0,SoundStimuli/UnbreakMyHeart_ToniBraxton_Cover5S.wav,,,,,,,,,,,,,,,,,,,,,,,,,,,,,,,,,,,,,,,,,,,,,,,,,,,,,,,,,,
,,,,,75360,1,2024-06-17_15h27.29.415,experiment,2024.1.5,Win32,30.12048193,667045947eb812cbdacbf325,66704cf4bf60d8ce1793e0a7,,,,,,,,,,,,,,,,,,,,,,,,,,,,,,,,,,,,,,,,,,,,1031.493,1033.527,1.024618992,2.006,0.0,18.0,18.0,16.0,1.0,song_indices/UnbreakMyHeart_ToniBraxton.csv,,,,,,,,,,,,,,,,,,,,,,,,,,,,,,,,,,,,,,,,,,,,,,,,
,,,,,75360,1,2024-06-17_15h27.29.415,experiment,2024.1.5,Win32,30.12048193,667045947eb812cbdacbf325,66704cf4bf60d8ce1793e0a7,,,,,,,,,,,,,,,,,,,,,,,,,,,,,,,,,,,,1033.537,1039.659,0.0,0.0,0.0,0.0,1.0,SoundStimuli/ComeAndGetYourLove_Redbone_Original5S.wav,,,,,,,,,,,,,,,,,,,,,,,,,,,,,,,,,,,,,,,,,,,,,,,,,,,,,,,,,,
,,,,,75360,1,2024-06-17_15h27.29.415,experiment,2024.1.5,Win32,30.12048193,667045947eb812cbdacbf325,66704cf4bf60d8ce1793e0a7,,,,,,,,,,,,,,,,,,,,,,,,,,,,,,,,,,,,1039.661,1046.741,0.0,1.0,1.0,1.0,1.0,SoundStimuli/ComeAndGetYourLove_Redbone_Cover5S.wav,,,,,,,,,,,,,,,,,,,,,,,,,,,,,,,,,,,,,,,,,,,,,,,,,,,,,,,,,,
,,,,,75360,1,2024-06-17_15h27.29.415,experiment,2024.1.5,Win32,30.12048193,667045947eb812cbdacbf325,66704cf4bf60d8ce1793e0a7,,,,,,,,,,,,,,,,,,,,,,,,,,,,,,,,,,,,,,,,,,,,1046.743,1047.857,3.852286049,1.081,0.0,19.0,19.0,22.0,1.0,song_indices/ComeAndGetYourLove_Redbone.csv,,,,,,,,,,,,,,,,,,,,,,,,,,,,,,,,,,,,,,,,,,,,,,,,
,,,,,75360,1,2024-06-17_15h27.29.415,experiment,2024.1.5,Win32,30.12048193,667045947eb812cbdacbf325,66704cf4bf60d8ce1793e0a7,,,,,,,,,,,,,,,,,,,,,,,,,,,,,,,,,,,,1047.871,1054.692,0.0,0.0,0.0,1.0,1.0,SoundStimuli/BlindingLights_TheWeeknd_Cover5S.wav,,,,,,,,,,,,,,,,,,,,,,,,,,,,,,,,,,,,,,,,,,,,,,,,,,,,,,,,,,
,,,,,75360,1,2024-06-17_15h27.29.415,experiment,2024.1.5,Win32,30.12048193,667045947eb812cbdacbf325,66704cf4bf60d8ce1793e0a7,,,,,,,,,,,,,,,,,,,,,,,,,,,,,,,,,,,,1054.694,1061.179,0.0,1.0,1.0,0.0,1.0,SoundStimuli/BlindingLights_TheWeeknd_Original5S.wav,,,,,,,,,,,,,,,,,,,,,,,,,,,,,,,,,,,,,,,,,,,,,,,,,,,,,,,,,,
,,,,,75360,1,2024-06-17_15h27.29.415,experiment,2024.1.5,Win32,30.12048193,667045947eb812cbdacbf325,66704cf4bf60d8ce1793e0a7,,,,,,,,,,,,,,,,,,,,,,,,,,,,,,,,,,,,,,,,,,,,1061.18,1062.963,3.964830012,1.779,0.0,20.0,20.0,21.0,1.0,song_indices/BlindingLights_TheWeeknd.csv,,,,,,,,,,,,,,,,,,,,,,,,,,,,,,,,,,,,,,,,,,,,,,,,
,,,,,75360,1,2024-06-17_15h27.29.415,experiment,2024.1.5,Win32,30.12048193,667045947eb812cbdacbf325,66704cf4bf60d8ce1793e0a7,,,,,,,,,,,,,,,,,,,,,,,,,,,,,,,,,,,,1062.97,1070.195,0.0,0.0,0.0,0.0,1.0,SoundStimuli/SomebodyThatIUsedtoKnow_Gotye_Original5S.wav,,,,,,,,,,,,,,,,,,,,,,,,,,,,,,,,,,,,,,,,,,,,,,,,,,,,,,,,,,
,,,,,75360,1,2024-06-17_15h27.29.415,experiment,2024.1.5,Win32,30.12048193,667045947eb812cbdacbf325,66704cf4bf60d8ce1793e0a7,,,,,,,,,,,,,,,,,,,,,,,,,,,,,,,,,,,,1070.199,1076.994,0.0,1.0,1.0,1.0,1.0,SoundStimuli/SomebodyThatIUsedtoKnow_Gotye_Cover5S.wav,,,,,,,,,,,,,,,,,,,,,,,,,,,,,,,,,,,,,,,,,,,,,,,,,,,,,,,,,,
,,,,,75360,1,2024-06-17_15h27.29.415,experiment,2024.1.5,Win32,30.12048193,667045947eb812cbdacbf325,66704cf4bf60d8ce1793e0a7,,,,,,,,,,,,,,,,,,,,,,,,,,,,,,,,,,,,,,,,,,,,1076.995,1079.433,6.004689332,2.417,0.0,21.0,21.0,7.0,1.0,song_indices/SomebodyThatIUsedtoKnow_Gotye.csv,,,,,,,,,,,,,,,,,,,,,,,,,,,,,,,,,,,,,,,,,,,,,,,,
,,,,,75360,1,2024-06-17_15h27.29.415,experiment,2024.1.5,Win32,30.12048193,667045947eb812cbdacbf325,66704cf4bf60d8ce1793e0a7,,,,,,,,,,,,,,,,,,,,,,,,,,,,,,,,,,,,1079.457,1085.562,0.0,0.0,0.0,1.0,1.0,SoundStimuli/TossinAndTurnin_BobbyLewis_Cover5S.wav,,,,,,,,,,,,,,,,,,,,,,,,,,,,,,,,,,,,,,,,,,,,,,,,,,,,,,,,,,
,,,,,75360,1,2024-06-17_15h27.29.415,experiment,2024.1.5,Win32,30.12048193,667045947eb812cbdacbf325,66704cf4bf60d8ce1793e0a7,,,,,,,,,,,,,,,,,,,,,,,,,,,,,,,,,,,,1085.566,1091.609,0.0,1.0,1.0,0.0,1.0,SoundStimuli/TossinAndTurnin_BobbyLewis_Original5S.wav,,,,,,,,,,,,,,,,,,,,,,,,,,,,,,,,,,,,,,,,,,,,,,,,,,,,,,,,,,
,,,,,75360,1,2024-06-17_15h27.29.415,experiment,2024.1.5,Win32,30.12048193,667045947eb812cbdacbf325,66704cf4bf60d8ce1793e0a7,,,,,,,,,,,,,,,,,,,,,,,,,,,,,,,,,,,,,,,,,,,,1091.61,1094.298,3.001172333,2.685,0.0,22.0,22.0,13.0,1.0,song_indices/TossinAndTurnin_BobbyLewis.csv,,,,,,,,,,,,,,,,,,,,,,,,,,,,,,,,,,,,,,,,,,,,,,,,
,,,,,75360,1,2024-06-17_15h27.29.415,experiment,2024.1.5,Win32,30.12048193,667045947eb812cbdacbf325,66704cf4bf60d8ce1793e0a7,,,,,,,,,,,,,,,,,,,,,,,,,,,,,,,,,,,,1094.304,1100.758,0.0,0.0,0.0,1.0,1.0,SoundStimuli/YouLightUpMyLife_DebbyBoone_Cover5S.wav,,,,,,,,,,,,,,,,,,,,,,,,,,,,,,,,,,,,,,,,,,,,,,,,,,,,,,,,,,
,,,,,75360,1,2024-06-17_15h27.29.415,experiment,2024.1.5,Win32,30.12048193,667045947eb812cbdacbf325,66704cf4bf60d8ce1793e0a7,,,,,,,,,,,,,,,,,,,,,,,,,,,,,,,,,,,,1100.76,1106.851,0.0,1.0,1.0,0.0,1.0,SoundStimuli/YouLightUpMyLife_DebbyBoone_Original5S.wav,,,,,,,,,,,,,,,,,,,,,,,,,,,,,,,,,,,,,,,,,,,,,,,,,,,,,,,,,,
,,,,,75360,1,2024-06-17_15h27.29.415,experiment,2024.1.5,Win32,30.12048193,667045947eb812cbdacbf325,66704cf4bf60d8ce1793e0a7,,,,,,,,,,,,,,,,,,,,,,,,,,,,,,,,,,,,,,,,,,,,1106.855,1107.825,6.961313013,0.961,0.0,23.0,23.0,4.0,1.0,song_indices/YouLightUpMyLife_DebbyBoone.csv,,,,,,,,,,,,,,,,,,,,,,,,,,,,,,,,,,,,,,,,,,,,,,,,
,,,,,75360,1,2024-06-17_15h27.29.415,experiment,2024.1.5,Win32,30.12048193,667045947eb812cbdacbf325,66704cf4bf60d8ce1793e0a7,,,,,,,,,,,,,,,,,,,,,,,,,,,,,,,,,,,,,,,,,,,,,,,,,,,,,,1107.826,1107.829,,,,0.0,2.0,2.0,2.0,1.0,choose_song_b3.csv,,,,,,,,,,,,,,,,,,,,,,,,,,,,,,,,,,,,,
,,,,,75360,1,2024-06-17_15h27.29.415,experiment,2024.1.5,Win32,30.12048193,667045947eb812cbdacbf325,66704cf4bf60d8ce1793e0a7,,,,,,,,,,,,,,,,,,,,,,,,,,,,,,,,,,,,,,,,,,,,,,,,,,,,,,,,,,,,,,,,,33.0,Item 2,not a musician,Item 3,apple music,6.0,4.0,cooking,Rarely,Sometimes,Sometimes,Rarely,Often,Unsure,Always,Rarely,Rarely,Often,Always,Rarely,Always,Rarely,Rarely,Rarely,R&B,R&B,HIP HOP,REGGEA,SAME,NONE,0.0,0.0,0.0,0.0,1.0,,
,,,,,75360,1,2024-06-17_15h27.29.415,experiment,2024.1.5,Win32,30.12048193,667045947eb812cbdacbf325,66704cf4bf60d8ce1793e0a7,,,,,,,,,,,,,,,,,,,,,,,,,,,,,,,,,,,,,,,,,,,,,,,,,,,,,,,,,,,,,,,,,,,,,,,,,,,,,,,,,,,,,,,,,,,,,,,,,,,,1410.065,1411.102
