welcome.started,welcome.stopped,space_to_continue.keys,space_to_continue.rt,space_to_continue.duration,participant,session,date,expName,psychopyVersion,OS,frameRate,STUDY_ID,SESSION_ID,consent.consent,consent.consent_recontact,consent_check.started,consent_check.stopped,calibration_ready.started,calibration_ready.stopped,cal_ready.keys,cal_ready.rt,cal_ready.duration,calibration.started,calibration.stopped,mouse.x,mouse.y,mouse.leftButton,mouse.midButton,mouse.rightButton,mouse.time,mouse.clicked_name,move_on.keys,move_on.rt,move_on.duration,instructions.started,instructions.stopped,next.keys,next.rt,next.duration,practice_trial.started,practice_trial.stopped,practice_slider.response,practice_slider.rt,ready.started,ready.stopped,key_resp.keys,key_resp.rt,key_resp.duration,play_sound.started,play_sound.stopped,trials.thisRepN,trials.thisTrialN,trials.thisN,trials.thisIndex,trials.ran,orig_or_cover,rating.started,rating.stopped,slider.response,slider.rt,songs.thisRepN,songs.thisTrialN,songs.thisN,songs.thisIndex,songs.ran,song_id,short_break.started,short_break.stopped,space_to_move_on.keys,space_to_move_on.rt,space_to_move_on.duration,blocks.thisRepN,blocks.thisTrialN,blocks.thisN,blocks.thisIndex,blocks.ran,block,survey.age,survey.musician,survey.listen_time,survey.medium,survey.music_making,survey.music_seeking,survey.music_choice,survey.activities,survey.question1.Classical,survey.question1.Reggae,survey.question1.R&B,survey.question1.Electronic (EDM),survey.question1.Country,survey.question1.Folk/indie,survey.question1.Latin,survey.question1.Hip hop,survey.question1.Disco,survey.question1.Alternative rock,survey.question1.Classic rock,survey.question1.Metal,survey.question1.Jazz,survey.question1.Ambient,survey.question1.Pop,survey.question1.A cappella,survey.genres_ranked.text3,survey.genres_ranked.text1,survey.genres_ranked.text2,survey.habit_change,survey.habits,experiment.thisRepN,experiment.thisTrialN,experiment.thisN,experiment.thisIndex,experiment.ran,goodbye.started,goodbye.stopped
0.0001,23.8283,space,23.8099,,151954,1,2024-06-17_13h40.46.258,experiment,2024.1.5,Win32,59.88023952,667045947eb812cbdacbf325,667071dfbb0ee8ebf71c5f7a,,,,,,,,,,,,,,,,,,,,,,,,,,,,,,,,,,,,,,,,,,,,,,,,,,,,,,,,,,,,,,,,,,,,,,,,,,,,,,,,,,,,,,,,,,,,,,,,,,,,
,,,,,151954,1,2024-06-17_13h40.46.258,experiment,2024.1.5,Win32,59.88023952,667045947eb812cbdacbf325,667071dfbb0ee8ebf71c5f7a,yes,yes,,,,,,,,,,,,,,,,,,,,,,,,,,,,,,,,,,,,,,,,,,,,,,,,,,,,,,,,,,,,,,,,,,,,,,,,,,,,,,,,,,,,,,,,,,,,,,,,,,
,,,,,151954,1,2024-06-17_13h40.46.258,experiment,2024.1.5,Win32,59.88023952,667045947eb812cbdacbf325,667071dfbb0ee8ebf71c5f7a,,,157.4339,157.434,,,,,,,,,,,,,,,,,,,,,,,,,,,,,,,,,,,,,,,,,,,,,,,,,,,,,,,,,,,,,,,,,,,,,,,,,,,,,,,,,,,,,,,,,,,,,,,,
,,,,,151954,1,2024-06-17_13h40.46.258,experiment,2024.1.5,Win32,59.88023952,667045947eb812cbdacbf325,667071dfbb0ee8ebf71c5f7a,,,,,157.436,161.0748,space,3.6119,,161.075,172.5584,[-0.016666624281141493],[-0.41296294883445456],[1],[0],[0],[9.445499999999981],[],right,1.4545,,172.5587,188.0242,space,15.448,,188.0242,212.4901,4.983333588,24.4607,212.4904,213.7906,space,1.2828,,213.8053,219.6903,0.0,0.0,0.0,1.0,1.0,SoundStimuli/SaveYourTears_TheWeekndArianaGrande_Cover5S.wav,,,,,,,,,,,,,,,,,,,,,,,,,,,,,,,,,,,,,,,,,,,,,,,,,,,,,,,,,
,,,,,151954,1,2024-06-17_13h40.46.258,experiment,2024.1.5,Win32,59.88023952,667045947eb812cbdacbf325,667071dfbb0ee8ebf71c5f7a,,,,,,,,,,,,,,,,,,,,,,,,,,,,,,,,,,,,219.691,225.89,0.0,1.0,1.0,0.0,1.0,SoundStimuli/SaveYourTears_TheWeekndArianaGrande_Original5S.wav,,,,,,,,,,,,,,,,,,,,,,,,,,,,,,,,,,,,,,,,,,,,,,,,,,,,,,,,,
,,,,,151954,1,2024-06-17_13h40.46.258,experiment,2024.1.5,Win32,59.88023952,667045947eb812cbdacbf325,667071dfbb0ee8ebf71c5f7a,,,,,,,,,,,,,,,,,,,,,,,,,,,,,,,,,,,,,,,,,,,,225.8907,227.7401,3.577777863,1.842,0.0,0.0,0.0,12.0,1.0,song_indices/SaveYourTears_TheWeekndArianaGrande.csv,,,,,,,,,,,,,,,,,,,,,,,,,,,,,,,,,,,,,,,,,,,,,,,
,,,,,151954,1,2024-06-17_13h40.46.258,experiment,2024.1.5,Win32,59.88023952,667045947eb812cbdacbf325,667071dfbb0ee8ebf71c5f7a,,,,,,,,,,,,,,,,,,,,,,,,,,,,,,,,,,,,227.7412,233.8061,0.0,0.0,0.0,1.0,1.0,SoundStimuli/Respect_ArethaFranklin_Cover5S.wav,,,,,,,,,,,,,,,,,,,,,,,,,,,,,,,,,,,,,,,,,,,,,,,,,,,,,,,,,
,,,,,151954,1,2024-06-17_13h40.46.258,experiment,2024.1.5,Win32,59.88023952,667045947eb812cbdacbf325,667071dfbb0ee8ebf71c5f7a,,,,,,,,,,,,,,,,,,,,,,,,,,,,,,,,,,,,233.8064,239.7231,0.0,1.0,1.0,0.0,1.0,SoundStimuli/Respect_ArethaFranklin_Original5S.wav,,,,,,,,,,,,,,,,,,,,,,,,,,,,,,,,,,,,,,,,,,,,,,,,,,,,,,,,,
,,,,,151954,1,2024-06-17_13h40.46.258,experiment,2024.1.5,Win32,59.88023952,667045947eb812cbdacbf325,667071dfbb0ee8ebf71c5f7a,,,,,,,,,,,,,,,,,,,,,,,,,,,,,,,,,,,,,,,,,,,,239.7231,241.1732,1.994444529,1.4447,0.0,1.0,1.0,0.0,1.0,song_indices/Respect_ArethaFranklin.csv,,,,,,,,,,,,,,,,,,,,,,,,,,,,,,,,,,,,,,,,,,,,,,,
,,,,,151954,1,2024-06-17_13h40.46.258,experiment,2024.1.5,Win32,59.88023952,667045947eb812cbdacbf325,667071dfbb0ee8ebf71c5f7a,,,,,,,,,,,,,,,,,,,,,,,,,,,,,,,,,,,,241.1744,248.7062,0.0,0.0,0.0,1.0,1.0,SoundStimuli/TikTok_Kesha_Cover5S.wav,,,,,,,,,,,,,,,,,,,,,,,,,,,,,,,,,,,,,,,,,,,,,,,,,,,,,,,,,
,,,,,151954,1,2024-06-17_13h40.46.258,experiment,2024.1.5,Win32,59.88023952,667045947eb812cbdacbf325,667071dfbb0ee8ebf71c5f7a,,,,,,,,,,,,,,,,,,,,,,,,,,,,,,,,,,,,248.7067,254.9229,0.0,1.0,1.0,0.0,1.0,SoundStimuli/TikTok_Kesha_Original5S.wav,,,,,,,,,,,,,,,,,,,,,,,,,,,,,,,,,,,,,,,,,,,,,,,,,,,,,,,,,
,,,,,151954,1,2024-06-17_13h40.46.258,experiment,2024.1.5,Win32,59.88023952,667045947eb812cbdacbf325,667071dfbb0ee8ebf71c5f7a,,,,,,,,,,,,,,,,,,,,,,,,,,,,,,,,,,,,,,,,,,,,254.9231,257.0227,5.866667006,2.0928,0.0,2.0,2.0,3.0,1.0,song_indices/TikTok_Kesha.csv,,,,,,,,,,,,,,,,,,,,,,,,,,,,,,,,,,,,,,,,,,,,,,,
,,,,,151954,1,2024-06-17_13h40.46.258,experiment,2024.1.5,Win32,59.88023952,667045947eb812cbdacbf325,667071dfbb0ee8ebf71c5f7a,,,,,,,,,,,,,,,,,,,,,,,,,,,,,,,,,,,,257.0236,263.5057,0.0,0.0,0.0,1.0,1.0,SoundStimuli/Weak_SWV_Cover5S.wav,,,,,,,,,,,,,,,,,,,,,,,,,,,,,,,,,,,,,,,,,,,,,,,,,,,,,,,,,
,,,,,151954,1,2024-06-17_13h40.46.258,experiment,2024.1.5,Win32,59.88023952,667045947eb812cbdacbf325,667071dfbb0ee8ebf71c5f7a,,,,,,,,,,,,,,,,,,,,,,,,,,,,,,,,,,,,263.5061,269.5889,0.0,1.0,1.0,0.0,1.0,SoundStimuli/Weak_SWV_Original5S.wav,,,,,,,,,,,,,,,,,,,,,,,,,,,,,,,,,,,,,,,,,,,,,,,,,,,,,,,,,
,,,,,151954,1,2024-06-17_13h40.46.258,experiment,2024.1.5,Win32,59.88023952,667045947eb812cbdacbf325,667071dfbb0ee8ebf71c5f7a,,,,,,,,,,,,,,,,,,,,,,,,,,,,,,,,,,,,,,,,,,,,269.589,271.339,5.072222392,1.7442,0.0,3.0,3.0,6.0,1.0,song_indices/Weak_SWV.csv,,,,,,,,,,,,,,,,,,,,,,,,,,,,,,,,,,,,,,,,,,,,,,,
,,,,,151954,1,2024-06-17_13h40.46.258,experiment,2024.1.5,Win32,59.88023952,667045947eb812cbdacbf325,667071dfbb0ee8ebf71c5f7a,,,,,,,,,,,,,,,,,,,,,,,,,,,,,,,,,,,,271.34,276.8555,0.0,0.0,0.0,1.0,1.0,SoundStimuli/LeFreak_Chic_Cover5S.wav,,,,,,,,,,,,,,,,,,,,,,,,,,,,,,,,,,,,,,,,,,,,,,,,,,,,,,,,,
,,,,,151954,1,2024-06-17_13h40.46.258,experiment,2024.1.5,Win32,59.88023952,667045947eb812cbdacbf325,667071dfbb0ee8ebf71c5f7a,,,,,,,,,,,,,,,,,,,,,,,,,,,,,,,,,,,,276.8558,282.8886,0.0,1.0,1.0,0.0,1.0,SoundStimuli/LeFreak_Chic_Original5S.wav,,,,,,,,,,,,,,,,,,,,,,,,,,,,,,,,,,,,,,,,,,,,,,,,,,,,,,,,,
,,,,,151954,1,2024-06-17_13h40.46.258,experiment,2024.1.5,Win32,59.88023952,667045947eb812cbdacbf325,667071dfbb0ee8ebf71c5f7a,,,,,,,,,,,,,,,,,,,,,,,,,,,,,,,,,,,,,,,,,,,,282.8887,284.1388,6.35000017,1.2494,0.0,4.0,4.0,11.0,1.0,song_indices/LeFreak_Chic.csv,,,,,,,,,,,,,,,,,,,,,,,,,,,,,,,,,,,,,,,,,,,,,,,
,,,,,151954,1,2024-06-17_13h40.46.258,experiment,2024.1.5,Win32,59.88023952,667045947eb812cbdacbf325,667071dfbb0ee8ebf71c5f7a,,,,,,,,,,,,,,,,,,,,,,,,,,,,,,,,,,,,284.1394,291.2052,0.0,0.0,0.0,1.0,1.0,SoundStimuli/ComeAndGetYourLove_Redbone_Cover5S.wav,,,,,,,,,,,,,,,,,,,,,,,,,,,,,,,,,,,,,,,,,,,,,,,,,,,,,,,,,
,,,,,151954,1,2024-06-17_13h40.46.258,experiment,2024.1.5,Win32,59.88023952,667045947eb812cbdacbf325,667071dfbb0ee8ebf71c5f7a,,,,,,,,,,,,,,,,,,,,,,,,,,,,,,,,,,,,291.2057,297.3053,0.0,1.0,1.0,0.0,1.0,SoundStimuli/ComeAndGetYourLove_Redbone_Original5S.wav,,,,,,,,,,,,,,,,,,,,,,,,,,,,,,,,,,,,,,,,,,,,,,,,,,,,,,,,,
,,,,,151954,1,2024-06-17_13h40.46.258,experiment,2024.1.5,Win32,59.88023952,667045947eb812cbdacbf325,667071dfbb0ee8ebf71c5f7a,,,,,,,,,,,,,,,,,,,,,,,,,,,,,,,,,,,,,,,,,,,,297.3055,299.3886,4.977777693,2.0736,0.0,5.0,5.0,22.0,1.0,song_indices/ComeAndGetYourLove_Redbone.csv,,,,,,,,,,,,,,,,,,,,,,,,,,,,,,,,,,,,,,,,,,,,,,,
,,,,,151954,1,2024-06-17_13h40.46.258,experiment,2024.1.5,Win32,59.88023952,667045947eb812cbdacbf325,667071dfbb0ee8ebf71c5f7a,,,,,,,,,,,,,,,,,,,,,,,,,,,,,,,,,,,,299.3894,305.4887,0.0,0.0,0.0,0.0,1.0,SoundStimuli/UnbreakMyHeart_ToniBraxton_Original5S.wav,,,,,,,,,,,,,,,,,,,,,,,,,,,,,,,,,,,,,,,,,,,,,,,,,,,,,,,,,
,,,,,151954,1,2024-06-17_13h40.46.258,experiment,2024.1.5,Win32,59.88023952,667045947eb812cbdacbf325,667071dfbb0ee8ebf71c5f7a,,,,,,,,,,,,,,,,,,,,,,,,,,,,,,,,,,,,305.4902,309.4753,0.0,1.0,1.0,1.0,1.0,SoundStimuli/UnbreakMyHeart_ToniBraxton_Cover5S.wav,,,,,,,,,,,,,,,,,,,,,,,,,,,,,,,,,,,,,,,,,,,,,,,,,,,,,,,,,
,,,,,151954,1,2024-06-17_13h40.46.258,experiment,2024.1.5,Win32,59.88023952,667045947eb812cbdacbf325,667071dfbb0ee8ebf71c5f7a,,,,,,,,,,,,,,,,,,,,,,,,,,,,,,,,,,,,,,,,,,,,309.4754,310.9886,3.927778032,1.5054,0.0,6.0,6.0,16.0,1.0,song_indices/UnbreakMyHeart_ToniBraxton.csv,,,,,,,,,,,,,,,,,,,,,,,,,,,,,,,,,,,,,,,,,,,,,,,
,,,,,151954,1,2024-06-17_13h40.46.258,experiment,2024.1.5,Win32,59.88023952,667045947eb812cbdacbf325,667071dfbb0ee8ebf71c5f7a,,,,,,,,,,,,,,,,,,,,,,,,,,,,,,,,,,,,310.9917,318.0884,0.0,0.0,0.0,1.0,1.0,SoundStimuli/BlurredLines_RobinThicke_Cover5S.wav,,,,,,,,,,,,,,,,,,,,,,,,,,,,,,,,,,,,,,,,,,,,,,,,,,,,,,,,,
,,,,,151954,1,2024-06-17_13h40.46.258,experiment,2024.1.5,Win32,59.88023952,667045947eb812cbdacbf325,667071dfbb0ee8ebf71c5f7a,,,,,,,,,,,,,,,,,,,,,,,,,,,,,,,,,,,,318.0897,324.8546,0.0,1.0,1.0,0.0,1.0,SoundStimuli/BlurredLines_RobinThicke_Original5S.wav,,,,,,,,,,,,,,,,,,,,,,,,,,,,,,,,,,,,,,,,,,,,,,,,,,,,,,,,,
,,,,,151954,1,2024-06-17_13h40.46.258,experiment,2024.1.5,Win32,59.88023952,667045947eb812cbdacbf325,667071dfbb0ee8ebf71c5f7a,,,,,,,,,,,,,,,,,,,,,,,,,,,,,,,,,,,,,,,,,,,,324.8555,326.3717,6.966667175,1.507,0.0,7.0,7.0,9.0,1.0,song_indices/BlurredLines_RobinThicke.csv,,,,,,,,,,,,,,,,,,,,,,,,,,,,,,,,,,,,,,,,,,,,,,,
,,,,,151954,1,2024-06-17_13h40.46.258,experiment,2024.1.5,Win32,59.88023952,667045947eb812cbdacbf325,667071dfbb0ee8ebf71c5f7a,,,,,,,,,,,,,,,,,,,,,,,,,,,,,,,,,,,,326.3745,332.4046,0.0,0.0,0.0,0.0,1.0,SoundStimuli/HowDoILive_LeAnnRimes_Original5S.wav,,,,,,,,,,,,,,,,,,,,,,,,,,,,,,,,,,,,,,,,,,,,,,,,,,,,,,,,,
,,,,,151954,1,2024-06-17_13h40.46.258,experiment,2024.1.5,Win32,59.88023952,667045947eb812cbdacbf325,667071dfbb0ee8ebf71c5f7a,,,,,,,,,,,,,,,,,,,,,,,,,,,,,,,,,,,,332.406,337.8877,0.0,1.0,1.0,1.0,1.0,SoundStimuli/HowDoILive_LeAnnRimes_Cover5S.wav,,,,,,,,,,,,,,,,,,,,,,,,,,,,,,,,,,,,,,,,,,,,,,,,,,,,,,,,,
,,,,,151954,1,2024-06-17_13h40.46.258,experiment,2024.1.5,Win32,59.88023952,667045947eb812cbdacbf325,667071dfbb0ee8ebf71c5f7a,,,,,,,,,,,,,,,,,,,,,,,,,,,,,,,,,,,,,,,,,,,,337.8884,340.7884,4.533333249,2.8941,0.0,8.0,8.0,17.0,1.0,song_indices/HowDoILive_LeAnnRimes.csv,,,,,,,,,,,,,,,,,,,,,,,,,,,,,,,,,,,,,,,,,,,,,,,
,,,,,151954,1,2024-06-17_13h40.46.258,experiment,2024.1.5,Win32,59.88023952,667045947eb812cbdacbf325,667071dfbb0ee8ebf71c5f7a,,,,,,,,,,,,,,,,,,,,,,,,,,,,,,,,,,,,340.7909,346.988,0.0,0.0,0.0,0.0,1.0,SoundStimuli/Dilemma_NellyKellyRowland_Original5S.wav,,,,,,,,,,,,,,,,,,,,,,,,,,,,,,,,,,,,,,,,,,,,,,,,,,,,,,,,,
,,,,,151954,1,2024-06-17_13h40.46.258,experiment,2024.1.5,Win32,59.88023952,667045947eb812cbdacbf325,667071dfbb0ee8ebf71c5f7a,,,,,,,,,,,,,,,,,,,,,,,,,,,,,,,,,,,,346.9895,353.9714,0.0,1.0,1.0,1.0,1.0,SoundStimuli/Dilemma_NellyKellyRowland_Cover5S.wav,,,,,,,,,,,,,,,,,,,,,,,,,,,,,,,,,,,,,,,,,,,,,,,,,,,,,,,,,
,,,,,151954,1,2024-06-17_13h40.46.258,experiment,2024.1.5,Win32,59.88023952,667045947eb812cbdacbf325,667071dfbb0ee8ebf71c5f7a,,,,,,,,,,,,,,,,,,,,,,,,,,,,,,,,,,,,,,,,,,,,353.972,355.6702,3.033333249,1.6941,0.0,9.0,9.0,2.0,1.0,song_indices/Dilemma_NellyKellyRowland.csv,,,,,,,,,,,,,,,,,,,,,,,,,,,,,,,,,,,,,,,,,,,,,,,
,,,,,151954,1,2024-06-17_13h40.46.258,experiment,2024.1.5,Win32,59.88023952,667045947eb812cbdacbf325,667071dfbb0ee8ebf71c5f7a,,,,,,,,,,,,,,,,,,,,,,,,,,,,,,,,,,,,355.6726,361.9712,0.0,0.0,0.0,0.0,1.0,SoundStimuli/LetsGetItOn_MarvinGaye_Original5S.wav,,,,,,,,,,,,,,,,,,,,,,,,,,,,,,,,,,,,,,,,,,,,,,,,,,,,,,,,,
,,,,,151954,1,2024-06-17_13h40.46.258,experiment,2024.1.5,Win32,59.88023952,667045947eb812cbdacbf325,667071dfbb0ee8ebf71c5f7a,,,,,,,,,,,,,,,,,,,,,,,,,,,,,,,,,,,,361.9728,368.7134,0.0,1.0,1.0,1.0,1.0,SoundStimuli/LetsGetItOn_MarvinGaye_Cover5S.wav,,,,,,,,,,,,,,,,,,,,,,,,,,,,,,,,,,,,,,,,,,,,,,,,,,,,,,,,,
,,,,,151954,1,2024-06-17_13h40.46.258,experiment,2024.1.5,Win32,59.88023952,667045947eb812cbdacbf325,667071dfbb0ee8ebf71c5f7a,,,,,,,,,,,,,,,,,,,,,,,,,,,,,,,,,,,,,,,,,,,,368.7135,370.2706,1.038888931,1.5502,0.0,10.0,10.0,20.0,1.0,song_indices/LetsGetItOn_MarvinGaye.csv,,,,,,,,,,,,,,,,,,,,,,,,,,,,,,,,,,,,,,,,,,,,,,,
,,,,,151954,1,2024-06-17_13h40.46.258,experiment,2024.1.5,Win32,59.88023952,667045947eb812cbdacbf325,667071dfbb0ee8ebf71c5f7a,,,,,,,,,,,,,,,,,,,,,,,,,,,,,,,,,,,,370.2735,376.3376,0.0,0.0,0.0,0.0,1.0,SoundStimuli/TossinAndTurnin_BobbyLewis_Original5S.wav,,,,,,,,,,,,,,,,,,,,,,,,,,,,,,,,,,,,,,,,,,,,,,,,,,,,,,,,,
,,,,,151954,1,2024-06-17_13h40.46.258,experiment,2024.1.5,Win32,59.88023952,667045947eb812cbdacbf325,667071dfbb0ee8ebf71c5f7a,,,,,,,,,,,,,,,,,,,,,,,,,,,,,,,,,,,,376.3393,382.4538,0.0,1.0,1.0,1.0,1.0,SoundStimuli/TossinAndTurnin_BobbyLewis_Cover5S.wav,,,,,,,,,,,,,,,,,,,,,,,,,,,,,,,,,,,,,,,,,,,,,,,,,,,,,,,,,
,,,,,151954,1,2024-06-17_13h40.46.258,experiment,2024.1.5,Win32,59.88023952,667045947eb812cbdacbf325,667071dfbb0ee8ebf71c5f7a,,,,,,,,,,,,,,,,,,,,,,,,,,,,,,,,,,,,,,,,,,,,382.4542,384.4572,2.338888804,2.0017,0.0,11.0,11.0,13.0,1.0,song_indices/TossinAndTurnin_BobbyLewis.csv,,,,,,,,,,,,,,,,,,,,,,,,,,,,,,,,,,,,,,,,,,,,,,,
,,,,,151954,1,2024-06-17_13h40.46.258,experiment,2024.1.5,Win32,59.88023952,667045947eb812cbdacbf325,667071dfbb0ee8ebf71c5f7a,,,,,,,,,,,,,,,,,,,,,,,,,,,,,,,,,,,,384.4579,391.2534,0.0,0.0,0.0,1.0,1.0,SoundStimuli/SomebodyThatIUsedtoKnow_Gotye_Cover5S.wav,,,,,,,,,,,,,,,,,,,,,,,,,,,,,,,,,,,,,,,,,,,,,,,,,,,,,,,,,
,,,,,151954,1,2024-06-17_13h40.46.258,experiment,2024.1.5,Win32,59.88023952,667045947eb812cbdacbf325,667071dfbb0ee8ebf71c5f7a,,,,,,,,,,,,,,,,,,,,,,,,,,,,,,,,,,,,391.2548,398.4944,0.0,1.0,1.0,0.0,1.0,SoundStimuli/SomebodyThatIUsedtoKnow_Gotye_Original5S.wav,,,,,,,,,,,,,,,,,,,,,,,,,,,,,,,,,,,,,,,,,,,,,,,,,,,,,,,,,
,,,,,151954,1,2024-06-17_13h40.46.258,experiment,2024.1.5,Win32,59.88023952,667045947eb812cbdacbf325,667071dfbb0ee8ebf71c5f7a,,,,,,,,,,,,,,,,,,,,,,,,,,,,,,,,,,,,,,,,,,,,398.4945,399.8699,5.950000339,1.3687,0.0,12.0,12.0,7.0,1.0,song_indices/SomebodyThatIUsedtoKnow_Gotye.csv,,,,,,,,,,,,,,,,,,,,,,,,,,,,,,,,,,,,,,,,,,,,,,,
,,,,,151954,1,2024-06-17_13h40.46.258,experiment,2024.1.5,Win32,59.88023952,667045947eb812cbdacbf325,667071dfbb0ee8ebf71c5f7a,,,,,,,,,,,,,,,,,,,,,,,,,,,,,,,,,,,,399.8728,406.2538,0.0,0.0,0.0,0.0,1.0,SoundStimuli/FlashdanceWhatAFeeling_IreneCara_Original5S.wav,,,,,,,,,,,,,,,,,,,,,,,,,,,,,,,,,,,,,,,,,,,,,,,,,,,,,,,,,
,,,,,151954,1,2024-06-17_13h40.46.258,experiment,2024.1.5,Win32,59.88023952,667045947eb812cbdacbf325,667071dfbb0ee8ebf71c5f7a,,,,,,,,,,,,,,,,,,,,,,,,,,,,,,,,,,,,406.2555,413.5447,0.0,1.0,1.0,1.0,1.0,SoundStimuli/FlashdanceWhatAFeeling_IreneCara_Cover5S.wav,,,,,,,,,,,,,,,,,,,,,,,,,,,,,,,,,,,,,,,,,,,,,,,,,,,,,,,,,
,,,,,151954,1,2024-06-17_13h40.46.258,experiment,2024.1.5,Win32,59.88023952,667045947eb812cbdacbf325,667071dfbb0ee8ebf71c5f7a,,,,,,,,,,,,,,,,,,,,,,,,,,,,,,,,,,,,,,,,,,,,413.5449,415.786,6.988889058,2.2394,0.0,13.0,13.0,18.0,1.0,song_indices/FlashdanceWhatAFeeling_IreneCara.csv,,,,,,,,,,,,,,,,,,,,,,,,,,,,,,,,,,,,,,,,,,,,,,,
,,,,,151954,1,2024-06-17_13h40.46.258,experiment,2024.1.5,Win32,59.88023952,667045947eb812cbdacbf325,667071dfbb0ee8ebf71c5f7a,,,,,,,,,,,,,,,,,,,,,,,,,,,,,,,,,,,,415.7886,423.2192,0.0,0.0,0.0,0.0,1.0,SoundStimuli/Kiss_Prince_Original5S.wav,,,,,,,,,,,,,,,,,,,,,,,,,,,,,,,,,,,,,,,,,,,,,,,,,,,,,,,,,
,,,,,151954,1,2024-06-17_13h40.46.258,experiment,2024.1.5,Win32,59.88023952,667045947eb812cbdacbf325,667071dfbb0ee8ebf71c5f7a,,,,,,,,,,,,,,,,,,,,,,,,,,,,,,,,,,,,423.2206,429.4864,0.0,1.0,1.0,1.0,1.0,SoundStimuli/Kiss_Prince_Cover5S.wav,,,,,,,,,,,,,,,,,,,,,,,,,,,,,,,,,,,,,,,,,,,,,,,,,,,,,,,,,
,,,,,151954,1,2024-06-17_13h40.46.258,experiment,2024.1.5,Win32,59.88023952,667045947eb812cbdacbf325,667071dfbb0ee8ebf71c5f7a,,,,,,,,,,,,,,,,,,,,,,,,,,,,,,,,,,,,,,,,,,,,429.4877,430.6534,2.0,1.1566,0.0,14.0,14.0,14.0,1.0,song_indices/Kiss_Prince.csv,,,,,,,,,,,,,,,,,,,,,,,,,,,,,,,,,,,,,,,,,,,,,,,
,,,,,151954,1,2024-06-17_13h40.46.258,experiment,2024.1.5,Win32,59.88023952,667045947eb812cbdacbf325,667071dfbb0ee8ebf71c5f7a,,,,,,,,,,,,,,,,,,,,,,,,,,,,,,,,,,,,430.6558,436.5202,0.0,0.0,0.0,0.0,1.0,SoundStimuli/Irreplaceable_Beyonce_Original5S.wav,,,,,,,,,,,,,,,,,,,,,,,,,,,,,,,,,,,,,,,,,,,,,,,,,,,,,,,,,
,,,,,151954,1,2024-06-17_13h40.46.258,experiment,2024.1.5,Win32,59.88023952,667045947eb812cbdacbf325,667071dfbb0ee8ebf71c5f7a,,,,,,,,,,,,,,,,,,,,,,,,,,,,,,,,,,,,436.5216,442.4355,0.0,1.0,1.0,1.0,1.0,SoundStimuli/Irreplaceable_Beyonce_Cover5S.wav,,,,,,,,,,,,,,,,,,,,,,,,,,,,,,,,,,,,,,,,,,,,,,,,,,,,,,,,,
,,,,,151954,1,2024-06-17_13h40.46.258,experiment,2024.1.5,Win32,59.88023952,667045947eb812cbdacbf325,667071dfbb0ee8ebf71c5f7a,,,,,,,,,,,,,,,,,,,,,,,,,,,,,,,,,,,,,,,,,,,,442.436,445.1529,4.466666751,2.7069,0.0,15.0,15.0,19.0,1.0,song_indices/Irreplaceable_Beyonce.csv,,,,,,,,,,,,,,,,,,,,,,,,,,,,,,,,,,,,,,,,,,,,,,,
,,,,,151954,1,2024-06-17_13h40.46.258,experiment,2024.1.5,Win32,59.88023952,667045947eb812cbdacbf325,667071dfbb0ee8ebf71c5f7a,,,,,,,,,,,,,,,,,,,,,,,,,,,,,,,,,,,,445.1554,451.1691,0.0,0.0,0.0,0.0,1.0,SoundStimuli/Levitating_DuaLipa_Original5S.wav,,,,,,,,,,,,,,,,,,,,,,,,,,,,,,,,,,,,,,,,,,,,,,,,,,,,,,,,,
,,,,,151954,1,2024-06-17_13h40.46.258,experiment,2024.1.5,Win32,59.88023952,667045947eb812cbdacbf325,667071dfbb0ee8ebf71c5f7a,,,,,,,,,,,,,,,,,,,,,,,,,,,,,,,,,,,,451.1709,456.8855,0.0,1.0,1.0,1.0,1.0,SoundStimuli/Levitating_DuaLipa_Cover5S.wav,,,,,,,,,,,,,,,,,,,,,,,,,,,,,,,,,,,,,,,,,,,,,,,,,,,,,,,,,
,,,,,151954,1,2024-06-17_13h40.46.258,experiment,2024.1.5,Win32,59.88023952,667045947eb812cbdacbf325,667071dfbb0ee8ebf71c5f7a,,,,,,,,,,,,,,,,,,,,,,,,,,,,,,,,,,,,,,,,,,,,456.8862,460.2345,4.022222307,3.3455,0.0,16.0,16.0,10.0,1.0,song_indices/Levitating_DuaLipa.csv,,,,,,,,,,,,,,,,,,,,,,,,,,,,,,,,,,,,,,,,,,,,,,,
,,,,,151954,1,2024-06-17_13h40.46.258,experiment,2024.1.5,Win32,59.88023952,667045947eb812cbdacbf325,667071dfbb0ee8ebf71c5f7a,,,,,,,,,,,,,,,,,,,,,,,,,,,,,,,,,,,,460.2377,466.7219,0.0,0.0,0.0,0.0,1.0,SoundStimuli/BlindingLights_TheWeeknd_Original5S.wav,,,,,,,,,,,,,,,,,,,,,,,,,,,,,,,,,,,,,,,,,,,,,,,,,,,,,,,,,
,,,,,151954,1,2024-06-17_13h40.46.258,experiment,2024.1.5,Win32,59.88023952,667045947eb812cbdacbf325,667071dfbb0ee8ebf71c5f7a,,,,,,,,,,,,,,,,,,,,,,,,,,,,,,,,,,,,466.7222,473.5183,0.0,1.0,1.0,1.0,1.0,SoundStimuli/BlindingLights_TheWeeknd_Cover5S.wav,,,,,,,,,,,,,,,,,,,,,,,,,,,,,,,,,,,,,,,,,,,,,,,,,,,,,,,,,
,,,,,151954,1,2024-06-17_13h40.46.258,experiment,2024.1.5,Win32,59.88023952,667045947eb812cbdacbf325,667071dfbb0ee8ebf71c5f7a,,,,,,,,,,,,,,,,,,,,,,,,,,,,,,,,,,,,,,,,,,,,473.5191,475.1767,5.60000017,1.6559,0.0,17.0,17.0,21.0,1.0,song_indices/BlindingLights_TheWeeknd.csv,,,,,,,,,,,,,,,,,,,,,,,,,,,,,,,,,,,,,,,,,,,,,,,
,,,,,151954,1,2024-06-17_13h40.46.258,experiment,2024.1.5,Win32,59.88023952,667045947eb812cbdacbf325,667071dfbb0ee8ebf71c5f7a,,,,,,,,,,,,,,,,,,,,,,,,,,,,,,,,,,,,475.1775,482.0179,0.0,0.0,0.0,1.0,1.0,SoundStimuli/PokerFace_LadyGaga_Cover5S.wav,,,,,,,,,,,,,,,,,,,,,,,,,,,,,,,,,,,,,,,,,,,,,,,,,,,,,,,,,
,,,,,151954,1,2024-06-17_13h40.46.258,experiment,2024.1.5,Win32,59.88023952,667045947eb812cbdacbf325,667071dfbb0ee8ebf71c5f7a,,,,,,,,,,,,,,,,,,,,,,,,,,,,,,,,,,,,482.0193,489.0352,0.0,1.0,1.0,0.0,1.0,SoundStimuli/PokerFace_LadyGaga_Original5S.wav,,,,,,,,,,,,,,,,,,,,,,,,,,,,,,,,,,,,,,,,,,,,,,,,,,,,,,,,,
,,,,,151954,1,2024-06-17_13h40.46.258,experiment,2024.1.5,Win32,59.88023952,667045947eb812cbdacbf325,667071dfbb0ee8ebf71c5f7a,,,,,,,,,,,,,,,,,,,,,,,,,,,,,,,,,,,,,,,,,,,,489.0357,492.9678,4.977777693,3.9251,0.0,18.0,18.0,23.0,1.0,song_indices/PokerFace_LadyGaga.csv,,,,,,,,,,,,,,,,,,,,,,,,,,,,,,,,,,,,,,,,,,,,,,,
,,,,,151954,1,2024-06-17_13h40.46.258,experiment,2024.1.5,Win32,59.88023952,667045947eb812cbdacbf325,667071dfbb0ee8ebf71c5f7a,,,,,,,,,,,,,,,,,,,,,,,,,,,,,,,,,,,,492.971,499.4676,0.0,0.0,0.0,0.0,1.0,SoundStimuli/Dreams_FleetwoodMac_Original5S.wav,,,,,,,,,,,,,,,,,,,,,,,,,,,,,,,,,,,,,,,,,,,,,,,,,,,,,,,,,
,,,,,151954,1,2024-06-17_13h40.46.258,experiment,2024.1.5,Win32,59.88023952,667045947eb812cbdacbf325,667071dfbb0ee8ebf71c5f7a,,,,,,,,,,,,,,,,,,,,,,,,,,,,,,,,,,,,499.469,507.3093,0.0,1.0,1.0,1.0,1.0,SoundStimuli/Dreams_FleetwoodMac_Cover5S.wav,,,,,,,,,,,,,,,,,,,,,,,,,,,,,,,,,,,,,,,,,,,,,,,,,,,,,,,,,
,,,,,151954,1,2024-06-17_13h40.46.258,experiment,2024.1.5,Win32,59.88023952,667045947eb812cbdacbf325,667071dfbb0ee8ebf71c5f7a,,,,,,,,,,,,,,,,,,,,,,,,,,,,,,,,,,,,,,,,,,,,507.3094,509.1674,1.755555683,1.8534,0.0,19.0,19.0,1.0,1.0,song_indices/Dreams_FleetwoodMac.csv,,,,,,,,,,,,,,,,,,,,,,,,,,,,,,,,,,,,,,,,,,,,,,,
,,,,,151954,1,2024-06-17_13h40.46.258,experiment,2024.1.5,Win32,59.88023952,667045947eb812cbdacbf325,667071dfbb0ee8ebf71c5f7a,,,,,,,,,,,,,,,,,,,,,,,,,,,,,,,,,,,,509.1704,515.317,0.0,0.0,0.0,0.0,1.0,SoundStimuli/Superstition_StevieWonder_Original5S.wav,,,,,,,,,,,,,,,,,,,,,,,,,,,,,,,,,,,,,,,,,,,,,,,,,,,,,,,,,
,,,,,151954,1,2024-06-17_13h40.46.258,experiment,2024.1.5,Win32,59.88023952,667045947eb812cbdacbf325,667071dfbb0ee8ebf71c5f7a,,,,,,,,,,,,,,,,,,,,,,,,,,,,,,,,,,,,515.3178,520.6177,0.0,1.0,1.0,1.0,1.0,SoundStimuli/Superstition_StevieWonder_Cover5S.wav,,,,,,,,,,,,,,,,,,,,,,,,,,,,,,,,,,,,,,,,,,,,,,,,,,,,,,,,,
,,,,,151954,1,2024-06-17_13h40.46.258,experiment,2024.1.5,Win32,59.88023952,667045947eb812cbdacbf325,667071dfbb0ee8ebf71c5f7a,,,,,,,,,,,,,,,,,,,,,,,,,,,,,,,,,,,,,,,,,,,,520.6184,525.4512,4.522222307,4.8242,0.0,20.0,20.0,15.0,1.0,song_indices/Superstition_StevieWonder.csv,,,,,,,,,,,,,,,,,,,,,,,,,,,,,,,,,,,,,,,,,,,,,,,
,,,,,151954,1,2024-06-17_13h40.46.258,experiment,2024.1.5,Win32,59.88023952,667045947eb812cbdacbf325,667071dfbb0ee8ebf71c5f7a,,,,,,,,,,,,,,,,,,,,,,,,,,,,,,,,,,,,525.4536,531.5343,0.0,0.0,0.0,0.0,1.0,SoundStimuli/YouLightUpMyLife_DebbyBoone_Original5S.wav,,,,,,,,,,,,,,,,,,,,,,,,,,,,,,,,,,,,,,,,,,,,,,,,,,,,,,,,,
,,,,,151954,1,2024-06-17_13h40.46.258,experiment,2024.1.5,Win32,59.88023952,667045947eb812cbdacbf325,667071dfbb0ee8ebf71c5f7a,,,,,,,,,,,,,,,,,,,,,,,,,,,,,,,,,,,,531.5359,537.9834,0.0,1.0,1.0,1.0,1.0,SoundStimuli/YouLightUpMyLife_DebbyBoone_Cover5S.wav,,,,,,,,,,,,,,,,,,,,,,,,,,,,,,,,,,,,,,,,,,,,,,,,,,,,,,,,,
,,,,,151954,1,2024-06-17_13h40.46.258,experiment,2024.1.5,Win32,59.88023952,667045947eb812cbdacbf325,667071dfbb0ee8ebf71c5f7a,,,,,,,,,,,,,,,,,,,,,,,,,,,,,,,,,,,,,,,,,,,,537.9842,542.7923,6.966667175,4.8066,0.0,21.0,21.0,4.0,1.0,song_indices/YouLightUpMyLife_DebbyBoone.csv,,,,,,,,,,,,,,,,,,,,,,,,,,,,,,,,,,,,,,,,,,,,,,,
,,,,,151954,1,2024-06-17_13h40.46.258,experiment,2024.1.5,Win32,59.88023952,667045947eb812cbdacbf325,667071dfbb0ee8ebf71c5f7a,,,,,,,,,,,,,,,,,,,,,,,,,,,,,,,,,,,,542.7928,548.9009,0.0,0.0,0.0,0.0,1.0,SoundStimuli/JoyToTheWorld_ThreeDogNight_Original5S.wav,,,,,,,,,,,,,,,,,,,,,,,,,,,,,,,,,,,,,,,,,,,,,,,,,,,,,,,,,
,,,,,151954,1,2024-06-17_13h40.46.258,experiment,2024.1.5,Win32,59.88023952,667045947eb812cbdacbf325,667071dfbb0ee8ebf71c5f7a,,,,,,,,,,,,,,,,,,,,,,,,,,,,,,,,,,,,548.9025,554.0421,0.0,1.0,1.0,1.0,1.0,SoundStimuli/JoyToTheWorld_ThreeDogNight_Cover5S.wav,,,,,,,,,,,,,,,,,,,,,,,,,,,,,,,,,,,,,,,,,,,,,,,,,,,,,,,,,
,,,,,151954,1,2024-06-17_13h40.46.258,experiment,2024.1.5,Win32,59.88023952,667045947eb812cbdacbf325,667071dfbb0ee8ebf71c5f7a,,,,,,,,,,,,,,,,,,,,,,,,,,,,,,,,,,,,,,,,,,,,554.0423,556.1251,6.633333842,2.0823,0.0,22.0,22.0,8.0,1.0,song_indices/JoyToTheWorld_ThreeDogNight.csv,,,,,,,,,,,,,,,,,,,,,,,,,,,,,,,,,,,,,,,,,,,,,,,
,,,,,151954,1,2024-06-17_13h40.46.258,experiment,2024.1.5,Win32,59.88023952,667045947eb812cbdacbf325,667071dfbb0ee8ebf71c5f7a,,,,,,,,,,,,,,,,,,,,,,,,,,,,,,,,,,,,556.1256,562.1416,0.0,0.0,0.0,1.0,1.0,SoundStimuli/TheSign_AceOfBase_Cover5S.wav,,,,,,,,,,,,,,,,,,,,,,,,,,,,,,,,,,,,,,,,,,,,,,,,,,,,,,,,,
,,,,,151954,1,2024-06-17_13h40.46.258,experiment,2024.1.5,Win32,59.88023952,667045947eb812cbdacbf325,667071dfbb0ee8ebf71c5f7a,,,,,,,,,,,,,,,,,,,,,,,,,,,,,,,,,,,,562.1419,568.3083,0.0,1.0,1.0,0.0,1.0,SoundStimuli/TheSign_AceOfBase_Original5S.wav,,,,,,,,,,,,,,,,,,,,,,,,,,,,,,,,,,,,,,,,,,,,,,,,,,,,,,,,,
,,,,,151954,1,2024-06-17_13h40.46.258,experiment,2024.1.5,Win32,59.88023952,667045947eb812cbdacbf325,667071dfbb0ee8ebf71c5f7a,,,,,,,,,,,,,,,,,,,,,,,,,,,,,,,,,,,,,,,,,,,,568.3085,569.6992,5.172222137,1.3896,0.0,23.0,23.0,5.0,1.0,song_indices/TheSign_AceOfBase.csv,,,,,,,,,,,,,,,,,,,,,,,,,,,,,,,,,,,,,,,,,,,,,,,
,,,,,151954,1,2024-06-17_13h40.46.258,experiment,2024.1.5,Win32,59.88023952,667045947eb812cbdacbf325,667071dfbb0ee8ebf71c5f7a,,,,,,,,,,,,,,,,,,,,,,,,,,,,,,,,,,,,,,,,,,,,,,,,,,,,,,569.7002,737.9147,space,168.1859,,0.0,0.0,0.0,2.0,1.0,choose_song_b3.csv,,,,,,,,,,,,,,,,,,,,,,,,,,,,,,,,,,,,
,,,,,151954,1,2024-06-17_13h40.46.258,experiment,2024.1.5,Win32,59.88023952,667045947eb812cbdacbf325,667071dfbb0ee8ebf71c5f7a,,,,,,,,,,,,,,,,,,,,,,,,,,,,,,,,,,,,737.9174,743.7625,0.0,0.0,0.0,1.0,1.0,SoundStimuli/StayinAlive_BeeGees_Cover5S.wav,,,,,,,,,,,,,,,,,,,,,,,,,,,,,,,,,,,,,,,,,,,,,,,,,,,,,,,,,
,,,,,151954,1,2024-06-17_13h40.46.258,experiment,2024.1.5,Win32,59.88023952,667045947eb812cbdacbf325,667071dfbb0ee8ebf71c5f7a,,,,,,,,,,,,,,,,,,,,,,,,,,,,,,,,,,,,743.7644,749.7876,0.0,1.0,1.0,0.0,1.0,SoundStimuli/StayinAlive_BeeGees_Original5S.wav,,,,,,,,,,,,,,,,,,,,,,,,,,,,,,,,,,,,,,,,,,,,,,,,,,,,,,,,,
,,,,,151954,1,2024-06-17_13h40.46.258,experiment,2024.1.5,Win32,59.88023952,667045947eb812cbdacbf325,667071dfbb0ee8ebf71c5f7a,,,,,,,,,,,,,,,,,,,,,,,,,,,,,,,,,,,,,,,,,,,,749.7877,750.6952,6.122222053,0.9001,0.0,0.0,0.0,2.0,1.0,song_indices/StayinAlive_BeeGees.csv,,,,,,,,,,,,,,,,,,,,,,,,,,,,,,,,,,,,,,,,,,,,,,,
,,,,,151954,1,2024-06-17_13h40.46.258,experiment,2024.1.5,Win32,59.88023952,667045947eb812cbdacbf325,667071dfbb0ee8ebf71c5f7a,,,,,,,,,,,,,,,,,,,,,,,,,,,,,,,,,,,,750.6979,757.0456,0.0,0.0,0.0,1.0,1.0,SoundStimuli/MackTheKnife_BobbyDarin_Cover5S.wav,,,,,,,,,,,,,,,,,,,,,,,,,,,,,,,,,,,,,,,,,,,,,,,,,,,,,,,,,
,,,,,151954,1,2024-06-17_13h40.46.258,experiment,2024.1.5,Win32,59.88023952,667045947eb812cbdacbf325,667071dfbb0ee8ebf71c5f7a,,,,,,,,,,,,,,,,,,,,,,,,,,,,,,,,,,,,757.0468,763.2961,0.0,1.0,1.0,0.0,1.0,SoundStimuli/MackTheKnife_BobbyDarin_Original5S.wav,,,,,,,,,,,,,,,,,,,,,,,,,,,,,,,,,,,,,,,,,,,,,,,,,,,,,,,,,
,,,,,151954,1,2024-06-17_13h40.46.258,experiment,2024.1.5,Win32,59.88023952,667045947eb812cbdacbf325,667071dfbb0ee8ebf71c5f7a,,,,,,,,,,,,,,,,,,,,,,,,,,,,,,,,,,,,,,,,,,,,763.2972,765.1285,2.988889058,1.825,0.0,1.0,1.0,21.0,1.0,song_indices/MackTheKnife_BobbyDarin.csv,,,,,,,,,,,,,,,,,,,,,,,,,,,,,,,,,,,,,,,,,,,,,,,
,,,,,151954,1,2024-06-17_13h40.46.258,experiment,2024.1.5,Win32,59.88023952,667045947eb812cbdacbf325,667071dfbb0ee8ebf71c5f7a,,,,,,,,,,,,,,,,,,,,,,,,,,,,,,,,,,,,765.1315,771.4452,0.0,0.0,0.0,0.0,1.0,SoundStimuli/BridgeOverTroubledWater_SimonAndGarfunkel_Original5S.wav,,,,,,,,,,,,,,,,,,,,,,,,,,,,,,,,,,,,,,,,,,,,,,,,,,,,,,,,,
,,,,,151954,1,2024-06-17_13h40.46.258,experiment,2024.1.5,Win32,59.88023952,667045947eb812cbdacbf325,667071dfbb0ee8ebf71c5f7a,,,,,,,,,,,,,,,,,,,,,,,,,,,,,,,,,,,,771.4474,778.1459,0.0,1.0,1.0,1.0,1.0,SoundStimuli/BridgeOverTroubledWater_SimonAndGarfunkel_Cover5S.wav,,,,,,,,,,,,,,,,,,,,,,,,,,,,,,,,,,,,,,,,,,,,,,,,,,,,,,,,,
,,,,,151954,1,2024-06-17_13h40.46.258,experiment,2024.1.5,Win32,59.88023952,667045947eb812cbdacbf325,667071dfbb0ee8ebf71c5f7a,,,,,,,,,,,,,,,,,,,,,,,,,,,,,,,,,,,,,,,,,,,,778.1464,779.7653,4.561111026,1.6176,0.0,2.0,2.0,1.0,1.0,song_indices/BridgeOverTroubledWater_SimonAndGarfunkel.csv,,,,,,,,,,,,,,,,,,,,,,,,,,,,,,,,,,,,,,,,,,,,,,,
,,,,,151954,1,2024-06-17_13h40.46.258,experiment,2024.1.5,Win32,59.88023952,667045947eb812cbdacbf325,667071dfbb0ee8ebf71c5f7a,,,,,,,,,,,,,,,,,,,,,,,,,,,,,,,,,,,,779.7659,783.8449,0.0,0.0,0.0,1.0,1.0,SoundStimuli/BohemianRhapsody_Queen_Cover5S.wav,,,,,,,,,,,,,,,,,,,,,,,,,,,,,,,,,,,,,,,,,,,,,,,,,,,,,,,,,
,,,,,151954,1,2024-06-17_13h40.46.258,experiment,2024.1.5,Win32,59.88023952,667045947eb812cbdacbf325,667071dfbb0ee8ebf71c5f7a,,,,,,,,,,,,,,,,,,,,,,,,,,,,,,,,,,,,783.846,789.8117,0.0,1.0,1.0,0.0,1.0,SoundStimuli/BohemianRhapsody_Queen_Original5S.wav,,,,,,,,,,,,,,,,,,,,,,,,,,,,,,,,,,,,,,,,,,,,,,,,,,,,,,,,,
,,,,,151954,1,2024-06-17_13h40.46.258,experiment,2024.1.5,Win32,59.88023952,667045947eb812cbdacbf325,667071dfbb0ee8ebf71c5f7a,,,,,,,,,,,,,,,,,,,,,,,,,,,,,,,,,,,,,,,,,,,,789.8124,791.0446,3.005555471,1.2282,0.0,3.0,3.0,18.0,1.0,song_indices/BohemianRhapsody_Queen.csv,,,,,,,,,,,,,,,,,,,,,,,,,,,,,,,,,,,,,,,,,,,,,,,
,,,,,151954,1,2024-06-17_13h40.46.258,experiment,2024.1.5,Win32,59.88023952,667045947eb812cbdacbf325,667071dfbb0ee8ebf71c5f7a,,,,,,,,,,,,,,,,,,,,,,,,,,,,,,,,,,,,791.0477,797.3858,0.0,0.0,0.0,0.0,1.0,SoundStimuli/EndlessLove_DianaRossLionelRichie_Original5S.wav,,,,,,,,,,,,,,,,,,,,,,,,,,,,,,,,,,,,,,,,,,,,,,,,,,,,,,,,,
,,,,,151954,1,2024-06-17_13h40.46.258,experiment,2024.1.5,Win32,59.88023952,667045947eb812cbdacbf325,667071dfbb0ee8ebf71c5f7a,,,,,,,,,,,,,,,,,,,,,,,,,,,,,,,,,,,,797.3861,804.8943,0.0,1.0,1.0,1.0,1.0,SoundStimuli/EndlessLove_DianaRossLionelRichie_Cover5S.wav,,,,,,,,,,,,,,,,,,,,,,,,,,,,,,,,,,,,,,,,,,,,,,,,,,,,,,,,,
,,,,,151954,1,2024-06-17_13h40.46.258,experiment,2024.1.5,Win32,59.88023952,667045947eb812cbdacbf325,667071dfbb0ee8ebf71c5f7a,,,,,,,,,,,,,,,,,,,,,,,,,,,,,,,,,,,,,,,,,,,,804.895,806.0605,6.06111145,1.1626,0.0,4.0,4.0,3.0,1.0,song_indices/EndlessLove_DianaRossLionelRichie.csv,,,,,,,,,,,,,,,,,,,,,,,,,,,,,,,,,,,,,,,,,,,,,,,
,,,,,151954,1,2024-06-17_13h40.46.258,experiment,2024.1.5,Win32,59.88023952,667045947eb812cbdacbf325,667071dfbb0ee8ebf71c5f7a,,,,,,,,,,,,,,,,,,,,,,,,,,,,,,,,,,,,806.0636,813.5106,0.0,0.0,0.0,0.0,1.0,SoundStimuli/OldTownRoad_LilNasX_Original5S.wav,,,,,,,,,,,,,,,,,,,,,,,,,,,,,,,,,,,,,,,,,,,,,,,,,,,,,,,,,
,,,,,151954,1,2024-06-17_13h40.46.258,experiment,2024.1.5,Win32,59.88023952,667045947eb812cbdacbf325,667071dfbb0ee8ebf71c5f7a,,,,,,,,,,,,,,,,,,,,,,,,,,,,,,,,,,,,813.5121,820.0614,0.0,1.0,1.0,1.0,1.0,SoundStimuli/OldTownRoad_LilNasX_Cover5S.wav,,,,,,,,,,,,,,,,,,,,,,,,,,,,,,,,,,,,,,,,,,,,,,,,,,,,,,,,,
,,,,,151954,1,2024-06-17_13h40.46.258,experiment,2024.1.5,Win32,59.88023952,667045947eb812cbdacbf325,667071dfbb0ee8ebf71c5f7a,,,,,,,,,,,,,,,,,,,,,,,,,,,,,,,,,,,,,,,,,,,,820.062,822.6269,4.60000017,2.5631,0.0,5.0,5.0,20.0,1.0,song_indices/OldTownRoad_LilNasX.csv,,,,,,,,,,,,,,,,,,,,,,,,,,,,,,,,,,,,,,,,,,,,,,,
,,,,,151954,1,2024-06-17_13h40.46.258,experiment,2024.1.5,Win32,59.88023952,667045947eb812cbdacbf325,667071dfbb0ee8ebf71c5f7a,,,,,,,,,,,,,,,,,,,,,,,,,,,,,,,,,,,,822.6303,829.1935,0.0,0.0,0.0,0.0,1.0,SoundStimuli/Despacito_LuisFonsiDaddyYankee_Original5S.wav,,,,,,,,,,,,,,,,,,,,,,,,,,,,,,,,,,,,,,,,,,,,,,,,,,,,,,,,,
,,,,,151954,1,2024-06-17_13h40.46.258,experiment,2024.1.5,Win32,59.88023952,667045947eb812cbdacbf325,667071dfbb0ee8ebf71c5f7a,,,,,,,,,,,,,,,,,,,,,,,,,,,,,,,,,,,,829.1947,835.7778,0.0,1.0,1.0,1.0,1.0,SoundStimuli/Despacito_LuisFonsiDaddyYankee_Cover5S.wav,,,,,,,,,,,,,,,,,,,,,,,,,,,,,,,,,,,,,,,,,,,,,,,,,,,,,,,,,
,,,,,151954,1,2024-06-17_13h40.46.258,experiment,2024.1.5,Win32,59.88023952,667045947eb812cbdacbf325,667071dfbb0ee8ebf71c5f7a,,,,,,,,,,,,,,,,,,,,,,,,,,,,,,,,,,,,,,,,,,,,835.7785,836.827,5.344444699,1.0407,0.0,6.0,6.0,11.0,1.0,song_indices/Despacito_LuisFonsiDaddyYankee.csv,,,,,,,,,,,,,,,,,,,,,,,,,,,,,,,,,,,,,,,,,,,,,,,
,,,,,151954,1,2024-06-17_13h40.46.258,experiment,2024.1.5,Win32,59.88023952,667045947eb812cbdacbf325,667071dfbb0ee8ebf71c5f7a,,,,,,,,,,,,,,,,,,,,,,,,,,,,,,,,,,,,836.83,843.0777,0.0,0.0,0.0,0.0,1.0,SoundStimuli/GodOnlyKnows_TheBeachBoys_Original5S.wav,,,,,,,,,,,,,,,,,,,,,,,,,,,,,,,,,,,,,,,,,,,,,,,,,,,,,,,,,
,,,,,151954,1,2024-06-17_13h40.46.258,experiment,2024.1.5,Win32,59.88023952,667045947eb812cbdacbf325,667071dfbb0ee8ebf71c5f7a,,,,,,,,,,,,,,,,,,,,,,,,,,,,,,,,,,,,843.0791,849.9518,0.0,1.0,1.0,1.0,1.0,SoundStimuli/GodOnlyKnows_TheBeachBoys_Cover5S.wav,,,,,,,,,,,,,,,,,,,,,,,,,,,,,,,,,,,,,,,,,,,,,,,,,,,,,,,,,
,,,,,151954,1,2024-06-17_13h40.46.258,experiment,2024.1.5,Win32,59.88023952,667045947eb812cbdacbf325,667071dfbb0ee8ebf71c5f7a,,,,,,,,,,,,,,,,,,,,,,,,,,,,,,,,,,,,,,,,,,,,849.9519,851.8104,2.661111196,1.851,0.0,7.0,7.0,8.0,1.0,song_indices/GodOnlyKnows_TheBeachBoys.csv,,,,,,,,,,,,,,,,,,,,,,,,,,,,,,,,,,,,,,,,,,,,,,,
,,,,,151954,1,2024-06-17_13h40.46.258,experiment,2024.1.5,Win32,59.88023952,667045947eb812cbdacbf325,667071dfbb0ee8ebf71c5f7a,,,,,,,,,,,,,,,,,,,,,,,,,,,,,,,,,,,,851.8131,858.0271,0.0,0.0,0.0,0.0,1.0,SoundStimuli/Smooth_SantanaRobThomas_Original5S.wav,,,,,,,,,,,,,,,,,,,,,,,,,,,,,,,,,,,,,,,,,,,,,,,,,,,,,,,,,
,,,,,151954,1,2024-06-17_13h40.46.258,experiment,2024.1.5,Win32,59.88023952,667045947eb812cbdacbf325,667071dfbb0ee8ebf71c5f7a,,,,,,,,,,,,,,,,,,,,,,,,,,,,,,,,,,,,858.0284,864.1602,0.0,1.0,1.0,1.0,1.0,SoundStimuli/Smooth_SantanaRobThomas_Cover5S.wav,,,,,,,,,,,,,,,,,,,,,,,,,,,,,,,,,,,,,,,,,,,,,,,,,,,,,,,,,
,,,,,151954,1,2024-06-17_13h40.46.258,experiment,2024.1.5,Win32,59.88023952,667045947eb812cbdacbf325,667071dfbb0ee8ebf71c5f7a,,,,,,,,,,,,,,,,,,,,,,,,,,,,,,,,,,,,,,,,,,,,864.161,865.477,6.272222731,1.3064,0.0,8.0,8.0,4.0,1.0,song_indices/Smooth_SantanaRobThomas.csv,,,,,,,,,,,,,,,,,,,,,,,,,,,,,,,,,,,,,,,,,,,,,,,
,,,,,151954,1,2024-06-17_13h40.46.258,experiment,2024.1.5,Win32,59.88023952,667045947eb812cbdacbf325,667071dfbb0ee8ebf71c5f7a,,,,,,,,,,,,,,,,,,,,,,,,,,,,,,,,,,,,865.4796,873.0096,0.0,0.0,0.0,1.0,1.0,SoundStimuli/BadDay_DanielPowter_Cover5S.wav,,,,,,,,,,,,,,,,,,,,,,,,,,,,,,,,,,,,,,,,,,,,,,,,,,,,,,,,,
,,,,,151954,1,2024-06-17_13h40.46.258,experiment,2024.1.5,Win32,59.88023952,667045947eb812cbdacbf325,667071dfbb0ee8ebf71c5f7a,,,,,,,,,,,,,,,,,,,,,,,,,,,,,,,,,,,,873.0112,879.5603,0.0,1.0,1.0,0.0,1.0,SoundStimuli/BadDay_DanielPowter_Original5S.wav,,,,,,,,,,,,,,,,,,,,,,,,,,,,,,,,,,,,,,,,,,,,,,,,,,,,,,,,,
,,,,,151954,1,2024-06-17_13h40.46.258,experiment,2024.1.5,Win32,59.88023952,667045947eb812cbdacbf325,667071dfbb0ee8ebf71c5f7a,,,,,,,,,,,,,,,,,,,,,,,,,,,,,,,,,,,,,,,,,,,,879.5607,881.1922,4.861111111,1.6265,0.0,9.0,9.0,22.0,1.0,song_indices/BadDay_DanielPowter.csv,,,,,,,,,,,,,,,,,,,,,,,,,,,,,,,,,,,,,,,,,,,,,,,
,,,,,151954,1,2024-06-17_13h40.46.258,experiment,2024.1.5,Win32,59.88023952,667045947eb812cbdacbf325,667071dfbb0ee8ebf71c5f7a,,,,,,,,,,,,,,,,,,,,,,,,,,,,,,,,,,,,881.1955,888.026,0.0,0.0,0.0,1.0,1.0,SoundStimuli/IWannaDanceWithSomebody_WhitneyHouston_Cover5S.wav,,,,,,,,,,,,,,,,,,,,,,,,,,,,,,,,,,,,,,,,,,,,,,,,,,,,,,,,,
,,,,,151954,1,2024-06-17_13h40.46.258,experiment,2024.1.5,Win32,59.88023952,667045947eb812cbdacbf325,667071dfbb0ee8ebf71c5f7a,,,,,,,,,,,,,,,,,,,,,,,,,,,,,,,,,,,,888.0278,893.6351,0.0,1.0,1.0,0.0,1.0,SoundStimuli/IWannaDanceWithSomebody_WhitneyHouston_Original5S.wav,,,,,,,,,,,,,,,,,,,,,,,,,,,,,,,,,,,,,,,,,,,,,,,,,,,,,,,,,
,,,,,151954,1,2024-06-17_13h40.46.258,experiment,2024.1.5,Win32,59.88023952,667045947eb812cbdacbf325,667071dfbb0ee8ebf71c5f7a,,,,,,,,,,,,,,,,,,,,,,,,,,,,,,,,,,,,,,,,,,,,893.6353,894.976,1.611111111,1.3323,0.0,10.0,10.0,13.0,1.0,song_indices/IWannaDanceWithSomebody_WhitneyHouston.csv,,,,,,,,,,,,,,,,,,,,,,,,,,,,,,,,,,,,,,,,,,,,,,,
,,,,,151954,1,2024-06-17_13h40.46.258,experiment,2024.1.5,Win32,59.88023952,667045947eb812cbdacbf325,667071dfbb0ee8ebf71c5f7a,,,,,,,,,,,,,,,,,,,,,,,,,,,,,,,,,,,,894.979,901.0587,0.0,0.0,0.0,0.0,1.0,SoundStimuli/IllMakeLoveToYou_BoyzIIMen_Original5S.wav,,,,,,,,,,,,,,,,,,,,,,,,,,,,,,,,,,,,,,,,,,,,,,,,,,,,,,,,,
,,,,,151954,1,2024-06-17_13h40.46.258,experiment,2024.1.5,Win32,59.88023952,667045947eb812cbdacbf325,667071dfbb0ee8ebf71c5f7a,,,,,,,,,,,,,,,,,,,,,,,,,,,,,,,,,,,,901.0598,907.0084,0.0,1.0,1.0,1.0,1.0,SoundStimuli/IllMakeLoveToYou_BoyzIIMen_Cover5S.wav,,,,,,,,,,,,,,,,,,,,,,,,,,,,,,,,,,,,,,,,,,,,,,,,,,,,,,,,,
,,,,,151954,1,2024-06-17_13h40.46.258,experiment,2024.1.5,Win32,59.88023952,667045947eb812cbdacbf325,667071dfbb0ee8ebf71c5f7a,,,,,,,,,,,,,,,,,,,,,,,,,,,,,,,,,,,,,,,,,,,,907.0087,908.7921,5.14444436,1.7798,0.0,11.0,11.0,6.0,1.0,song_indices/IllMakeLoveToYou_BoyzIIMen.csv,,,,,,,,,,,,,,,,,,,,,,,,,,,,,,,,,,,,,,,,,,,,,,,
,,,,,151954,1,2024-06-17_13h40.46.258,experiment,2024.1.5,Win32,59.88023952,667045947eb812cbdacbf325,667071dfbb0ee8ebf71c5f7a,,,,,,,,,,,,,,,,,,,,,,,,,,,,,,,,,,,,908.7952,915.8086,0.0,0.0,0.0,1.0,1.0,SoundStimuli/StrawberryFieldsForever_TheBeatles_Cover5S.wav,,,,,,,,,,,,,,,,,,,,,,,,,,,,,,,,,,,,,,,,,,,,,,,,,,,,,,,,,
,,,,,151954,1,2024-06-17_13h40.46.258,experiment,2024.1.5,Win32,59.88023952,667045947eb812cbdacbf325,667071dfbb0ee8ebf71c5f7a,,,,,,,,,,,,,,,,,,,,,,,,,,,,,,,,,,,,915.8098,921.9422,0.0,1.0,1.0,0.0,1.0,SoundStimuli/StrawberryFieldsForever_TheBeatles_Original5S.wav,,,,,,,,,,,,,,,,,,,,,,,,,,,,,,,,,,,,,,,,,,,,,,,,,,,,,,,,,
,,,,,151954,1,2024-06-17_13h40.46.258,experiment,2024.1.5,Win32,59.88023952,667045947eb812cbdacbf325,667071dfbb0ee8ebf71c5f7a,,,,,,,,,,,,,,,,,,,,,,,,,,,,,,,,,,,,,,,,,,,,921.9429,924.3288,3.972222222,2.3847,0.0,12.0,12.0,14.0,1.0,song_indices/StrawberryFieldsForever_TheBeatles.csv,,,,,,,,,,,,,,,,,,,,,,,,,,,,,,,,,,,,,,,,,,,,,,,
,,,,,151954,1,2024-06-17_13h40.46.258,experiment,2024.1.5,Win32,59.88023952,667045947eb812cbdacbf325,667071dfbb0ee8ebf71c5f7a,,,,,,,,,,,,,,,,,,,,,,,,,,,,,,,,,,,,924.3295,930.3755,0.0,0.0,0.0,1.0,1.0,SoundStimuli/IWantToHoldYourHand_TheBeatles_Cover5S.wav,,,,,,,,,,,,,,,,,,,,,,,,,,,,,,,,,,,,,,,,,,,,,,,,,,,,,,,,,
,,,,,151954,1,2024-06-17_13h40.46.258,experiment,2024.1.5,Win32,59.88023952,667045947eb812cbdacbf325,667071dfbb0ee8ebf71c5f7a,,,,,,,,,,,,,,,,,,,,,,,,,,,,,,,,,,,,930.3774,936.1745,0.0,1.0,1.0,0.0,1.0,SoundStimuli/IWantToHoldYourHand_TheBeatles_Original5S.wav,,,,,,,,,,,,,,,,,,,,,,,,,,,,,,,,,,,,,,,,,,,,,,,,,,,,,,,,,
,,,,,151954,1,2024-06-17_13h40.46.258,experiment,2024.1.5,Win32,59.88023952,667045947eb812cbdacbf325,667071dfbb0ee8ebf71c5f7a,,,,,,,,,,,,,,,,,,,,,,,,,,,,,,,,,,,,,,,,,,,,936.1748,937.4577,3.0,1.2783,0.0,13.0,13.0,19.0,1.0,song_indices/IWantToHoldYourHand_TheBeatles.csv,,,,,,,,,,,,,,,,,,,,,,,,,,,,,,,,,,,,,,,,,,,,,,,
,,,,,151954,1,2024-06-17_13h40.46.258,experiment,2024.1.5,Win32,59.88023952,667045947eb812cbdacbf325,667071dfbb0ee8ebf71c5f7a,,,,,,,,,,,,,,,,,,,,,,,,,,,,,,,,,,,,937.4605,943.4914,0.0,0.0,0.0,0.0,1.0,SoundStimuli/AnotherOneBitesTheDust_Queen_Original5S.wav,,,,,,,,,,,,,,,,,,,,,,,,,,,,,,,,,,,,,,,,,,,,,,,,,,,,,,,,,
,,,,,151954,1,2024-06-17_13h40.46.258,experiment,2024.1.5,Win32,59.88023952,667045947eb812cbdacbf325,667071dfbb0ee8ebf71c5f7a,,,,,,,,,,,,,,,,,,,,,,,,,,,,,,,,,,,,943.4928,951.6162,0.0,1.0,1.0,1.0,1.0,SoundStimuli/AnotherOneBitesTheDust_Queen_Cover5S.wav,,,,,,,,,,,,,,,,,,,,,,,,,,,,,,,,,,,,,,,,,,,,,,,,,,,,,,,,,
,,,,,151954,1,2024-06-17_13h40.46.258,experiment,2024.1.5,Win32,59.88023952,667045947eb812cbdacbf325,667071dfbb0ee8ebf71c5f7a,,,,,,,,,,,,,,,,,,,,,,,,,,,,,,,,,,,,,,,,,,,,951.6164,953.7074,4.45555581,2.0856,0.0,14.0,14.0,9.0,1.0,song_indices/AnotherOneBitesTheDust_Queen.csv,,,,,,,,,,,,,,,,,,,,,,,,,,,,,,,,,,,,,,,,,,,,,,,
,,,,,151954,1,2024-06-17_13h40.46.258,experiment,2024.1.5,Win32,59.88023952,667045947eb812cbdacbf325,667071dfbb0ee8ebf71c5f7a,,,,,,,,,,,,,,,,,,,,,,,,,,,,,,,,,,,,953.7107,961.9752,0.0,0.0,0.0,1.0,1.0,SoundStimuli/Perfect_EdSheeran_Cover5S.wav,,,,,,,,,,,,,,,,,,,,,,,,,,,,,,,,,,,,,,,,,,,,,,,,,,,,,,,,,
,,,,,151954,1,2024-06-17_13h40.46.258,experiment,2024.1.5,Win32,59.88023952,667045947eb812cbdacbf325,667071dfbb0ee8ebf71c5f7a,,,,,,,,,,,,,,,,,,,,,,,,,,,,,,,,,,,,961.9765,970.8409,0.0,1.0,1.0,0.0,1.0,SoundStimuli/Perfect_EdSheeran_Original5S.wav,,,,,,,,,,,,,,,,,,,,,,,,,,,,,,,,,,,,,,,,,,,,,,,,,,,,,,,,,
,,,,,151954,1,2024-06-17_13h40.46.258,experiment,2024.1.5,Win32,59.88023952,667045947eb812cbdacbf325,667071dfbb0ee8ebf71c5f7a,,,,,,,,,,,,,,,,,,,,,,,,,,,,,,,,,,,,,,,,,,,,970.8417,972.0077,5.683333503,1.1566,0.0,15.0,15.0,0.0,1.0,song_indices/Perfect_EdSheeran.csv,,,,,,,,,,,,,,,,,,,,,,,,,,,,,,,,,,,,,,,,,,,,,,,
,,,,,151954,1,2024-06-17_13h40.46.258,experiment,2024.1.5,Win32,59.88023952,667045947eb812cbdacbf325,667071dfbb0ee8ebf71c5f7a,,,,,,,,,,,,,,,,,,,,,,,,,,,,,,,,,,,,972.0106,980.3069,0.0,0.0,0.0,1.0,1.0,SoundStimuli/Mood_24kGoldnianndior_Cover5S.wav,,,,,,,,,,,,,,,,,,,,,,,,,,,,,,,,,,,,,,,,,,,,,,,,,,,,,,,,,
,,,,,151954,1,2024-06-17_13h40.46.258,experiment,2024.1.5,Win32,59.88023952,667045947eb812cbdacbf325,667071dfbb0ee8ebf71c5f7a,,,,,,,,,,,,,,,,,,,,,,,,,,,,,,,,,,,,980.3086,986.6071,0.0,1.0,1.0,0.0,1.0,SoundStimuli/Mood_24kGoldnianndior_Original5S.wav,,,,,,,,,,,,,,,,,,,,,,,,,,,,,,,,,,,,,,,,,,,,,,,,,,,,,,,,,
,,,,,151954,1,2024-06-17_13h40.46.258,experiment,2024.1.5,Win32,59.88023952,667045947eb812cbdacbf325,667071dfbb0ee8ebf71c5f7a,,,,,,,,,,,,,,,,,,,,,,,,,,,,,,,,,,,,,,,,,,,,986.6078,991.3902,1.872222265,4.7774,0.0,16.0,16.0,5.0,1.0,song_indices/Mood_24kGoldnianndior.csv,,,,,,,,,,,,,,,,,,,,,,,,,,,,,,,,,,,,,,,,,,,,,,,
,,,,,151954,1,2024-06-17_13h40.46.258,experiment,2024.1.5,Win32,59.88023952,667045947eb812cbdacbf325,667071dfbb0ee8ebf71c5f7a,,,,,,,,,,,,,,,,,,,,,,,,,,,,,,,,,,,,991.393,997.5409,0.0,0.0,0.0,0.0,1.0,SoundStimuli/LikeARollingStone_BobDylan_Original5S.wav,,,,,,,,,,,,,,,,,,,,,,,,,,,,,,,,,,,,,,,,,,,,,,,,,,,,,,,,,
,,,,,151954,1,2024-06-17_13h40.46.258,experiment,2024.1.5,Win32,59.88023952,667045947eb812cbdacbf325,667071dfbb0ee8ebf71c5f7a,,,,,,,,,,,,,,,,,,,,,,,,,,,,,,,,,,,,997.5428,1001.9408,0.0,1.0,1.0,1.0,1.0,SoundStimuli/LikeARollingStone_BobDylan_Cover5S.wav,,,,,,,,,,,,,,,,,,,,,,,,,,,,,,,,,,,,,,,,,,,,,,,,,,,,,,,,,
,,,,,151954,1,2024-06-17_13h40.46.258,experiment,2024.1.5,Win32,59.88023952,667045947eb812cbdacbf325,667071dfbb0ee8ebf71c5f7a,,,,,,,,,,,,,,,,,,,,,,,,,,,,,,,,,,,,,,,,,,,,1001.9414,1007.6568,4.688888974,5.7094,0.0,17.0,17.0,12.0,1.0,song_indices/LikeARollingStone_BobDylan.csv,,,,,,,,,,,,,,,,,,,,,,,,,,,,,,,,,,,,,,,,,,,,,,,
,,,,,151954,1,2024-06-17_13h40.46.258,experiment,2024.1.5,Win32,59.88023952,667045947eb812cbdacbf325,667071dfbb0ee8ebf71c5f7a,,,,,,,,,,,,,,,,,,,,,,,,,,,,,,,,,,,,1007.66,1013.906,0.0,0.0,0.0,0.0,1.0,SoundStimuli/LivinOnAPrayer_BonJovi_Original5S.wav,,,,,,,,,,,,,,,,,,,,,,,,,,,,,,,,,,,,,,,,,,,,,,,,,,,,,,,,,
,,,,,151954,1,2024-06-17_13h40.46.258,experiment,2024.1.5,Win32,59.88023952,667045947eb812cbdacbf325,667071dfbb0ee8ebf71c5f7a,,,,,,,,,,,,,,,,,,,,,,,,,,,,,,,,,,,,1013.9074,1021.5907,0.0,1.0,1.0,1.0,1.0,SoundStimuli/LivinOnAPrayer_BonJovi_Cover5S.wav,,,,,,,,,,,,,,,,,,,,,,,,,,,,,,,,,,,,,,,,,,,,,,,,,,,,,,,,,
,,,,,151954,1,2024-06-17_13h40.46.258,experiment,2024.1.5,Win32,59.88023952,667045947eb812cbdacbf325,667071dfbb0ee8ebf71c5f7a,,,,,,,,,,,,,,,,,,,,,,,,,,,,,,,,,,,,,,,,,,,,1021.5911,1023.04,1.516666624,1.4447,0.0,18.0,18.0,16.0,1.0,song_indices/LivinOnAPrayer_BonJovi.csv,,,,,,,,,,,,,,,,,,,,,,,,,,,,,,,,,,,,,,,,,,,,,,,
,,,,,151954,1,2024-06-17_13h40.46.258,experiment,2024.1.5,Win32,59.88023952,667045947eb812cbdacbf325,667071dfbb0ee8ebf71c5f7a,,,,,,,,,,,,,,,,,,,,,,,,,,,,,,,,,,,,1023.0426,1029.2401,0.0,0.0,0.0,0.0,1.0,SoundStimuli/LikeAPrayer_Madonna_Original5S.wav,,,,,,,,,,,,,,,,,,,,,,,,,,,,,,,,,,,,,,,,,,,,,,,,,,,,,,,,,
,,,,,151954,1,2024-06-17_13h40.46.258,experiment,2024.1.5,Win32,59.88023952,667045947eb812cbdacbf325,667071dfbb0ee8ebf71c5f7a,,,,,,,,,,,,,,,,,,,,,,,,,,,,,,,,,,,,1029.2418,1035.4564,0.0,1.0,1.0,1.0,1.0,SoundStimuli/LikeAPrayer_Madonna_Cover5S.wav,,,,,,,,,,,,,,,,,,,,,,,,,,,,,,,,,,,,,,,,,,,,,,,,,,,,,,,,,
,,,,,151954,1,2024-06-17_13h40.46.258,experiment,2024.1.5,Win32,59.88023952,667045947eb812cbdacbf325,667071dfbb0ee8ebf71c5f7a,,,,,,,,,,,,,,,,,,,,,,,,,,,,,,,,,,,,,,,,,,,,1035.457,1036.7566,6.166666667,1.2906,0.0,19.0,19.0,7.0,1.0,song_indices/LikeAPrayer_Madonna.csv,,,,,,,,,,,,,,,,,,,,,,,,,,,,,,,,,,,,,,,,,,,,,,,
,,,,,151954,1,2024-06-17_13h40.46.258,experiment,2024.1.5,Win32,59.88023952,667045947eb812cbdacbf325,667071dfbb0ee8ebf71c5f7a,,,,,,,,,,,,,,,,,,,,,,,,,,,,,,,,,,,,1036.7592,1045.3565,0.0,0.0,0.0,1.0,1.0,SoundStimuli/HeatWaves_GlassAnimals_Cover5S.wav,,,,,,,,,,,,,,,,,,,,,,,,,,,,,,,,,,,,,,,,,,,,,,,,,,,,,,,,,
,,,,,151954,1,2024-06-17_13h40.46.258,experiment,2024.1.5,Win32,59.88023952,667045947eb812cbdacbf325,667071dfbb0ee8ebf71c5f7a,,,,,,,,,,,,,,,,,,,,,,,,,,,,,,,,,,,,1045.3578,1051.4558,0.0,1.0,1.0,0.0,1.0,SoundStimuli/HeatWaves_GlassAnimals_Original5S.wav,,,,,,,,,,,,,,,,,,,,,,,,,,,,,,,,,,,,,,,,,,,,,,,,,,,,,,,,,
,,,,,151954,1,2024-06-17_13h40.46.258,experiment,2024.1.5,Win32,59.88023952,667045947eb812cbdacbf325,667071dfbb0ee8ebf71c5f7a,,,,,,,,,,,,,,,,,,,,,,,,,,,,,,,,,,,,,,,,,,,,1051.4565,1053.4075,4.988889058,1.9473,0.0,20.0,20.0,10.0,1.0,song_indices/HeatWaves_GlassAnimals.csv,,,,,,,,,,,,,,,,,,,,,,,,,,,,,,,,,,,,,,,,,,,,,,,
,,,,,151954,1,2024-06-17_13h40.46.258,experiment,2024.1.5,Win32,59.88023952,667045947eb812cbdacbf325,667071dfbb0ee8ebf71c5f7a,,,,,,,,,,,,,,,,,,,,,,,,,,,,,,,,,,,,1053.4091,1059.4561,0.0,0.0,0.0,0.0,1.0,SoundStimuli/AChangeIsGonnaCome_SamCooke_Original5S.wav,,,,,,,,,,,,,,,,,,,,,,,,,,,,,,,,,,,,,,,,,,,,,,,,,,,,,,,,,
,,,,,151954,1,2024-06-17_13h40.46.258,experiment,2024.1.5,Win32,59.88023952,667045947eb812cbdacbf325,667071dfbb0ee8ebf71c5f7a,,,,,,,,,,,,,,,,,,,,,,,,,,,,,,,,,,,,1059.4578,1064.1723,0.0,1.0,1.0,1.0,1.0,SoundStimuli/AChangeIsGonnaCome_SamCooke_Cover5S.wav,,,,,,,,,,,,,,,,,,,,,,,,,,,,,,,,,,,,,,,,,,,,,,,,,,,,,,,,,
,,,,,151954,1,2024-06-17_13h40.46.258,experiment,2024.1.5,Win32,59.88023952,667045947eb812cbdacbf325,667071dfbb0ee8ebf71c5f7a,,,,,,,,,,,,,,,,,,,,,,,,,,,,,,,,,,,,,,,,,,,,1064.1727,1066.389,5.400000254,2.211,0.0,21.0,21.0,17.0,1.0,song_indices/AChangeIsGonnaCome_SamCooke.csv,,,,,,,,,,,,,,,,,,,,,,,,,,,,,,,,,,,,,,,,,,,,,,,
,,,,,151954,1,2024-06-17_13h40.46.258,experiment,2024.1.5,Win32,59.88023952,667045947eb812cbdacbf325,667071dfbb0ee8ebf71c5f7a,,,,,,,,,,,,,,,,,,,,,,,,,,,,,,,,,,,,1066.3919,1072.7895,0.0,0.0,0.0,0.0,1.0,SoundStimuli/MyGirl_TheTemptations_Original5S.wav,,,,,,,,,,,,,,,,,,,,,,,,,,,,,,,,,,,,,,,,,,,,,,,,,,,,,,,,,
,,,,,151954,1,2024-06-17_13h40.46.258,experiment,2024.1.5,Win32,59.88023952,667045947eb812cbdacbf325,667071dfbb0ee8ebf71c5f7a,,,,,,,,,,,,,,,,,,,,,,,,,,,,,,,,,,,,1072.7913,1080.4387,0.0,1.0,1.0,1.0,1.0,SoundStimuli/MyGirl_TheTemptations_Cover5S.wav,,,,,,,,,,,,,,,,,,,,,,,,,,,,,,,,,,,,,,,,,,,,,,,,,,,,,,,,,
,,,,,151954,1,2024-06-17_13h40.46.258,experiment,2024.1.5,Win32,59.88023952,667045947eb812cbdacbf325,667071dfbb0ee8ebf71c5f7a,,,,,,,,,,,,,,,,,,,,,,,,,,,,,,,,,,,,,,,,,,,,1080.4394,1085.1307,4.477777693,4.6901,0.0,22.0,22.0,15.0,1.0,song_indices/MyGirl_TheTemptations.csv,,,,,,,,,,,,,,,,,,,,,,,,,,,,,,,,,,,,,,,,,,,,,,,
,,,,,151954,1,2024-06-17_13h40.46.258,experiment,2024.1.5,Win32,59.88023952,667045947eb812cbdacbf325,667071dfbb0ee8ebf71c5f7a,,,,,,,,,,,,,,,,,,,,,,,,,,,,,,,,,,,,,,,,,,,,,,,,,,,,,,1085.1308,1112.8556,space,27.6992,,0.0,1.0,1.0,0.0,1.0,choose_song_b1.csv,,,,,,,,,,,,,,,,,,,,,,,,,,,,,,,,,,,,
,,,,,151954,1,2024-06-17_13h40.46.258,experiment,2024.1.5,Win32,59.88023952,667045947eb812cbdacbf325,667071dfbb0ee8ebf71c5f7a,,,,,,,,,,,,,,,,,,,,,,,,,,,,,,,,,,,,1112.8586,1123.2041,0.0,0.0,0.0,1.0,1.0,SoundStimuli/CrazyInLove_BeyonceFtJayZ_Cover5S.wav,,,,,,,,,,,,,,,,,,,,,,,,,,,,,,,,,,,,,,,,,,,,,,,,,,,,,,,,,
,,,,,151954,1,2024-06-17_13h40.46.258,experiment,2024.1.5,Win32,59.88023952,667045947eb812cbdacbf325,667071dfbb0ee8ebf71c5f7a,,,,,,,,,,,,,,,,,,,,,,,,,,,,,,,,,,,,1123.2057,1129.846,0.0,1.0,1.0,0.0,1.0,SoundStimuli/CrazyInLove_BeyonceFtJayZ_Original5S.wav,,,,,,,,,,,,,,,,,,,,,,,,,,,,,,,,,,,,,,,,,,,,,,,,,,,,,,,,,
,,,,,151954,1,2024-06-17_13h40.46.258,experiment,2024.1.5,Win32,59.88023952,667045947eb812cbdacbf325,667071dfbb0ee8ebf71c5f7a,,,,,,,,,,,,,,,,,,,,,,,,,,,,,,,,,,,,,,,,,,,,1129.8461,1131.638,2.788889143,1.7838,0.0,0.0,0.0,3.0,1.0,song_indices/CrazyInLove_BeyonceFtJayZ.csv,,,,,,,,,,,,,,,,,,,,,,,,,,,,,,,,,,,,,,,,,,,,,,,
,,,,,151954,1,2024-06-17_13h40.46.258,experiment,2024.1.5,Win32,59.88023952,667045947eb812cbdacbf325,667071dfbb0ee8ebf71c5f7a,,,,,,,,,,,,,,,,,,,,,,,,,,,,,,,,,,,,1131.6406,1137.6204,0.0,0.0,0.0,0.0,1.0,SoundStimuli/IWalkTheLine_JohnnyCash_Original5S.wav,,,,,,,,,,,,,,,,,,,,,,,,,,,,,,,,,,,,,,,,,,,,,,,,,,,,,,,,,
,,,,,151954,1,2024-06-17_13h40.46.258,experiment,2024.1.5,Win32,59.88023952,667045947eb812cbdacbf325,667071dfbb0ee8ebf71c5f7a,,,,,,,,,,,,,,,,,,,,,,,,,,,,,,,,,,,,1137.6217,1144.7617,0.0,1.0,1.0,1.0,1.0,SoundStimuli/IWalkTheLine_JohnnyCash_Cover5S.wav,,,,,,,,,,,,,,,,,,,,,,,,,,,,,,,,,,,,,,,,,,,,,,,,,,,,,,,,,
,,,,,151954,1,2024-06-17_13h40.46.258,experiment,2024.1.5,Win32,59.88023952,667045947eb812cbdacbf325,667071dfbb0ee8ebf71c5f7a,,,,,,,,,,,,,,,,,,,,,,,,,,,,,,,,,,,,,,,,,,,,1144.7619,1146.6612,5.127777947,1.8988,0.0,1.0,1.0,17.0,1.0,song_indices/IWalkTheLine_JohnnyCash.csv,,,,,,,,,,,,,,,,,,,,,,,,,,,,,,,,,,,,,,,,,,,,,,,
,,,,,151954,1,2024-06-17_13h40.46.258,experiment,2024.1.5,Win32,59.88023952,667045947eb812cbdacbf325,667071dfbb0ee8ebf71c5f7a,,,,,,,,,,,,,,,,,,,,,,,,,,,,,,,,,,,,1146.6618,1153.8867,0.0,0.0,0.0,0.0,1.0,SoundStimuli/UptownFunk_MarkRonson_Original5S.wav,,,,,,,,,,,,,,,,,,,,,,,,,,,,,,,,,,,,,,,,,,,,,,,,,,,,,,,,,
,,,,,151954,1,2024-06-17_13h40.46.258,experiment,2024.1.5,Win32,59.88023952,667045947eb812cbdacbf325,667071dfbb0ee8ebf71c5f7a,,,,,,,,,,,,,,,,,,,,,,,,,,,,,,,,,,,,1153.8881,1160.9199,0.0,1.0,1.0,1.0,1.0,SoundStimuli/UptownFunk_MarkRonson_Cover5S.wav,,,,,,,,,,,,,,,,,,,,,,,,,,,,,,,,,,,,,,,,,,,,,,,,,,,,,,,,,
,,,,,151954,1,2024-06-17_13h40.46.258,experiment,2024.1.5,Win32,59.88023952,667045947eb812cbdacbf325,667071dfbb0ee8ebf71c5f7a,,,,,,,,,,,,,,,,,,,,,,,,,,,,,,,,,,,,,,,,,,,,1160.9205,1162.3201,6.977778117,1.3921,0.0,2.0,2.0,15.0,1.0,song_indices/UptownFunk_MarkRonson.csv,,,,,,,,,,,,,,,,,,,,,,,,,,,,,,,,,,,,,,,,,,,,,,,
,,,,,151954,1,2024-06-17_13h40.46.258,experiment,2024.1.5,Win32,59.88023952,667045947eb812cbdacbf325,667071dfbb0ee8ebf71c5f7a,,,,,,,,,,,,,,,,,,,,,,,,,,,,,,,,,,,,1162.3231,1168.5535,0.0,0.0,0.0,0.0,1.0,SoundStimuli/TheBattleOfNewOrleans_JohnnyHorton_Original5S.wav,,,,,,,,,,,,,,,,,,,,,,,,,,,,,,,,,,,,,,,,,,,,,,,,,,,,,,,,,
,,,,,151954,1,2024-06-17_13h40.46.258,experiment,2024.1.5,Win32,59.88023952,667045947eb812cbdacbf325,667071dfbb0ee8ebf71c5f7a,,,,,,,,,,,,,,,,,,,,,,,,,,,,,,,,,,,,1168.5554,1176.5367,0.0,1.0,1.0,1.0,1.0,SoundStimuli/TheBattleOfNewOrleans_JohnnyHorton_Cover5S.wav,,,,,,,,,,,,,,,,,,,,,,,,,,,,,,,,,,,,,,,,,,,,,,,,,,,,,,,,,
,,,,,151954,1,2024-06-17_13h40.46.258,experiment,2024.1.5,Win32,59.88023952,667045947eb812cbdacbf325,667071dfbb0ee8ebf71c5f7a,,,,,,,,,,,,,,,,,,,,,,,,,,,,,,,,,,,,,,,,,,,,1176.5375,1179.2205,4.783333249,2.6731,0.0,3.0,3.0,4.0,1.0,song_indices/TheBattleOfNewOrleans_JohnnyHorton.csv,,,,,,,,,,,,,,,,,,,,,,,,,,,,,,,,,,,,,,,,,,,,,,,
,,,,,151954,1,2024-06-17_13h40.46.258,experiment,2024.1.5,Win32,59.88023952,667045947eb812cbdacbf325,667071dfbb0ee8ebf71c5f7a,,,,,,,,,,,,,,,,,,,,,,,,,,,,,,,,,,,,1179.2231,1185.4872,0.0,0.0,0.0,0.0,1.0,SoundStimuli/ItsAllInTheGame_TommyEdwards_Original5S.wav,,,,,,,,,,,,,,,,,,,,,,,,,,,,,,,,,,,,,,,,,,,,,,,,,,,,,,,,,
,,,,,151954,1,2024-06-17_13h40.46.258,experiment,2024.1.5,Win32,59.88023952,667045947eb812cbdacbf325,667071dfbb0ee8ebf71c5f7a,,,,,,,,,,,,,,,,,,,,,,,,,,,,,,,,,,,,1185.489,1191.7197,0.0,1.0,1.0,1.0,1.0,SoundStimuli/ItsAllInTheGame_TommyEdwards_Cover5S.wav,,,,,,,,,,,,,,,,,,,,,,,,,,,,,,,,,,,,,,,,,,,,,,,,,,,,,,,,,
,,,,,151954,1,2024-06-17_13h40.46.258,experiment,2024.1.5,Win32,59.88023952,667045947eb812cbdacbf325,667071dfbb0ee8ebf71c5f7a,,,,,,,,,,,,,,,,,,,,,,,,,,,,,,,,,,,,,,,,,,,,1191.7204,1193.7528,4.488889058,2.0254,0.0,4.0,4.0,13.0,1.0,song_indices/ItsAllInTheGame_TommyEdwards.csv,,,,,,,,,,,,,,,,,,,,,,,,,,,,,,,,,,,,,,,,,,,,,,,
,,,,,151954,1,2024-06-17_13h40.46.258,experiment,2024.1.5,Win32,59.88023952,667045947eb812cbdacbf325,667071dfbb0ee8ebf71c5f7a,,,,,,,,,,,,,,,,,,,,,,,,,,,,,,,,,,,,1193.7556,1200.0694,0.0,0.0,0.0,1.0,1.0,SoundStimuli/ShapeofYou_EdSheeran_Cover5S.wav,,,,,,,,,,,,,,,,,,,,,,,,,,,,,,,,,,,,,,,,,,,,,,,,,,,,,,,,,
,,,,,151954,1,2024-06-17_13h40.46.258,experiment,2024.1.5,Win32,59.88023952,667045947eb812cbdacbf325,667071dfbb0ee8ebf71c5f7a,,,,,,,,,,,,,,,,,,,,,,,,,,,,,,,,,,,,1200.0708,1206.5449,0.0,1.0,1.0,0.0,1.0,SoundStimuli/ShapeofYou_EdSheeran_Original5S.wav,,,,,,,,,,,,,,,,,,,,,,,,,,,,,,,,,,,,,,,,,,,,,,,,,,,,,,,,,
,,,,,151954,1,2024-06-17_13h40.46.258,experiment,2024.1.5,Win32,59.88023952,667045947eb812cbdacbf325,667071dfbb0ee8ebf71c5f7a,,,,,,,,,,,,,,,,,,,,,,,,,,,,,,,,,,,,,,,,,,,,1206.5451,1210.4195,5.538889143,3.8658,0.0,5.0,5.0,21.0,1.0,song_indices/ShapeofYou_EdSheeran.csv,,,,,,,,,,,,,,,,,,,,,,,,,,,,,,,,,,,,,,,,,,,,,,,
,,,,,151954,1,2024-06-17_13h40.46.258,experiment,2024.1.5,Win32,59.88023952,667045947eb812cbdacbf325,667071dfbb0ee8ebf71c5f7a,,,,,,,,,,,,,,,,,,,,,,,,,,,,,,,,,,,,1210.422,1216.6358,0.0,0.0,0.0,1.0,1.0,SoundStimuli/NoOne_AliciaKeys_Cover5S.wav,,,,,,,,,,,,,,,,,,,,,,,,,,,,,,,,,,,,,,,,,,,,,,,,,,,,,,,,,
,,,,,151954,1,2024-06-17_13h40.46.258,experiment,2024.1.5,Win32,59.88023952,667045947eb812cbdacbf325,667071dfbb0ee8ebf71c5f7a,,,,,,,,,,,,,,,,,,,,,,,,,,,,,,,,,,,,1216.6373,1224.3609,0.0,1.0,1.0,0.0,1.0,SoundStimuli/NoOne_AliciaKeys_Original5S.wav,,,,,,,,,,,,,,,,,,,,,,,,,,,,,,,,,,,,,,,,,,,,,,,,,,,,,,,,,
,,,,,151954,1,2024-06-17_13h40.46.258,experiment,2024.1.5,Win32,59.88023952,667045947eb812cbdacbf325,667071dfbb0ee8ebf71c5f7a,,,,,,,,,,,,,,,,,,,,,,,,,,,,,,,,,,,,,,,,,,,,1224.3611,1225.8017,3.527777778,1.4337,0.0,6.0,6.0,19.0,1.0,song_indices/NoOne_AliciaKeys.csv,,,,,,,,,,,,,,,,,,,,,,,,,,,,,,,,,,,,,,,,,,,,,,,
,,,,,151954,1,2024-06-17_13h40.46.258,experiment,2024.1.5,Win32,59.88023952,667045947eb812cbdacbf325,667071dfbb0ee8ebf71c5f7a,,,,,,,,,,,,,,,,,,,,,,,,,,,,,,,,,,,,1225.8051,1233.1519,0.0,0.0,0.0,1.0,1.0,SoundStimuli/Happy_PharellWilliams_Cover5S.wav,,,,,,,,,,,,,,,,,,,,,,,,,,,,,,,,,,,,,,,,,,,,,,,,,,,,,,,,,
,,,,,151954,1,2024-06-17_13h40.46.258,experiment,2024.1.5,Win32,59.88023952,667045947eb812cbdacbf325,667071dfbb0ee8ebf71c5f7a,,,,,,,,,,,,,,,,,,,,,,,,,,,,,,,,,,,,1233.1536,1240.5102,0.0,1.0,1.0,0.0,1.0,SoundStimuli/Happy_PharellWilliams_Original5S.wav,,,,,,,,,,,,,,,,,,,,,,,,,,,,,,,,,,,,,,,,,,,,,,,,,,,,,,,,,
,,,,,151954,1,2024-06-17_13h40.46.258,experiment,2024.1.5,Win32,59.88023952,667045947eb812cbdacbf325,667071dfbb0ee8ebf71c5f7a,,,,,,,,,,,,,,,,,,,,,,,,,,,,,,,,,,,,,,,,,,,,1240.5102,1241.9938,5.672222137,1.483,0.0,7.0,7.0,7.0,1.0,song_indices/Happy_PharellWilliams.csv,,,,,,,,,,,,,,,,,,,,,,,,,,,,,,,,,,,,,,,,,,,,,,,
,,,,,151954,1,2024-06-17_13h40.46.258,experiment,2024.1.5,Win32,59.88023952,667045947eb812cbdacbf325,667071dfbb0ee8ebf71c5f7a,,,,,,,,,,,,,,,,,,,,,,,,,,,,,,,,,,,,1241.9944,1247.8935,0.0,0.0,0.0,0.0,1.0,SoundStimuli/EyeOfTheTiger_Survivor_Original5S.wav,,,,,,,,,,,,,,,,,,,,,,,,,,,,,,,,,,,,,,,,,,,,,,,,,,,,,,,,,
,,,,,151954,1,2024-06-17_13h40.46.258,experiment,2024.1.5,Win32,59.88023952,667045947eb812cbdacbf325,667071dfbb0ee8ebf71c5f7a,,,,,,,,,,,,,,,,,,,,,,,,,,,,,,,,,,,,1247.8939,1254.0186,0.0,1.0,1.0,1.0,1.0,SoundStimuli/EyeOfTheTiger_Survivor_Cover5S.wav,,,,,,,,,,,,,,,,,,,,,,,,,,,,,,,,,,,,,,,,,,,,,,,,,,,,,,,,,
,,,,,151954,1,2024-06-17_13h40.46.258,experiment,2024.1.5,Win32,59.88023952,667045947eb812cbdacbf325,667071dfbb0ee8ebf71c5f7a,,,,,,,,,,,,,,,,,,,,,,,,,,,,,,,,,,,,,,,,,,,,1254.0192,1256.1512,5.111111111,2.1286,0.0,8.0,8.0,11.0,1.0,song_indices/EyeOfTheTiger_Survivor.csv,,,,,,,,,,,,,,,,,,,,,,,,,,,,,,,,,,,,,,,,,,,,,,,
,,,,,151954,1,2024-06-17_13h40.46.258,experiment,2024.1.5,Win32,59.88023952,667045947eb812cbdacbf325,667071dfbb0ee8ebf71c5f7a,,,,,,,,,,,,,,,,,,,,,,,,,,,,,,,,,,,,1256.1543,1262.3682,0.0,0.0,0.0,0.0,1.0,SoundStimuli/BetteDavisEyes_KimCarnes_Original5S.wav,,,,,,,,,,,,,,,,,,,,,,,,,,,,,,,,,,,,,,,,,,,,,,,,,,,,,,,,,
,,,,,151954,1,2024-06-17_13h40.46.258,experiment,2024.1.5,Win32,59.88023952,667045947eb812cbdacbf325,667071dfbb0ee8ebf71c5f7a,,,,,,,,,,,,,,,,,,,,,,,,,,,,,,,,,,,,1262.3699,1268.0926,0.0,1.0,1.0,1.0,1.0,SoundStimuli/BetteDavisEyes_KimCarnes_Cover5S.wav,,,,,,,,,,,,,,,,,,,,,,,,,,,,,,,,,,,,,,,,,,,,,,,,,,,,,,,,,
,,,,,151954,1,2024-06-17_13h40.46.258,experiment,2024.1.5,Win32,59.88023952,667045947eb812cbdacbf325,667071dfbb0ee8ebf71c5f7a,,,,,,,,,,,,,,,,,,,,,,,,,,,,,,,,,,,,,,,,,,,,1268.0928,1269.9675,4.266666836,1.8673,0.0,9.0,9.0,5.0,1.0,song_indices/BetteDavisEyes_KimCarnes.csv,,,,,,,,,,,,,,,,,,,,,,,,,,,,,,,,,,,,,,,,,,,,,,,
,,,,,151954,1,2024-06-17_13h40.46.258,experiment,2024.1.5,Win32,59.88023952,667045947eb812cbdacbf325,667071dfbb0ee8ebf71c5f7a,,,,,,,,,,,,,,,,,,,,,,,,,,,,,,,,,,,,1269.9709,1275.8178,0.0,0.0,0.0,1.0,1.0,SoundStimuli/IWillAlwaysLoveYou_WhitneyHouston_Cover5S.wav,,,,,,,,,,,,,,,,,,,,,,,,,,,,,,,,,,,,,,,,,,,,,,,,,,,,,,,,,
,,,,,151954,1,2024-06-17_13h40.46.258,experiment,2024.1.5,Win32,59.88023952,667045947eb812cbdacbf325,667071dfbb0ee8ebf71c5f7a,,,,,,,,,,,,,,,,,,,,,,,,,,,,,,,,,,,,1275.8191,1282.2091,0.0,1.0,1.0,0.0,1.0,SoundStimuli/IWillAlwaysLoveYou_WhitneyHouston_Original5S.wav,,,,,,,,,,,,,,,,,,,,,,,,,,,,,,,,,,,,,,,,,,,,,,,,,,,,,,,,,
,,,,,151954,1,2024-06-17_13h40.46.258,experiment,2024.1.5,Win32,59.88023952,667045947eb812cbdacbf325,667071dfbb0ee8ebf71c5f7a,,,,,,,,,,,,,,,,,,,,,,,,,,,,,,,,,,,,,,,,,,,,1282.2092,1284.4545,6.994444953,2.2446,0.0,10.0,10.0,10.0,1.0,song_indices/IWillAlwaysLoveYou_WhitneyHouston.csv,,,,,,,,,,,,,,,,,,,,,,,,,,,,,,,,,,,,,,,,,,,,,,,
,,,,,151954,1,2024-06-17_13h40.46.258,experiment,2024.1.5,Win32,59.88023952,667045947eb812cbdacbf325,667071dfbb0ee8ebf71c5f7a,,,,,,,,,,,,,,,,,,,,,,,,,,,,,,,,,,,,1284.4551,1291.3005,0.0,0.0,0.0,1.0,1.0,SoundStimuli/PartyRockAnthem_LMFAO_Cover5S.wav,,,,,,,,,,,,,,,,,,,,,,,,,,,,,,,,,,,,,,,,,,,,,,,,,,,,,,,,,
,,,,,151954,1,2024-06-17_13h40.46.258,experiment,2024.1.5,Win32,59.88023952,667045947eb812cbdacbf325,667071dfbb0ee8ebf71c5f7a,,,,,,,,,,,,,,,,,,,,,,,,,,,,,,,,,,,,1291.3019,1298.1594,0.0,1.0,1.0,0.0,1.0,SoundStimuli/PartyRockAnthem_LMFAO_Original5S.wav,,,,,,,,,,,,,,,,,,,,,,,,,,,,,,,,,,,,,,,,,,,,,,,,,,,,,,,,,
,,,,,151954,1,2024-06-17_13h40.46.258,experiment,2024.1.5,Win32,59.88023952,667045947eb812cbdacbf325,667071dfbb0ee8ebf71c5f7a,,,,,,,,,,,,,,,,,,,,,,,,,,,,,,,,,,,,,,,,,,,,1298.1596,1300.6506,4.70555581,2.483,0.0,11.0,11.0,2.0,1.0,song_indices/PartyRockAnthem_LMFAO.csv,,,,,,,,,,,,,,,,,,,,,,,,,,,,,,,,,,,,,,,,,,,,,,,
,,,,,151954,1,2024-06-17_13h40.46.258,experiment,2024.1.5,Win32,59.88023952,667045947eb812cbdacbf325,667071dfbb0ee8ebf71c5f7a,,,,,,,,,,,,,,,,,,,,,,,,,,,,,,,,,,,,1300.6536,1306.8675,0.0,0.0,0.0,0.0,1.0,SoundStimuli/TheBoyIsMine_BrandyMonica_Original5S.wav,,,,,,,,,,,,,,,,,,,,,,,,,,,,,,,,,,,,,,,,,,,,,,,,,,,,,,,,,
,,,,,151954,1,2024-06-17_13h40.46.258,experiment,2024.1.5,Win32,59.88023952,667045947eb812cbdacbf325,667071dfbb0ee8ebf71c5f7a,,,,,,,,,,,,,,,,,,,,,,,,,,,,,,,,,,,,1306.8698,1312.8257,0.0,1.0,1.0,1.0,1.0,SoundStimuli/TheBoyIsMine_BrandyMonica_Cover5S.wav,,,,,,,,,,,,,,,,,,,,,,,,,,,,,,,,,,,,,,,,,,,,,,,,,,,,,,,,,
,,,,,151954,1,2024-06-17_13h40.46.258,experiment,2024.1.5,Win32,59.88023952,667045947eb812cbdacbf325,667071dfbb0ee8ebf71c5f7a,,,,,,,,,,,,,,,,,,,,,,,,,,,,,,,,,,,,,,,,,,,,1312.8258,1314.2923,6.64999983,1.4658,0.0,12.0,12.0,6.0,1.0,song_indices/TheBoyIsMine_BrandyMonica.csv,,,,,,,,,,,,,,,,,,,,,,,,,,,,,,,,,,,,,,,,,,,,,,,
,,,,,151954,1,2024-06-17_13h40.46.258,experiment,2024.1.5,Win32,59.88023952,667045947eb812cbdacbf325,667071dfbb0ee8ebf71c5f7a,,,,,,,,,,,,,,,,,,,,,,,,,,,,,,,,,,,,1314.293,1320.5867,0.0,0.0,0.0,0.0,1.0,SoundStimuli/HeyYa_Outkast_Original5S.wav,,,,,,,,,,,,,,,,,,,,,,,,,,,,,,,,,,,,,,,,,,,,,,,,,,,,,,,,,
,,,,,151954,1,2024-06-17_13h40.46.258,experiment,2024.1.5,Win32,59.88023952,667045947eb812cbdacbf325,667071dfbb0ee8ebf71c5f7a,,,,,,,,,,,,,,,,,,,,,,,,,,,,,,,,,,,,1320.587,1329.5094,0.0,1.0,1.0,1.0,1.0,SoundStimuli/HeyYa_Outkast_Cover5S.wav,,,,,,,,,,,,,,,,,,,,,,,,,,,,,,,,,,,,,,,,,,,,,,,,,,,,,,,,,
,,,,,151954,1,2024-06-17_13h40.46.258,experiment,2024.1.5,Win32,59.88023952,667045947eb812cbdacbf325,667071dfbb0ee8ebf71c5f7a,,,,,,,,,,,,,,,,,,,,,,,,,,,,,,,,,,,,,,,,,,,,1329.5096,1331.2503,3.366666582,1.7336,0.0,13.0,13.0,22.0,1.0,song_indices/HeyYa_Outkast.csv,,,,,,,,,,,,,,,,,,,,,,,,,,,,,,,,,,,,,,,,,,,,,,,
,,,,,151954,1,2024-06-17_13h40.46.258,experiment,2024.1.5,Win32,59.88023952,667045947eb812cbdacbf325,667071dfbb0ee8ebf71c5f7a,,,,,,,,,,,,,,,,,,,,,,,,,,,,,,,,,,,,1331.2529,1337.6992,0.0,0.0,0.0,1.0,1.0,SoundStimuli/GoodGollyMissMolly_LittleRichard_Cover5S.wav,,,,,,,,,,,,,,,,,,,,,,,,,,,,,,,,,,,,,,,,,,,,,,,,,,,,,,,,,
,,,,,151954,1,2024-06-17_13h40.46.258,experiment,2024.1.5,Win32,59.88023952,667045947eb812cbdacbf325,667071dfbb0ee8ebf71c5f7a,,,,,,,,,,,,,,,,,,,,,,,,,,,,,,,,,,,,1337.7006,1343.8492,0.0,1.0,1.0,0.0,1.0,SoundStimuli/GoodGollyMissMolly_LittleRichard_Original5S.wav,,,,,,,,,,,,,,,,,,,,,,,,,,,,,,,,,,,,,,,,,,,,,,,,,,,,,,,,,
,,,,,151954,1,2024-06-17_13h40.46.258,experiment,2024.1.5,Win32,59.88023952,667045947eb812cbdacbf325,667071dfbb0ee8ebf71c5f7a,,,,,,,,,,,,,,,,,,,,,,,,,,,,,,,,,,,,,,,,,,,,1343.8498,1345.016,5.061111026,1.1574,0.0,14.0,14.0,0.0,1.0,song_indices/GoodGollyMissMolly_LittleRichard.csv,,,,,,,,,,,,,,,,,,,,,,,,,,,,,,,,,,,,,,,,,,,,,,,
,,,,,151954,1,2024-06-17_13h40.46.258,experiment,2024.1.5,Win32,59.88023952,667045947eb812cbdacbf325,667071dfbb0ee8ebf71c5f7a,,,,,,,,,,,,,,,,,,,,,,,,,,,,,,,,,,,,1345.0195,1350.7992,0.0,0.0,0.0,1.0,1.0,SoundStimuli/SmellsLikeTeenSpirit_Nirvana_Cover5S.wav,,,,,,,,,,,,,,,,,,,,,,,,,,,,,,,,,,,,,,,,,,,,,,,,,,,,,,,,,
,,,,,151954,1,2024-06-17_13h40.46.258,experiment,2024.1.5,Win32,59.88023952,667045947eb812cbdacbf325,667071dfbb0ee8ebf71c5f7a,,,,,,,,,,,,,,,,,,,,,,,,,,,,,,,,,,,,1350.8007,1357.0166,0.0,1.0,1.0,0.0,1.0,SoundStimuli/SmellsLikeTeenSpirit_Nirvana_Original5S.wav,,,,,,,,,,,,,,,,,,,,,,,,,,,,,,,,,,,,,,,,,,,,,,,,,,,,,,,,,
,,,,,151954,1,2024-06-17_13h40.46.258,experiment,2024.1.5,Win32,59.88023952,667045947eb812cbdacbf325,667071dfbb0ee8ebf71c5f7a,,,,,,,,,,,,,,,,,,,,,,,,,,,,,,,,,,,,,,,,,,,,1357.017,1359.7661,5.427778032,2.74,0.0,15.0,15.0,8.0,1.0,song_indices/SmellsLikeTeenSpirit_Nirvana.csv,,,,,,,,,,,,,,,,,,,,,,,,,,,,,,,,,,,,,,,,,,,,,,,
,,,,,151954,1,2024-06-17_13h40.46.258,experiment,2024.1.5,Win32,59.88023952,667045947eb812cbdacbf325,667071dfbb0ee8ebf71c5f7a,,,,,,,,,,,,,,,,,,,,,,,,,,,,,,,,,,,,1359.7691,1366.0994,0.0,0.0,0.0,1.0,1.0,SoundStimuli/Stronger_KanyeWest_Cover5S.wav,,,,,,,,,,,,,,,,,,,,,,,,,,,,,,,,,,,,,,,,,,,,,,,,,,,,,,,,,
,,,,,151954,1,2024-06-17_13h40.46.258,experiment,2024.1.5,Win32,59.88023952,667045947eb812cbdacbf325,667071dfbb0ee8ebf71c5f7a,,,,,,,,,,,,,,,,,,,,,,,,,,,,,,,,,,,,1366.1013,1372.1738,0.0,1.0,1.0,0.0,1.0,SoundStimuli/Stronger_KanyeWest_Original5S.wav,,,,,,,,,,,,,,,,,,,,,,,,,,,,,,,,,,,,,,,,,,,,,,,,,,,,,,,,,
,,,,,151954,1,2024-06-17_13h40.46.258,experiment,2024.1.5,Win32,59.88023952,667045947eb812cbdacbf325,667071dfbb0ee8ebf71c5f7a,,,,,,,,,,,,,,,,,,,,,,,,,,,,,,,,,,,,,,,,,,,,1372.1739,1373.7328,1.78333346,1.551,0.0,16.0,16.0,9.0,1.0,song_indices/Stronger_KanyeWest.csv,,,,,,,,,,,,,,,,,,,,,,,,,,,,,,,,,,,,,,,,,,,,,,,
,,,,,151954,1,2024-06-17_13h40.46.258,experiment,2024.1.5,Win32,59.88023952,667045947eb812cbdacbf325,667071dfbb0ee8ebf71c5f7a,,,,,,,,,,,,,,,,,,,,,,,,,,,,,,,,,,,,1373.7355,1380.1825,0.0,0.0,0.0,1.0,1.0,SoundStimuli/Fallin_AliciaKeys_Cover5S.wav,,,,,,,,,,,,,,,,,,,,,,,,,,,,,,,,,,,,,,,,,,,,,,,,,,,,,,,,,
,,,,,151954,1,2024-06-17_13h40.46.258,experiment,2024.1.5,Win32,59.88023952,667045947eb812cbdacbf325,667071dfbb0ee8ebf71c5f7a,,,,,,,,,,,,,,,,,,,,,,,,,,,,,,,,,,,,1380.1841,1386.3657,0.0,1.0,1.0,0.0,1.0,SoundStimuli/Fallin_AliciaKeys_Original5S.wav,,,,,,,,,,,,,,,,,,,,,,,,,,,,,,,,,,,,,,,,,,,,,,,,,,,,,,,,,
,,,,,151954,1,2024-06-17_13h40.46.258,experiment,2024.1.5,Win32,59.88023952,667045947eb812cbdacbf325,667071dfbb0ee8ebf71c5f7a,,,,,,,,,,,,,,,,,,,,,,,,,,,,,,,,,,,,,,,,,,,,1386.3663,1387.8157,5.327777863,1.4403,0.0,17.0,17.0,12.0,1.0,song_indices/Fallin_AliciaKeys.csv,,,,,,,,,,,,,,,,,,,,,,,,,,,,,,,,,,,,,,,,,,,,,,,
,,,,,151954,1,2024-06-17_13h40.46.258,experiment,2024.1.5,Win32,59.88023952,667045947eb812cbdacbf325,667071dfbb0ee8ebf71c5f7a,,,,,,,,,,,,,,,,,,,,,,,,,,,,,,,,,,,,1387.8185,1393.9155,0.0,0.0,0.0,0.0,1.0,SoundStimuli/GimmeShelter_RollingStones_Original5S.wav,,,,,,,,,,,,,,,,,,,,,,,,,,,,,,,,,,,,,,,,,,,,,,,,,,,,,,,,,
,,,,,151954,1,2024-06-17_13h40.46.258,experiment,2024.1.5,Win32,59.88023952,667045947eb812cbdacbf325,667071dfbb0ee8ebf71c5f7a,,,,,,,,,,,,,,,,,,,,,,,,,,,,,,,,,,,,1393.9169,1400.1318,0.0,1.0,1.0,1.0,1.0,SoundStimuli/GimmeShelter_RollingStones_Cover5S.wav,,,,,,,,,,,,,,,,,,,,,,,,,,,,,,,,,,,,,,,,,,,,,,,,,,,,,,,,,
,,,,,151954,1,2024-06-17_13h40.46.258,experiment,2024.1.5,Win32,59.88023952,667045947eb812cbdacbf325,667071dfbb0ee8ebf71c5f7a,,,,,,,,,,,,,,,,,,,,,,,,,,,,,,,,,,,,,,,,,,,,1400.1324,1401.4976,5.14444436,1.3621,0.0,18.0,18.0,20.0,1.0,song_indices/GimmeShelter_RollingStones.csv,,,,,,,,,,,,,,,,,,,,,,,,,,,,,,,,,,,,,,,,,,,,,,,
,,,,,151954,1,2024-06-17_13h40.46.258,experiment,2024.1.5,Win32,59.88023952,667045947eb812cbdacbf325,667071dfbb0ee8ebf71c5f7a,,,,,,,,,,,,,,,,,,,,,,,,,,,,,,,,,,,,1401.5004,1407.565,0.0,0.0,0.0,1.0,1.0,SoundStimuli/RockWithYou_MichaelJackson_Cover5S.wav,,,,,,,,,,,,,,,,,,,,,,,,,,,,,,,,,,,,,,,,,,,,,,,,,,,,,,,,,
,,,,,151954,1,2024-06-17_13h40.46.258,experiment,2024.1.5,Win32,59.88023952,667045947eb812cbdacbf325,667071dfbb0ee8ebf71c5f7a,,,,,,,,,,,,,,,,,,,,,,,,,,,,,,,,,,,,1407.5665,1413.8982,0.0,1.0,1.0,0.0,1.0,SoundStimuli/RockWithYou_MichaelJackson_Original5S.wav,,,,,,,,,,,,,,,,,,,,,,,,,,,,,,,,,,,,,,,,,,,,,,,,,,,,,,,,,
,,,,,151954,1,2024-06-17_13h40.46.258,experiment,2024.1.5,Win32,59.88023952,667045947eb812cbdacbf325,667071dfbb0ee8ebf71c5f7a,,,,,,,,,,,,,,,,,,,,,,,,,,,,,,,,,,,,,,,,,,,,1413.899,1415.6645,2.961111281,1.7571,0.0,19.0,19.0,16.0,1.0,song_indices/RockWithYou_MichaelJackson.csv,,,,,,,,,,,,,,,,,,,,,,,,,,,,,,,,,,,,,,,,,,,,,,,
,,,,,151954,1,2024-06-17_13h40.46.258,experiment,2024.1.5,Win32,59.88023952,667045947eb812cbdacbf325,667071dfbb0ee8ebf71c5f7a,,,,,,,,,,,,,,,,,,,,,,,,,,,,,,,,,,,,1415.6676,1421.8644,0.0,0.0,0.0,0.0,1.0,SoundStimuli/NoScrubs_TLC_Original5S.wav,,,,,,,,,,,,,,,,,,,,,,,,,,,,,,,,,,,,,,,,,,,,,,,,,,,,,,,,,
,,,,,151954,1,2024-06-17_13h40.46.258,experiment,2024.1.5,Win32,59.88023952,667045947eb812cbdacbf325,667071dfbb0ee8ebf71c5f7a,,,,,,,,,,,,,,,,,,,,,,,,,,,,,,,,,,,,1421.866,1428.0057,0.0,1.0,1.0,1.0,1.0,SoundStimuli/NoScrubs_TLC_Cover5S.wav,,,,,,,,,,,,,,,,,,,,,,,,,,,,,,,,,,,,,,,,,,,,,,,,,,,,,,,,,
,,,,,151954,1,2024-06-17_13h40.46.258,experiment,2024.1.5,Win32,59.88023952,667045947eb812cbdacbf325,667071dfbb0ee8ebf71c5f7a,,,,,,,,,,,,,,,,,,,,,,,,,,,,,,,,,,,,,,,,,,,,1428.0058,1429.2304,5.183333503,1.2203,0.0,20.0,20.0,14.0,1.0,song_indices/NoScrubs_TLC.csv,,,,,,,,,,,,,,,,,,,,,,,,,,,,,,,,,,,,,,,,,,,,,,,
,,,,,151954,1,2024-06-17_13h40.46.258,experiment,2024.1.5,Win32,59.88023952,667045947eb812cbdacbf325,667071dfbb0ee8ebf71c5f7a,,,,,,,,,,,,,,,,,,,,,,,,,,,,,,,,,,,,1429.2333,1435.3149,0.0,0.0,0.0,0.0,1.0,SoundStimuli/GetUrFreakOn_MissyElliot_Original5S.wav,,,,,,,,,,,,,,,,,,,,,,,,,,,,,,,,,,,,,,,,,,,,,,,,,,,,,,,,,
,,,,,151954,1,2024-06-17_13h40.46.258,experiment,2024.1.5,Win32,59.88023952,667045947eb812cbdacbf325,667071dfbb0ee8ebf71c5f7a,,,,,,,,,,,,,,,,,,,,,,,,,,,,,,,,,,,,1435.3163,1441.899,0.0,1.0,1.0,1.0,1.0,SoundStimuli/GetUrFreakOn_MissyElliot_Cover5S.wav,,,,,,,,,,,,,,,,,,,,,,,,,,,,,,,,,,,,,,,,,,,,,,,,,,,,,,,,,
,,,,,151954,1,2024-06-17_13h40.46.258,experiment,2024.1.5,Win32,59.88023952,667045947eb812cbdacbf325,667071dfbb0ee8ebf71c5f7a,,,,,,,,,,,,,,,,,,,,,,,,,,,,,,,,,,,,,,,,,,,,1441.8995,1444.1894,3.877777947,2.2888,0.0,21.0,21.0,18.0,1.0,song_indices/GetUrFreakOn_MissyElliot.csv,,,,,,,,,,,,,,,,,,,,,,,,,,,,,,,,,,,,,,,,,,,,,,,
,,,,,151954,1,2024-06-17_13h40.46.258,experiment,2024.1.5,Win32,59.88023952,667045947eb812cbdacbf325,667071dfbb0ee8ebf71c5f7a,,,,,,,,,,,,,,,,,,,,,,,,,,,,,,,,,,,,1444.1902,1450.2314,0.0,0.0,0.0,1.0,1.0,SoundStimuli/StandByMe_BenEKing_Cover5S.wav,,,,,,,,,,,,,,,,,,,,,,,,,,,,,,,,,,,,,,,,,,,,,,,,,,,,,,,,,
,,,,,151954,1,2024-06-17_13h40.46.258,experiment,2024.1.5,Win32,59.88023952,667045947eb812cbdacbf325,667071dfbb0ee8ebf71c5f7a,,,,,,,,,,,,,,,,,,,,,,,,,,,,,,,,,,,,1450.2333,1456.1806,0.0,1.0,1.0,0.0,1.0,SoundStimuli/StandByMe_BenEKing_Original5S.wav,,,,,,,,,,,,,,,,,,,,,,,,,,,,,,,,,,,,,,,,,,,,,,,,,,,,,,,,,
,,,,,151954,1,2024-06-17_13h40.46.258,experiment,2024.1.5,Win32,59.88023952,667045947eb812cbdacbf325,667071dfbb0ee8ebf71c5f7a,,,,,,,,,,,,,,,,,,,,,,,,,,,,,,,,,,,,,,,,,,,,1456.1815,1457.5807,4.949999915,1.3919,0.0,22.0,22.0,1.0,1.0,song_indices/StandByMe_BenEKing.csv,,,,,,,,,,,,,,,,,,,,,,,,,,,,,,,,,,,,,,,,,,,,,,,
,,,,,151954,1,2024-06-17_13h40.46.258,experiment,2024.1.5,Win32,59.88023952,667045947eb812cbdacbf325,667071dfbb0ee8ebf71c5f7a,,,,,,,,,,,,,,,,,,,,,,,,,,,,,,,,,,,,,,,,,,,,,,,,,,,,,,1457.5813,1457.5815,,,,0.0,2.0,2.0,1.0,1.0,choose_song_b2.csv,,,,,,,,,,,,,,,,,,,,,,,,,,,,,,,,,,,,
,,,,,151954,1,2024-06-17_13h40.46.258,experiment,2024.1.5,Win32,59.88023952,667045947eb812cbdacbf325,667071dfbb0ee8ebf71c5f7a,,,,,,,,,,,,,,,,,,,,,,,,,,,,,,,,,,,,,,,,,,,,,,,,,,,,,,,,,,,,,,,,,40.0,Item 1,Item 4,"Radio, YouTube, YouTube Music, Spotify",I had brief musical training on trumpet and trombone between the ages of 12 and 15 but nothing particularly serious. I was in school and church choirs from 8 to 16. I'm not a musician.,6.0,6.0,"driving, exercising, walking, cycling, general chores, parties, holiday gatherings ",Often,Never,Never,Rarely,Never,Sometimes,Never,Sometimes,Never,Often,Often,Often,Rarely,Never,Sometimes,Never,Classical,Metal,Alternative rock,I don't keep up with pop music anymore. I used to seek out more indie music and listen to whole albums more often. ,"I like to scan the radio while driving. For other activities, I usually go with automatic playlists. If I hear something new or different comes on that I like, I'll check out the artist and similar music. I'll listen to albums I liked when I was younger when the mood strikes me. I mostly listen to classical while I work. ",0.0,0.0,0.0,0.0,1.0,,
,,,,,151954,1,2024-06-17_13h40.46.258,experiment,2024.1.5,Win32,59.88023952,667045947eb812cbdacbf325,667071dfbb0ee8ebf71c5f7a,,,,,,,,,,,,,,,,,,,,,,,,,,,,,,,,,,,,,,,,,,,,,,,,,,,,,,,,,,,,,,,,,,,,,,,,,,,,,,,,,,,,,,,,,,,,,,,,,,,2306.4967,2308.5622
