welcome.started,welcome.stopped,space_to_continue.keys,space_to_continue.rt,space_to_continue.duration,participant,session,date,expName,psychopyVersion,OS,frameRate,STUDY_ID,SESSION_ID,consent.consent,consent.consent_recontact,consent_check.started,consent_check.stopped,calibration_ready.started,calibration_ready.stopped,cal_ready.keys,cal_ready.rt,cal_ready.duration,calibration.started,calibration.stopped,mouse.x,mouse.y,mouse.leftButton,mouse.midButton,mouse.rightButton,mouse.time,mouse.clicked_name,move_on.keys,move_on.rt,move_on.duration,instructions.started,instructions.stopped,next.keys,next.rt,next.duration,practice_trial.started,practice_trial.stopped,practice_slider.response,practice_slider.rt,ready.started,ready.stopped,key_resp.keys,key_resp.rt,key_resp.duration,play_sound.started,play_sound.stopped,trials.thisRepN,trials.thisTrialN,trials.thisN,trials.thisIndex,trials.ran,orig_or_cover,rating.started,rating.stopped,slider.response,slider.rt,songs.thisRepN,songs.thisTrialN,songs.thisN,songs.thisIndex,songs.ran,song_id,short_break.started,short_break.stopped,space_to_move_on.keys,space_to_move_on.rt,space_to_move_on.duration,blocks.thisRepN,blocks.thisTrialN,blocks.thisN,blocks.thisIndex,blocks.ran,block,survey.age,survey.musician,survey.music_making,survey.listen_time,survey.medium,survey.music_seeking,survey.music_choice,survey.activities,survey.question1.Country,survey.question1.Electronic (EDM),survey.question1.Alternative rock,survey.question1.Classic rock,survey.question1.Ambient,survey.question1.Classical,survey.question1.Disco,survey.question1.Metal,survey.question1.Jazz,survey.question1.Folk/indie,survey.question1.Pop,survey.question1.A cappella,survey.question1.Reggae,survey.question1.Hip hop,survey.question1.R&B,survey.question1.Latin,survey.other_genres,survey.genres_ranked.text1,survey.genres_ranked.text2,survey.genres_ranked.text3,survey.habit_change,survey.habits,experiment.thisRepN,experiment.thisTrialN,experiment.thisN,experiment.thisIndex,experiment.ran,goodbye.started,goodbye.stopped
0.0003,8.6962,space,8.6784,,157042,1,2024-06-17_10h39.29.024,experiment,2024.1.5,MacIntel,59.88023952,667045947eb812cbdacbf325,66704a59970c84e77698f0cc,,,,,,,,,,,,,,,,,,,,,,,,,,,,,,,,,,,,,,,,,,,,,,,,,,,,,,,,,,,,,,,,,,,,,,,,,,,,,,,,,,,,,,,,,,,,,,,,,,,,,
,,,,,157042,1,2024-06-17_10h39.29.024,experiment,2024.1.5,MacIntel,59.88023952,667045947eb812cbdacbf325,66704a59970c84e77698f0cc,yes,yes,,,,,,,,,,,,,,,,,,,,,,,,,,,,,,,,,,,,,,,,,,,,,,,,,,,,,,,,,,,,,,,,,,,,,,,,,,,,,,,,,,,,,,,,,,,,,,,,,,,
,,,,,157042,1,2024-06-17_10h39.29.024,experiment,2024.1.5,MacIntel,59.88023952,667045947eb812cbdacbf325,66704a59970c84e77698f0cc,,,30.9698,30.9701,,,,,,,,,,,,,,,,,,,,,,,,,,,,,,,,,,,,,,,,,,,,,,,,,,,,,,,,,,,,,,,,,,,,,,,,,,,,,,,,,,,,,,,,,,,,,,,,,
,,,,,157042,1,2024-06-17_10h39.29.024,experiment,2024.1.5,MacIntel,59.88023952,667045947eb812cbdacbf325,66704a59970c84e77698f0cc,,,,,30.9729,59.889,space,28.8924,0.0007,59.8891,107.0268,"[-0.0157958984375,-0.0038232421875]","[-0.4267724609375,-0.435439453125]","[1,1]","[0,0]","[0,0]","[17.93759999999962,38.06150000000001]","[""play_button"",""play_button""]",right,37.1158,,107.0271,118.2007,space,11.1604,,118.201,139.4845,6.019345703,21.2641,139.4848,141.7948,space,2.2914,,141.8233,148.0133,0.0,0.0,0.0,0.0,1.0,SoundStimuli/NoScrubs_TLC_Original5S.wav,,,,,,,,,,,,,,,,,,,,,,,,,,,,,,,,,,,,,,,,,,,,,,,,,,,,,,,,,,
,,,,,157042,1,2024-06-17_10h39.29.024,experiment,2024.1.5,MacIntel,59.88023952,667045947eb812cbdacbf325,66704a59970c84e77698f0cc,,,,,,,,,,,,,,,,,,,,,,,,,,,,,,,,,,,,148.0243,154.1494,0.0,1.0,1.0,1.0,1.0,SoundStimuli/NoScrubs_TLC_Cover5S.wav,,,,,,,,,,,,,,,,,,,,,,,,,,,,,,,,,,,,,,,,,,,,,,,,,,,,,,,,,,
,,,,,157042,1,2024-06-17_10h39.29.024,experiment,2024.1.5,MacIntel,59.88023952,667045947eb812cbdacbf325,66704a59970c84e77698f0cc,,,,,,,,,,,,,,,,,,,,,,,,,,,,,,,,,,,,,,,,,,,,154.1607,155.4955,6.019345703,1.3282,0.0,0.0,0.0,14.0,1.0,song_indices/NoScrubs_TLC.csv,,,,,,,,,,,,,,,,,,,,,,,,,,,,,,,,,,,,,,,,,,,,,,,,
,,,,,157042,1,2024-06-17_10h39.29.024,experiment,2024.1.5,MacIntel,59.88023952,667045947eb812cbdacbf325,66704a59970c84e77698f0cc,,,,,,,,,,,,,,,,,,,,,,,,,,,,,,,,,,,,155.497,161.9312,0.0,0.0,0.0,1.0,1.0,SoundStimuli/Fallin_AliciaKeys_Cover5S.wav,,,,,,,,,,,,,,,,,,,,,,,,,,,,,,,,,,,,,,,,,,,,,,,,,,,,,,,,,,
,,,,,157042,1,2024-06-17_10h39.29.024,experiment,2024.1.5,MacIntel,59.88023952,667045947eb812cbdacbf325,66704a59970c84e77698f0cc,,,,,,,,,,,,,,,,,,,,,,,,,,,,,,,,,,,,161.9421,168.1,0.0,1.0,1.0,0.0,1.0,SoundStimuli/Fallin_AliciaKeys_Original5S.wav,,,,,,,,,,,,,,,,,,,,,,,,,,,,,,,,,,,,,,,,,,,,,,,,,,,,,,,,,,
,,,,,157042,1,2024-06-17_10h39.29.024,experiment,2024.1.5,MacIntel,59.88023952,667045947eb812cbdacbf325,66704a59970c84e77698f0cc,,,,,,,,,,,,,,,,,,,,,,,,,,,,,,,,,,,,,,,,,,,,168.1001,170.1781,6.019345703,2.0634,0.0,1.0,1.0,12.0,1.0,song_indices/Fallin_AliciaKeys.csv,,,,,,,,,,,,,,,,,,,,,,,,,,,,,,,,,,,,,,,,,,,,,,,,
,,,,,157042,1,2024-06-17_10h39.29.024,experiment,2024.1.5,MacIntel,59.88023952,667045947eb812cbdacbf325,66704a59970c84e77698f0cc,,,,,,,,,,,,,,,,,,,,,,,,,,,,,,,,,,,,170.1792,176.4793,0.0,0.0,0.0,1.0,1.0,SoundStimuli/ShapeofYou_EdSheeran_Cover5S.wav,,,,,,,,,,,,,,,,,,,,,,,,,,,,,,,,,,,,,,,,,,,,,,,,,,,,,,,,,,
,,,,,157042,1,2024-06-17_10h39.29.024,experiment,2024.1.5,MacIntel,59.88023952,667045947eb812cbdacbf325,66704a59970c84e77698f0cc,,,,,,,,,,,,,,,,,,,,,,,,,,,,,,,,,,,,176.4907,182.9485,0.0,1.0,1.0,0.0,1.0,SoundStimuli/ShapeofYou_EdSheeran_Original5S.wav,,,,,,,,,,,,,,,,,,,,,,,,,,,,,,,,,,,,,,,,,,,,,,,,,,,,,,,,,,
,,,,,157042,1,2024-06-17_10h39.29.024,experiment,2024.1.5,MacIntel,59.88023952,667045947eb812cbdacbf325,66704a59970c84e77698f0cc,,,,,,,,,,,,,,,,,,,,,,,,,,,,,,,,,,,,,,,,,,,,182.9486,184.0113,6.019345703,1.0427,0.0,2.0,2.0,21.0,1.0,song_indices/ShapeofYou_EdSheeran.csv,,,,,,,,,,,,,,,,,,,,,,,,,,,,,,,,,,,,,,,,,,,,,,,,
,,,,,157042,1,2024-06-17_10h39.29.024,experiment,2024.1.5,MacIntel,59.88023952,667045947eb812cbdacbf325,66704a59970c84e77698f0cc,,,,,,,,,,,,,,,,,,,,,,,,,,,,,,,,,,,,184.0125,190.3142,0.0,0.0,0.0,0.0,1.0,SoundStimuli/HeyYa_Outkast_Original5S.wav,,,,,,,,,,,,,,,,,,,,,,,,,,,,,,,,,,,,,,,,,,,,,,,,,,,,,,,,,,
,,,,,157042,1,2024-06-17_10h39.29.024,experiment,2024.1.5,MacIntel,59.88023952,667045947eb812cbdacbf325,66704a59970c84e77698f0cc,,,,,,,,,,,,,,,,,,,,,,,,,,,,,,,,,,,,190.3253,199.2265,0.0,1.0,1.0,1.0,1.0,SoundStimuli/HeyYa_Outkast_Cover5S.wav,,,,,,,,,,,,,,,,,,,,,,,,,,,,,,,,,,,,,,,,,,,,,,,,,,,,,,,,,,
,,,,,157042,1,2024-06-17_10h39.29.024,experiment,2024.1.5,MacIntel,59.88023952,667045947eb812cbdacbf325,66704a59970c84e77698f0cc,,,,,,,,,,,,,,,,,,,,,,,,,,,,,,,,,,,,,,,,,,,,199.2267,201.5707,3.954707031,2.332,0.0,3.0,3.0,22.0,1.0,song_indices/HeyYa_Outkast.csv,,,,,,,,,,,,,,,,,,,,,,,,,,,,,,,,,,,,,,,,,,,,,,,,
,,,,,157042,1,2024-06-17_10h39.29.024,experiment,2024.1.5,MacIntel,59.88023952,667045947eb812cbdacbf325,66704a59970c84e77698f0cc,,,,,,,,,,,,,,,,,,,,,,,,,,,,,,,,,,,,201.572,208.9205,0.0,0.0,0.0,1.0,1.0,SoundStimuli/Happy_PharellWilliams_Cover5S.wav,,,,,,,,,,,,,,,,,,,,,,,,,,,,,,,,,,,,,,,,,,,,,,,,,,,,,,,,,,
,,,,,157042,1,2024-06-17_10h39.29.024,experiment,2024.1.5,MacIntel,59.88023952,667045947eb812cbdacbf325,66704a59970c84e77698f0cc,,,,,,,,,,,,,,,,,,,,,,,,,,,,,,,,,,,,208.9317,216.2698,0.0,1.0,1.0,0.0,1.0,SoundStimuli/Happy_PharellWilliams_Original5S.wav,,,,,,,,,,,,,,,,,,,,,,,,,,,,,,,,,,,,,,,,,,,,,,,,,,,,,,,,,,
,,,,,157042,1,2024-06-17_10h39.29.024,experiment,2024.1.5,MacIntel,59.88023952,667045947eb812cbdacbf325,66704a59970c84e77698f0cc,,,,,,,,,,,,,,,,,,,,,,,,,,,,,,,,,,,,,,,,,,,,216.2699,217.8658,6.024414063,1.583,0.0,4.0,4.0,7.0,1.0,song_indices/Happy_PharellWilliams.csv,,,,,,,,,,,,,,,,,,,,,,,,,,,,,,,,,,,,,,,,,,,,,,,,
,,,,,157042,1,2024-06-17_10h39.29.024,experiment,2024.1.5,MacIntel,59.88023952,667045947eb812cbdacbf325,66704a59970c84e77698f0cc,,,,,,,,,,,,,,,,,,,,,,,,,,,,,,,,,,,,217.8669,223.7854,0.0,0.0,0.0,0.0,1.0,SoundStimuli/StandByMe_BenEKing_Original5S.wav,,,,,,,,,,,,,,,,,,,,,,,,,,,,,,,,,,,,,,,,,,,,,,,,,,,,,,,,,,
,,,,,157042,1,2024-06-17_10h39.29.024,experiment,2024.1.5,MacIntel,59.88023952,667045947eb812cbdacbf325,66704a59970c84e77698f0cc,,,,,,,,,,,,,,,,,,,,,,,,,,,,,,,,,,,,223.7965,229.8037,0.0,1.0,1.0,1.0,1.0,SoundStimuli/StandByMe_BenEKing_Cover5S.wav,,,,,,,,,,,,,,,,,,,,,,,,,,,,,,,,,,,,,,,,,,,,,,,,,,,,,,,,,,
,,,,,157042,1,2024-06-17_10h39.29.024,experiment,2024.1.5,MacIntel,59.88023952,667045947eb812cbdacbf325,66704a59970c84e77698f0cc,,,,,,,,,,,,,,,,,,,,,,,,,,,,,,,,,,,,,,,,,,,,229.8038,231.0675,5.059404297,1.2432,0.0,5.0,5.0,1.0,1.0,song_indices/StandByMe_BenEKing.csv,,,,,,,,,,,,,,,,,,,,,,,,,,,,,,,,,,,,,,,,,,,,,,,,
,,,,,157042,1,2024-06-17_10h39.29.024,experiment,2024.1.5,MacIntel,59.88023952,667045947eb812cbdacbf325,66704a59970c84e77698f0cc,,,,,,,,,,,,,,,,,,,,,,,,,,,,,,,,,,,,231.0687,236.9206,0.0,0.0,0.0,1.0,1.0,SoundStimuli/IWillAlwaysLoveYou_WhitneyHouston_Cover5S.wav,,,,,,,,,,,,,,,,,,,,,,,,,,,,,,,,,,,,,,,,,,,,,,,,,,,,,,,,,,
,,,,,157042,1,2024-06-17_10h39.29.024,experiment,2024.1.5,MacIntel,59.88023952,667045947eb812cbdacbf325,66704a59970c84e77698f0cc,,,,,,,,,,,,,,,,,,,,,,,,,,,,,,,,,,,,236.9316,243.3051,0.0,1.0,1.0,0.0,1.0,SoundStimuli/IWillAlwaysLoveYou_WhitneyHouston_Original5S.wav,,,,,,,,,,,,,,,,,,,,,,,,,,,,,,,,,,,,,,,,,,,,,,,,,,,,,,,,,,
,,,,,157042,1,2024-06-17_10h39.29.024,experiment,2024.1.5,MacIntel,59.88023952,667045947eb812cbdacbf325,66704a59970c84e77698f0cc,,,,,,,,,,,,,,,,,,,,,,,,,,,,,,,,,,,,,,,,,,,,243.3051,246.1828,6.97515625,2.8643,0.0,6.0,6.0,10.0,1.0,song_indices/IWillAlwaysLoveYou_WhitneyHouston.csv,,,,,,,,,,,,,,,,,,,,,,,,,,,,,,,,,,,,,,,,,,,,,,,,
,,,,,157042,1,2024-06-17_10h39.29.024,experiment,2024.1.5,MacIntel,59.88023952,667045947eb812cbdacbf325,66704a59970c84e77698f0cc,,,,,,,,,,,,,,,,,,,,,,,,,,,,,,,,,,,,246.1837,252.4004,0.0,0.0,0.0,0.0,1.0,SoundStimuli/BetteDavisEyes_KimCarnes_Original5S.wav,,,,,,,,,,,,,,,,,,,,,,,,,,,,,,,,,,,,,,,,,,,,,,,,,,,,,,,,,,
,,,,,157042,1,2024-06-17_10h39.29.024,experiment,2024.1.5,MacIntel,59.88023952,667045947eb812cbdacbf325,66704a59970c84e77698f0cc,,,,,,,,,,,,,,,,,,,,,,,,,,,,,,,,,,,,252.4114,258.1045,0.0,1.0,1.0,1.0,1.0,SoundStimuli/BetteDavisEyes_KimCarnes_Cover5S.wav,,,,,,,,,,,,,,,,,,,,,,,,,,,,,,,,,,,,,,,,,,,,,,,,,,,,,,,,,,
,,,,,157042,1,2024-06-17_10h39.29.024,experiment,2024.1.5,MacIntel,59.88023952,667045947eb812cbdacbf325,66704a59970c84e77698f0cc,,,,,,,,,,,,,,,,,,,,,,,,,,,,,,,,,,,,,,,,,,,,258.1047,260.0828,6.070878906,1.9567,0.0,7.0,7.0,5.0,1.0,song_indices/BetteDavisEyes_KimCarnes.csv,,,,,,,,,,,,,,,,,,,,,,,,,,,,,,,,,,,,,,,,,,,,,,,,
,,,,,157042,1,2024-06-17_10h39.29.024,experiment,2024.1.5,MacIntel,59.88023952,667045947eb812cbdacbf325,66704a59970c84e77698f0cc,,,,,,,,,,,,,,,,,,,,,,,,,,,,,,,,,,,,260.0837,266.1683,0.0,0.0,0.0,0.0,1.0,SoundStimuli/GetUrFreakOn_MissyElliot_Original5S.wav,,,,,,,,,,,,,,,,,,,,,,,,,,,,,,,,,,,,,,,,,,,,,,,,,,,,,,,,,,
,,,,,157042,1,2024-06-17_10h39.29.024,experiment,2024.1.5,MacIntel,59.88023952,667045947eb812cbdacbf325,66704a59970c84e77698f0cc,,,,,,,,,,,,,,,,,,,,,,,,,,,,,,,,,,,,266.1791,272.7524,0.0,1.0,1.0,1.0,1.0,SoundStimuli/GetUrFreakOn_MissyElliot_Cover5S.wav,,,,,,,,,,,,,,,,,,,,,,,,,,,,,,,,,,,,,,,,,,,,,,,,,,,,,,,,,,
,,,,,157042,1,2024-06-17_10h39.29.024,experiment,2024.1.5,MacIntel,59.88023952,667045947eb812cbdacbf325,66704a59970c84e77698f0cc,,,,,,,,,,,,,,,,,,,,,,,,,,,,,,,,,,,,,,,,,,,,272.7526,274.3151,3.985849609,1.5421,0.0,8.0,8.0,18.0,1.0,song_indices/GetUrFreakOn_MissyElliot.csv,,,,,,,,,,,,,,,,,,,,,,,,,,,,,,,,,,,,,,,,,,,,,,,,
,,,,,157042,1,2024-06-17_10h39.29.024,experiment,2024.1.5,MacIntel,59.88023952,667045947eb812cbdacbf325,66704a59970c84e77698f0cc,,,,,,,,,,,,,,,,,,,,,,,,,,,,,,,,,,,,274.3166,280.6678,0.0,0.0,0.0,1.0,1.0,SoundStimuli/GoodGollyMissMolly_LittleRichard_Cover5S.wav,,,,,,,,,,,,,,,,,,,,,,,,,,,,,,,,,,,,,,,,,,,,,,,,,,,,,,,,,,
,,,,,157042,1,2024-06-17_10h39.29.024,experiment,2024.1.5,MacIntel,59.88023952,667045947eb812cbdacbf325,66704a59970c84e77698f0cc,,,,,,,,,,,,,,,,,,,,,,,,,,,,,,,,,,,,280.6791,286.7366,0.0,1.0,1.0,0.0,1.0,SoundStimuli/GoodGollyMissMolly_LittleRichard_Original5S.wav,,,,,,,,,,,,,,,,,,,,,,,,,,,,,,,,,,,,,,,,,,,,,,,,,,,,,,,,,,
,,,,,157042,1,2024-06-17_10h39.29.024,experiment,2024.1.5,MacIntel,59.88023952,667045947eb812cbdacbf325,66704a59970c84e77698f0cc,,,,,,,,,,,,,,,,,,,,,,,,,,,,,,,,,,,,,,,,,,,,286.7367,289.3304,3.951396484,2.5735,0.0,9.0,9.0,0.0,1.0,song_indices/GoodGollyMissMolly_LittleRichard.csv,,,,,,,,,,,,,,,,,,,,,,,,,,,,,,,,,,,,,,,,,,,,,,,,
,,,,,157042,1,2024-06-17_10h39.29.024,experiment,2024.1.5,MacIntel,59.88023952,667045947eb812cbdacbf325,66704a59970c84e77698f0cc,,,,,,,,,,,,,,,,,,,,,,,,,,,,,,,,,,,,289.3313,295.2337,0.0,0.0,0.0,0.0,1.0,SoundStimuli/EyeOfTheTiger_Survivor_Original5S.wav,,,,,,,,,,,,,,,,,,,,,,,,,,,,,,,,,,,,,,,,,,,,,,,,,,,,,,,,,,
,,,,,157042,1,2024-06-17_10h39.29.024,experiment,2024.1.5,MacIntel,59.88023952,667045947eb812cbdacbf325,66704a59970c84e77698f0cc,,,,,,,,,,,,,,,,,,,,,,,,,,,,,,,,,,,,295.2447,301.3529,0.0,1.0,1.0,1.0,1.0,SoundStimuli/EyeOfTheTiger_Survivor_Cover5S.wav,,,,,,,,,,,,,,,,,,,,,,,,,,,,,,,,,,,,,,,,,,,,,,,,,,,,,,,,,,
,,,,,157042,1,2024-06-17_10h39.29.024,experiment,2024.1.5,MacIntel,59.88023952,667045947eb812cbdacbf325,66704a59970c84e77698f0cc,,,,,,,,,,,,,,,,,,,,,,,,,,,,,,,,,,,,,,,,,,,,301.353,302.6487,4.919570313,1.2839,0.0,10.0,10.0,11.0,1.0,song_indices/EyeOfTheTiger_Survivor.csv,,,,,,,,,,,,,,,,,,,,,,,,,,,,,,,,,,,,,,,,,,,,,,,,
,,,,,157042,1,2024-06-17_10h39.29.024,experiment,2024.1.5,MacIntel,59.88023952,667045947eb812cbdacbf325,66704a59970c84e77698f0cc,,,,,,,,,,,,,,,,,,,,,,,,,,,,,,,,,,,,302.6495,308.9834,0.0,0.0,0.0,1.0,1.0,SoundStimuli/Stronger_KanyeWest_Cover5S.wav,,,,,,,,,,,,,,,,,,,,,,,,,,,,,,,,,,,,,,,,,,,,,,,,,,,,,,,,,,
,,,,,157042,1,2024-06-17_10h39.29.024,experiment,2024.1.5,MacIntel,59.88023952,667045947eb812cbdacbf325,66704a59970c84e77698f0cc,,,,,,,,,,,,,,,,,,,,,,,,,,,,,,,,,,,,308.9941,315.0532,0.0,1.0,1.0,0.0,1.0,SoundStimuli/Stronger_KanyeWest_Original5S.wav,,,,,,,,,,,,,,,,,,,,,,,,,,,,,,,,,,,,,,,,,,,,,,,,,,,,,,,,,,
,,,,,157042,1,2024-06-17_10h39.29.024,experiment,2024.1.5,MacIntel,59.88023952,667045947eb812cbdacbf325,66704a59970c84e77698f0cc,,,,,,,,,,,,,,,,,,,,,,,,,,,,,,,,,,,,,,,,,,,,315.0533,317.6963,4.751962891,2.6247,0.0,11.0,11.0,9.0,1.0,song_indices/Stronger_KanyeWest.csv,,,,,,,,,,,,,,,,,,,,,,,,,,,,,,,,,,,,,,,,,,,,,,,,
,,,,,157042,1,2024-06-17_10h39.29.024,experiment,2024.1.5,MacIntel,59.88023952,667045947eb812cbdacbf325,66704a59970c84e77698f0cc,,,,,,,,,,,,,,,,,,,,,,,,,,,,,,,,,,,,317.6972,323.4672,0.0,0.0,0.0,1.0,1.0,SoundStimuli/SmellsLikeTeenSpirit_Nirvana_Cover5S.wav,,,,,,,,,,,,,,,,,,,,,,,,,,,,,,,,,,,,,,,,,,,,,,,,,,,,,,,,,,
,,,,,157042,1,2024-06-17_10h39.29.024,experiment,2024.1.5,MacIntel,59.88023952,667045947eb812cbdacbf325,66704a59970c84e77698f0cc,,,,,,,,,,,,,,,,,,,,,,,,,,,,,,,,,,,,323.4779,329.669,0.0,1.0,1.0,0.0,1.0,SoundStimuli/SmellsLikeTeenSpirit_Nirvana_Original5S.wav,,,,,,,,,,,,,,,,,,,,,,,,,,,,,,,,,,,,,,,,,,,,,,,,,,,,,,,,,,
,,,,,157042,1,2024-06-17_10h39.29.024,experiment,2024.1.5,MacIntel,59.88023952,667045947eb812cbdacbf325,66704a59970c84e77698f0cc,,,,,,,,,,,,,,,,,,,,,,,,,,,,,,,,,,,,,,,,,,,,329.6691,330.8997,6.061328125,1.2102,0.0,12.0,12.0,8.0,1.0,song_indices/SmellsLikeTeenSpirit_Nirvana.csv,,,,,,,,,,,,,,,,,,,,,,,,,,,,,,,,,,,,,,,,,,,,,,,,
,,,,,157042,1,2024-06-17_10h39.29.024,experiment,2024.1.5,MacIntel,59.88023952,667045947eb812cbdacbf325,66704a59970c84e77698f0cc,,,,,,,,,,,,,,,,,,,,,,,,,,,,,,,,,,,,330.9011,337.4341,0.0,0.0,0.0,0.0,1.0,SoundStimuli/CrazyInLove_BeyonceFtJayZ_Original5S.wav,,,,,,,,,,,,,,,,,,,,,,,,,,,,,,,,,,,,,,,,,,,,,,,,,,,,,,,,,,
,,,,,157042,1,2024-06-17_10h39.29.024,experiment,2024.1.5,MacIntel,59.88023952,667045947eb812cbdacbf325,66704a59970c84e77698f0cc,,,,,,,,,,,,,,,,,,,,,,,,,,,,,,,,,,,,337.445,347.6769,0.0,1.0,1.0,1.0,1.0,SoundStimuli/CrazyInLove_BeyonceFtJayZ_Cover5S.wav,,,,,,,,,,,,,,,,,,,,,,,,,,,,,,,,,,,,,,,,,,,,,,,,,,,,,,,,,,
,,,,,157042,1,2024-06-17_10h39.29.024,experiment,2024.1.5,MacIntel,59.88023952,667045947eb812cbdacbf325,66704a59970c84e77698f0cc,,,,,,,,,,,,,,,,,,,,,,,,,,,,,,,,,,,,,,,,,,,,347.677,350.0542,3.596816406,2.3609,0.0,13.0,13.0,3.0,1.0,song_indices/CrazyInLove_BeyonceFtJayZ.csv,,,,,,,,,,,,,,,,,,,,,,,,,,,,,,,,,,,,,,,,,,,,,,,,
,,,,,157042,1,2024-06-17_10h39.29.024,experiment,2024.1.5,MacIntel,59.88023952,667045947eb812cbdacbf325,66704a59970c84e77698f0cc,,,,,,,,,,,,,,,,,,,,,,,,,,,,,,,,,,,,350.0551,356.3895,0.0,0.0,0.0,0.0,1.0,SoundStimuli/RockWithYou_MichaelJackson_Original5S.wav,,,,,,,,,,,,,,,,,,,,,,,,,,,,,,,,,,,,,,,,,,,,,,,,,,,,,,,,,,
,,,,,157042,1,2024-06-17_10h39.29.024,experiment,2024.1.5,MacIntel,59.88023952,667045947eb812cbdacbf325,66704a59970c84e77698f0cc,,,,,,,,,,,,,,,,,,,,,,,,,,,,,,,,,,,,356.4005,362.4575,0.0,1.0,1.0,1.0,1.0,SoundStimuli/RockWithYou_MichaelJackson_Cover5S.wav,,,,,,,,,,,,,,,,,,,,,,,,,,,,,,,,,,,,,,,,,,,,,,,,,,,,,,,,,,
,,,,,157042,1,2024-06-17_10h39.29.024,experiment,2024.1.5,MacIntel,59.88023952,667045947eb812cbdacbf325,66704a59970c84e77698f0cc,,,,,,,,,,,,,,,,,,,,,,,,,,,,,,,,,,,,,,,,,,,,362.4576,363.9544,4.234638672,1.4824,0.0,14.0,14.0,16.0,1.0,song_indices/RockWithYou_MichaelJackson.csv,,,,,,,,,,,,,,,,,,,,,,,,,,,,,,,,,,,,,,,,,,,,,,,,
,,,,,157042,1,2024-06-17_10h39.29.024,experiment,2024.1.5,MacIntel,59.88023952,667045947eb812cbdacbf325,66704a59970c84e77698f0cc,,,,,,,,,,,,,,,,,,,,,,,,,,,,,,,,,,,,363.9557,370.1736,0.0,0.0,0.0,1.0,1.0,SoundStimuli/GimmeShelter_RollingStones_Cover5S.wav,,,,,,,,,,,,,,,,,,,,,,,,,,,,,,,,,,,,,,,,,,,,,,,,,,,,,,,,,,
,,,,,157042,1,2024-06-17_10h39.29.024,experiment,2024.1.5,MacIntel,59.88023952,667045947eb812cbdacbf325,66704a59970c84e77698f0cc,,,,,,,,,,,,,,,,,,,,,,,,,,,,,,,,,,,,370.1841,376.2752,0.0,1.0,1.0,0.0,1.0,SoundStimuli/GimmeShelter_RollingStones_Original5S.wav,,,,,,,,,,,,,,,,,,,,,,,,,,,,,,,,,,,,,,,,,,,,,,,,,,,,,,,,,,
,,,,,157042,1,2024-06-17_10h39.29.024,experiment,2024.1.5,MacIntel,59.88023952,667045947eb812cbdacbf325,66704a59970c84e77698f0cc,,,,,,,,,,,,,,,,,,,,,,,,,,,,,,,,,,,,,,,,,,,,376.2754,377.7557,4.233642578,1.4628,0.0,15.0,15.0,20.0,1.0,song_indices/GimmeShelter_RollingStones.csv,,,,,,,,,,,,,,,,,,,,,,,,,,,,,,,,,,,,,,,,,,,,,,,,
,,,,,157042,1,2024-06-17_10h39.29.024,experiment,2024.1.5,MacIntel,59.88023952,667045947eb812cbdacbf325,66704a59970c84e77698f0cc,,,,,,,,,,,,,,,,,,,,,,,,,,,,,,,,,,,,377.7565,384.7716,0.0,0.0,0.0,1.0,1.0,SoundStimuli/UptownFunk_MarkRonson_Cover5S.wav,,,,,,,,,,,,,,,,,,,,,,,,,,,,,,,,,,,,,,,,,,,,,,,,,,,,,,,,,,
,,,,,157042,1,2024-06-17_10h39.29.024,experiment,2024.1.5,MacIntel,59.88023952,667045947eb812cbdacbf325,66704a59970c84e77698f0cc,,,,,,,,,,,,,,,,,,,,,,,,,,,,,,,,,,,,384.7825,392.0053,0.0,1.0,1.0,0.0,1.0,SoundStimuli/UptownFunk_MarkRonson_Original5S.wav,,,,,,,,,,,,,,,,,,,,,,,,,,,,,,,,,,,,,,,,,,,,,,,,,,,,,,,,,,
,,,,,157042,1,2024-06-17_10h39.29.024,experiment,2024.1.5,MacIntel,59.88023952,667045947eb812cbdacbf325,66704a59970c84e77698f0cc,,,,,,,,,,,,,,,,,,,,,,,,,,,,,,,,,,,,,,,,,,,,392.0054,393.2019,6.925966797,1.1844,0.0,16.0,16.0,15.0,1.0,song_indices/UptownFunk_MarkRonson.csv,,,,,,,,,,,,,,,,,,,,,,,,,,,,,,,,,,,,,,,,,,,,,,,,
,,,,,157042,1,2024-06-17_10h39.29.024,experiment,2024.1.5,MacIntel,59.88023952,667045947eb812cbdacbf325,66704a59970c84e77698f0cc,,,,,,,,,,,,,,,,,,,,,,,,,,,,,,,,,,,,393.2027,399.986,0.0,0.0,0.0,1.0,1.0,SoundStimuli/PartyRockAnthem_LMFAO_Cover5S.wav,,,,,,,,,,,,,,,,,,,,,,,,,,,,,,,,,,,,,,,,,,,,,,,,,,,,,,,,,,
,,,,,157042,1,2024-06-17_10h39.29.024,experiment,2024.1.5,MacIntel,59.88023952,667045947eb812cbdacbf325,66704a59970c84e77698f0cc,,,,,,,,,,,,,,,,,,,,,,,,,,,,,,,,,,,,399.9972,406.737,0.0,1.0,1.0,0.0,1.0,SoundStimuli/PartyRockAnthem_LMFAO_Original5S.wav,,,,,,,,,,,,,,,,,,,,,,,,,,,,,,,,,,,,,,,,,,,,,,,,,,,,,,,,,,
,,,,,157042,1,2024-06-17_10h39.29.024,experiment,2024.1.5,MacIntel,59.88023952,667045947eb812cbdacbf325,66704a59970c84e77698f0cc,,,,,,,,,,,,,,,,,,,,,,,,,,,,,,,,,,,,,,,,,,,,406.7371,408.4158,5.007548828,1.6583,0.0,17.0,17.0,2.0,1.0,song_indices/PartyRockAnthem_LMFAO.csv,,,,,,,,,,,,,,,,,,,,,,,,,,,,,,,,,,,,,,,,,,,,,,,,
,,,,,157042,1,2024-06-17_10h39.29.024,experiment,2024.1.5,MacIntel,59.88023952,667045947eb812cbdacbf325,66704a59970c84e77698f0cc,,,,,,,,,,,,,,,,,,,,,,,,,,,,,,,,,,,,408.4167,414.6345,0.0,0.0,0.0,0.0,1.0,SoundStimuli/TheBattleOfNewOrleans_JohnnyHorton_Original5S.wav,,,,,,,,,,,,,,,,,,,,,,,,,,,,,,,,,,,,,,,,,,,,,,,,,,,,,,,,,,
,,,,,157042,1,2024-06-17_10h39.29.024,experiment,2024.1.5,MacIntel,59.88023952,667045947eb812cbdacbf325,66704a59970c84e77698f0cc,,,,,,,,,,,,,,,,,,,,,,,,,,,,,,,,,,,,414.6452,422.6165,0.0,1.0,1.0,1.0,1.0,SoundStimuli/TheBattleOfNewOrleans_JohnnyHorton_Cover5S.wav,,,,,,,,,,,,,,,,,,,,,,,,,,,,,,,,,,,,,,,,,,,,,,,,,,,,,,,,,,
,,,,,157042,1,2024-06-17_10h39.29.024,experiment,2024.1.5,MacIntel,59.88023952,667045947eb812cbdacbf325,66704a59970c84e77698f0cc,,,,,,,,,,,,,,,,,,,,,,,,,,,,,,,,,,,,,,,,,,,,422.6167,425.4592,4.535986328,2.8313,0.0,18.0,18.0,4.0,1.0,song_indices/TheBattleOfNewOrleans_JohnnyHorton.csv,,,,,,,,,,,,,,,,,,,,,,,,,,,,,,,,,,,,,,,,,,,,,,,,
,,,,,157042,1,2024-06-17_10h39.29.024,experiment,2024.1.5,MacIntel,59.88023952,667045947eb812cbdacbf325,66704a59970c84e77698f0cc,,,,,,,,,,,,,,,,,,,,,,,,,,,,,,,,,,,,425.46,431.7276,0.0,0.0,0.0,0.0,1.0,SoundStimuli/ItsAllInTheGame_TommyEdwards_Original5S.wav,,,,,,,,,,,,,,,,,,,,,,,,,,,,,,,,,,,,,,,,,,,,,,,,,,,,,,,,,,
,,,,,157042,1,2024-06-17_10h39.29.024,experiment,2024.1.5,MacIntel,59.88023952,667045947eb812cbdacbf325,66704a59970c84e77698f0cc,,,,,,,,,,,,,,,,,,,,,,,,,,,,,,,,,,,,431.7382,437.9627,0.0,1.0,1.0,1.0,1.0,SoundStimuli/ItsAllInTheGame_TommyEdwards_Cover5S.wav,,,,,,,,,,,,,,,,,,,,,,,,,,,,,,,,,,,,,,,,,,,,,,,,,,,,,,,,,,
,,,,,157042,1,2024-06-17_10h39.29.024,experiment,2024.1.5,MacIntel,59.88023952,667045947eb812cbdacbf325,66704a59970c84e77698f0cc,,,,,,,,,,,,,,,,,,,,,,,,,,,,,,,,,,,,,,,,,,,,437.9629,441.8051,5.713896484,3.8213,0.0,19.0,19.0,13.0,1.0,song_indices/ItsAllInTheGame_TommyEdwards.csv,,,,,,,,,,,,,,,,,,,,,,,,,,,,,,,,,,,,,,,,,,,,,,,,
,,,,,157042,1,2024-06-17_10h39.29.024,experiment,2024.1.5,MacIntel,59.88023952,667045947eb812cbdacbf325,66704a59970c84e77698f0cc,,,,,,,,,,,,,,,,,,,,,,,,,,,,,,,,,,,,441.8061,447.79,0.0,0.0,0.0,0.0,1.0,SoundStimuli/IWalkTheLine_JohnnyCash_Original5S.wav,,,,,,,,,,,,,,,,,,,,,,,,,,,,,,,,,,,,,,,,,,,,,,,,,,,,,,,,,,
,,,,,157042,1,2024-06-17_10h39.29.024,experiment,2024.1.5,MacIntel,59.88023952,667045947eb812cbdacbf325,66704a59970c84e77698f0cc,,,,,,,,,,,,,,,,,,,,,,,,,,,,,,,,,,,,447.8006,454.9404,0.0,1.0,1.0,1.0,1.0,SoundStimuli/IWalkTheLine_JohnnyCash_Cover5S.wav,,,,,,,,,,,,,,,,,,,,,,,,,,,,,,,,,,,,,,,,,,,,,,,,,,,,,,,,,,
,,,,,157042,1,2024-06-17_10h39.29.024,experiment,2024.1.5,MacIntel,59.88023952,667045947eb812cbdacbf325,66704a59970c84e77698f0cc,,,,,,,,,,,,,,,,,,,,,,,,,,,,,,,,,,,,,,,,,,,,454.9406,457.6674,4.094951172,2.7102,0.0,20.0,20.0,17.0,1.0,song_indices/IWalkTheLine_JohnnyCash.csv,,,,,,,,,,,,,,,,,,,,,,,,,,,,,,,,,,,,,,,,,,,,,,,,
,,,,,157042,1,2024-06-17_10h39.29.024,experiment,2024.1.5,MacIntel,59.88023952,667045947eb812cbdacbf325,66704a59970c84e77698f0cc,,,,,,,,,,,,,,,,,,,,,,,,,,,,,,,,,,,,457.6684,463.8861,0.0,0.0,0.0,1.0,1.0,SoundStimuli/NoOne_AliciaKeys_Cover5S.wav,,,,,,,,,,,,,,,,,,,,,,,,,,,,,,,,,,,,,,,,,,,,,,,,,,,,,,,,,,
,,,,,157042,1,2024-06-17_10h39.29.024,experiment,2024.1.5,MacIntel,59.88023952,667045947eb812cbdacbf325,66704a59970c84e77698f0cc,,,,,,,,,,,,,,,,,,,,,,,,,,,,,,,,,,,,463.897,471.618,0.0,1.0,1.0,0.0,1.0,SoundStimuli/NoOne_AliciaKeys_Original5S.wav,,,,,,,,,,,,,,,,,,,,,,,,,,,,,,,,,,,,,,,,,,,,,,,,,,,,,,,,,,
,,,,,157042,1,2024-06-17_10h39.29.024,experiment,2024.1.5,MacIntel,59.88023952,667045947eb812cbdacbf325,66704a59970c84e77698f0cc,,,,,,,,,,,,,,,,,,,,,,,,,,,,,,,,,,,,,,,,,,,,471.6181,473.8287,3.933466797,2.1983,0.0,21.0,21.0,19.0,1.0,song_indices/NoOne_AliciaKeys.csv,,,,,,,,,,,,,,,,,,,,,,,,,,,,,,,,,,,,,,,,,,,,,,,,
,,,,,157042,1,2024-06-17_10h39.29.024,experiment,2024.1.5,MacIntel,59.88023952,667045947eb812cbdacbf325,66704a59970c84e77698f0cc,,,,,,,,,,,,,,,,,,,,,,,,,,,,,,,,,,,,473.8295,480.048,0.0,0.0,0.0,0.0,1.0,SoundStimuli/TheBoyIsMine_BrandyMonica_Original5S.wav,,,,,,,,,,,,,,,,,,,,,,,,,,,,,,,,,,,,,,,,,,,,,,,,,,,,,,,,,,
,,,,,157042,1,2024-06-17_10h39.29.024,experiment,2024.1.5,MacIntel,59.88023952,667045947eb812cbdacbf325,66704a59970c84e77698f0cc,,,,,,,,,,,,,,,,,,,,,,,,,,,,,,,,,,,,480.059,486.0007,0.0,1.0,1.0,1.0,1.0,SoundStimuli/TheBoyIsMine_BrandyMonica_Cover5S.wav,,,,,,,,,,,,,,,,,,,,,,,,,,,,,,,,,,,,,,,,,,,,,,,,,,,,,,,,,,
,,,,,157042,1,2024-06-17_10h39.29.024,experiment,2024.1.5,MacIntel,59.88023952,667045947eb812cbdacbf325,66704a59970c84e77698f0cc,,,,,,,,,,,,,,,,,,,,,,,,,,,,,,,,,,,,,,,,,,,,486.0008,489.2087,6.843935547,3.189,0.0,22.0,22.0,6.0,1.0,song_indices/TheBoyIsMine_BrandyMonica.csv,,,,,,,,,,,,,,,,,,,,,,,,,,,,,,,,,,,,,,,,,,,,,,,,
,,,,,157042,1,2024-06-17_10h39.29.024,experiment,2024.1.5,MacIntel,59.88023952,667045947eb812cbdacbf325,66704a59970c84e77698f0cc,,,,,,,,,,,,,,,,,,,,,,,,,,,,,,,,,,,,,,,,,,,,,,,,,,,,,,489.2093,596.9079,space,107.6901,,0.0,0.0,0.0,1.0,1.0,choose_song_b2.csv,,,,,,,,,,,,,,,,,,,,,,,,,,,,,,,,,,,,,
,,,,,157042,1,2024-06-17_10h39.29.024,experiment,2024.1.5,MacIntel,59.88023952,667045947eb812cbdacbf325,66704a59970c84e77698f0cc,,,,,,,,,,,,,,,,,,,,,,,,,,,,,,,,,,,,596.9101,603.1247,0.0,0.0,0.0,0.0,1.0,SoundStimuli/Smooth_SantanaRobThomas_Original5S.wav,,,,,,,,,,,,,,,,,,,,,,,,,,,,,,,,,,,,,,,,,,,,,,,,,,,,,,,,,,
,,,,,157042,1,2024-06-17_10h39.29.024,experiment,2024.1.5,MacIntel,59.88023952,667045947eb812cbdacbf325,66704a59970c84e77698f0cc,,,,,,,,,,,,,,,,,,,,,,,,,,,,,,,,,,,,603.1357,609.2601,0.0,1.0,1.0,1.0,1.0,SoundStimuli/Smooth_SantanaRobThomas_Cover5S.wav,,,,,,,,,,,,,,,,,,,,,,,,,,,,,,,,,,,,,,,,,,,,,,,,,,,,,,,,,,
,,,,,157042,1,2024-06-17_10h39.29.024,experiment,2024.1.5,MacIntel,59.88023952,667045947eb812cbdacbf325,66704a59970c84e77698f0cc,,,,,,,,,,,,,,,,,,,,,,,,,,,,,,,,,,,,,,,,,,,,609.2602,610.5238,6.079697266,1.2416,0.0,0.0,0.0,4.0,1.0,song_indices/Smooth_SantanaRobThomas.csv,,,,,,,,,,,,,,,,,,,,,,,,,,,,,,,,,,,,,,,,,,,,,,,,
,,,,,157042,1,2024-06-17_10h39.29.024,experiment,2024.1.5,MacIntel,59.88023952,667045947eb812cbdacbf325,66704a59970c84e77698f0cc,,,,,,,,,,,,,,,,,,,,,,,,,,,,,,,,,,,,610.5249,616.675,0.0,0.0,0.0,0.0,1.0,SoundStimuli/LikeARollingStone_BobDylan_Original5S.wav,,,,,,,,,,,,,,,,,,,,,,,,,,,,,,,,,,,,,,,,,,,,,,,,,,,,,,,,,,
,,,,,157042,1,2024-06-17_10h39.29.024,experiment,2024.1.5,MacIntel,59.88023952,667045947eb812cbdacbf325,66704a59970c84e77698f0cc,,,,,,,,,,,,,,,,,,,,,,,,,,,,,,,,,,,,616.6858,621.0815,0.0,1.0,1.0,1.0,1.0,SoundStimuli/LikeARollingStone_BobDylan_Cover5S.wav,,,,,,,,,,,,,,,,,,,,,,,,,,,,,,,,,,,,,,,,,,,,,,,,,,,,,,,,,,
,,,,,157042,1,2024-06-17_10h39.29.024,experiment,2024.1.5,MacIntel,59.88023952,667045947eb812cbdacbf325,66704a59970c84e77698f0cc,,,,,,,,,,,,,,,,,,,,,,,,,,,,,,,,,,,,,,,,,,,,621.0817,627.3335,5.441787109,6.231,0.0,1.0,1.0,12.0,1.0,song_indices/LikeARollingStone_BobDylan.csv,,,,,,,,,,,,,,,,,,,,,,,,,,,,,,,,,,,,,,,,,,,,,,,,
,,,,,157042,1,2024-06-17_10h39.29.024,experiment,2024.1.5,MacIntel,59.88023952,667045947eb812cbdacbf325,66704a59970c84e77698f0cc,,,,,,,,,,,,,,,,,,,,,,,,,,,,,,,,,,,,627.3343,633.5854,0.0,0.0,0.0,0.0,1.0,SoundStimuli/LivinOnAPrayer_BonJovi_Original5S.wav,,,,,,,,,,,,,,,,,,,,,,,,,,,,,,,,,,,,,,,,,,,,,,,,,,,,,,,,,,
,,,,,157042,1,2024-06-17_10h39.29.024,experiment,2024.1.5,MacIntel,59.88023952,667045947eb812cbdacbf325,66704a59970c84e77698f0cc,,,,,,,,,,,,,,,,,,,,,,,,,,,,,,,,,,,,633.5962,641.2673,0.0,1.0,1.0,1.0,1.0,SoundStimuli/LivinOnAPrayer_BonJovi_Cover5S.wav,,,,,,,,,,,,,,,,,,,,,,,,,,,,,,,,,,,,,,,,,,,,,,,,,,,,,,,,,,
,,,,,157042,1,2024-06-17_10h39.29.024,experiment,2024.1.5,MacIntel,59.88023952,667045947eb812cbdacbf325,66704a59970c84e77698f0cc,,,,,,,,,,,,,,,,,,,,,,,,,,,,,,,,,,,,,,,,,,,,641.2676,647.1538,4.309902344,5.865,0.0,2.0,2.0,16.0,1.0,song_indices/LivinOnAPrayer_BonJovi.csv,,,,,,,,,,,,,,,,,,,,,,,,,,,,,,,,,,,,,,,,,,,,,,,,
,,,,,157042,1,2024-06-17_10h39.29.024,experiment,2024.1.5,MacIntel,59.88023952,667045947eb812cbdacbf325,66704a59970c84e77698f0cc,,,,,,,,,,,,,,,,,,,,,,,,,,,,,,,,,,,,647.155,652.7576,0.0,0.0,0.0,0.0,1.0,SoundStimuli/IWannaDanceWithSomebody_WhitneyHouston_Original5S.wav,,,,,,,,,,,,,,,,,,,,,,,,,,,,,,,,,,,,,,,,,,,,,,,,,,,,,,,,,,
,,,,,157042,1,2024-06-17_10h39.29.024,experiment,2024.1.5,MacIntel,59.88023952,667045947eb812cbdacbf325,66704a59970c84e77698f0cc,,,,,,,,,,,,,,,,,,,,,,,,,,,,,,,,,,,,652.7686,659.591,0.0,1.0,1.0,1.0,1.0,SoundStimuli/IWannaDanceWithSomebody_WhitneyHouston_Cover5S.wav,,,,,,,,,,,,,,,,,,,,,,,,,,,,,,,,,,,,,,,,,,,,,,,,,,,,,,,,,,
,,,,,157042,1,2024-06-17_10h39.29.024,experiment,2024.1.5,MacIntel,59.88023952,667045947eb812cbdacbf325,66704a59970c84e77698f0cc,,,,,,,,,,,,,,,,,,,,,,,,,,,,,,,,,,,,,,,,,,,,659.5911,662.517,3.189824219,2.909,0.0,3.0,3.0,13.0,1.0,song_indices/IWannaDanceWithSomebody_WhitneyHouston.csv,,,,,,,,,,,,,,,,,,,,,,,,,,,,,,,,,,,,,,,,,,,,,,,,
,,,,,157042,1,2024-06-17_10h39.29.024,experiment,2024.1.5,MacIntel,59.88023952,667045947eb812cbdacbf325,66704a59970c84e77698f0cc,,,,,,,,,,,,,,,,,,,,,,,,,,,,,,,,,,,,662.5179,668.6027,0.0,0.0,0.0,0.0,1.0,SoundStimuli/IllMakeLoveToYou_BoyzIIMen_Original5S.wav,,,,,,,,,,,,,,,,,,,,,,,,,,,,,,,,,,,,,,,,,,,,,,,,,,,,,,,,,,
,,,,,157042,1,2024-06-17_10h39.29.024,experiment,2024.1.5,MacIntel,59.88023952,667045947eb812cbdacbf325,66704a59970c84e77698f0cc,,,,,,,,,,,,,,,,,,,,,,,,,,,,,,,,,,,,668.6134,674.5562,0.0,1.0,1.0,1.0,1.0,SoundStimuli/IllMakeLoveToYou_BoyzIIMen_Cover5S.wav,,,,,,,,,,,,,,,,,,,,,,,,,,,,,,,,,,,,,,,,,,,,,,,,,,,,,,,,,,
,,,,,157042,1,2024-06-17_10h39.29.024,experiment,2024.1.5,MacIntel,59.88023952,667045947eb812cbdacbf325,66704a59970c84e77698f0cc,,,,,,,,,,,,,,,,,,,,,,,,,,,,,,,,,,,,,,,,,,,,674.5564,678.1645,6.048115234,3.5903,0.0,4.0,4.0,6.0,1.0,song_indices/IllMakeLoveToYou_BoyzIIMen.csv,,,,,,,,,,,,,,,,,,,,,,,,,,,,,,,,,,,,,,,,,,,,,,,,
,,,,,157042,1,2024-06-17_10h39.29.024,experiment,2024.1.5,MacIntel,59.88023952,667045947eb812cbdacbf325,66704a59970c84e77698f0cc,,,,,,,,,,,,,,,,,,,,,,,,,,,,,,,,,,,,678.1654,684.1992,0.0,0.0,0.0,0.0,1.0,SoundStimuli/AnotherOneBitesTheDust_Queen_Original5S.wav,,,,,,,,,,,,,,,,,,,,,,,,,,,,,,,,,,,,,,,,,,,,,,,,,,,,,,,,,,
,,,,,157042,1,2024-06-17_10h39.29.024,experiment,2024.1.5,MacIntel,59.88023952,667045947eb812cbdacbf325,66704a59970c84e77698f0cc,,,,,,,,,,,,,,,,,,,,,,,,,,,,,,,,,,,,684.21,692.3312,0.0,1.0,1.0,1.0,1.0,SoundStimuli/AnotherOneBitesTheDust_Queen_Cover5S.wav,,,,,,,,,,,,,,,,,,,,,,,,,,,,,,,,,,,,,,,,,,,,,,,,,,,,,,,,,,
,,,,,157042,1,2024-06-17_10h39.29.024,experiment,2024.1.5,MacIntel,59.88023952,667045947eb812cbdacbf325,66704a59970c84e77698f0cc,,,,,,,,,,,,,,,,,,,,,,,,,,,,,,,,,,,,,,,,,,,,692.3314,695.6055,3.849179687,3.2556,0.0,5.0,5.0,9.0,1.0,song_indices/AnotherOneBitesTheDust_Queen.csv,,,,,,,,,,,,,,,,,,,,,,,,,,,,,,,,,,,,,,,,,,,,,,,,
,,,,,157042,1,2024-06-17_10h39.29.024,experiment,2024.1.5,MacIntel,59.88023952,667045947eb812cbdacbf325,66704a59970c84e77698f0cc,,,,,,,,,,,,,,,,,,,,,,,,,,,,,,,,,,,,695.6065,704.2023,0.0,0.0,0.0,1.0,1.0,SoundStimuli/HeatWaves_GlassAnimals_Cover5S.wav,,,,,,,,,,,,,,,,,,,,,,,,,,,,,,,,,,,,,,,,,,,,,,,,,,,,,,,,,,
,,,,,157042,1,2024-06-17_10h39.29.024,experiment,2024.1.5,MacIntel,59.88023952,667045947eb812cbdacbf325,66704a59970c84e77698f0cc,,,,,,,,,,,,,,,,,,,,,,,,,,,,,,,,,,,,704.2131,710.3052,0.0,1.0,1.0,0.0,1.0,SoundStimuli/HeatWaves_GlassAnimals_Original5S.wav,,,,,,,,,,,,,,,,,,,,,,,,,,,,,,,,,,,,,,,,,,,,,,,,,,,,,,,,,,
,,,,,157042,1,2024-06-17_10h39.29.024,experiment,2024.1.5,MacIntel,59.88023952,667045947eb812cbdacbf325,66704a59970c84e77698f0cc,,,,,,,,,,,,,,,,,,,,,,,,,,,,,,,,,,,,,,,,,,,,710.3053,712.8818,5.980996094,2.5626,0.0,6.0,6.0,10.0,1.0,song_indices/HeatWaves_GlassAnimals.csv,,,,,,,,,,,,,,,,,,,,,,,,,,,,,,,,,,,,,,,,,,,,,,,,
,,,,,157042,1,2024-06-17_10h39.29.024,experiment,2024.1.5,MacIntel,59.88023952,667045947eb812cbdacbf325,66704a59970c84e77698f0cc,,,,,,,,,,,,,,,,,,,,,,,,,,,,,,,,,,,,712.8828,718.9183,0.0,0.0,0.0,1.0,1.0,SoundStimuli/IWantToHoldYourHand_TheBeatles_Cover5S.wav,,,,,,,,,,,,,,,,,,,,,,,,,,,,,,,,,,,,,,,,,,,,,,,,,,,,,,,,,,
,,,,,157042,1,2024-06-17_10h39.29.024,experiment,2024.1.5,MacIntel,59.88023952,667045947eb812cbdacbf325,66704a59970c84e77698f0cc,,,,,,,,,,,,,,,,,,,,,,,,,,,,,,,,,,,,718.9293,724.7044,0.0,1.0,1.0,0.0,1.0,SoundStimuli/IWantToHoldYourHand_TheBeatles_Original5S.wav,,,,,,,,,,,,,,,,,,,,,,,,,,,,,,,,,,,,,,,,,,,,,,,,,,,,,,,,,,
,,,,,157042,1,2024-06-17_10h39.29.024,experiment,2024.1.5,MacIntel,59.88023952,667045947eb812cbdacbf325,66704a59970c84e77698f0cc,,,,,,,,,,,,,,,,,,,,,,,,,,,,,,,,,,,,,,,,,,,,724.7045,728.5956,4.893642578,3.8752,0.0,7.0,7.0,19.0,1.0,song_indices/IWantToHoldYourHand_TheBeatles.csv,,,,,,,,,,,,,,,,,,,,,,,,,,,,,,,,,,,,,,,,,,,,,,,,
,,,,,157042,1,2024-06-17_10h39.29.024,experiment,2024.1.5,MacIntel,59.88023952,667045947eb812cbdacbf325,66704a59970c84e77698f0cc,,,,,,,,,,,,,,,,,,,,,,,,,,,,,,,,,,,,728.5972,734.7311,0.0,0.0,0.0,0.0,1.0,SoundStimuli/MackTheKnife_BobbyDarin_Original5S.wav,,,,,,,,,,,,,,,,,,,,,,,,,,,,,,,,,,,,,,,,,,,,,,,,,,,,,,,,,,
,,,,,157042,1,2024-06-17_10h39.29.024,experiment,2024.1.5,MacIntel,59.88023952,667045947eb812cbdacbf325,66704a59970c84e77698f0cc,,,,,,,,,,,,,,,,,,,,,,,,,,,,,,,,,,,,734.7435,740.9995,0.0,1.0,1.0,1.0,1.0,SoundStimuli/MackTheKnife_BobbyDarin_Cover5S.wav,,,,,,,,,,,,,,,,,,,,,,,,,,,,,,,,,,,,,,,,,,,,,,,,,,,,,,,,,,
,,,,,157042,1,2024-06-17_10h39.29.024,experiment,2024.1.5,MacIntel,59.88023952,667045947eb812cbdacbf325,66704a59970c84e77698f0cc,,,,,,,,,,,,,,,,,,,,,,,,,,,,,,,,,,,,,,,,,,,,740.9996,745.455,3.014833984,4.4365,0.0,8.0,8.0,21.0,1.0,song_indices/MackTheKnife_BobbyDarin.csv,,,,,,,,,,,,,,,,,,,,,,,,,,,,,,,,,,,,,,,,,,,,,,,,
,,,,,157042,1,2024-06-17_10h39.29.024,experiment,2024.1.5,MacIntel,59.88023952,667045947eb812cbdacbf325,66704a59970c84e77698f0cc,,,,,,,,,,,,,,,,,,,,,,,,,,,,,,,,,,,,745.4558,753.719,0.0,0.0,0.0,1.0,1.0,SoundStimuli/Perfect_EdSheeran_Cover5S.wav,,,,,,,,,,,,,,,,,,,,,,,,,,,,,,,,,,,,,,,,,,,,,,,,,,,,,,,,,,
,,,,,157042,1,2024-06-17_10h39.29.024,experiment,2024.1.5,MacIntel,59.88023952,667045947eb812cbdacbf325,66704a59970c84e77698f0cc,,,,,,,,,,,,,,,,,,,,,,,,,,,,,,,,,,,,753.7299,762.5821,0.0,1.0,1.0,0.0,1.0,SoundStimuli/Perfect_EdSheeran_Original5S.wav,,,,,,,,,,,,,,,,,,,,,,,,,,,,,,,,,,,,,,,,,,,,,,,,,,,,,,,,,,
,,,,,157042,1,2024-06-17_10h39.29.024,experiment,2024.1.5,MacIntel,59.88023952,667045947eb812cbdacbf325,66704a59970c84e77698f0cc,,,,,,,,,,,,,,,,,,,,,,,,,,,,,,,,,,,,,,,,,,,,762.5822,765.0263,5.989257813,2.4303,0.0,9.0,9.0,0.0,1.0,song_indices/Perfect_EdSheeran.csv,,,,,,,,,,,,,,,,,,,,,,,,,,,,,,,,,,,,,,,,,,,,,,,,
,,,,,157042,1,2024-06-17_10h39.29.024,experiment,2024.1.5,MacIntel,59.88023952,667045947eb812cbdacbf325,66704a59970c84e77698f0cc,,,,,,,,,,,,,,,,,,,,,,,,,,,,,,,,,,,,765.0273,770.9782,0.0,0.0,0.0,0.0,1.0,SoundStimuli/BohemianRhapsody_Queen_Original5S.wav,,,,,,,,,,,,,,,,,,,,,,,,,,,,,,,,,,,,,,,,,,,,,,,,,,,,,,,,,,
,,,,,157042,1,2024-06-17_10h39.29.024,experiment,2024.1.5,MacIntel,59.88023952,667045947eb812cbdacbf325,66704a59970c84e77698f0cc,,,,,,,,,,,,,,,,,,,,,,,,,,,,,,,,,,,,770.989,775.0523,0.0,1.0,1.0,1.0,1.0,SoundStimuli/BohemianRhapsody_Queen_Cover5S.wav,,,,,,,,,,,,,,,,,,,,,,,,,,,,,,,,,,,,,,,,,,,,,,,,,,,,,,,,,,
,,,,,157042,1,2024-06-17_10h39.29.024,experiment,2024.1.5,MacIntel,59.88023952,667045947eb812cbdacbf325,66704a59970c84e77698f0cc,,,,,,,,,,,,,,,,,,,,,,,,,,,,,,,,,,,,,,,,,,,,775.0524,782.2345,3.197412109,7.1633,0.0,10.0,10.0,18.0,1.0,song_indices/BohemianRhapsody_Queen.csv,,,,,,,,,,,,,,,,,,,,,,,,,,,,,,,,,,,,,,,,,,,,,,,,
,,,,,157042,1,2024-06-17_10h39.29.024,experiment,2024.1.5,MacIntel,59.88023952,667045947eb812cbdacbf325,66704a59970c84e77698f0cc,,,,,,,,,,,,,,,,,,,,,,,,,,,,,,,,,,,,782.2355,789.7339,0.0,0.0,0.0,1.0,1.0,SoundStimuli/BadDay_DanielPowter_Cover5S.wav,,,,,,,,,,,,,,,,,,,,,,,,,,,,,,,,,,,,,,,,,,,,,,,,,,,,,,,,,,
,,,,,157042,1,2024-06-17_10h39.29.024,experiment,2024.1.5,MacIntel,59.88023952,667045947eb812cbdacbf325,66704a59970c84e77698f0cc,,,,,,,,,,,,,,,,,,,,,,,,,,,,,,,,,,,,789.7448,796.1852,0.0,1.0,1.0,0.0,1.0,SoundStimuli/BadDay_DanielPowter_Original5S.wav,,,,,,,,,,,,,,,,,,,,,,,,,,,,,,,,,,,,,,,,,,,,,,,,,,,,,,,,,,
,,,,,157042,1,2024-06-17_10h39.29.024,experiment,2024.1.5,MacIntel,59.88023952,667045947eb812cbdacbf325,66704a59970c84e77698f0cc,,,,,,,,,,,,,,,,,,,,,,,,,,,,,,,,,,,,,,,,,,,,796.1853,799.7931,6.013105469,3.596,0.0,11.0,11.0,22.0,1.0,song_indices/BadDay_DanielPowter.csv,,,,,,,,,,,,,,,,,,,,,,,,,,,,,,,,,,,,,,,,,,,,,,,,
,,,,,157042,1,2024-06-17_10h39.29.024,experiment,2024.1.5,MacIntel,59.88023952,667045947eb812cbdacbf325,66704a59970c84e77698f0cc,,,,,,,,,,,,,,,,,,,,,,,,,,,,,,,,,,,,799.7939,806.8268,0.0,0.0,0.0,1.0,1.0,SoundStimuli/StrawberryFieldsForever_TheBeatles_Cover5S.wav,,,,,,,,,,,,,,,,,,,,,,,,,,,,,,,,,,,,,,,,,,,,,,,,,,,,,,,,,,
,,,,,157042,1,2024-06-17_10h39.29.024,experiment,2024.1.5,MacIntel,59.88023952,667045947eb812cbdacbf325,66704a59970c84e77698f0cc,,,,,,,,,,,,,,,,,,,,,,,,,,,,,,,,,,,,806.8376,812.9634,0.0,1.0,1.0,0.0,1.0,SoundStimuli/StrawberryFieldsForever_TheBeatles_Original5S.wav,,,,,,,,,,,,,,,,,,,,,,,,,,,,,,,,,,,,,,,,,,,,,,,,,,,,,,,,,,
,,,,,157042,1,2024-06-17_10h39.29.024,experiment,2024.1.5,MacIntel,59.88023952,667045947eb812cbdacbf325,66704a59970c84e77698f0cc,,,,,,,,,,,,,,,,,,,,,,,,,,,,,,,,,,,,,,,,,,,,812.9635,815.789,4.605390625,2.808,0.0,12.0,12.0,14.0,1.0,song_indices/StrawberryFieldsForever_TheBeatles.csv,,,,,,,,,,,,,,,,,,,,,,,,,,,,,,,,,,,,,,,,,,,,,,,,
,,,,,157042,1,2024-06-17_10h39.29.024,experiment,2024.1.5,MacIntel,59.88023952,667045947eb812cbdacbf325,66704a59970c84e77698f0cc,,,,,,,,,,,,,,,,,,,,,,,,,,,,,,,,,,,,815.7901,822.4908,0.0,0.0,0.0,1.0,1.0,SoundStimuli/BridgeOverTroubledWater_SimonAndGarfunkel_Cover5S.wav,,,,,,,,,,,,,,,,,,,,,,,,,,,,,,,,,,,,,,,,,,,,,,,,,,,,,,,,,,
,,,,,157042,1,2024-06-17_10h39.29.024,experiment,2024.1.5,MacIntel,59.88023952,667045947eb812cbdacbf325,66704a59970c84e77698f0cc,,,,,,,,,,,,,,,,,,,,,,,,,,,,,,,,,,,,822.5014,828.8089,0.0,1.0,1.0,0.0,1.0,SoundStimuli/BridgeOverTroubledWater_SimonAndGarfunkel_Original5S.wav,,,,,,,,,,,,,,,,,,,,,,,,,,,,,,,,,,,,,,,,,,,,,,,,,,,,,,,,,,
,,,,,157042,1,2024-06-17_10h39.29.024,experiment,2024.1.5,MacIntel,59.88023952,667045947eb812cbdacbf325,66704a59970c84e77698f0cc,,,,,,,,,,,,,,,,,,,,,,,,,,,,,,,,,,,,,,,,,,,,828.8091,833.1158,5.606728516,4.2892,0.0,13.0,13.0,1.0,1.0,song_indices/BridgeOverTroubledWater_SimonAndGarfunkel.csv,,,,,,,,,,,,,,,,,,,,,,,,,,,,,,,,,,,,,,,,,,,,,,,,
,,,,,157042,1,2024-06-17_10h39.29.024,experiment,2024.1.5,MacIntel,59.88023952,667045947eb812cbdacbf325,66704a59970c84e77698f0cc,,,,,,,,,,,,,,,,,,,,,,,,,,,,,,,,,,,,833.1166,838.9521,0.0,0.0,0.0,1.0,1.0,SoundStimuli/StayinAlive_BeeGees_Cover5S.wav,,,,,,,,,,,,,,,,,,,,,,,,,,,,,,,,,,,,,,,,,,,,,,,,,,,,,,,,,,
,,,,,157042,1,2024-06-17_10h39.29.024,experiment,2024.1.5,MacIntel,59.88023952,667045947eb812cbdacbf325,66704a59970c84e77698f0cc,,,,,,,,,,,,,,,,,,,,,,,,,,,,,,,,,,,,838.9629,844.9712,0.0,1.0,1.0,0.0,1.0,SoundStimuli/StayinAlive_BeeGees_Original5S.wav,,,,,,,,,,,,,,,,,,,,,,,,,,,,,,,,,,,,,,,,,,,,,,,,,,,,,,,,,,
,,,,,157042,1,2024-06-17_10h39.29.024,experiment,2024.1.5,MacIntel,59.88023952,667045947eb812cbdacbf325,66704a59970c84e77698f0cc,,,,,,,,,,,,,,,,,,,,,,,,,,,,,,,,,,,,,,,,,,,,844.9713,847.0829,4.083847656,2.0975,0.0,14.0,14.0,2.0,1.0,song_indices/StayinAlive_BeeGees.csv,,,,,,,,,,,,,,,,,,,,,,,,,,,,,,,,,,,,,,,,,,,,,,,,
,,,,,157042,1,2024-06-17_10h39.29.024,experiment,2024.1.5,MacIntel,59.88023952,667045947eb812cbdacbf325,66704a59970c84e77698f0cc,,,,,,,,,,,,,,,,,,,,,,,,,,,,,,,,,,,,847.0837,853.3176,0.0,0.0,0.0,0.0,1.0,SoundStimuli/GodOnlyKnows_TheBeachBoys_Original5S.wav,,,,,,,,,,,,,,,,,,,,,,,,,,,,,,,,,,,,,,,,,,,,,,,,,,,,,,,,,,
,,,,,157042,1,2024-06-17_10h39.29.024,experiment,2024.1.5,MacIntel,59.88023952,667045947eb812cbdacbf325,66704a59970c84e77698f0cc,,,,,,,,,,,,,,,,,,,,,,,,,,,,,,,,,,,,853.3286,860.1849,0.0,1.0,1.0,1.0,1.0,SoundStimuli/GodOnlyKnows_TheBeachBoys_Cover5S.wav,,,,,,,,,,,,,,,,,,,,,,,,,,,,,,,,,,,,,,,,,,,,,,,,,,,,,,,,,,
,,,,,157042,1,2024-06-17_10h39.29.024,experiment,2024.1.5,MacIntel,59.88023952,667045947eb812cbdacbf325,66704a59970c84e77698f0cc,,,,,,,,,,,,,,,,,,,,,,,,,,,,,,,,,,,,,,,,,,,,860.185,866.4695,3.760410156,6.2642,0.0,15.0,15.0,8.0,1.0,song_indices/GodOnlyKnows_TheBeachBoys.csv,,,,,,,,,,,,,,,,,,,,,,,,,,,,,,,,,,,,,,,,,,,,,,,,
,,,,,157042,1,2024-06-17_10h39.29.024,experiment,2024.1.5,MacIntel,59.88023952,667045947eb812cbdacbf325,66704a59970c84e77698f0cc,,,,,,,,,,,,,,,,,,,,,,,,,,,,,,,,,,,,866.4703,872.9884,0.0,0.0,0.0,1.0,1.0,SoundStimuli/OldTownRoad_LilNasX_Cover5S.wav,,,,,,,,,,,,,,,,,,,,,,,,,,,,,,,,,,,,,,,,,,,,,,,,,,,,,,,,,,
,,,,,157042,1,2024-06-17_10h39.29.024,experiment,2024.1.5,MacIntel,59.88023952,667045947eb812cbdacbf325,66704a59970c84e77698f0cc,,,,,,,,,,,,,,,,,,,,,,,,,,,,,,,,,,,,872.9991,880.3709,0.0,1.0,1.0,0.0,1.0,SoundStimuli/OldTownRoad_LilNasX_Original5S.wav,,,,,,,,,,,,,,,,,,,,,,,,,,,,,,,,,,,,,,,,,,,,,,,,,,,,,,,,,,
,,,,,157042,1,2024-06-17_10h39.29.024,experiment,2024.1.5,MacIntel,59.88023952,667045947eb812cbdacbf325,66704a59970c84e77698f0cc,,,,,,,,,,,,,,,,,,,,,,,,,,,,,,,,,,,,,,,,,,,,880.3711,882.0499,4.542958984,1.659,0.0,16.0,16.0,20.0,1.0,song_indices/OldTownRoad_LilNasX.csv,,,,,,,,,,,,,,,,,,,,,,,,,,,,,,,,,,,,,,,,,,,,,,,,
,,,,,157042,1,2024-06-17_10h39.29.024,experiment,2024.1.5,MacIntel,59.88023952,667045947eb812cbdacbf325,66704a59970c84e77698f0cc,,,,,,,,,,,,,,,,,,,,,,,,,,,,,,,,,,,,882.0508,888.4352,0.0,0.0,0.0,0.0,1.0,SoundStimuli/MyGirl_TheTemptations_Original5S.wav,,,,,,,,,,,,,,,,,,,,,,,,,,,,,,,,,,,,,,,,,,,,,,,,,,,,,,,,,,
,,,,,157042,1,2024-06-17_10h39.29.024,experiment,2024.1.5,MacIntel,59.88023952,667045947eb812cbdacbf325,66704a59970c84e77698f0cc,,,,,,,,,,,,,,,,,,,,,,,,,,,,,,,,,,,,888.4467,896.1005,0.0,1.0,1.0,1.0,1.0,SoundStimuli/MyGirl_TheTemptations_Cover5S.wav,,,,,,,,,,,,,,,,,,,,,,,,,,,,,,,,,,,,,,,,,,,,,,,,,,,,,,,,,,
,,,,,157042,1,2024-06-17_10h39.29.024,experiment,2024.1.5,MacIntel,59.88023952,667045947eb812cbdacbf325,66704a59970c84e77698f0cc,,,,,,,,,,,,,,,,,,,,,,,,,,,,,,,,,,,,,,,,,,,,896.1007,901.5535,4.690703125,5.44,0.0,17.0,17.0,15.0,1.0,song_indices/MyGirl_TheTemptations.csv,,,,,,,,,,,,,,,,,,,,,,,,,,,,,,,,,,,,,,,,,,,,,,,,
,,,,,157042,1,2024-06-17_10h39.29.024,experiment,2024.1.5,MacIntel,59.88023952,667045947eb812cbdacbf325,66704a59970c84e77698f0cc,,,,,,,,,,,,,,,,,,,,,,,,,,,,,,,,,,,,901.5546,908.1224,0.0,0.0,0.0,0.0,1.0,SoundStimuli/Despacito_LuisFonsiDaddyYankee_Original5S.wav,,,,,,,,,,,,,,,,,,,,,,,,,,,,,,,,,,,,,,,,,,,,,,,,,,,,,,,,,,
,,,,,157042,1,2024-06-17_10h39.29.024,experiment,2024.1.5,MacIntel,59.88023952,667045947eb812cbdacbf325,66704a59970c84e77698f0cc,,,,,,,,,,,,,,,,,,,,,,,,,,,,,,,,,,,,908.1331,914.7068,0.0,1.0,1.0,1.0,1.0,SoundStimuli/Despacito_LuisFonsiDaddyYankee_Cover5S.wav,,,,,,,,,,,,,,,,,,,,,,,,,,,,,,,,,,,,,,,,,,,,,,,,,,,,,,,,,,
,,,,,157042,1,2024-06-17_10h39.29.024,experiment,2024.1.5,MacIntel,59.88023952,667045947eb812cbdacbf325,66704a59970c84e77698f0cc,,,,,,,,,,,,,,,,,,,,,,,,,,,,,,,,,,,,,,,,,,,,914.7069,917.2011,4.942158203,2.4726,0.0,18.0,18.0,11.0,1.0,song_indices/Despacito_LuisFonsiDaddyYankee.csv,,,,,,,,,,,,,,,,,,,,,,,,,,,,,,,,,,,,,,,,,,,,,,,,
,,,,,157042,1,2024-06-17_10h39.29.024,experiment,2024.1.5,MacIntel,59.88023952,667045947eb812cbdacbf325,66704a59970c84e77698f0cc,,,,,,,,,,,,,,,,,,,,,,,,,,,,,,,,,,,,917.202,924.6993,0.0,0.0,0.0,1.0,1.0,SoundStimuli/EndlessLove_DianaRossLionelRichie_Cover5S.wav,,,,,,,,,,,,,,,,,,,,,,,,,,,,,,,,,,,,,,,,,,,,,,,,,,,,,,,,,,
,,,,,157042,1,2024-06-17_10h39.29.024,experiment,2024.1.5,MacIntel,59.88023952,667045947eb812cbdacbf325,66704a59970c84e77698f0cc,,,,,,,,,,,,,,,,,,,,,,,,,,,,,,,,,,,,924.7105,931.0349,0.0,1.0,1.0,0.0,1.0,SoundStimuli/EndlessLove_DianaRossLionelRichie_Original5S.wav,,,,,,,,,,,,,,,,,,,,,,,,,,,,,,,,,,,,,,,,,,,,,,,,,,,,,,,,,,
,,,,,157042,1,2024-06-17_10h39.29.024,experiment,2024.1.5,MacIntel,59.88023952,667045947eb812cbdacbf325,66704a59970c84e77698f0cc,,,,,,,,,,,,,,,,,,,,,,,,,,,,,,,,,,,,,,,,,,,,931.035,935.108,4.995537109,4.0538,0.0,19.0,19.0,3.0,1.0,song_indices/EndlessLove_DianaRossLionelRichie.csv,,,,,,,,,,,,,,,,,,,,,,,,,,,,,,,,,,,,,,,,,,,,,,,,
,,,,,157042,1,2024-06-17_10h39.29.024,experiment,2024.1.5,MacIntel,59.88023952,667045947eb812cbdacbf325,66704a59970c84e77698f0cc,,,,,,,,,,,,,,,,,,,,,,,,,,,,,,,,,,,,935.1089,941.4104,0.0,0.0,0.0,0.0,1.0,SoundStimuli/Mood_24kGoldnianndior_Original5S.wav,,,,,,,,,,,,,,,,,,,,,,,,,,,,,,,,,,,,,,,,,,,,,,,,,,,,,,,,,,
,,,,,157042,1,2024-06-17_10h39.29.024,experiment,2024.1.5,MacIntel,59.88023952,667045947eb812cbdacbf325,66704a59970c84e77698f0cc,,,,,,,,,,,,,,,,,,,,,,,,,,,,,,,,,,,,941.4217,949.7074,0.0,1.0,1.0,1.0,1.0,SoundStimuli/Mood_24kGoldnianndior_Cover5S.wav,,,,,,,,,,,,,,,,,,,,,,,,,,,,,,,,,,,,,,,,,,,,,,,,,,,,,,,,,,
,,,,,157042,1,2024-06-17_10h39.29.024,experiment,2024.1.5,MacIntel,59.88023952,667045947eb812cbdacbf325,66704a59970c84e77698f0cc,,,,,,,,,,,,,,,,,,,,,,,,,,,,,,,,,,,,,,,,,,,,949.7076,956.4241,4.032988281,6.6951,0.0,20.0,20.0,5.0,1.0,song_indices/Mood_24kGoldnianndior.csv,,,,,,,,,,,,,,,,,,,,,,,,,,,,,,,,,,,,,,,,,,,,,,,,
,,,,,157042,1,2024-06-17_10h39.29.024,experiment,2024.1.5,MacIntel,59.88023952,667045947eb812cbdacbf325,66704a59970c84e77698f0cc,,,,,,,,,,,,,,,,,,,,,,,,,,,,,,,,,,,,956.4252,962.6098,0.0,0.0,0.0,0.0,1.0,SoundStimuli/LikeAPrayer_Madonna_Original5S.wav,,,,,,,,,,,,,,,,,,,,,,,,,,,,,,,,,,,,,,,,,,,,,,,,,,,,,,,,,,
,,,,,157042,1,2024-06-17_10h39.29.024,experiment,2024.1.5,MacIntel,59.88023952,667045947eb812cbdacbf325,66704a59970c84e77698f0cc,,,,,,,,,,,,,,,,,,,,,,,,,,,,,,,,,,,,962.6204,968.8287,0.0,1.0,1.0,1.0,1.0,SoundStimuli/LikeAPrayer_Madonna_Cover5S.wav,,,,,,,,,,,,,,,,,,,,,,,,,,,,,,,,,,,,,,,,,,,,,,,,,,,,,,,,,,
,,,,,157042,1,2024-06-17_10h39.29.024,experiment,2024.1.5,MacIntel,59.88023952,667045947eb812cbdacbf325,66704a59970c84e77698f0cc,,,,,,,,,,,,,,,,,,,,,,,,,,,,,,,,,,,,,,,,,,,,968.8288,971.0576,5.886191406,2.2116,0.0,21.0,21.0,7.0,1.0,song_indices/LikeAPrayer_Madonna.csv,,,,,,,,,,,,,,,,,,,,,,,,,,,,,,,,,,,,,,,,,,,,,,,,
,,,,,157042,1,2024-06-17_10h39.29.024,experiment,2024.1.5,MacIntel,59.88023952,667045947eb812cbdacbf325,66704a59970c84e77698f0cc,,,,,,,,,,,,,,,,,,,,,,,,,,,,,,,,,,,,971.0592,977.0932,0.0,0.0,0.0,0.0,1.0,SoundStimuli/AChangeIsGonnaCome_SamCooke_Original5S.wav,,,,,,,,,,,,,,,,,,,,,,,,,,,,,,,,,,,,,,,,,,,,,,,,,,,,,,,,,,
,,,,,157042,1,2024-06-17_10h39.29.024,experiment,2024.1.5,MacIntel,59.88023952,667045947eb812cbdacbf325,66704a59970c84e77698f0cc,,,,,,,,,,,,,,,,,,,,,,,,,,,,,,,,,,,,977.104,981.7977,0.0,1.0,1.0,1.0,1.0,SoundStimuli/AChangeIsGonnaCome_SamCooke_Cover5S.wav,,,,,,,,,,,,,,,,,,,,,,,,,,,,,,,,,,,,,,,,,,,,,,,,,,,,,,,,,,
,,,,,157042,1,2024-06-17_10h39.29.024,experiment,2024.1.5,MacIntel,59.88023952,667045947eb812cbdacbf325,66704a59970c84e77698f0cc,,,,,,,,,,,,,,,,,,,,,,,,,,,,,,,,,,,,,,,,,,,,981.7979,988.7313,6.015537109,6.9222,0.0,22.0,22.0,17.0,1.0,song_indices/AChangeIsGonnaCome_SamCooke.csv,,,,,,,,,,,,,,,,,,,,,,,,,,,,,,,,,,,,,,,,,,,,,,,,
,,,,,157042,1,2024-06-17_10h39.29.024,experiment,2024.1.5,MacIntel,59.88023952,667045947eb812cbdacbf325,66704a59970c84e77698f0cc,,,,,,,,,,,,,,,,,,,,,,,,,,,,,,,,,,,,,,,,,,,,,,,,,,,,,,988.7314,1233.9204,space,245.1764,,0.0,1.0,1.0,0.0,1.0,choose_song_b1.csv,,,,,,,,,,,,,,,,,,,,,,,,,,,,,,,,,,,,,
,,,,,157042,1,2024-06-17_10h39.29.024,experiment,2024.1.5,MacIntel,59.88023952,667045947eb812cbdacbf325,66704a59970c84e77698f0cc,,,,,,,,,,,,,,,,,,,,,,,,,,,,,,,,,,,,1233.923,1239.99,0.0,0.0,0.0,0.0,1.0,SoundStimuli/TossinAndTurnin_BobbyLewis_Original5S.wav,,,,,,,,,,,,,,,,,,,,,,,,,,,,,,,,,,,,,,,,,,,,,,,,,,,,,,,,,,
,,,,,157042,1,2024-06-17_10h39.29.024,experiment,2024.1.5,MacIntel,59.88023952,667045947eb812cbdacbf325,66704a59970c84e77698f0cc,,,,,,,,,,,,,,,,,,,,,,,,,,,,,,,,,,,,1240.001,1246.1089,0.0,1.0,1.0,1.0,1.0,SoundStimuli/TossinAndTurnin_BobbyLewis_Cover5S.wav,,,,,,,,,,,,,,,,,,,,,,,,,,,,,,,,,,,,,,,,,,,,,,,,,,,,,,,,,,
,,,,,157042,1,2024-06-17_10h39.29.024,experiment,2024.1.5,MacIntel,59.88023952,667045947eb812cbdacbf325,66704a59970c84e77698f0cc,,,,,,,,,,,,,,,,,,,,,,,,,,,,,,,,,,,,,,,,,,,,1246.109,1247.9537,3.978466797,1.8233,0.0,0.0,0.0,13.0,1.0,song_indices/TossinAndTurnin_BobbyLewis.csv,,,,,,,,,,,,,,,,,,,,,,,,,,,,,,,,,,,,,,,,,,,,,,,,
,,,,,157042,1,2024-06-17_10h39.29.024,experiment,2024.1.5,MacIntel,59.88023952,667045947eb812cbdacbf325,66704a59970c84e77698f0cc,,,,,,,,,,,,,,,,,,,,,,,,,,,,,,,,,,,,1247.9548,1255.7862,0.0,0.0,0.0,1.0,1.0,SoundStimuli/Dreams_FleetwoodMac_Cover5S.wav,,,,,,,,,,,,,,,,,,,,,,,,,,,,,,,,,,,,,,,,,,,,,,,,,,,,,,,,,,
,,,,,157042,1,2024-06-17_10h39.29.024,experiment,2024.1.5,MacIntel,59.88023952,667045947eb812cbdacbf325,66704a59970c84e77698f0cc,,,,,,,,,,,,,,,,,,,,,,,,,,,,,,,,,,,,1255.7973,1262.2876,0.0,1.0,1.0,0.0,1.0,SoundStimuli/Dreams_FleetwoodMac_Original5S.wav,,,,,,,,,,,,,,,,,,,,,,,,,,,,,,,,,,,,,,,,,,,,,,,,,,,,,,,,,,
,,,,,157042,1,2024-06-17_10h39.29.024,experiment,2024.1.5,MacIntel,59.88023952,667045947eb812cbdacbf325,66704a59970c84e77698f0cc,,,,,,,,,,,,,,,,,,,,,,,,,,,,,,,,,,,,,,,,,,,,1262.2877,1266.5273,4.014472656,4.2185,0.0,1.0,1.0,1.0,1.0,song_indices/Dreams_FleetwoodMac.csv,,,,,,,,,,,,,,,,,,,,,,,,,,,,,,,,,,,,,,,,,,,,,,,,
,,,,,157042,1,2024-06-17_10h39.29.024,experiment,2024.1.5,MacIntel,59.88023952,667045947eb812cbdacbf325,66704a59970c84e77698f0cc,,,,,,,,,,,,,,,,,,,,,,,,,,,,,,,,,,,,1266.5283,1272.0146,0.0,0.0,0.0,1.0,1.0,SoundStimuli/HowDoILive_LeAnnRimes_Cover5S.wav,,,,,,,,,,,,,,,,,,,,,,,,,,,,,,,,,,,,,,,,,,,,,,,,,,,,,,,,,,
,,,,,157042,1,2024-06-17_10h39.29.024,experiment,2024.1.5,MacIntel,59.88023952,667045947eb812cbdacbf325,66704a59970c84e77698f0cc,,,,,,,,,,,,,,,,,,,,,,,,,,,,,,,,,,,,1272.0256,1278.0502,0.0,1.0,1.0,0.0,1.0,SoundStimuli/HowDoILive_LeAnnRimes_Original5S.wav,,,,,,,,,,,,,,,,,,,,,,,,,,,,,,,,,,,,,,,,,,,,,,,,,,,,,,,,,,
,,,,,157042,1,2024-06-17_10h39.29.024,experiment,2024.1.5,MacIntel,59.88023952,667045947eb812cbdacbf325,66704a59970c84e77698f0cc,,,,,,,,,,,,,,,,,,,,,,,,,,,,,,,,,,,,,,,,,,,,1278.0503,1285.0998,6.896435547,7.0382,0.0,2.0,2.0,17.0,1.0,song_indices/HowDoILive_LeAnnRimes.csv,,,,,,,,,,,,,,,,,,,,,,,,,,,,,,,,,,,,,,,,,,,,,,,,
,,,,,157042,1,2024-06-17_10h39.29.024,experiment,2024.1.5,MacIntel,59.88023952,667045947eb812cbdacbf325,66704a59970c84e77698f0cc,,,,,,,,,,,,,,,,,,,,,,,,,,,,,,,,,,,,1285.1005,1291.2026,0.0,0.0,0.0,0.0,1.0,SoundStimuli/UnbreakMyHeart_ToniBraxton_Original5S.wav,,,,,,,,,,,,,,,,,,,,,,,,,,,,,,,,,,,,,,,,,,,,,,,,,,,,,,,,,,
,,,,,157042,1,2024-06-17_10h39.29.024,experiment,2024.1.5,MacIntel,59.88023952,667045947eb812cbdacbf325,66704a59970c84e77698f0cc,,,,,,,,,,,,,,,,,,,,,,,,,,,,,,,,,,,,1291.2147,1295.1925,0.0,1.0,1.0,1.0,1.0,SoundStimuli/UnbreakMyHeart_ToniBraxton_Cover5S.wav,,,,,,,,,,,,,,,,,,,,,,,,,,,,,,,,,,,,,,,,,,,,,,,,,,,,,,,,,,
,,,,,157042,1,2024-06-17_10h39.29.024,experiment,2024.1.5,MacIntel,59.88023952,667045947eb812cbdacbf325,66704a59970c84e77698f0cc,,,,,,,,,,,,,,,,,,,,,,,,,,,,,,,,,,,,,,,,,,,,1295.1926,1301.7102,2.170439453,6.5008,0.0,3.0,3.0,16.0,1.0,song_indices/UnbreakMyHeart_ToniBraxton.csv,,,,,,,,,,,,,,,,,,,,,,,,,,,,,,,,,,,,,,,,,,,,,,,,
,,,,,157042,1,2024-06-17_10h39.29.024,experiment,2024.1.5,MacIntel,59.88023952,667045947eb812cbdacbf325,66704a59970c84e77698f0cc,,,,,,,,,,,,,,,,,,,,,,,,,,,,,,,,,,,,1301.7115,1307.7969,0.0,0.0,0.0,0.0,1.0,SoundStimuli/Weak_SWV_Original5S.wav,,,,,,,,,,,,,,,,,,,,,,,,,,,,,,,,,,,,,,,,,,,,,,,,,,,,,,,,,,
,,,,,157042,1,2024-06-17_10h39.29.024,experiment,2024.1.5,MacIntel,59.88023952,667045947eb812cbdacbf325,66704a59970c84e77698f0cc,,,,,,,,,,,,,,,,,,,,,,,,,,,,,,,,,,,,1307.8076,1314.2816,0.0,1.0,1.0,1.0,1.0,SoundStimuli/Weak_SWV_Cover5S.wav,,,,,,,,,,,,,,,,,,,,,,,,,,,,,,,,,,,,,,,,,,,,,,,,,,,,,,,,,,
,,,,,157042,1,2024-06-17_10h39.29.024,experiment,2024.1.5,MacIntel,59.88023952,667045947eb812cbdacbf325,66704a59970c84e77698f0cc,,,,,,,,,,,,,,,,,,,,,,,,,,,,,,,,,,,,,,,,,,,,1314.2818,1320.3001,4.532705078,5.9995,0.0,4.0,4.0,6.0,1.0,song_indices/Weak_SWV.csv,,,,,,,,,,,,,,,,,,,,,,,,,,,,,,,,,,,,,,,,,,,,,,,,
,,,,,157042,1,2024-06-17_10h39.29.024,experiment,2024.1.5,MacIntel,59.88023952,667045947eb812cbdacbf325,66704a59970c84e77698f0cc,,,,,,,,,,,,,,,,,,,,,,,,,,,,,,,,,,,,1320.3009,1326.5857,0.0,0.0,0.0,1.0,1.0,SoundStimuli/Kiss_Prince_Cover5S.wav,,,,,,,,,,,,,,,,,,,,,,,,,,,,,,,,,,,,,,,,,,,,,,,,,,,,,,,,,,
,,,,,157042,1,2024-06-17_10h39.29.024,experiment,2024.1.5,MacIntel,59.88023952,667045947eb812cbdacbf325,66704a59970c84e77698f0cc,,,,,,,,,,,,,,,,,,,,,,,,,,,,,,,,,,,,1326.5966,1334.0185,0.0,1.0,1.0,0.0,1.0,SoundStimuli/Kiss_Prince_Original5S.wav,,,,,,,,,,,,,,,,,,,,,,,,,,,,,,,,,,,,,,,,,,,,,,,,,,,,,,,,,,
,,,,,157042,1,2024-06-17_10h39.29.024,experiment,2024.1.5,MacIntel,59.88023952,667045947eb812cbdacbf325,66704a59970c84e77698f0cc,,,,,,,,,,,,,,,,,,,,,,,,,,,,,,,,,,,,,,,,,,,,1334.0185,1336.5625,2.461357422,2.5289,0.0,5.0,5.0,14.0,1.0,song_indices/Kiss_Prince.csv,,,,,,,,,,,,,,,,,,,,,,,,,,,,,,,,,,,,,,,,,,,,,,,,
,,,,,157042,1,2024-06-17_10h39.29.024,experiment,2024.1.5,MacIntel,59.88023952,667045947eb812cbdacbf325,66704a59970c84e77698f0cc,,,,,,,,,,,,,,,,,,,,,,,,,,,,,,,,,,,,1336.5634,1342.0829,0.0,0.0,0.0,1.0,1.0,SoundStimuli/LeFreak_Chic_Cover5S.wav,,,,,,,,,,,,,,,,,,,,,,,,,,,,,,,,,,,,,,,,,,,,,,,,,,,,,,,,,,
,,,,,157042,1,2024-06-17_10h39.29.024,experiment,2024.1.5,MacIntel,59.88023952,667045947eb812cbdacbf325,66704a59970c84e77698f0cc,,,,,,,,,,,,,,,,,,,,,,,,,,,,,,,,,,,,1342.0938,1348.1187,0.0,1.0,1.0,0.0,1.0,SoundStimuli/LeFreak_Chic_Original5S.wav,,,,,,,,,,,,,,,,,,,,,,,,,,,,,,,,,,,,,,,,,,,,,,,,,,,,,,,,,,
,,,,,157042,1,2024-06-17_10h39.29.024,experiment,2024.1.5,MacIntel,59.88023952,667045947eb812cbdacbf325,66704a59970c84e77698f0cc,,,,,,,,,,,,,,,,,,,,,,,,,,,,,,,,,,,,,,,,,,,,1348.1188,1351.5439,5.610859375,3.4106,0.0,6.0,6.0,11.0,1.0,song_indices/LeFreak_Chic.csv,,,,,,,,,,,,,,,,,,,,,,,,,,,,,,,,,,,,,,,,,,,,,,,,
,,,,,157042,1,2024-06-17_10h39.29.024,experiment,2024.1.5,MacIntel,59.88023952,667045947eb812cbdacbf325,66704a59970c84e77698f0cc,,,,,,,,,,,,,,,,,,,,,,,,,,,,,,,,,,,,1351.5447,1358.8265,0.0,0.0,0.0,1.0,1.0,SoundStimuli/FlashdanceWhatAFeeling_IreneCara_Cover5S.wav,,,,,,,,,,,,,,,,,,,,,,,,,,,,,,,,,,,,,,,,,,,,,,,,,,,,,,,,,,
,,,,,157042,1,2024-06-17_10h39.29.024,experiment,2024.1.5,MacIntel,59.88023952,667045947eb812cbdacbf325,66704a59970c84e77698f0cc,,,,,,,,,,,,,,,,,,,,,,,,,,,,,,,,,,,,1358.8374,1365.2117,0.0,1.0,1.0,0.0,1.0,SoundStimuli/FlashdanceWhatAFeeling_IreneCara_Original5S.wav,,,,,,,,,,,,,,,,,,,,,,,,,,,,,,,,,,,,,,,,,,,,,,,,,,,,,,,,,,
,,,,,157042,1,2024-06-17_10h39.29.024,experiment,2024.1.5,MacIntel,59.88023952,667045947eb812cbdacbf325,66704a59970c84e77698f0cc,,,,,,,,,,,,,,,,,,,,,,,,,,,,,,,,,,,,,,,,,,,,1365.2118,1367.4895,6.287119141,2.2602,0.0,7.0,7.0,18.0,1.0,song_indices/FlashdanceWhatAFeeling_IreneCara.csv,,,,,,,,,,,,,,,,,,,,,,,,,,,,,,,,,,,,,,,,,,,,,,,,
,,,,,157042,1,2024-06-17_10h39.29.024,experiment,2024.1.5,MacIntel,59.88023952,667045947eb812cbdacbf325,66704a59970c84e77698f0cc,,,,,,,,,,,,,,,,,,,,,,,,,,,,,,,,,,,,1367.4907,1373.7915,0.0,0.0,0.0,0.0,1.0,SoundStimuli/LetsGetItOn_MarvinGaye_Original5S.wav,,,,,,,,,,,,,,,,,,,,,,,,,,,,,,,,,,,,,,,,,,,,,,,,,,,,,,,,,,
,,,,,157042,1,2024-06-17_10h39.29.024,experiment,2024.1.5,MacIntel,59.88023952,667045947eb812cbdacbf325,66704a59970c84e77698f0cc,,,,,,,,,,,,,,,,,,,,,,,,,,,,,,,,,,,,1373.8025,1380.4423,0.0,1.0,1.0,1.0,1.0,SoundStimuli/LetsGetItOn_MarvinGaye_Cover5S.wav,,,,,,,,,,,,,,,,,,,,,,,,,,,,,,,,,,,,,,,,,,,,,,,,,,,,,,,,,,
,,,,,157042,1,2024-06-17_10h39.29.024,experiment,2024.1.5,MacIntel,59.88023952,667045947eb812cbdacbf325,66704a59970c84e77698f0cc,,,,,,,,,,,,,,,,,,,,,,,,,,,,,,,,,,,,,,,,,,,,1380.4426,1384.3831,2.964267578,3.9205,0.0,8.0,8.0,20.0,1.0,song_indices/LetsGetItOn_MarvinGaye.csv,,,,,,,,,,,,,,,,,,,,,,,,,,,,,,,,,,,,,,,,,,,,,,,,
,,,,,157042,1,2024-06-17_10h39.29.024,experiment,2024.1.5,MacIntel,59.88023952,667045947eb812cbdacbf325,66704a59970c84e77698f0cc,,,,,,,,,,,,,,,,,,,,,,,,,,,,,,,,,,,,1384.384,1391.4495,0.0,0.0,0.0,1.0,1.0,SoundStimuli/ComeAndGetYourLove_Redbone_Cover5S.wav,,,,,,,,,,,,,,,,,,,,,,,,,,,,,,,,,,,,,,,,,,,,,,,,,,,,,,,,,,
,,,,,157042,1,2024-06-17_10h39.29.024,experiment,2024.1.5,MacIntel,59.88023952,667045947eb812cbdacbf325,66704a59970c84e77698f0cc,,,,,,,,,,,,,,,,,,,,,,,,,,,,,,,,,,,,1391.4605,1397.5517,0.0,1.0,1.0,0.0,1.0,SoundStimuli/ComeAndGetYourLove_Redbone_Original5S.wav,,,,,,,,,,,,,,,,,,,,,,,,,,,,,,,,,,,,,,,,,,,,,,,,,,,,,,,,,,
,,,,,157042,1,2024-06-17_10h39.29.024,experiment,2024.1.5,MacIntel,59.88023952,667045947eb812cbdacbf325,66704a59970c84e77698f0cc,,,,,,,,,,,,,,,,,,,,,,,,,,,,,,,,,,,,,,,,,,,,1397.5518,1399.8795,6.141923828,2.3071,0.0,9.0,9.0,22.0,1.0,song_indices/ComeAndGetYourLove_Redbone.csv,,,,,,,,,,,,,,,,,,,,,,,,,,,,,,,,,,,,,,,,,,,,,,,,
,,,,,157042,1,2024-06-17_10h39.29.024,experiment,2024.1.5,MacIntel,59.88023952,667045947eb812cbdacbf325,66704a59970c84e77698f0cc,,,,,,,,,,,,,,,,,,,,,,,,,,,,,,,,,,,,1399.8804,1406.7294,0.0,0.0,0.0,1.0,1.0,SoundStimuli/PokerFace_LadyGaga_Cover5S.wav,,,,,,,,,,,,,,,,,,,,,,,,,,,,,,,,,,,,,,,,,,,,,,,,,,,,,,,,,,
,,,,,157042,1,2024-06-17_10h39.29.024,experiment,2024.1.5,MacIntel,59.88023952,667045947eb812cbdacbf325,66704a59970c84e77698f0cc,,,,,,,,,,,,,,,,,,,,,,,,,,,,,,,,,,,,1406.7402,1413.7474,0.0,1.0,1.0,0.0,1.0,SoundStimuli/PokerFace_LadyGaga_Original5S.wav,,,,,,,,,,,,,,,,,,,,,,,,,,,,,,,,,,,,,,,,,,,,,,,,,,,,,,,,,,
,,,,,157042,1,2024-06-17_10h39.29.024,experiment,2024.1.5,MacIntel,59.88023952,667045947eb812cbdacbf325,66704a59970c84e77698f0cc,,,,,,,,,,,,,,,,,,,,,,,,,,,,,,,,,,,,,,,,,,,,1413.7475,1418.8352,4.358007813,5.0745,0.0,10.0,10.0,23.0,1.0,song_indices/PokerFace_LadyGaga.csv,,,,,,,,,,,,,,,,,,,,,,,,,,,,,,,,,,,,,,,,,,,,,,,,
,,,,,157042,1,2024-06-17_10h39.29.024,experiment,2024.1.5,MacIntel,59.88023952,667045947eb812cbdacbf325,66704a59970c84e77698f0cc,,,,,,,,,,,,,,,,,,,,,,,,,,,,,,,,,,,,1418.8361,1424.7712,0.0,0.0,0.0,0.0,1.0,SoundStimuli/Respect_ArethaFranklin_Original5S.wav,,,,,,,,,,,,,,,,,,,,,,,,,,,,,,,,,,,,,,,,,,,,,,,,,,,,,,,,,,
,,,,,157042,1,2024-06-17_10h39.29.024,experiment,2024.1.5,MacIntel,59.88023952,667045947eb812cbdacbf325,66704a59970c84e77698f0cc,,,,,,,,,,,,,,,,,,,,,,,,,,,,,,,,,,,,1424.7827,1430.8402,0.0,1.0,1.0,1.0,1.0,SoundStimuli/Respect_ArethaFranklin_Cover5S.wav,,,,,,,,,,,,,,,,,,,,,,,,,,,,,,,,,,,,,,,,,,,,,,,,,,,,,,,,,,
,,,,,157042,1,2024-06-17_10h39.29.024,experiment,2024.1.5,MacIntel,59.88023952,667045947eb812cbdacbf325,66704a59970c84e77698f0cc,,,,,,,,,,,,,,,,,,,,,,,,,,,,,,,,,,,,,,,,,,,,1430.8402,1435.845,3.015273437,4.9882,0.0,11.0,11.0,0.0,1.0,song_indices/Respect_ArethaFranklin.csv,,,,,,,,,,,,,,,,,,,,,,,,,,,,,,,,,,,,,,,,,,,,,,,,
,,,,,157042,1,2024-06-17_10h39.29.024,experiment,2024.1.5,MacIntel,59.88023952,667045947eb812cbdacbf325,66704a59970c84e77698f0cc,,,,,,,,,,,,,,,,,,,,,,,,,,,,,,,,,,,,1435.8461,1442.6449,0.0,0.0,0.0,1.0,1.0,SoundStimuli/BlindingLights_TheWeeknd_Cover5S.wav,,,,,,,,,,,,,,,,,,,,,,,,,,,,,,,,,,,,,,,,,,,,,,,,,,,,,,,,,,
,,,,,157042,1,2024-06-17_10h39.29.024,experiment,2024.1.5,MacIntel,59.88023952,667045947eb812cbdacbf325,66704a59970c84e77698f0cc,,,,,,,,,,,,,,,,,,,,,,,,,,,,,,,,,,,,1442.656,1449.1297,0.0,1.0,1.0,0.0,1.0,SoundStimuli/BlindingLights_TheWeeknd_Original5S.wav,,,,,,,,,,,,,,,,,,,,,,,,,,,,,,,,,,,,,,,,,,,,,,,,,,,,,,,,,,
,,,,,157042,1,2024-06-17_10h39.29.024,experiment,2024.1.5,MacIntel,59.88023952,667045947eb812cbdacbf325,66704a59970c84e77698f0cc,,,,,,,,,,,,,,,,,,,,,,,,,,,,,,,,,,,,,,,,,,,,1449.1299,1450.9751,6.135097656,1.826,0.0,12.0,12.0,21.0,1.0,song_indices/BlindingLights_TheWeeknd.csv,,,,,,,,,,,,,,,,,,,,,,,,,,,,,,,,,,,,,,,,,,,,,,,,
,,,,,157042,1,2024-06-17_10h39.29.024,experiment,2024.1.5,MacIntel,59.88023952,667045947eb812cbdacbf325,66704a59970c84e77698f0cc,,,,,,,,,,,,,,,,,,,,,,,,,,,,,,,,,,,,1450.9765,1458.5085,0.0,0.0,0.0,1.0,1.0,SoundStimuli/TikTok_Kesha_Cover5S.wav,,,,,,,,,,,,,,,,,,,,,,,,,,,,,,,,,,,,,,,,,,,,,,,,,,,,,,,,,,
,,,,,157042,1,2024-06-17_10h39.29.024,experiment,2024.1.5,MacIntel,59.88023952,667045947eb812cbdacbf325,66704a59970c84e77698f0cc,,,,,,,,,,,,,,,,,,,,,,,,,,,,,,,,,,,,1458.5197,1464.7269,0.0,1.0,1.0,0.0,1.0,SoundStimuli/TikTok_Kesha_Original5S.wav,,,,,,,,,,,,,,,,,,,,,,,,,,,,,,,,,,,,,,,,,,,,,,,,,,,,,,,,,,
,,,,,157042,1,2024-06-17_10h39.29.024,experiment,2024.1.5,MacIntel,59.88023952,667045947eb812cbdacbf325,66704a59970c84e77698f0cc,,,,,,,,,,,,,,,,,,,,,,,,,,,,,,,,,,,,,,,,,,,,1464.727,1470.1311,4.803935547,5.3889,0.0,13.0,13.0,3.0,1.0,song_indices/TikTok_Kesha.csv,,,,,,,,,,,,,,,,,,,,,,,,,,,,,,,,,,,,,,,,,,,,,,,,
,,,,,157042,1,2024-06-17_10h39.29.024,experiment,2024.1.5,MacIntel,59.88023952,667045947eb812cbdacbf325,66704a59970c84e77698f0cc,,,,,,,,,,,,,,,,,,,,,,,,,,,,,,,,,,,,1470.1319,1476.017,0.0,0.0,0.0,1.0,1.0,SoundStimuli/SaveYourTears_TheWeekndArianaGrande_Cover5S.wav,,,,,,,,,,,,,,,,,,,,,,,,,,,,,,,,,,,,,,,,,,,,,,,,,,,,,,,,,,
,,,,,157042,1,2024-06-17_10h39.29.024,experiment,2024.1.5,MacIntel,59.88023952,667045947eb812cbdacbf325,66704a59970c84e77698f0cc,,,,,,,,,,,,,,,,,,,,,,,,,,,,,,,,,,,,1476.0278,1482.2193,0.0,1.0,1.0,0.0,1.0,SoundStimuli/SaveYourTears_TheWeekndArianaGrande_Original5S.wav,,,,,,,,,,,,,,,,,,,,,,,,,,,,,,,,,,,,,,,,,,,,,,,,,,,,,,,,,,
,,,,,157042,1,2024-06-17_10h39.29.024,experiment,2024.1.5,MacIntel,59.88023952,667045947eb812cbdacbf325,66704a59970c84e77698f0cc,,,,,,,,,,,,,,,,,,,,,,,,,,,,,,,,,,,,,,,,,,,,1482.2193,1488.9687,4.443642578,6.7344,0.0,14.0,14.0,12.0,1.0,song_indices/SaveYourTears_TheWeekndArianaGrande.csv,,,,,,,,,,,,,,,,,,,,,,,,,,,,,,,,,,,,,,,,,,,,,,,,
,,,,,157042,1,2024-06-17_10h39.29.024,experiment,2024.1.5,MacIntel,59.88023952,667045947eb812cbdacbf325,66704a59970c84e77698f0cc,,,,,,,,,,,,,,,,,,,,,,,,,,,,,,,,,,,,1488.9696,1495.1719,0.0,0.0,0.0,0.0,1.0,SoundStimuli/Dilemma_NellyKellyRowland_Original5S.wav,,,,,,,,,,,,,,,,,,,,,,,,,,,,,,,,,,,,,,,,,,,,,,,,,,,,,,,,,,
,,,,,157042,1,2024-06-17_10h39.29.024,experiment,2024.1.5,MacIntel,59.88023952,667045947eb812cbdacbf325,66704a59970c84e77698f0cc,,,,,,,,,,,,,,,,,,,,,,,,,,,,,,,,,,,,1495.1833,1502.1556,0.0,1.0,1.0,1.0,1.0,SoundStimuli/Dilemma_NellyKellyRowland_Cover5S.wav,,,,,,,,,,,,,,,,,,,,,,,,,,,,,,,,,,,,,,,,,,,,,,,,,,,,,,,,,,
,,,,,157042,1,2024-06-17_10h39.29.024,experiment,2024.1.5,MacIntel,59.88023952,667045947eb812cbdacbf325,66704a59970c84e77698f0cc,,,,,,,,,,,,,,,,,,,,,,,,,,,,,,,,,,,,,,,,,,,,1502.1556,1503.8178,3.824863281,1.641,0.0,15.0,15.0,2.0,1.0,song_indices/Dilemma_NellyKellyRowland.csv,,,,,,,,,,,,,,,,,,,,,,,,,,,,,,,,,,,,,,,,,,,,,,,,
,,,,,157042,1,2024-06-17_10h39.29.024,experiment,2024.1.5,MacIntel,59.88023952,667045947eb812cbdacbf325,66704a59970c84e77698f0cc,,,,,,,,,,,,,,,,,,,,,,,,,,,,,,,,,,,,1503.8189,1509.538,0.0,0.0,0.0,1.0,1.0,SoundStimuli/Levitating_DuaLipa_Cover5S.wav,,,,,,,,,,,,,,,,,,,,,,,,,,,,,,,,,,,,,,,,,,,,,,,,,,,,,,,,,,
,,,,,157042,1,2024-06-17_10h39.29.024,experiment,2024.1.5,MacIntel,59.88023952,667045947eb812cbdacbf325,66704a59970c84e77698f0cc,,,,,,,,,,,,,,,,,,,,,,,,,,,,,,,,,,,,1509.5491,1515.5405,0.0,1.0,1.0,0.0,1.0,SoundStimuli/Levitating_DuaLipa_Original5S.wav,,,,,,,,,,,,,,,,,,,,,,,,,,,,,,,,,,,,,,,,,,,,,,,,,,,,,,,,,,
,,,,,157042,1,2024-06-17_10h39.29.024,experiment,2024.1.5,MacIntel,59.88023952,667045947eb812cbdacbf325,66704a59970c84e77698f0cc,,,,,,,,,,,,,,,,,,,,,,,,,,,,,,,,,,,,,,,,,,,,1515.5406,1516.7709,4.042626953,1.2091,0.0,16.0,16.0,10.0,1.0,song_indices/Levitating_DuaLipa.csv,,,,,,,,,,,,,,,,,,,,,,,,,,,,,,,,,,,,,,,,,,,,,,,,
,,,,,157042,1,2024-06-17_10h39.29.024,experiment,2024.1.5,MacIntel,59.88023952,667045947eb812cbdacbf325,66704a59970c84e77698f0cc,,,,,,,,,,,,,,,,,,,,,,,,,,,,,,,,,,,,1516.7718,1522.9395,0.0,0.0,0.0,0.0,1.0,SoundStimuli/TheSign_AceOfBase_Original5S.wav,,,,,,,,,,,,,,,,,,,,,,,,,,,,,,,,,,,,,,,,,,,,,,,,,,,,,,,,,,
,,,,,157042,1,2024-06-17_10h39.29.024,experiment,2024.1.5,MacIntel,59.88023952,667045947eb812cbdacbf325,66704a59970c84e77698f0cc,,,,,,,,,,,,,,,,,,,,,,,,,,,,,,,,,,,,1522.9502,1528.9591,0.0,1.0,1.0,1.0,1.0,SoundStimuli/TheSign_AceOfBase_Cover5S.wav,,,,,,,,,,,,,,,,,,,,,,,,,,,,,,,,,,,,,,,,,,,,,,,,,,,,,,,,,,
,,,,,157042,1,2024-06-17_10h39.29.024,experiment,2024.1.5,MacIntel,59.88023952,667045947eb812cbdacbf325,66704a59970c84e77698f0cc,,,,,,,,,,,,,,,,,,,,,,,,,,,,,,,,,,,,,,,,,,,,1528.9592,1532.3664,2.930634766,3.3946,0.0,17.0,17.0,5.0,1.0,song_indices/TheSign_AceOfBase.csv,,,,,,,,,,,,,,,,,,,,,,,,,,,,,,,,,,,,,,,,,,,,,,,,
,,,,,157042,1,2024-06-17_10h39.29.024,experiment,2024.1.5,MacIntel,59.88023952,667045947eb812cbdacbf325,66704a59970c84e77698f0cc,,,,,,,,,,,,,,,,,,,,,,,,,,,,,,,,,,,,1532.3673,1539.5997,0.0,0.0,0.0,0.0,1.0,SoundStimuli/SomebodyThatIUsedtoKnow_Gotye_Original5S.wav,,,,,,,,,,,,,,,,,,,,,,,,,,,,,,,,,,,,,,,,,,,,,,,,,,,,,,,,,,
,,,,,157042,1,2024-06-17_10h39.29.024,experiment,2024.1.5,MacIntel,59.88023952,667045947eb812cbdacbf325,66704a59970c84e77698f0cc,,,,,,,,,,,,,,,,,,,,,,,,,,,,,,,,,,,,1539.6108,1546.4011,0.0,1.0,1.0,1.0,1.0,SoundStimuli/SomebodyThatIUsedtoKnow_Gotye_Cover5S.wav,,,,,,,,,,,,,,,,,,,,,,,,,,,,,,,,,,,,,,,,,,,,,,,,,,,,,,,,,,
,,,,,157042,1,2024-06-17_10h39.29.024,experiment,2024.1.5,MacIntel,59.88023952,667045947eb812cbdacbf325,66704a59970c84e77698f0cc,,,,,,,,,,,,,,,,,,,,,,,,,,,,,,,,,,,,,,,,,,,,1546.4011,1549.0276,6.595703125,2.6142,0.0,18.0,18.0,7.0,1.0,song_indices/SomebodyThatIUsedtoKnow_Gotye.csv,,,,,,,,,,,,,,,,,,,,,,,,,,,,,,,,,,,,,,,,,,,,,,,,
,,,,,157042,1,2024-06-17_10h39.29.024,experiment,2024.1.5,MacIntel,59.88023952,667045947eb812cbdacbf325,66704a59970c84e77698f0cc,,,,,,,,,,,,,,,,,,,,,,,,,,,,,,,,,,,,1549.0285,1554.8978,0.0,0.0,0.0,0.0,1.0,SoundStimuli/Irreplaceable_Beyonce_Original5S.wav,,,,,,,,,,,,,,,,,,,,,,,,,,,,,,,,,,,,,,,,,,,,,,,,,,,,,,,,,,
,,,,,157042,1,2024-06-17_10h39.29.024,experiment,2024.1.5,MacIntel,59.88023952,667045947eb812cbdacbf325,66704a59970c84e77698f0cc,,,,,,,,,,,,,,,,,,,,,,,,,,,,,,,,,,,,1554.9085,1560.8168,0.0,1.0,1.0,1.0,1.0,SoundStimuli/Irreplaceable_Beyonce_Cover5S.wav,,,,,,,,,,,,,,,,,,,,,,,,,,,,,,,,,,,,,,,,,,,,,,,,,,,,,,,,,,
,,,,,157042,1,2024-06-17_10h39.29.024,experiment,2024.1.5,MacIntel,59.88023952,667045947eb812cbdacbf325,66704a59970c84e77698f0cc,,,,,,,,,,,,,,,,,,,,,,,,,,,,,,,,,,,,,,,,,,,,1560.8169,1592.4427,5.537529297,31.6038,0.0,19.0,19.0,19.0,1.0,song_indices/Irreplaceable_Beyonce.csv,,,,,,,,,,,,,,,,,,,,,,,,,,,,,,,,,,,,,,,,,,,,,,,,
,,,,,157042,1,2024-06-17_10h39.29.024,experiment,2024.1.5,MacIntel,59.88023952,667045947eb812cbdacbf325,66704a59970c84e77698f0cc,,,,,,,,,,,,,,,,,,,,,,,,,,,,,,,,,,,,1592.4438,1598.5275,0.0,0.0,0.0,0.0,1.0,SoundStimuli/YouLightUpMyLife_DebbyBoone_Original5S.wav,,,,,,,,,,,,,,,,,,,,,,,,,,,,,,,,,,,,,,,,,,,,,,,,,,,,,,,,,,
,,,,,157042,1,2024-06-17_10h39.29.024,experiment,2024.1.5,MacIntel,59.88023952,667045947eb812cbdacbf325,66704a59970c84e77698f0cc,,,,,,,,,,,,,,,,,,,,,,,,,,,,,,,,,,,,1598.5388,1604.9797,0.0,1.0,1.0,1.0,1.0,SoundStimuli/YouLightUpMyLife_DebbyBoone_Cover5S.wav,,,,,,,,,,,,,,,,,,,,,,,,,,,,,,,,,,,,,,,,,,,,,,,,,,,,,,,,,,
,,,,,157042,1,2024-06-17_10h39.29.024,experiment,2024.1.5,MacIntel,59.88023952,667045947eb812cbdacbf325,66704a59970c84e77698f0cc,,,,,,,,,,,,,,,,,,,,,,,,,,,,,,,,,,,,,,,,,,,,1604.9798,1609.7186,6.740048828,4.7169,0.0,20.0,20.0,4.0,1.0,song_indices/YouLightUpMyLife_DebbyBoone.csv,,,,,,,,,,,,,,,,,,,,,,,,,,,,,,,,,,,,,,,,,,,,,,,,
,,,,,157042,1,2024-06-17_10h39.29.024,experiment,2024.1.5,MacIntel,59.88023952,667045947eb812cbdacbf325,66704a59970c84e77698f0cc,,,,,,,,,,,,,,,,,,,,,,,,,,,,,,,,,,,,1609.7195,1615.8541,0.0,0.0,0.0,0.0,1.0,SoundStimuli/Superstition_StevieWonder_Original5S.wav,,,,,,,,,,,,,,,,,,,,,,,,,,,,,,,,,,,,,,,,,,,,,,,,,,,,,,,,,,
,,,,,157042,1,2024-06-17_10h39.29.024,experiment,2024.1.5,MacIntel,59.88023952,667045947eb812cbdacbf325,66704a59970c84e77698f0cc,,,,,,,,,,,,,,,,,,,,,,,,,,,,,,,,,,,,1615.8655,1621.1579,0.0,1.0,1.0,1.0,1.0,SoundStimuli/Superstition_StevieWonder_Cover5S.wav,,,,,,,,,,,,,,,,,,,,,,,,,,,,,,,,,,,,,,,,,,,,,,,,,,,,,,,,,,
,,,,,157042,1,2024-06-17_10h39.29.024,experiment,2024.1.5,MacIntel,59.88023952,667045947eb812cbdacbf325,66704a59970c84e77698f0cc,,,,,,,,,,,,,,,,,,,,,,,,,,,,,,,,,,,,,,,,,,,,1621.158,1623.7027,6.015214844,2.5272,0.0,21.0,21.0,15.0,1.0,song_indices/Superstition_StevieWonder.csv,,,,,,,,,,,,,,,,,,,,,,,,,,,,,,,,,,,,,,,,,,,,,,,,
,,,,,157042,1,2024-06-17_10h39.29.024,experiment,2024.1.5,MacIntel,59.88023952,667045947eb812cbdacbf325,66704a59970c84e77698f0cc,,,,,,,,,,,,,,,,,,,,,,,,,,,,,,,,,,,,1623.7036,1628.8391,0.0,0.0,0.0,1.0,1.0,SoundStimuli/JoyToTheWorld_ThreeDogNight_Cover5S.wav,,,,,,,,,,,,,,,,,,,,,,,,,,,,,,,,,,,,,,,,,,,,,,,,,,,,,,,,,,
,,,,,157042,1,2024-06-17_10h39.29.024,experiment,2024.1.5,MacIntel,59.88023952,667045947eb812cbdacbf325,66704a59970c84e77698f0cc,,,,,,,,,,,,,,,,,,,,,,,,,,,,,,,,,,,,1628.8395,1634.9593,0.0,1.0,1.0,0.0,1.0,SoundStimuli/JoyToTheWorld_ThreeDogNight_Original5S.wav,,,,,,,,,,,,,,,,,,,,,,,,,,,,,,,,,,,,,,,,,,,,,,,,,,,,,,,,,,
,,,,,157042,1,2024-06-17_10h39.29.024,experiment,2024.1.5,MacIntel,59.88023952,667045947eb812cbdacbf325,66704a59970c84e77698f0cc,,,,,,,,,,,,,,,,,,,,,,,,,,,,,,,,,,,,,,,,,,,,1634.9594,1636.6383,5.551767578,1.6652,0.0,22.0,22.0,8.0,1.0,song_indices/JoyToTheWorld_ThreeDogNight.csv,,,,,,,,,,,,,,,,,,,,,,,,,,,,,,,,,,,,,,,,,,,,,,,,
,,,,,157042,1,2024-06-17_10h39.29.024,experiment,2024.1.5,MacIntel,59.88023952,667045947eb812cbdacbf325,66704a59970c84e77698f0cc,,,,,,,,,,,,,,,,,,,,,,,,,,,,,,,,,,,,1636.6392,1643.7378,0.0,0.0,0.0,1.0,1.0,SoundStimuli/BlurredLines_RobinThicke_Cover5S.wav,,,,,,,,,,,,,,,,,,,,,,,,,,,,,,,,,,,,,,,,,,,,,,,,,,,,,,,,,,
,,,,,157042,1,2024-06-17_10h39.29.024,experiment,2024.1.5,MacIntel,59.88023952,667045947eb812cbdacbf325,66704a59970c84e77698f0cc,,,,,,,,,,,,,,,,,,,,,,,,,,,,,,,,,,,,1643.7488,1650.4891,0.0,1.0,1.0,0.0,1.0,SoundStimuli/BlurredLines_RobinThicke_Original5S.wav,,,,,,,,,,,,,,,,,,,,,,,,,,,,,,,,,,,,,,,,,,,,,,,,,,,,,,,,,,
,,,,,157042,1,2024-06-17_10h39.29.024,experiment,2024.1.5,MacIntel,59.88023952,667045947eb812cbdacbf325,66704a59970c84e77698f0cc,,,,,,,,,,,,,,,,,,,,,,,,,,,,,,,,,,,,,,,,,,,,1650.4892,1653.6818,6.166152344,3.1712,0.0,23.0,23.0,9.0,1.0,song_indices/BlurredLines_RobinThicke.csv,,,,,,,,,,,,,,,,,,,,,,,,,,,,,,,,,,,,,,,,,,,,,,,,
,,,,,157042,1,2024-06-17_10h39.29.024,experiment,2024.1.5,MacIntel,59.88023952,667045947eb812cbdacbf325,66704a59970c84e77698f0cc,,,,,,,,,,,,,,,,,,,,,,,,,,,,,,,,,,,,,,,,,,,,,,,,,,,,,,1653.6819,1653.682,,,,0.0,2.0,2.0,2.0,1.0,choose_song_b3.csv,,,,,,,,,,,,,,,,,,,,,,,,,,,,,,,,,,,,,
,,,,,157042,1,2024-06-17_10h39.29.024,experiment,2024.1.5,MacIntel,59.88023952,667045947eb812cbdacbf325,66704a59970c84e77698f0cc,,,,,,,,,,,,,,,,,,,,,,,,,,,,,,,,,,,,,,,,,,,,,,,,,,,,,,,,,,,,,,,,,50.0,Item 2,"Not a musician, but I have been singing longer than I could talk. I participated in musicals in school and I took lessons in sax and trombone, but i always loved to sing. I tried to start a girl group, but that didn't work. I performed for a producer for Earth, Wind, and Fire and he wanted me to move to LA so he could train me but i didn't want to be so far away from my family on the East Coast. ",Item 5,"Radio, Sirius XM, Tidal, YouTube, Twitch, Instagram, concerts",4.0,5.0,"I do almost everything to music. Even working and occasionally sleeping with binaural beats. Not constantly, but regularly.",Rarely,Rarely,Sometimes,Sometimes,Sometimes,Rarely,Sometimes,Never,Rarely,Sometimes,Always,Rarely,Always,Always,Always,Never,AfroPop,Hip-Hop,R&B,Reggae,"My habits really have not changed. I have always been an old soul and listened to most genres and subgenres of music over various decades. I think the greatest change for me is the mediums from which I am listening, From Using my grandfather's 8-track and my father's LPs and 45s to having my own cassettes and radio, and then having my first car with a CD player, to using my SiriusXM radio and various other streaming services. ",I think I covered most things in question 12,0.0,0.0,0.0,0.0,1.0,,
,,,,,157042,1,2024-06-17_10h39.29.024,experiment,2024.1.5,MacIntel,59.88023952,667045947eb812cbdacbf325,66704a59970c84e77698f0cc,,,,,,,,,,,,,,,,,,,,,,,,,,,,,,,,,,,,,,,,,,,,,,,,,,,,,,,,,,,,,,,,,,,,,,,,,,,,,,,,,,,,,,,,,,,,,,,,,,,,2301.8152,2304.3477
