welcome.started,welcome.stopped,space_to_continue.keys,space_to_continue.rt,space_to_continue.duration,participant,session,date,expName,psychopyVersion,OS,frameRate,STUDY_ID,SESSION_ID,consent.consent,consent.consent_recontact,consent_check.started,consent_check.stopped,calibration_ready.started,calibration_ready.stopped,cal_ready.keys,cal_ready.rt,cal_ready.duration,calibration.started,calibration.stopped,mouse.x,mouse.y,mouse.leftButton,mouse.midButton,mouse.rightButton,mouse.time,mouse.clicked_name,move_on.keys,move_on.rt,move_on.duration,instructions.started,instructions.stopped,next.keys,next.rt,next.duration,practice_trial.started,practice_trial.stopped,practice_slider.response,practice_slider.rt,ready.started,ready.stopped,key_resp.keys,key_resp.rt,key_resp.duration,play_sound.started,play_sound.stopped,trials.thisRepN,trials.thisTrialN,trials.thisN,trials.thisIndex,trials.ran,orig_or_cover,rating.started,rating.stopped,slider.response,slider.rt,songs.thisRepN,songs.thisTrialN,songs.thisN,songs.thisIndex,songs.ran,song_id,short_break.started,short_break.stopped,space_to_move_on.keys,space_to_move_on.rt,space_to_move_on.duration,blocks.thisRepN,blocks.thisTrialN,blocks.thisN,blocks.thisIndex,blocks.ran,block,survey.age,survey.musician,survey.music_making,survey.listen_time,survey.medium,survey.music_seeking,survey.music_choice,survey.activities,survey.question1.Electronic (EDM),survey.question1.Classical,survey.question1.Jazz,survey.question1.Disco,survey.question1.A cappella,survey.question1.Ambient,survey.question1.Hip hop,survey.question1.Pop,survey.question1.Reggae,survey.question1.Folk/indie,survey.question1.Classic rock,survey.question1.Metal,survey.question1.Alternative rock,survey.question1.Country,survey.question1.R&B,survey.question1.Latin,survey.other_genres,survey.genres_ranked.text1,survey.genres_ranked.text2,survey.genres_ranked.text3,survey.habit_change,survey.habits,experiment.thisRepN,experiment.thisTrialN,experiment.thisN,experiment.thisIndex,experiment.ran,goodbye.started,goodbye.stopped
0.0,1.339,space,1.31,,158648,1,2024-06-17_10h56.24.215,experiment,2024.1.5,Win32,144.092219,667045947eb812cbdacbf325,66704d231dcf2ec2197b43db,,,,,,,,,,,,,,,,,,,,,,,,,,,,,,,,,,,,,,,,,,,,,,,,,,,,,,,,,,,,,,,,,,,,,,,,,,,,,,,,,,,,,,,,,,,,,,,,,,,,,
,,,,,158648,1,2024-06-17_10h56.24.215,experiment,2024.1.5,Win32,144.092219,667045947eb812cbdacbf325,66704d231dcf2ec2197b43db,yes,yes,,,,,,,,,,,,,,,,,,,,,,,,,,,,,,,,,,,,,,,,,,,,,,,,,,,,,,,,,,,,,,,,,,,,,,,,,,,,,,,,,,,,,,,,,,,,,,,,,,,
,,,,,158648,1,2024-06-17_10h56.24.215,experiment,2024.1.5,Win32,144.092219,667045947eb812cbdacbf325,66704d231dcf2ec2197b43db,,,16.418,16.418,,,,,,,,,,,,,,,,,,,,,,,,,,,,,,,,,,,,,,,,,,,,,,,,,,,,,,,,,,,,,,,,,,,,,,,,,,,,,,,,,,,,,,,,,,,,,,,,,
,,,,,158648,1,2024-06-17_10h56.24.215,experiment,2024.1.5,Win32,144.092219,667045947eb812cbdacbf325,66704d231dcf2ec2197b43db,,,,,16.418,20.302,space,3.87,,20.302,40.411,"[-0.02013888888888889,-0.01875]","[-0.3958333333333333,-0.42430555555555555]","[1,1]","[0,0]","[0,0]","[10.469999999999999,10.86]","[""play_button""]",right,10.097,,40.412,50.509,space,10.079,,50.509,67.039,5.479166667,16.527,67.039,69.36,space,2.312,,69.368,75.552,0.0,0.0,0.0,0.0,1.0,SoundStimuli/TheBattleOfNewOrleans_JohnnyHorton_Original5S.wav,,,,,,,,,,,,,,,,,,,,,,,,,,,,,,,,,,,,,,,,,,,,,,,,,,,,,,,,,,
,,,,,158648,1,2024-06-17_10h56.24.215,experiment,2024.1.5,Win32,144.092219,667045947eb812cbdacbf325,66704d231dcf2ec2197b43db,,,,,,,,,,,,,,,,,,,,,,,,,,,,,,,,,,,,75.552,83.508,0.0,1.0,1.0,1.0,1.0,SoundStimuli/TheBattleOfNewOrleans_JohnnyHorton_Cover5S.wav,,,,,,,,,,,,,,,,,,,,,,,,,,,,,,,,,,,,,,,,,,,,,,,,,,,,,,,,,,
,,,,,158648,1,2024-06-17_10h56.24.215,experiment,2024.1.5,Win32,144.092219,667045947eb812cbdacbf325,66704d231dcf2ec2197b43db,,,,,,,,,,,,,,,,,,,,,,,,,,,,,,,,,,,,,,,,,,,,83.508,86.78,2.766666667,3.268,0.0,0.0,0.0,4.0,1.0,song_indices/TheBattleOfNewOrleans_JohnnyHorton.csv,,,,,,,,,,,,,,,,,,,,,,,,,,,,,,,,,,,,,,,,,,,,,,,,
,,,,,158648,1,2024-06-17_10h56.24.215,experiment,2024.1.5,Win32,144.092219,667045947eb812cbdacbf325,66704d231dcf2ec2197b43db,,,,,,,,,,,,,,,,,,,,,,,,,,,,,,,,,,,,86.781,92.923,0.0,0.0,0.0,0.0,1.0,SoundStimuli/Fallin_AliciaKeys_Original5S.wav,,,,,,,,,,,,,,,,,,,,,,,,,,,,,,,,,,,,,,,,,,,,,,,,,,,,,,,,,,
,,,,,158648,1,2024-06-17_10h56.24.215,experiment,2024.1.5,Win32,144.092219,667045947eb812cbdacbf325,66704d231dcf2ec2197b43db,,,,,,,,,,,,,,,,,,,,,,,,,,,,,,,,,,,,92.924,99.337,0.0,1.0,1.0,1.0,1.0,SoundStimuli/Fallin_AliciaKeys_Cover5S.wav,,,,,,,,,,,,,,,,,,,,,,,,,,,,,,,,,,,,,,,,,,,,,,,,,,,,,,,,,,
,,,,,158648,1,2024-06-17_10h56.24.215,experiment,2024.1.5,Win32,144.092219,667045947eb812cbdacbf325,66704d231dcf2ec2197b43db,,,,,,,,,,,,,,,,,,,,,,,,,,,,,,,,,,,,,,,,,,,,99.337,101.073,5.8375,1.733,0.0,1.0,1.0,12.0,1.0,song_indices/Fallin_AliciaKeys.csv,,,,,,,,,,,,,,,,,,,,,,,,,,,,,,,,,,,,,,,,,,,,,,,,
,,,,,158648,1,2024-06-17_10h56.24.215,experiment,2024.1.5,Win32,144.092219,667045947eb812cbdacbf325,66704d231dcf2ec2197b43db,,,,,,,,,,,,,,,,,,,,,,,,,,,,,,,,,,,,101.075,108.071,0.0,0.0,0.0,1.0,1.0,SoundStimuli/UptownFunk_MarkRonson_Cover5S.wav,,,,,,,,,,,,,,,,,,,,,,,,,,,,,,,,,,,,,,,,,,,,,,,,,,,,,,,,,,
,,,,,158648,1,2024-06-17_10h56.24.215,experiment,2024.1.5,Win32,144.092219,667045947eb812cbdacbf325,66704d231dcf2ec2197b43db,,,,,,,,,,,,,,,,,,,,,,,,,,,,,,,,,,,,108.071,115.277,0.0,1.0,1.0,0.0,1.0,SoundStimuli/UptownFunk_MarkRonson_Original5S.wav,,,,,,,,,,,,,,,,,,,,,,,,,,,,,,,,,,,,,,,,,,,,,,,,,,,,,,,,,,
,,,,,158648,1,2024-06-17_10h56.24.215,experiment,2024.1.5,Win32,144.092219,667045947eb812cbdacbf325,66704d231dcf2ec2197b43db,,,,,,,,,,,,,,,,,,,,,,,,,,,,,,,,,,,,,,,,,,,,115.277,117.097,5.929166667,1.816,0.0,2.0,2.0,15.0,1.0,song_indices/UptownFunk_MarkRonson.csv,,,,,,,,,,,,,,,,,,,,,,,,,,,,,,,,,,,,,,,,,,,,,,,,
,,,,,158648,1,2024-06-17_10h56.24.215,experiment,2024.1.5,Win32,144.092219,667045947eb812cbdacbf325,66704d231dcf2ec2197b43db,,,,,,,,,,,,,,,,,,,,,,,,,,,,,,,,,,,,117.098,123.365,0.0,0.0,0.0,0.0,1.0,SoundStimuli/HeyYa_Outkast_Original5S.wav,,,,,,,,,,,,,,,,,,,,,,,,,,,,,,,,,,,,,,,,,,,,,,,,,,,,,,,,,,
,,,,,158648,1,2024-06-17_10h56.24.215,experiment,2024.1.5,Win32,144.092219,667045947eb812cbdacbf325,66704d231dcf2ec2197b43db,,,,,,,,,,,,,,,,,,,,,,,,,,,,,,,,,,,,123.367,132.26,0.0,1.0,1.0,1.0,1.0,SoundStimuli/HeyYa_Outkast_Cover5S.wav,,,,,,,,,,,,,,,,,,,,,,,,,,,,,,,,,,,,,,,,,,,,,,,,,,,,,,,,,,
,,,,,158648,1,2024-06-17_10h56.24.215,experiment,2024.1.5,Win32,144.092219,667045947eb812cbdacbf325,66704d231dcf2ec2197b43db,,,,,,,,,,,,,,,,,,,,,,,,,,,,,,,,,,,,,,,,,,,,132.26,133.386,3.2125,1.123,0.0,3.0,3.0,22.0,1.0,song_indices/HeyYa_Outkast.csv,,,,,,,,,,,,,,,,,,,,,,,,,,,,,,,,,,,,,,,,,,,,,,,,
,,,,,158648,1,2024-06-17_10h56.24.215,experiment,2024.1.5,Win32,144.092219,667045947eb812cbdacbf325,66704d231dcf2ec2197b43db,,,,,,,,,,,,,,,,,,,,,,,,,,,,,,,,,,,,133.386,139.062,0.0,0.0,0.0,1.0,1.0,SoundStimuli/BetteDavisEyes_KimCarnes_Cover5S.wav,,,,,,,,,,,,,,,,,,,,,,,,,,,,,,,,,,,,,,,,,,,,,,,,,,,,,,,,,,
,,,,,158648,1,2024-06-17_10h56.24.215,experiment,2024.1.5,Win32,144.092219,667045947eb812cbdacbf325,66704d231dcf2ec2197b43db,,,,,,,,,,,,,,,,,,,,,,,,,,,,,,,,,,,,139.062,145.247,0.0,1.0,1.0,0.0,1.0,SoundStimuli/BetteDavisEyes_KimCarnes_Original5S.wav,,,,,,,,,,,,,,,,,,,,,,,,,,,,,,,,,,,,,,,,,,,,,,,,,,,,,,,,,,
,,,,,158648,1,2024-06-17_10h56.24.215,experiment,2024.1.5,Win32,144.092219,667045947eb812cbdacbf325,66704d231dcf2ec2197b43db,,,,,,,,,,,,,,,,,,,,,,,,,,,,,,,,,,,,,,,,,,,,145.247,146.984,3.341666667,1.735,0.0,4.0,4.0,5.0,1.0,song_indices/BetteDavisEyes_KimCarnes.csv,,,,,,,,,,,,,,,,,,,,,,,,,,,,,,,,,,,,,,,,,,,,,,,,
,,,,,158648,1,2024-06-17_10h56.24.215,experiment,2024.1.5,Win32,144.092219,667045947eb812cbdacbf325,66704d231dcf2ec2197b43db,,,,,,,,,,,,,,,,,,,,,,,,,,,,,,,,,,,,146.985,152.862,0.0,0.0,0.0,0.0,1.0,SoundStimuli/EyeOfTheTiger_Survivor_Original5S.wav,,,,,,,,,,,,,,,,,,,,,,,,,,,,,,,,,,,,,,,,,,,,,,,,,,,,,,,,,,
,,,,,158648,1,2024-06-17_10h56.24.215,experiment,2024.1.5,Win32,144.092219,667045947eb812cbdacbf325,66704d231dcf2ec2197b43db,,,,,,,,,,,,,,,,,,,,,,,,,,,,,,,,,,,,152.863,158.964,0.0,1.0,1.0,1.0,1.0,SoundStimuli/EyeOfTheTiger_Survivor_Cover5S.wav,,,,,,,,,,,,,,,,,,,,,,,,,,,,,,,,,,,,,,,,,,,,,,,,,,,,,,,,,,
,,,,,158648,1,2024-06-17_10h56.24.215,experiment,2024.1.5,Win32,144.092219,667045947eb812cbdacbf325,66704d231dcf2ec2197b43db,,,,,,,,,,,,,,,,,,,,,,,,,,,,,,,,,,,,,,,,,,,,158.964,161.5,6.329166667,2.53,0.0,5.0,5.0,11.0,1.0,song_indices/EyeOfTheTiger_Survivor.csv,,,,,,,,,,,,,,,,,,,,,,,,,,,,,,,,,,,,,,,,,,,,,,,,
,,,,,158648,1,2024-06-17_10h56.24.215,experiment,2024.1.5,Win32,144.092219,667045947eb812cbdacbf325,66704d231dcf2ec2197b43db,,,,,,,,,,,,,,,,,,,,,,,,,,,,,,,,,,,,161.501,167.746,0.0,0.0,0.0,0.0,1.0,SoundStimuli/ItsAllInTheGame_TommyEdwards_Original5S.wav,,,,,,,,,,,,,,,,,,,,,,,,,,,,,,,,,,,,,,,,,,,,,,,,,,,,,,,,,,
,,,,,158648,1,2024-06-17_10h56.24.215,experiment,2024.1.5,Win32,144.092219,667045947eb812cbdacbf325,66704d231dcf2ec2197b43db,,,,,,,,,,,,,,,,,,,,,,,,,,,,,,,,,,,,167.747,173.959,0.0,1.0,1.0,1.0,1.0,SoundStimuli/ItsAllInTheGame_TommyEdwards_Cover5S.wav,,,,,,,,,,,,,,,,,,,,,,,,,,,,,,,,,,,,,,,,,,,,,,,,,,,,,,,,,,
,,,,,158648,1,2024-06-17_10h56.24.215,experiment,2024.1.5,Win32,144.092219,667045947eb812cbdacbf325,66704d231dcf2ec2197b43db,,,,,,,,,,,,,,,,,,,,,,,,,,,,,,,,,,,,,,,,,,,,173.959,176.189,5.141666667,2.228,0.0,6.0,6.0,13.0,1.0,song_indices/ItsAllInTheGame_TommyEdwards.csv,,,,,,,,,,,,,,,,,,,,,,,,,,,,,,,,,,,,,,,,,,,,,,,,
,,,,,158648,1,2024-06-17_10h56.24.215,experiment,2024.1.5,Win32,144.092219,667045947eb812cbdacbf325,66704d231dcf2ec2197b43db,,,,,,,,,,,,,,,,,,,,,,,,,,,,,,,,,,,,176.19,182.916,0.0,0.0,0.0,0.0,1.0,SoundStimuli/PartyRockAnthem_LMFAO_Original5S.wav,,,,,,,,,,,,,,,,,,,,,,,,,,,,,,,,,,,,,,,,,,,,,,,,,,,,,,,,,,
,,,,,158648,1,2024-06-17_10h56.24.215,experiment,2024.1.5,Win32,144.092219,667045947eb812cbdacbf325,66704d231dcf2ec2197b43db,,,,,,,,,,,,,,,,,,,,,,,,,,,,,,,,,,,,182.916,189.676,0.0,1.0,1.0,1.0,1.0,SoundStimuli/PartyRockAnthem_LMFAO_Cover5S.wav,,,,,,,,,,,,,,,,,,,,,,,,,,,,,,,,,,,,,,,,,,,,,,,,,,,,,,,,,,
,,,,,158648,1,2024-06-17_10h56.24.215,experiment,2024.1.5,Win32,144.092219,667045947eb812cbdacbf325,66704d231dcf2ec2197b43db,,,,,,,,,,,,,,,,,,,,,,,,,,,,,,,,,,,,,,,,,,,,189.677,190.816,5.704166667,1.136,0.0,7.0,7.0,2.0,1.0,song_indices/PartyRockAnthem_LMFAO.csv,,,,,,,,,,,,,,,,,,,,,,,,,,,,,,,,,,,,,,,,,,,,,,,,
,,,,,158648,1,2024-06-17_10h56.24.215,experiment,2024.1.5,Win32,144.092219,667045947eb812cbdacbf325,66704d231dcf2ec2197b43db,,,,,,,,,,,,,,,,,,,,,,,,,,,,,,,,,,,,190.818,197.0,0.0,0.0,0.0,0.0,1.0,SoundStimuli/SmellsLikeTeenSpirit_Nirvana_Original5S.wav,,,,,,,,,,,,,,,,,,,,,,,,,,,,,,,,,,,,,,,,,,,,,,,,,,,,,,,,,,
,,,,,158648,1,2024-06-17_10h56.24.215,experiment,2024.1.5,Win32,144.092219,667045947eb812cbdacbf325,66704d231dcf2ec2197b43db,,,,,,,,,,,,,,,,,,,,,,,,,,,,,,,,,,,,197.001,202.747,0.0,1.0,1.0,1.0,1.0,SoundStimuli/SmellsLikeTeenSpirit_Nirvana_Cover5S.wav,,,,,,,,,,,,,,,,,,,,,,,,,,,,,,,,,,,,,,,,,,,,,,,,,,,,,,,,,,
,,,,,158648,1,2024-06-17_10h56.24.215,experiment,2024.1.5,Win32,144.092219,667045947eb812cbdacbf325,66704d231dcf2ec2197b43db,,,,,,,,,,,,,,,,,,,,,,,,,,,,,,,,,,,,,,,,,,,,202.748,203.637,6.283333333,0.886,0.0,8.0,8.0,8.0,1.0,song_indices/SmellsLikeTeenSpirit_Nirvana.csv,,,,,,,,,,,,,,,,,,,,,,,,,,,,,,,,,,,,,,,,,,,,,,,,
,,,,,158648,1,2024-06-17_10h56.24.215,experiment,2024.1.5,Win32,144.092219,667045947eb812cbdacbf325,66704d231dcf2ec2197b43db,,,,,,,,,,,,,,,,,,,,,,,,,,,,,,,,,,,,203.638,209.71,0.0,0.0,0.0,0.0,1.0,SoundStimuli/GimmeShelter_RollingStones_Original5S.wav,,,,,,,,,,,,,,,,,,,,,,,,,,,,,,,,,,,,,,,,,,,,,,,,,,,,,,,,,,
,,,,,158648,1,2024-06-17_10h56.24.215,experiment,2024.1.5,Win32,144.092219,667045947eb812cbdacbf325,66704d231dcf2ec2197b43db,,,,,,,,,,,,,,,,,,,,,,,,,,,,,,,,,,,,209.71,215.901,0.0,1.0,1.0,1.0,1.0,SoundStimuli/GimmeShelter_RollingStones_Cover5S.wav,,,,,,,,,,,,,,,,,,,,,,,,,,,,,,,,,,,,,,,,,,,,,,,,,,,,,,,,,,
,,,,,158648,1,2024-06-17_10h56.24.215,experiment,2024.1.5,Win32,144.092219,667045947eb812cbdacbf325,66704d231dcf2ec2197b43db,,,,,,,,,,,,,,,,,,,,,,,,,,,,,,,,,,,,,,,,,,,,215.901,216.742,5.216666667,0.841,0.0,9.0,9.0,20.0,1.0,song_indices/GimmeShelter_RollingStones.csv,,,,,,,,,,,,,,,,,,,,,,,,,,,,,,,,,,,,,,,,,,,,,,,,
,,,,,158648,1,2024-06-17_10h56.24.215,experiment,2024.1.5,Win32,144.092219,667045947eb812cbdacbf325,66704d231dcf2ec2197b43db,,,,,,,,,,,,,,,,,,,,,,,,,,,,,,,,,,,,216.743,223.308,0.0,0.0,0.0,1.0,1.0,SoundStimuli/GetUrFreakOn_MissyElliot_Cover5S.wav,,,,,,,,,,,,,,,,,,,,,,,,,,,,,,,,,,,,,,,,,,,,,,,,,,,,,,,,,,
,,,,,158648,1,2024-06-17_10h56.24.215,experiment,2024.1.5,Win32,144.092219,667045947eb812cbdacbf325,66704d231dcf2ec2197b43db,,,,,,,,,,,,,,,,,,,,,,,,,,,,,,,,,,,,223.309,229.361,0.0,1.0,1.0,0.0,1.0,SoundStimuli/GetUrFreakOn_MissyElliot_Original5S.wav,,,,,,,,,,,,,,,,,,,,,,,,,,,,,,,,,,,,,,,,,,,,,,,,,,,,,,,,,,
,,,,,158648,1,2024-06-17_10h56.24.215,experiment,2024.1.5,Win32,144.092219,667045947eb812cbdacbf325,66704d231dcf2ec2197b43db,,,,,,,,,,,,,,,,,,,,,,,,,,,,,,,,,,,,,,,,,,,,229.361,234.065,3.466666667,4.702,0.0,10.0,10.0,18.0,1.0,song_indices/GetUrFreakOn_MissyElliot.csv,,,,,,,,,,,,,,,,,,,,,,,,,,,,,,,,,,,,,,,,,,,,,,,,
,,,,,158648,1,2024-06-17_10h56.24.215,experiment,2024.1.5,Win32,144.092219,667045947eb812cbdacbf325,66704d231dcf2ec2197b43db,,,,,,,,,,,,,,,,,,,,,,,,,,,,,,,,,,,,234.067,240.43,0.0,0.0,0.0,0.0,1.0,SoundStimuli/IWillAlwaysLoveYou_WhitneyHouston_Original5S.wav,,,,,,,,,,,,,,,,,,,,,,,,,,,,,,,,,,,,,,,,,,,,,,,,,,,,,,,,,,
,,,,,158648,1,2024-06-17_10h56.24.215,experiment,2024.1.5,Win32,144.092219,667045947eb812cbdacbf325,66704d231dcf2ec2197b43db,,,,,,,,,,,,,,,,,,,,,,,,,,,,,,,,,,,,240.43,246.252,0.0,1.0,1.0,1.0,1.0,SoundStimuli/IWillAlwaysLoveYou_WhitneyHouston_Cover5S.wav,,,,,,,,,,,,,,,,,,,,,,,,,,,,,,,,,,,,,,,,,,,,,,,,,,,,,,,,,,
,,,,,158648,1,2024-06-17_10h56.24.215,experiment,2024.1.5,Win32,144.092219,667045947eb812cbdacbf325,66704d231dcf2ec2197b43db,,,,,,,,,,,,,,,,,,,,,,,,,,,,,,,,,,,,,,,,,,,,246.253,251.916,6.454166667,5.66,0.0,11.0,11.0,10.0,1.0,song_indices/IWillAlwaysLoveYou_WhitneyHouston.csv,,,,,,,,,,,,,,,,,,,,,,,,,,,,,,,,,,,,,,,,,,,,,,,,
,,,,,158648,1,2024-06-17_10h56.24.215,experiment,2024.1.5,Win32,144.092219,667045947eb812cbdacbf325,66704d231dcf2ec2197b43db,,,,,,,,,,,,,,,,,,,,,,,,,,,,,,,,,,,,251.917,257.92,0.0,0.0,0.0,1.0,1.0,SoundStimuli/StandByMe_BenEKing_Cover5S.wav,,,,,,,,,,,,,,,,,,,,,,,,,,,,,,,,,,,,,,,,,,,,,,,,,,,,,,,,,,
,,,,,158648,1,2024-06-17_10h56.24.215,experiment,2024.1.5,Win32,144.092219,667045947eb812cbdacbf325,66704d231dcf2ec2197b43db,,,,,,,,,,,,,,,,,,,,,,,,,,,,,,,,,,,,257.921,263.826,0.0,1.0,1.0,0.0,1.0,SoundStimuli/StandByMe_BenEKing_Original5S.wav,,,,,,,,,,,,,,,,,,,,,,,,,,,,,,,,,,,,,,,,,,,,,,,,,,,,,,,,,,
,,,,,158648,1,2024-06-17_10h56.24.215,experiment,2024.1.5,Win32,144.092219,667045947eb812cbdacbf325,66704d231dcf2ec2197b43db,,,,,,,,,,,,,,,,,,,,,,,,,,,,,,,,,,,,,,,,,,,,263.826,267.426,3.729166667,3.594,0.0,12.0,12.0,1.0,1.0,song_indices/StandByMe_BenEKing.csv,,,,,,,,,,,,,,,,,,,,,,,,,,,,,,,,,,,,,,,,,,,,,,,,
,,,,,158648,1,2024-06-17_10h56.24.215,experiment,2024.1.5,Win32,144.092219,667045947eb812cbdacbf325,66704d231dcf2ec2197b43db,,,,,,,,,,,,,,,,,,,,,,,,,,,,,,,,,,,,267.427,273.867,0.0,0.0,0.0,0.0,1.0,SoundStimuli/ShapeofYou_EdSheeran_Original5S.wav,,,,,,,,,,,,,,,,,,,,,,,,,,,,,,,,,,,,,,,,,,,,,,,,,,,,,,,,,,
,,,,,158648,1,2024-06-17_10h56.24.215,experiment,2024.1.5,Win32,144.092219,667045947eb812cbdacbf325,66704d231dcf2ec2197b43db,,,,,,,,,,,,,,,,,,,,,,,,,,,,,,,,,,,,273.868,280.148,0.0,1.0,1.0,1.0,1.0,SoundStimuli/ShapeofYou_EdSheeran_Cover5S.wav,,,,,,,,,,,,,,,,,,,,,,,,,,,,,,,,,,,,,,,,,,,,,,,,,,,,,,,,,,
,,,,,158648,1,2024-06-17_10h56.24.215,experiment,2024.1.5,Win32,144.092219,667045947eb812cbdacbf325,66704d231dcf2ec2197b43db,,,,,,,,,,,,,,,,,,,,,,,,,,,,,,,,,,,,,,,,,,,,280.149,281.114,3.504166667,0.962,0.0,13.0,13.0,21.0,1.0,song_indices/ShapeofYou_EdSheeran.csv,,,,,,,,,,,,,,,,,,,,,,,,,,,,,,,,,,,,,,,,,,,,,,,,
,,,,,158648,1,2024-06-17_10h56.24.215,experiment,2024.1.5,Win32,144.092219,667045947eb812cbdacbf325,66704d231dcf2ec2197b43db,,,,,,,,,,,,,,,,,,,,,,,,,,,,,,,,,,,,281.115,287.153,0.0,0.0,0.0,1.0,1.0,SoundStimuli/RockWithYou_MichaelJackson_Cover5S.wav,,,,,,,,,,,,,,,,,,,,,,,,,,,,,,,,,,,,,,,,,,,,,,,,,,,,,,,,,,
,,,,,158648,1,2024-06-17_10h56.24.215,experiment,2024.1.5,Win32,144.092219,667045947eb812cbdacbf325,66704d231dcf2ec2197b43db,,,,,,,,,,,,,,,,,,,,,,,,,,,,,,,,,,,,287.153,293.448,0.0,1.0,1.0,0.0,1.0,SoundStimuli/RockWithYou_MichaelJackson_Original5S.wav,,,,,,,,,,,,,,,,,,,,,,,,,,,,,,,,,,,,,,,,,,,,,,,,,,,,,,,,,,
,,,,,158648,1,2024-06-17_10h56.24.215,experiment,2024.1.5,Win32,144.092219,667045947eb812cbdacbf325,66704d231dcf2ec2197b43db,,,,,,,,,,,,,,,,,,,,,,,,,,,,,,,,,,,,,,,,,,,,293.449,295.276,4.008333333,1.826,0.0,14.0,14.0,16.0,1.0,song_indices/RockWithYou_MichaelJackson.csv,,,,,,,,,,,,,,,,,,,,,,,,,,,,,,,,,,,,,,,,,,,,,,,,
,,,,,158648,1,2024-06-17_10h56.24.215,experiment,2024.1.5,Win32,144.092219,667045947eb812cbdacbf325,66704d231dcf2ec2197b43db,,,,,,,,,,,,,,,,,,,,,,,,,,,,,,,,,,,,295.278,301.794,0.0,0.0,0.0,0.0,1.0,SoundStimuli/CrazyInLove_BeyonceFtJayZ_Original5S.wav,,,,,,,,,,,,,,,,,,,,,,,,,,,,,,,,,,,,,,,,,,,,,,,,,,,,,,,,,,
,,,,,158648,1,2024-06-17_10h56.24.215,experiment,2024.1.5,Win32,144.092219,667045947eb812cbdacbf325,66704d231dcf2ec2197b43db,,,,,,,,,,,,,,,,,,,,,,,,,,,,,,,,,,,,301.794,312.016,0.0,1.0,1.0,1.0,1.0,SoundStimuli/CrazyInLove_BeyonceFtJayZ_Cover5S.wav,,,,,,,,,,,,,,,,,,,,,,,,,,,,,,,,,,,,,,,,,,,,,,,,,,,,,,,,,,
,,,,,158648,1,2024-06-17_10h56.24.215,experiment,2024.1.5,Win32,144.092219,667045947eb812cbdacbf325,66704d231dcf2ec2197b43db,,,,,,,,,,,,,,,,,,,,,,,,,,,,,,,,,,,,,,,,,,,,312.016,316.914,3.958333333,4.895,0.0,15.0,15.0,3.0,1.0,song_indices/CrazyInLove_BeyonceFtJayZ.csv,,,,,,,,,,,,,,,,,,,,,,,,,,,,,,,,,,,,,,,,,,,,,,,,
,,,,,158648,1,2024-06-17_10h56.24.215,experiment,2024.1.5,Win32,144.092219,667045947eb812cbdacbf325,66704d231dcf2ec2197b43db,,,,,,,,,,,,,,,,,,,,,,,,,,,,,,,,,,,,316.915,323.244,0.0,0.0,0.0,1.0,1.0,SoundStimuli/GoodGollyMissMolly_LittleRichard_Cover5S.wav,,,,,,,,,,,,,,,,,,,,,,,,,,,,,,,,,,,,,,,,,,,,,,,,,,,,,,,,,,
,,,,,158648,1,2024-06-17_10h56.24.215,experiment,2024.1.5,Win32,144.092219,667045947eb812cbdacbf325,66704d231dcf2ec2197b43db,,,,,,,,,,,,,,,,,,,,,,,,,,,,,,,,,,,,323.244,329.283,0.0,1.0,1.0,0.0,1.0,SoundStimuli/GoodGollyMissMolly_LittleRichard_Original5S.wav,,,,,,,,,,,,,,,,,,,,,,,,,,,,,,,,,,,,,,,,,,,,,,,,,,,,,,,,,,
,,,,,158648,1,2024-06-17_10h56.24.215,experiment,2024.1.5,Win32,144.092219,667045947eb812cbdacbf325,66704d231dcf2ec2197b43db,,,,,,,,,,,,,,,,,,,,,,,,,,,,,,,,,,,,,,,,,,,,329.283,332.75,3.470833333,3.462,0.0,16.0,16.0,0.0,1.0,song_indices/GoodGollyMissMolly_LittleRichard.csv,,,,,,,,,,,,,,,,,,,,,,,,,,,,,,,,,,,,,,,,,,,,,,,,
,,,,,158648,1,2024-06-17_10h56.24.215,experiment,2024.1.5,Win32,144.092219,667045947eb812cbdacbf325,66704d231dcf2ec2197b43db,,,,,,,,,,,,,,,,,,,,,,,,,,,,,,,,,,,,332.751,338.795,0.0,0.0,0.0,0.0,1.0,SoundStimuli/Stronger_KanyeWest_Original5S.wav,,,,,,,,,,,,,,,,,,,,,,,,,,,,,,,,,,,,,,,,,,,,,,,,,,,,,,,,,,
,,,,,158648,1,2024-06-17_10h56.24.215,experiment,2024.1.5,Win32,144.092219,667045947eb812cbdacbf325,66704d231dcf2ec2197b43db,,,,,,,,,,,,,,,,,,,,,,,,,,,,,,,,,,,,338.796,345.098,0.0,1.0,1.0,1.0,1.0,SoundStimuli/Stronger_KanyeWest_Cover5S.wav,,,,,,,,,,,,,,,,,,,,,,,,,,,,,,,,,,,,,,,,,,,,,,,,,,,,,,,,,,
,,,,,158648,1,2024-06-17_10h56.24.215,experiment,2024.1.5,Win32,144.092219,667045947eb812cbdacbf325,66704d231dcf2ec2197b43db,,,,,,,,,,,,,,,,,,,,,,,,,,,,,,,,,,,,,,,,,,,,345.098,347.134,3.070833333,2.032,0.0,17.0,17.0,9.0,1.0,song_indices/Stronger_KanyeWest.csv,,,,,,,,,,,,,,,,,,,,,,,,,,,,,,,,,,,,,,,,,,,,,,,,
,,,,,158648,1,2024-06-17_10h56.24.215,experiment,2024.1.5,Win32,144.092219,667045947eb812cbdacbf325,66704d231dcf2ec2197b43db,,,,,,,,,,,,,,,,,,,,,,,,,,,,,,,,,,,,347.135,354.834,0.0,0.0,0.0,0.0,1.0,SoundStimuli/NoOne_AliciaKeys_Original5S.wav,,,,,,,,,,,,,,,,,,,,,,,,,,,,,,,,,,,,,,,,,,,,,,,,,,,,,,,,,,
,,,,,158648,1,2024-06-17_10h56.24.215,experiment,2024.1.5,Win32,144.092219,667045947eb812cbdacbf325,66704d231dcf2ec2197b43db,,,,,,,,,,,,,,,,,,,,,,,,,,,,,,,,,,,,354.834,361.025,0.0,1.0,1.0,1.0,1.0,SoundStimuli/NoOne_AliciaKeys_Cover5S.wav,,,,,,,,,,,,,,,,,,,,,,,,,,,,,,,,,,,,,,,,,,,,,,,,,,,,,,,,,,
,,,,,158648,1,2024-06-17_10h56.24.215,experiment,2024.1.5,Win32,144.092219,667045947eb812cbdacbf325,66704d231dcf2ec2197b43db,,,,,,,,,,,,,,,,,,,,,,,,,,,,,,,,,,,,,,,,,,,,361.025,362.546,4.691666667,1.519,0.0,18.0,18.0,19.0,1.0,song_indices/NoOne_AliciaKeys.csv,,,,,,,,,,,,,,,,,,,,,,,,,,,,,,,,,,,,,,,,,,,,,,,,
,,,,,158648,1,2024-06-17_10h56.24.215,experiment,2024.1.5,Win32,144.092219,667045947eb812cbdacbf325,66704d231dcf2ec2197b43db,,,,,,,,,,,,,,,,,,,,,,,,,,,,,,,,,,,,362.548,368.744,0.0,0.0,0.0,0.0,1.0,SoundStimuli/TheBoyIsMine_BrandyMonica_Original5S.wav,,,,,,,,,,,,,,,,,,,,,,,,,,,,,,,,,,,,,,,,,,,,,,,,,,,,,,,,,,
,,,,,158648,1,2024-06-17_10h56.24.215,experiment,2024.1.5,Win32,144.092219,667045947eb812cbdacbf325,66704d231dcf2ec2197b43db,,,,,,,,,,,,,,,,,,,,,,,,,,,,,,,,,,,,368.745,374.665,0.0,1.0,1.0,1.0,1.0,SoundStimuli/TheBoyIsMine_BrandyMonica_Cover5S.wav,,,,,,,,,,,,,,,,,,,,,,,,,,,,,,,,,,,,,,,,,,,,,,,,,,,,,,,,,,
,,,,,158648,1,2024-06-17_10h56.24.215,experiment,2024.1.5,Win32,144.092219,667045947eb812cbdacbf325,66704d231dcf2ec2197b43db,,,,,,,,,,,,,,,,,,,,,,,,,,,,,,,,,,,,,,,,,,,,374.665,376.305,6.8375,1.637,0.0,19.0,19.0,6.0,1.0,song_indices/TheBoyIsMine_BrandyMonica.csv,,,,,,,,,,,,,,,,,,,,,,,,,,,,,,,,,,,,,,,,,,,,,,,,
,,,,,158648,1,2024-06-17_10h56.24.215,experiment,2024.1.5,Win32,144.092219,667045947eb812cbdacbf325,66704d231dcf2ec2197b43db,,,,,,,,,,,,,,,,,,,,,,,,,,,,,,,,,,,,376.306,383.643,0.0,0.0,0.0,0.0,1.0,SoundStimuli/Happy_PharellWilliams_Original5S.wav,,,,,,,,,,,,,,,,,,,,,,,,,,,,,,,,,,,,,,,,,,,,,,,,,,,,,,,,,,
,,,,,158648,1,2024-06-17_10h56.24.215,experiment,2024.1.5,Win32,144.092219,667045947eb812cbdacbf325,66704d231dcf2ec2197b43db,,,,,,,,,,,,,,,,,,,,,,,,,,,,,,,,,,,,383.643,390.974,0.0,1.0,1.0,1.0,1.0,SoundStimuli/Happy_PharellWilliams_Cover5S.wav,,,,,,,,,,,,,,,,,,,,,,,,,,,,,,,,,,,,,,,,,,,,,,,,,,,,,,,,,,
,,,,,158648,1,2024-06-17_10h56.24.215,experiment,2024.1.5,Win32,144.092219,667045947eb812cbdacbf325,66704d231dcf2ec2197b43db,,,,,,,,,,,,,,,,,,,,,,,,,,,,,,,,,,,,,,,,,,,,390.974,392.273,6.320833333,1.294,0.0,20.0,20.0,7.0,1.0,song_indices/Happy_PharellWilliams.csv,,,,,,,,,,,,,,,,,,,,,,,,,,,,,,,,,,,,,,,,,,,,,,,,
,,,,,158648,1,2024-06-17_10h56.24.215,experiment,2024.1.5,Win32,144.092219,667045947eb812cbdacbf325,66704d231dcf2ec2197b43db,,,,,,,,,,,,,,,,,,,,,,,,,,,,,,,,,,,,392.274,398.38,0.0,0.0,0.0,1.0,1.0,SoundStimuli/NoScrubs_TLC_Cover5S.wav,,,,,,,,,,,,,,,,,,,,,,,,,,,,,,,,,,,,,,,,,,,,,,,,,,,,,,,,,,
,,,,,158648,1,2024-06-17_10h56.24.215,experiment,2024.1.5,Win32,144.092219,667045947eb812cbdacbf325,66704d231dcf2ec2197b43db,,,,,,,,,,,,,,,,,,,,,,,,,,,,,,,,,,,,398.381,404.551,0.0,1.0,1.0,0.0,1.0,SoundStimuli/NoScrubs_TLC_Original5S.wav,,,,,,,,,,,,,,,,,,,,,,,,,,,,,,,,,,,,,,,,,,,,,,,,,,,,,,,,,,
,,,,,158648,1,2024-06-17_10h56.24.215,experiment,2024.1.5,Win32,144.092219,667045947eb812cbdacbf325,66704d231dcf2ec2197b43db,,,,,,,,,,,,,,,,,,,,,,,,,,,,,,,,,,,,,,,,,,,,404.551,408.567,3.995833333,4.012,0.0,21.0,21.0,14.0,1.0,song_indices/NoScrubs_TLC.csv,,,,,,,,,,,,,,,,,,,,,,,,,,,,,,,,,,,,,,,,,,,,,,,,
,,,,,158648,1,2024-06-17_10h56.24.215,experiment,2024.1.5,Win32,144.092219,667045947eb812cbdacbf325,66704d231dcf2ec2197b43db,,,,,,,,,,,,,,,,,,,,,,,,,,,,,,,,,,,,408.568,415.682,0.0,0.0,0.0,1.0,1.0,SoundStimuli/IWalkTheLine_JohnnyCash_Cover5S.wav,,,,,,,,,,,,,,,,,,,,,,,,,,,,,,,,,,,,,,,,,,,,,,,,,,,,,,,,,,
,,,,,158648,1,2024-06-17_10h56.24.215,experiment,2024.1.5,Win32,144.092219,667045947eb812cbdacbf325,66704d231dcf2ec2197b43db,,,,,,,,,,,,,,,,,,,,,,,,,,,,,,,,,,,,415.683,421.638,0.0,1.0,1.0,0.0,1.0,SoundStimuli/IWalkTheLine_JohnnyCash_Original5S.wav,,,,,,,,,,,,,,,,,,,,,,,,,,,,,,,,,,,,,,,,,,,,,,,,,,,,,,,,,,
,,,,,158648,1,2024-06-17_10h56.24.215,experiment,2024.1.5,Win32,144.092219,667045947eb812cbdacbf325,66704d231dcf2ec2197b43db,,,,,,,,,,,,,,,,,,,,,,,,,,,,,,,,,,,,,,,,,,,,421.638,422.93,3.108333333,1.289,0.0,22.0,22.0,17.0,1.0,song_indices/IWalkTheLine_JohnnyCash.csv,,,,,,,,,,,,,,,,,,,,,,,,,,,,,,,,,,,,,,,,,,,,,,,,
,,,,,158648,1,2024-06-17_10h56.24.215,experiment,2024.1.5,Win32,144.092219,667045947eb812cbdacbf325,66704d231dcf2ec2197b43db,,,,,,,,,,,,,,,,,,,,,,,,,,,,,,,,,,,,,,,,,,,,,,,,,,,,,,422.93,425.376,space,2.433,,0.0,0.0,0.0,1.0,1.0,choose_song_b2.csv,,,,,,,,,,,,,,,,,,,,,,,,,,,,,,,,,,,,,
,,,,,158648,1,2024-06-17_10h56.24.215,experiment,2024.1.5,Win32,144.092219,667045947eb812cbdacbf325,66704d231dcf2ec2197b43db,,,,,,,,,,,,,,,,,,,,,,,,,,,,,,,,,,,,425.379,433.194,0.0,0.0,0.0,1.0,1.0,SoundStimuli/Dreams_FleetwoodMac_Cover5S.wav,,,,,,,,,,,,,,,,,,,,,,,,,,,,,,,,,,,,,,,,,,,,,,,,,,,,,,,,,,
,,,,,158648,1,2024-06-17_10h56.24.215,experiment,2024.1.5,Win32,144.092219,667045947eb812cbdacbf325,66704d231dcf2ec2197b43db,,,,,,,,,,,,,,,,,,,,,,,,,,,,,,,,,,,,433.194,439.677,0.0,1.0,1.0,0.0,1.0,SoundStimuli/Dreams_FleetwoodMac_Original5S.wav,,,,,,,,,,,,,,,,,,,,,,,,,,,,,,,,,,,,,,,,,,,,,,,,,,,,,,,,,,
,,,,,158648,1,2024-06-17_10h56.24.215,experiment,2024.1.5,Win32,144.092219,667045947eb812cbdacbf325,66704d231dcf2ec2197b43db,,,,,,,,,,,,,,,,,,,,,,,,,,,,,,,,,,,,,,,,,,,,439.677,441.476,3.941666667,1.796,0.0,0.0,0.0,1.0,1.0,song_indices/Dreams_FleetwoodMac.csv,,,,,,,,,,,,,,,,,,,,,,,,,,,,,,,,,,,,,,,,,,,,,,,,
,,,,,158648,1,2024-06-17_10h56.24.215,experiment,2024.1.5,Win32,144.092219,667045947eb812cbdacbf325,66704d231dcf2ec2197b43db,,,,,,,,,,,,,,,,,,,,,,,,,,,,,,,,,,,,441.477,445.43,0.0,0.0,0.0,1.0,1.0,SoundStimuli/UnbreakMyHeart_ToniBraxton_Cover5S.wav,,,,,,,,,,,,,,,,,,,,,,,,,,,,,,,,,,,,,,,,,,,,,,,,,,,,,,,,,,
,,,,,158648,1,2024-06-17_10h56.24.215,experiment,2024.1.5,Win32,144.092219,667045947eb812cbdacbf325,66704d231dcf2ec2197b43db,,,,,,,,,,,,,,,,,,,,,,,,,,,,,,,,,,,,445.431,451.51,0.0,1.0,1.0,0.0,1.0,SoundStimuli/UnbreakMyHeart_ToniBraxton_Original5S.wav,,,,,,,,,,,,,,,,,,,,,,,,,,,,,,,,,,,,,,,,,,,,,,,,,,,,,,,,,,
,,,,,158648,1,2024-06-17_10h56.24.215,experiment,2024.1.5,Win32,144.092219,667045947eb812cbdacbf325,66704d231dcf2ec2197b43db,,,,,,,,,,,,,,,,,,,,,,,,,,,,,,,,,,,,,,,,,,,,451.51,452.365,3.716666667,0.851,0.0,1.0,1.0,16.0,1.0,song_indices/UnbreakMyHeart_ToniBraxton.csv,,,,,,,,,,,,,,,,,,,,,,,,,,,,,,,,,,,,,,,,,,,,,,,,
,,,,,158648,1,2024-06-17_10h56.24.215,experiment,2024.1.5,Win32,144.092219,667045947eb812cbdacbf325,66704d231dcf2ec2197b43db,,,,,,,,,,,,,,,,,,,,,,,,,,,,,,,,,,,,452.366,458.535,0.0,0.0,0.0,0.0,1.0,SoundStimuli/SaveYourTears_TheWeekndArianaGrande_Original5S.wav,,,,,,,,,,,,,,,,,,,,,,,,,,,,,,,,,,,,,,,,,,,,,,,,,,,,,,,,,,
,,,,,158648,1,2024-06-17_10h56.24.215,experiment,2024.1.5,Win32,144.092219,667045947eb812cbdacbf325,66704d231dcf2ec2197b43db,,,,,,,,,,,,,,,,,,,,,,,,,,,,,,,,,,,,458.536,464.4,0.0,1.0,1.0,1.0,1.0,SoundStimuli/SaveYourTears_TheWeekndArianaGrande_Cover5S.wav,,,,,,,,,,,,,,,,,,,,,,,,,,,,,,,,,,,,,,,,,,,,,,,,,,,,,,,,,,
,,,,,158648,1,2024-06-17_10h56.24.215,experiment,2024.1.5,Win32,144.092219,667045947eb812cbdacbf325,66704d231dcf2ec2197b43db,,,,,,,,,,,,,,,,,,,,,,,,,,,,,,,,,,,,,,,,,,,,464.4,466.207,2.554166667,1.803,0.0,2.0,2.0,12.0,1.0,song_indices/SaveYourTears_TheWeekndArianaGrande.csv,,,,,,,,,,,,,,,,,,,,,,,,,,,,,,,,,,,,,,,,,,,,,,,,
,,,,,158648,1,2024-06-17_10h56.24.215,experiment,2024.1.5,Win32,144.092219,667045947eb812cbdacbf325,66704d231dcf2ec2197b43db,,,,,,,,,,,,,,,,,,,,,,,,,,,,,,,,,,,,466.208,472.301,0.0,0.0,0.0,1.0,1.0,SoundStimuli/TossinAndTurnin_BobbyLewis_Cover5S.wav,,,,,,,,,,,,,,,,,,,,,,,,,,,,,,,,,,,,,,,,,,,,,,,,,,,,,,,,,,
,,,,,158648,1,2024-06-17_10h56.24.215,experiment,2024.1.5,Win32,144.092219,667045947eb812cbdacbf325,66704d231dcf2ec2197b43db,,,,,,,,,,,,,,,,,,,,,,,,,,,,,,,,,,,,472.301,478.332,0.0,1.0,1.0,0.0,1.0,SoundStimuli/TossinAndTurnin_BobbyLewis_Original5S.wav,,,,,,,,,,,,,,,,,,,,,,,,,,,,,,,,,,,,,,,,,,,,,,,,,,,,,,,,,,
,,,,,158648,1,2024-06-17_10h56.24.215,experiment,2024.1.5,Win32,144.092219,667045947eb812cbdacbf325,66704d231dcf2ec2197b43db,,,,,,,,,,,,,,,,,,,,,,,,,,,,,,,,,,,,,,,,,,,,478.333,481.925,3.925,3.591,0.0,3.0,3.0,13.0,1.0,song_indices/TossinAndTurnin_BobbyLewis.csv,,,,,,,,,,,,,,,,,,,,,,,,,,,,,,,,,,,,,,,,,,,,,,,,
,,,,,158648,1,2024-06-17_10h56.24.215,experiment,2024.1.5,Win32,144.092219,667045947eb812cbdacbf325,66704d231dcf2ec2197b43db,,,,,,,,,,,,,,,,,,,,,,,,,,,,,,,,,,,,481.926,488.97,0.0,0.0,0.0,1.0,1.0,SoundStimuli/ComeAndGetYourLove_Redbone_Cover5S.wav,,,,,,,,,,,,,,,,,,,,,,,,,,,,,,,,,,,,,,,,,,,,,,,,,,,,,,,,,,
,,,,,158648,1,2024-06-17_10h56.24.215,experiment,2024.1.5,Win32,144.092219,667045947eb812cbdacbf325,66704d231dcf2ec2197b43db,,,,,,,,,,,,,,,,,,,,,,,,,,,,,,,,,,,,488.971,495.044,0.0,1.0,1.0,0.0,1.0,SoundStimuli/ComeAndGetYourLove_Redbone_Original5S.wav,,,,,,,,,,,,,,,,,,,,,,,,,,,,,,,,,,,,,,,,,,,,,,,,,,,,,,,,,,
,,,,,158648,1,2024-06-17_10h56.24.215,experiment,2024.1.5,Win32,144.092219,667045947eb812cbdacbf325,66704d231dcf2ec2197b43db,,,,,,,,,,,,,,,,,,,,,,,,,,,,,,,,,,,,,,,,,,,,495.044,496.962,3.320833333,1.915,0.0,4.0,4.0,22.0,1.0,song_indices/ComeAndGetYourLove_Redbone.csv,,,,,,,,,,,,,,,,,,,,,,,,,,,,,,,,,,,,,,,,,,,,,,,,
,,,,,158648,1,2024-06-17_10h56.24.215,experiment,2024.1.5,Win32,144.092219,667045947eb812cbdacbf325,66704d231dcf2ec2197b43db,,,,,,,,,,,,,,,,,,,,,,,,,,,,,,,,,,,,496.964,503.236,0.0,0.0,0.0,0.0,1.0,SoundStimuli/LetsGetItOn_MarvinGaye_Original5S.wav,,,,,,,,,,,,,,,,,,,,,,,,,,,,,,,,,,,,,,,,,,,,,,,,,,,,,,,,,,
,,,,,158648,1,2024-06-17_10h56.24.215,experiment,2024.1.5,Win32,144.092219,667045947eb812cbdacbf325,66704d231dcf2ec2197b43db,,,,,,,,,,,,,,,,,,,,,,,,,,,,,,,,,,,,503.237,509.858,0.0,1.0,1.0,1.0,1.0,SoundStimuli/LetsGetItOn_MarvinGaye_Cover5S.wav,,,,,,,,,,,,,,,,,,,,,,,,,,,,,,,,,,,,,,,,,,,,,,,,,,,,,,,,,,
,,,,,158648,1,2024-06-17_10h56.24.215,experiment,2024.1.5,Win32,144.092219,667045947eb812cbdacbf325,66704d231dcf2ec2197b43db,,,,,,,,,,,,,,,,,,,,,,,,,,,,,,,,,,,,,,,,,,,,509.859,512.117,3.229166667,2.258,0.0,5.0,5.0,20.0,1.0,song_indices/LetsGetItOn_MarvinGaye.csv,,,,,,,,,,,,,,,,,,,,,,,,,,,,,,,,,,,,,,,,,,,,,,,,
,,,,,158648,1,2024-06-17_10h56.24.215,experiment,2024.1.5,Win32,144.092219,667045947eb812cbdacbf325,66704d231dcf2ec2197b43db,,,,,,,,,,,,,,,,,,,,,,,,,,,,,,,,,,,,512.118,519.371,0.0,0.0,0.0,1.0,1.0,SoundStimuli/FlashdanceWhatAFeeling_IreneCara_Cover5S.wav,,,,,,,,,,,,,,,,,,,,,,,,,,,,,,,,,,,,,,,,,,,,,,,,,,,,,,,,,,
,,,,,158648,1,2024-06-17_10h56.24.215,experiment,2024.1.5,Win32,144.092219,667045947eb812cbdacbf325,66704d231dcf2ec2197b43db,,,,,,,,,,,,,,,,,,,,,,,,,,,,,,,,,,,,519.371,525.736,0.0,1.0,1.0,0.0,1.0,SoundStimuli/FlashdanceWhatAFeeling_IreneCara_Original5S.wav,,,,,,,,,,,,,,,,,,,,,,,,,,,,,,,,,,,,,,,,,,,,,,,,,,,,,,,,,,
,,,,,158648,1,2024-06-17_10h56.24.215,experiment,2024.1.5,Win32,144.092219,667045947eb812cbdacbf325,66704d231dcf2ec2197b43db,,,,,,,,,,,,,,,,,,,,,,,,,,,,,,,,,,,,,,,,,,,,525.737,529.711,5.779166667,3.972,0.0,6.0,6.0,18.0,1.0,song_indices/FlashdanceWhatAFeeling_IreneCara.csv,,,,,,,,,,,,,,,,,,,,,,,,,,,,,,,,,,,,,,,,,,,,,,,,
,,,,,158648,1,2024-06-17_10h56.24.215,experiment,2024.1.5,Win32,144.092219,667045947eb812cbdacbf325,66704d231dcf2ec2197b43db,,,,,,,,,,,,,,,,,,,,,,,,,,,,,,,,,,,,529.712,535.903,0.0,0.0,0.0,0.0,1.0,SoundStimuli/TikTok_Kesha_Original5S.wav,,,,,,,,,,,,,,,,,,,,,,,,,,,,,,,,,,,,,,,,,,,,,,,,,,,,,,,,,,
,,,,,158648,1,2024-06-17_10h56.24.215,experiment,2024.1.5,Win32,144.092219,667045947eb812cbdacbf325,66704d231dcf2ec2197b43db,,,,,,,,,,,,,,,,,,,,,,,,,,,,,,,,,,,,535.903,543.414,0.0,1.0,1.0,1.0,1.0,SoundStimuli/TikTok_Kesha_Cover5S.wav,,,,,,,,,,,,,,,,,,,,,,,,,,,,,,,,,,,,,,,,,,,,,,,,,,,,,,,,,,
,,,,,158648,1,2024-06-17_10h56.24.215,experiment,2024.1.5,Win32,144.092219,667045947eb812cbdacbf325,66704d231dcf2ec2197b43db,,,,,,,,,,,,,,,,,,,,,,,,,,,,,,,,,,,,,,,,,,,,543.414,545.471,3.829166667,2.053,0.0,7.0,7.0,3.0,1.0,song_indices/TikTok_Kesha.csv,,,,,,,,,,,,,,,,,,,,,,,,,,,,,,,,,,,,,,,,,,,,,,,,
,,,,,158648,1,2024-06-17_10h56.24.215,experiment,2024.1.5,Win32,144.092219,667045947eb812cbdacbf325,66704d231dcf2ec2197b43db,,,,,,,,,,,,,,,,,,,,,,,,,,,,,,,,,,,,545.471,551.933,0.0,0.0,0.0,0.0,1.0,SoundStimuli/BlindingLights_TheWeeknd_Original5S.wav,,,,,,,,,,,,,,,,,,,,,,,,,,,,,,,,,,,,,,,,,,,,,,,,,,,,,,,,,,
,,,,,158648,1,2024-06-17_10h56.24.215,experiment,2024.1.5,Win32,144.092219,667045947eb812cbdacbf325,66704d231dcf2ec2197b43db,,,,,,,,,,,,,,,,,,,,,,,,,,,,,,,,,,,,551.933,558.708,0.0,1.0,1.0,1.0,1.0,SoundStimuli/BlindingLights_TheWeeknd_Cover5S.wav,,,,,,,,,,,,,,,,,,,,,,,,,,,,,,,,,,,,,,,,,,,,,,,,,,,,,,,,,,
,,,,,158648,1,2024-06-17_10h56.24.215,experiment,2024.1.5,Win32,144.092219,667045947eb812cbdacbf325,66704d231dcf2ec2197b43db,,,,,,,,,,,,,,,,,,,,,,,,,,,,,,,,,,,,,,,,,,,,558.708,561.779,3.916666667,3.068,0.0,8.0,8.0,21.0,1.0,song_indices/BlindingLights_TheWeeknd.csv,,,,,,,,,,,,,,,,,,,,,,,,,,,,,,,,,,,,,,,,,,,,,,,,
,,,,,158648,1,2024-06-17_10h56.24.215,experiment,2024.1.5,Win32,144.092219,667045947eb812cbdacbf325,66704d231dcf2ec2197b43db,,,,,,,,,,,,,,,,,,,,,,,,,,,,,,,,,,,,561.78,568.561,0.0,0.0,0.0,1.0,1.0,SoundStimuli/SomebodyThatIUsedtoKnow_Gotye_Cover5S.wav,,,,,,,,,,,,,,,,,,,,,,,,,,,,,,,,,,,,,,,,,,,,,,,,,,,,,,,,,,
,,,,,158648,1,2024-06-17_10h56.24.215,experiment,2024.1.5,Win32,144.092219,667045947eb812cbdacbf325,66704d231dcf2ec2197b43db,,,,,,,,,,,,,,,,,,,,,,,,,,,,,,,,,,,,568.561,575.767,0.0,1.0,1.0,0.0,1.0,SoundStimuli/SomebodyThatIUsedtoKnow_Gotye_Original5S.wav,,,,,,,,,,,,,,,,,,,,,,,,,,,,,,,,,,,,,,,,,,,,,,,,,,,,,,,,,,
,,,,,158648,1,2024-06-17_10h56.24.215,experiment,2024.1.5,Win32,144.092219,667045947eb812cbdacbf325,66704d231dcf2ec2197b43db,,,,,,,,,,,,,,,,,,,,,,,,,,,,,,,,,,,,,,,,,,,,575.767,582.694,3.991666667,6.927,0.0,9.0,9.0,7.0,1.0,song_indices/SomebodyThatIUsedtoKnow_Gotye.csv,,,,,,,,,,,,,,,,,,,,,,,,,,,,,,,,,,,,,,,,,,,,,,,,
,,,,,158648,1,2024-06-17_10h56.24.215,experiment,2024.1.5,Win32,144.092219,667045947eb812cbdacbf325,66704d231dcf2ec2197b43db,,,,,,,,,,,,,,,,,,,,,,,,,,,,,,,,,,,,582.695,588.747,0.0,0.0,0.0,0.0,1.0,SoundStimuli/YouLightUpMyLife_DebbyBoone_Original5S.wav,,,,,,,,,,,,,,,,,,,,,,,,,,,,,,,,,,,,,,,,,,,,,,,,,,,,,,,,,,
,,,,,158648,1,2024-06-17_10h56.24.215,experiment,2024.1.5,Win32,144.092219,667045947eb812cbdacbf325,66704d231dcf2ec2197b43db,,,,,,,,,,,,,,,,,,,,,,,,,,,,,,,,,,,,588.747,595.175,0.0,1.0,1.0,1.0,1.0,SoundStimuli/YouLightUpMyLife_DebbyBoone_Cover5S.wav,,,,,,,,,,,,,,,,,,,,,,,,,,,,,,,,,,,,,,,,,,,,,,,,,,,,,,,,,,
,,,,,158648,1,2024-06-17_10h56.24.215,experiment,2024.1.5,Win32,144.092219,667045947eb812cbdacbf325,66704d231dcf2ec2197b43db,,,,,,,,,,,,,,,,,,,,,,,,,,,,,,,,,,,,,,,,,,,,595.175,598.302,5.225,3.122,0.0,10.0,10.0,4.0,1.0,song_indices/YouLightUpMyLife_DebbyBoone.csv,,,,,,,,,,,,,,,,,,,,,,,,,,,,,,,,,,,,,,,,,,,,,,,,
,,,,,158648,1,2024-06-17_10h56.24.215,experiment,2024.1.5,Win32,144.092219,667045947eb812cbdacbf325,66704d231dcf2ec2197b43db,,,,,,,,,,,,,,,,,,,,,,,,,,,,,,,,,,,,598.303,604.0,0.0,0.0,0.0,1.0,1.0,SoundStimuli/Levitating_DuaLipa_Cover5S.wav,,,,,,,,,,,,,,,,,,,,,,,,,,,,,,,,,,,,,,,,,,,,,,,,,,,,,,,,,,
,,,,,158648,1,2024-06-17_10h56.24.215,experiment,2024.1.5,Win32,144.092219,667045947eb812cbdacbf325,66704d231dcf2ec2197b43db,,,,,,,,,,,,,,,,,,,,,,,,,,,,,,,,,,,,604.0,609.982,0.0,1.0,1.0,0.0,1.0,SoundStimuli/Levitating_DuaLipa_Original5S.wav,,,,,,,,,,,,,,,,,,,,,,,,,,,,,,,,,,,,,,,,,,,,,,,,,,,,,,,,,,
,,,,,158648,1,2024-06-17_10h56.24.215,experiment,2024.1.5,Win32,144.092219,667045947eb812cbdacbf325,66704d231dcf2ec2197b43db,,,,,,,,,,,,,,,,,,,,,,,,,,,,,,,,,,,,,,,,,,,,609.983,611.476,4.429166667,1.489,0.0,11.0,11.0,10.0,1.0,song_indices/Levitating_DuaLipa.csv,,,,,,,,,,,,,,,,,,,,,,,,,,,,,,,,,,,,,,,,,,,,,,,,
,,,,,158648,1,2024-06-17_10h56.24.215,experiment,2024.1.5,Win32,144.092219,667045947eb812cbdacbf325,66704d231dcf2ec2197b43db,,,,,,,,,,,,,,,,,,,,,,,,,,,,,,,,,,,,611.477,616.75,0.0,0.0,0.0,1.0,1.0,SoundStimuli/Superstition_StevieWonder_Cover5S.wav,,,,,,,,,,,,,,,,,,,,,,,,,,,,,,,,,,,,,,,,,,,,,,,,,,,,,,,,,,
,,,,,158648,1,2024-06-17_10h56.24.215,experiment,2024.1.5,Win32,144.092219,667045947eb812cbdacbf325,66704d231dcf2ec2197b43db,,,,,,,,,,,,,,,,,,,,,,,,,,,,,,,,,,,,616.751,622.865,0.0,1.0,1.0,0.0,1.0,SoundStimuli/Superstition_StevieWonder_Original5S.wav,,,,,,,,,,,,,,,,,,,,,,,,,,,,,,,,,,,,,,,,,,,,,,,,,,,,,,,,,,
,,,,,158648,1,2024-06-17_10h56.24.215,experiment,2024.1.5,Win32,144.092219,667045947eb812cbdacbf325,66704d231dcf2ec2197b43db,,,,,,,,,,,,,,,,,,,,,,,,,,,,,,,,,,,,,,,,,,,,622.865,625.319,3.9625,2.453,0.0,12.0,12.0,15.0,1.0,song_indices/Superstition_StevieWonder.csv,,,,,,,,,,,,,,,,,,,,,,,,,,,,,,,,,,,,,,,,,,,,,,,,
,,,,,158648,1,2024-06-17_10h56.24.215,experiment,2024.1.5,Win32,144.092219,667045947eb812cbdacbf325,66704d231dcf2ec2197b43db,,,,,,,,,,,,,,,,,,,,,,,,,,,,,,,,,,,,625.32,631.461,0.0,0.0,0.0,0.0,1.0,SoundStimuli/TheSign_AceOfBase_Original5S.wav,,,,,,,,,,,,,,,,,,,,,,,,,,,,,,,,,,,,,,,,,,,,,,,,,,,,,,,,,,
,,,,,158648,1,2024-06-17_10h56.24.215,experiment,2024.1.5,Win32,144.092219,667045947eb812cbdacbf325,66704d231dcf2ec2197b43db,,,,,,,,,,,,,,,,,,,,,,,,,,,,,,,,,,,,631.461,637.443,0.0,1.0,1.0,1.0,1.0,SoundStimuli/TheSign_AceOfBase_Cover5S.wav,,,,,,,,,,,,,,,,,,,,,,,,,,,,,,,,,,,,,,,,,,,,,,,,,,,,,,,,,,
,,,,,158648,1,2024-06-17_10h56.24.215,experiment,2024.1.5,Win32,144.092219,667045947eb812cbdacbf325,66704d231dcf2ec2197b43db,,,,,,,,,,,,,,,,,,,,,,,,,,,,,,,,,,,,,,,,,,,,637.444,639.361,4.15,1.914,0.0,13.0,13.0,5.0,1.0,song_indices/TheSign_AceOfBase.csv,,,,,,,,,,,,,,,,,,,,,,,,,,,,,,,,,,,,,,,,,,,,,,,,
,,,,,158648,1,2024-06-17_10h56.24.215,experiment,2024.1.5,Win32,144.092219,667045947eb812cbdacbf325,66704d231dcf2ec2197b43db,,,,,,,,,,,,,,,,,,,,,,,,,,,,,,,,,,,,639.362,644.816,0.0,0.0,0.0,1.0,1.0,SoundStimuli/HowDoILive_LeAnnRimes_Cover5S.wav,,,,,,,,,,,,,,,,,,,,,,,,,,,,,,,,,,,,,,,,,,,,,,,,,,,,,,,,,,
,,,,,158648,1,2024-06-17_10h56.24.215,experiment,2024.1.5,Win32,144.092219,667045947eb812cbdacbf325,66704d231dcf2ec2197b43db,,,,,,,,,,,,,,,,,,,,,,,,,,,,,,,,,,,,644.816,650.82,0.0,1.0,1.0,0.0,1.0,SoundStimuli/HowDoILive_LeAnnRimes_Original5S.wav,,,,,,,,,,,,,,,,,,,,,,,,,,,,,,,,,,,,,,,,,,,,,,,,,,,,,,,,,,
,,,,,158648,1,2024-06-17_10h56.24.215,experiment,2024.1.5,Win32,144.092219,667045947eb812cbdacbf325,66704d231dcf2ec2197b43db,,,,,,,,,,,,,,,,,,,,,,,,,,,,,,,,,,,,,,,,,,,,650.82,653.634,4.379166667,2.809,0.0,14.0,14.0,17.0,1.0,song_indices/HowDoILive_LeAnnRimes.csv,,,,,,,,,,,,,,,,,,,,,,,,,,,,,,,,,,,,,,,,,,,,,,,,
,,,,,158648,1,2024-06-17_10h56.24.215,experiment,2024.1.5,Win32,144.092219,667045947eb812cbdacbf325,66704d231dcf2ec2197b43db,,,,,,,,,,,,,,,,,,,,,,,,,,,,,,,,,,,,653.634,659.124,0.0,0.0,0.0,1.0,1.0,SoundStimuli/LeFreak_Chic_Cover5S.wav,,,,,,,,,,,,,,,,,,,,,,,,,,,,,,,,,,,,,,,,,,,,,,,,,,,,,,,,,,
,,,,,158648,1,2024-06-17_10h56.24.215,experiment,2024.1.5,Win32,144.092219,667045947eb812cbdacbf325,66704d231dcf2ec2197b43db,,,,,,,,,,,,,,,,,,,,,,,,,,,,,,,,,,,,659.125,665.134,0.0,1.0,1.0,0.0,1.0,SoundStimuli/LeFreak_Chic_Original5S.wav,,,,,,,,,,,,,,,,,,,,,,,,,,,,,,,,,,,,,,,,,,,,,,,,,,,,,,,,,,
,,,,,158648,1,2024-06-17_10h56.24.215,experiment,2024.1.5,Win32,144.092219,667045947eb812cbdacbf325,66704d231dcf2ec2197b43db,,,,,,,,,,,,,,,,,,,,,,,,,,,,,,,,,,,,,,,,,,,,665.135,666.135,6.5875,1.0,0.0,15.0,15.0,11.0,1.0,song_indices/LeFreak_Chic.csv,,,,,,,,,,,,,,,,,,,,,,,,,,,,,,,,,,,,,,,,,,,,,,,,
,,,,,158648,1,2024-06-17_10h56.24.215,experiment,2024.1.5,Win32,144.092219,667045947eb812cbdacbf325,66704d231dcf2ec2197b43db,,,,,,,,,,,,,,,,,,,,,,,,,,,,,,,,,,,,666.136,672.222,0.0,0.0,0.0,0.0,1.0,SoundStimuli/JoyToTheWorld_ThreeDogNight_Original5S.wav,,,,,,,,,,,,,,,,,,,,,,,,,,,,,,,,,,,,,,,,,,,,,,,,,,,,,,,,,,
,,,,,158648,1,2024-06-17_10h56.24.215,experiment,2024.1.5,Win32,144.092219,667045947eb812cbdacbf325,66704d231dcf2ec2197b43db,,,,,,,,,,,,,,,,,,,,,,,,,,,,,,,,,,,,672.222,677.329,0.0,1.0,1.0,1.0,1.0,SoundStimuli/JoyToTheWorld_ThreeDogNight_Cover5S.wav,,,,,,,,,,,,,,,,,,,,,,,,,,,,,,,,,,,,,,,,,,,,,,,,,,,,,,,,,,
,,,,,158648,1,2024-06-17_10h56.24.215,experiment,2024.1.5,Win32,144.092219,667045947eb812cbdacbf325,66704d231dcf2ec2197b43db,,,,,,,,,,,,,,,,,,,,,,,,,,,,,,,,,,,,,,,,,,,,677.329,701.088,4.7375,23.758,0.0,16.0,16.0,8.0,1.0,song_indices/JoyToTheWorld_ThreeDogNight.csv,,,,,,,,,,,,,,,,,,,,,,,,,,,,,,,,,,,,,,,,,,,,,,,,
,,,,,158648,1,2024-06-17_10h56.24.215,experiment,2024.1.5,Win32,144.092219,667045947eb812cbdacbf325,66704d231dcf2ec2197b43db,,,,,,,,,,,,,,,,,,,,,,,,,,,,,,,,,,,,701.089,707.0,0.0,0.0,0.0,0.0,1.0,SoundStimuli/Respect_ArethaFranklin_Original5S.wav,,,,,,,,,,,,,,,,,,,,,,,,,,,,,,,,,,,,,,,,,,,,,,,,,,,,,,,,,,
,,,,,158648,1,2024-06-17_10h56.24.215,experiment,2024.1.5,Win32,144.092219,667045947eb812cbdacbf325,66704d231dcf2ec2197b43db,,,,,,,,,,,,,,,,,,,,,,,,,,,,,,,,,,,,707.0,713.039,0.0,1.0,1.0,1.0,1.0,SoundStimuli/Respect_ArethaFranklin_Cover5S.wav,,,,,,,,,,,,,,,,,,,,,,,,,,,,,,,,,,,,,,,,,,,,,,,,,,,,,,,,,,
,,,,,158648,1,2024-06-17_10h56.24.215,experiment,2024.1.5,Win32,144.092219,667045947eb812cbdacbf325,66704d231dcf2ec2197b43db,,,,,,,,,,,,,,,,,,,,,,,,,,,,,,,,,,,,,,,,,,,,713.039,714.178,3.191666667,1.135,0.0,17.0,17.0,0.0,1.0,song_indices/Respect_ArethaFranklin.csv,,,,,,,,,,,,,,,,,,,,,,,,,,,,,,,,,,,,,,,,,,,,,,,,
,,,,,158648,1,2024-06-17_10h56.24.215,experiment,2024.1.5,Win32,144.092219,667045947eb812cbdacbf325,66704d231dcf2ec2197b43db,,,,,,,,,,,,,,,,,,,,,,,,,,,,,,,,,,,,714.179,720.356,0.0,0.0,0.0,0.0,1.0,SoundStimuli/Dilemma_NellyKellyRowland_Original5S.wav,,,,,,,,,,,,,,,,,,,,,,,,,,,,,,,,,,,,,,,,,,,,,,,,,,,,,,,,,,
,,,,,158648,1,2024-06-17_10h56.24.215,experiment,2024.1.5,Win32,144.092219,667045947eb812cbdacbf325,66704d231dcf2ec2197b43db,,,,,,,,,,,,,,,,,,,,,,,,,,,,,,,,,,,,720.356,727.318,0.0,1.0,1.0,1.0,1.0,SoundStimuli/Dilemma_NellyKellyRowland_Cover5S.wav,,,,,,,,,,,,,,,,,,,,,,,,,,,,,,,,,,,,,,,,,,,,,,,,,,,,,,,,,,
,,,,,158648,1,2024-06-17_10h56.24.215,experiment,2024.1.5,Win32,144.092219,667045947eb812cbdacbf325,66704d231dcf2ec2197b43db,,,,,,,,,,,,,,,,,,,,,,,,,,,,,,,,,,,,,,,,,,,,727.319,729.847,4.554166667,2.524,0.0,18.0,18.0,2.0,1.0,song_indices/Dilemma_NellyKellyRowland.csv,,,,,,,,,,,,,,,,,,,,,,,,,,,,,,,,,,,,,,,,,,,,,,,,
,,,,,158648,1,2024-06-17_10h56.24.215,experiment,2024.1.5,Win32,144.092219,667045947eb812cbdacbf325,66704d231dcf2ec2197b43db,,,,,,,,,,,,,,,,,,,,,,,,,,,,,,,,,,,,729.848,736.587,0.0,0.0,0.0,0.0,1.0,SoundStimuli/BlurredLines_RobinThicke_Original5S.wav,,,,,,,,,,,,,,,,,,,,,,,,,,,,,,,,,,,,,,,,,,,,,,,,,,,,,,,,,,
,,,,,158648,1,2024-06-17_10h56.24.215,experiment,2024.1.5,Win32,144.092219,667045947eb812cbdacbf325,66704d231dcf2ec2197b43db,,,,,,,,,,,,,,,,,,,,,,,,,,,,,,,,,,,,736.588,743.662,0.0,1.0,1.0,1.0,1.0,SoundStimuli/BlurredLines_RobinThicke_Cover5S.wav,,,,,,,,,,,,,,,,,,,,,,,,,,,,,,,,,,,,,,,,,,,,,,,,,,,,,,,,,,
,,,,,158648,1,2024-06-17_10h56.24.215,experiment,2024.1.5,Win32,144.092219,667045947eb812cbdacbf325,66704d231dcf2ec2197b43db,,,,,,,,,,,,,,,,,,,,,,,,,,,,,,,,,,,,,,,,,,,,743.662,745.767,4.1,2.101,0.0,19.0,19.0,9.0,1.0,song_indices/BlurredLines_RobinThicke.csv,,,,,,,,,,,,,,,,,,,,,,,,,,,,,,,,,,,,,,,,,,,,,,,,
,,,,,158648,1,2024-06-17_10h56.24.215,experiment,2024.1.5,Win32,144.092219,667045947eb812cbdacbf325,66704d231dcf2ec2197b43db,,,,,,,,,,,,,,,,,,,,,,,,,,,,,,,,,,,,745.768,751.659,0.0,0.0,0.0,1.0,1.0,SoundStimuli/Irreplaceable_Beyonce_Cover5S.wav,,,,,,,,,,,,,,,,,,,,,,,,,,,,,,,,,,,,,,,,,,,,,,,,,,,,,,,,,,
,,,,,158648,1,2024-06-17_10h56.24.215,experiment,2024.1.5,Win32,144.092219,667045947eb812cbdacbf325,66704d231dcf2ec2197b43db,,,,,,,,,,,,,,,,,,,,,,,,,,,,,,,,,,,,751.66,757.504,0.0,1.0,1.0,0.0,1.0,SoundStimuli/Irreplaceable_Beyonce_Original5S.wav,,,,,,,,,,,,,,,,,,,,,,,,,,,,,,,,,,,,,,,,,,,,,,,,,,,,,,,,,,
,,,,,158648,1,2024-06-17_10h56.24.215,experiment,2024.1.5,Win32,144.092219,667045947eb812cbdacbf325,66704d231dcf2ec2197b43db,,,,,,,,,,,,,,,,,,,,,,,,,,,,,,,,,,,,,,,,,,,,757.504,759.046,3.804166667,1.541,0.0,20.0,20.0,19.0,1.0,song_indices/Irreplaceable_Beyonce.csv,,,,,,,,,,,,,,,,,,,,,,,,,,,,,,,,,,,,,,,,,,,,,,,,
,,,,,158648,1,2024-06-17_10h56.24.215,experiment,2024.1.5,Win32,144.092219,667045947eb812cbdacbf325,66704d231dcf2ec2197b43db,,,,,,,,,,,,,,,,,,,,,,,,,,,,,,,,,,,,759.047,765.105,0.0,0.0,0.0,0.0,1.0,SoundStimuli/Weak_SWV_Original5S.wav,,,,,,,,,,,,,,,,,,,,,,,,,,,,,,,,,,,,,,,,,,,,,,,,,,,,,,,,,,
,,,,,158648,1,2024-06-17_10h56.24.215,experiment,2024.1.5,Win32,144.092219,667045947eb812cbdacbf325,66704d231dcf2ec2197b43db,,,,,,,,,,,,,,,,,,,,,,,,,,,,,,,,,,,,765.105,771.554,0.0,1.0,1.0,1.0,1.0,SoundStimuli/Weak_SWV_Cover5S.wav,,,,,,,,,,,,,,,,,,,,,,,,,,,,,,,,,,,,,,,,,,,,,,,,,,,,,,,,,,
,,,,,158648,1,2024-06-17_10h56.24.215,experiment,2024.1.5,Win32,144.092219,667045947eb812cbdacbf325,66704d231dcf2ec2197b43db,,,,,,,,,,,,,,,,,,,,,,,,,,,,,,,,,,,,,,,,,,,,771.554,773.506,3.5125,1.949,0.0,21.0,21.0,6.0,1.0,song_indices/Weak_SWV.csv,,,,,,,,,,,,,,,,,,,,,,,,,,,,,,,,,,,,,,,,,,,,,,,,
,,,,,158648,1,2024-06-17_10h56.24.215,experiment,2024.1.5,Win32,144.092219,667045947eb812cbdacbf325,66704d231dcf2ec2197b43db,,,,,,,,,,,,,,,,,,,,,,,,,,,,,,,,,,,,773.507,780.496,0.0,0.0,0.0,0.0,1.0,SoundStimuli/PokerFace_LadyGaga_Original5S.wav,,,,,,,,,,,,,,,,,,,,,,,,,,,,,,,,,,,,,,,,,,,,,,,,,,,,,,,,,,
,,,,,158648,1,2024-06-17_10h56.24.215,experiment,2024.1.5,Win32,144.092219,667045947eb812cbdacbf325,66704d231dcf2ec2197b43db,,,,,,,,,,,,,,,,,,,,,,,,,,,,,,,,,,,,780.496,787.314,0.0,1.0,1.0,1.0,1.0,SoundStimuli/PokerFace_LadyGaga_Cover5S.wav,,,,,,,,,,,,,,,,,,,,,,,,,,,,,,,,,,,,,,,,,,,,,,,,,,,,,,,,,,
,,,,,158648,1,2024-06-17_10h56.24.215,experiment,2024.1.5,Win32,144.092219,667045947eb812cbdacbf325,66704d231dcf2ec2197b43db,,,,,,,,,,,,,,,,,,,,,,,,,,,,,,,,,,,,,,,,,,,,787.314,789.565,3.091666667,2.246,0.0,22.0,22.0,23.0,1.0,song_indices/PokerFace_LadyGaga.csv,,,,,,,,,,,,,,,,,,,,,,,,,,,,,,,,,,,,,,,,,,,,,,,,
,,,,,158648,1,2024-06-17_10h56.24.215,experiment,2024.1.5,Win32,144.092219,667045947eb812cbdacbf325,66704d231dcf2ec2197b43db,,,,,,,,,,,,,,,,,,,,,,,,,,,,,,,,,,,,789.566,795.825,0.0,0.0,0.0,1.0,1.0,SoundStimuli/Kiss_Prince_Cover5S.wav,,,,,,,,,,,,,,,,,,,,,,,,,,,,,,,,,,,,,,,,,,,,,,,,,,,,,,,,,,
,,,,,158648,1,2024-06-17_10h56.24.215,experiment,2024.1.5,Win32,144.092219,667045947eb812cbdacbf325,66704d231dcf2ec2197b43db,,,,,,,,,,,,,,,,,,,,,,,,,,,,,,,,,,,,795.826,803.233,0.0,1.0,1.0,0.0,1.0,SoundStimuli/Kiss_Prince_Original5S.wav,,,,,,,,,,,,,,,,,,,,,,,,,,,,,,,,,,,,,,,,,,,,,,,,,,,,,,,,,,
,,,,,158648,1,2024-06-17_10h56.24.215,experiment,2024.1.5,Win32,144.092219,667045947eb812cbdacbf325,66704d231dcf2ec2197b43db,,,,,,,,,,,,,,,,,,,,,,,,,,,,,,,,,,,,,,,,,,,,803.233,804.879,2.020833333,1.645,0.0,23.0,23.0,14.0,1.0,song_indices/Kiss_Prince.csv,,,,,,,,,,,,,,,,,,,,,,,,,,,,,,,,,,,,,,,,,,,,,,,,
,,,,,158648,1,2024-06-17_10h56.24.215,experiment,2024.1.5,Win32,144.092219,667045947eb812cbdacbf325,66704d231dcf2ec2197b43db,,,,,,,,,,,,,,,,,,,,,,,,,,,,,,,,,,,,,,,,,,,,,,,,,,,,,,804.879,872.129,space,67.241,,0.0,1.0,1.0,2.0,1.0,choose_song_b3.csv,,,,,,,,,,,,,,,,,,,,,,,,,,,,,,,,,,,,,
,,,,,158648,1,2024-06-17_10h56.24.215,experiment,2024.1.5,Win32,144.092219,667045947eb812cbdacbf325,66704d231dcf2ec2197b43db,,,,,,,,,,,,,,,,,,,,,,,,,,,,,,,,,,,,872.132,878.243,0.0,0.0,0.0,1.0,1.0,SoundStimuli/Smooth_SantanaRobThomas_Cover5S.wav,,,,,,,,,,,,,,,,,,,,,,,,,,,,,,,,,,,,,,,,,,,,,,,,,,,,,,,,,,
,,,,,158648,1,2024-06-17_10h56.24.215,experiment,2024.1.5,Win32,144.092219,667045947eb812cbdacbf325,66704d231dcf2ec2197b43db,,,,,,,,,,,,,,,,,,,,,,,,,,,,,,,,,,,,878.244,884.435,0.0,1.0,1.0,0.0,1.0,SoundStimuli/Smooth_SantanaRobThomas_Original5S.wav,,,,,,,,,,,,,,,,,,,,,,,,,,,,,,,,,,,,,,,,,,,,,,,,,,,,,,,,,,
,,,,,158648,1,2024-06-17_10h56.24.215,experiment,2024.1.5,Win32,144.092219,667045947eb812cbdacbf325,66704d231dcf2ec2197b43db,,,,,,,,,,,,,,,,,,,,,,,,,,,,,,,,,,,,,,,,,,,,884.435,887.59,3.341666667,3.151,0.0,0.0,0.0,4.0,1.0,song_indices/Smooth_SantanaRobThomas.csv,,,,,,,,,,,,,,,,,,,,,,,,,,,,,,,,,,,,,,,,,,,,,,,,
,,,,,158648,1,2024-06-17_10h56.24.215,experiment,2024.1.5,Win32,144.092219,667045947eb812cbdacbf325,66704d231dcf2ec2197b43db,,,,,,,,,,,,,,,,,,,,,,,,,,,,,,,,,,,,887.591,891.968,0.0,0.0,0.0,1.0,1.0,SoundStimuli/LikeARollingStone_BobDylan_Cover5S.wav,,,,,,,,,,,,,,,,,,,,,,,,,,,,,,,,,,,,,,,,,,,,,,,,,,,,,,,,,,
,,,,,158648,1,2024-06-17_10h56.24.215,experiment,2024.1.5,Win32,144.092219,667045947eb812cbdacbf325,66704d231dcf2ec2197b43db,,,,,,,,,,,,,,,,,,,,,,,,,,,,,,,,,,,,891.969,898.096,0.0,1.0,1.0,0.0,1.0,SoundStimuli/LikeARollingStone_BobDylan_Original5S.wav,,,,,,,,,,,,,,,,,,,,,,,,,,,,,,,,,,,,,,,,,,,,,,,,,,,,,,,,,,
,,,,,158648,1,2024-06-17_10h56.24.215,experiment,2024.1.5,Win32,144.092219,667045947eb812cbdacbf325,66704d231dcf2ec2197b43db,,,,,,,,,,,,,,,,,,,,,,,,,,,,,,,,,,,,,,,,,,,,898.097,899.57,3.283333333,1.468,0.0,1.0,1.0,12.0,1.0,song_indices/LikeARollingStone_BobDylan.csv,,,,,,,,,,,,,,,,,,,,,,,,,,,,,,,,,,,,,,,,,,,,,,,,
,,,,,158648,1,2024-06-17_10h56.24.215,experiment,2024.1.5,Win32,144.092219,667045947eb812cbdacbf325,66704d231dcf2ec2197b43db,,,,,,,,,,,,,,,,,,,,,,,,,,,,,,,,,,,,899.571,905.851,0.0,0.0,0.0,0.0,1.0,SoundStimuli/Mood_24kGoldnianndior_Original5S.wav,,,,,,,,,,,,,,,,,,,,,,,,,,,,,,,,,,,,,,,,,,,,,,,,,,,,,,,,,,
,,,,,158648,1,2024-06-17_10h56.24.215,experiment,2024.1.5,Win32,144.092219,667045947eb812cbdacbf325,66704d231dcf2ec2197b43db,,,,,,,,,,,,,,,,,,,,,,,,,,,,,,,,,,,,905.851,914.113,0.0,1.0,1.0,1.0,1.0,SoundStimuli/Mood_24kGoldnianndior_Cover5S.wav,,,,,,,,,,,,,,,,,,,,,,,,,,,,,,,,,,,,,,,,,,,,,,,,,,,,,,,,,,
,,,,,158648,1,2024-06-17_10h56.24.215,experiment,2024.1.5,Win32,144.092219,667045947eb812cbdacbf325,66704d231dcf2ec2197b43db,,,,,,,,,,,,,,,,,,,,,,,,,,,,,,,,,,,,,,,,,,,,914.113,917.101,3.491666667,2.985,0.0,2.0,2.0,5.0,1.0,song_indices/Mood_24kGoldnianndior.csv,,,,,,,,,,,,,,,,,,,,,,,,,,,,,,,,,,,,,,,,,,,,,,,,
,,,,,158648,1,2024-06-17_10h56.24.215,experiment,2024.1.5,Win32,144.092219,667045947eb812cbdacbf325,66704d231dcf2ec2197b43db,,,,,,,,,,,,,,,,,,,,,,,,,,,,,,,,,,,,917.102,923.466,0.0,0.0,0.0,0.0,1.0,SoundStimuli/MyGirl_TheTemptations_Original5S.wav,,,,,,,,,,,,,,,,,,,,,,,,,,,,,,,,,,,,,,,,,,,,,,,,,,,,,,,,,,
,,,,,158648,1,2024-06-17_10h56.24.215,experiment,2024.1.5,Win32,144.092219,667045947eb812cbdacbf325,66704d231dcf2ec2197b43db,,,,,,,,,,,,,,,,,,,,,,,,,,,,,,,,,,,,923.466,931.102,0.0,1.0,1.0,1.0,1.0,SoundStimuli/MyGirl_TheTemptations_Cover5S.wav,,,,,,,,,,,,,,,,,,,,,,,,,,,,,,,,,,,,,,,,,,,,,,,,,,,,,,,,,,
,,,,,158648,1,2024-06-17_10h56.24.215,experiment,2024.1.5,Win32,144.092219,667045947eb812cbdacbf325,66704d231dcf2ec2197b43db,,,,,,,,,,,,,,,,,,,,,,,,,,,,,,,,,,,,,,,,,,,,931.103,935.112,3.520833333,4.008,0.0,3.0,3.0,15.0,1.0,song_indices/MyGirl_TheTemptations.csv,,,,,,,,,,,,,,,,,,,,,,,,,,,,,,,,,,,,,,,,,,,,,,,,
,,,,,158648,1,2024-06-17_10h56.24.215,experiment,2024.1.5,Win32,144.092219,667045947eb812cbdacbf325,66704d231dcf2ec2197b43db,,,,,,,,,,,,,,,,,,,,,,,,,,,,,,,,,,,,935.113,941.54,0.0,0.0,0.0,0.0,1.0,SoundStimuli/BadDay_DanielPowter_Original5S.wav,,,,,,,,,,,,,,,,,,,,,,,,,,,,,,,,,,,,,,,,,,,,,,,,,,,,,,,,,,
,,,,,158648,1,2024-06-17_10h56.24.215,experiment,2024.1.5,Win32,144.092219,667045947eb812cbdacbf325,66704d231dcf2ec2197b43db,,,,,,,,,,,,,,,,,,,,,,,,,,,,,,,,,,,,941.54,949.016,0.0,1.0,1.0,1.0,1.0,SoundStimuli/BadDay_DanielPowter_Cover5S.wav,,,,,,,,,,,,,,,,,,,,,,,,,,,,,,,,,,,,,,,,,,,,,,,,,,,,,,,,,,
,,,,,158648,1,2024-06-17_10h56.24.215,experiment,2024.1.5,Win32,144.092219,667045947eb812cbdacbf325,66704d231dcf2ec2197b43db,,,,,,,,,,,,,,,,,,,,,,,,,,,,,,,,,,,,,,,,,,,,949.017,951.664,3.766666667,2.644,0.0,4.0,4.0,22.0,1.0,song_indices/BadDay_DanielPowter.csv,,,,,,,,,,,,,,,,,,,,,,,,,,,,,,,,,,,,,,,,,,,,,,,,
,,,,,158648,1,2024-06-17_10h56.24.215,experiment,2024.1.5,Win32,144.092219,667045947eb812cbdacbf325,66704d231dcf2ec2197b43db,,,,,,,,,,,,,,,,,,,,,,,,,,,,,,,,,,,,951.665,957.772,0.0,0.0,0.0,0.0,1.0,SoundStimuli/StrawberryFieldsForever_TheBeatles_Original5S.wav,,,,,,,,,,,,,,,,,,,,,,,,,,,,,,,,,,,,,,,,,,,,,,,,,,,,,,,,,,
,,,,,158648,1,2024-06-17_10h56.24.215,experiment,2024.1.5,Win32,144.092219,667045947eb812cbdacbf325,66704d231dcf2ec2197b43db,,,,,,,,,,,,,,,,,,,,,,,,,,,,,,,,,,,,957.772,964.769,0.0,1.0,1.0,1.0,1.0,SoundStimuli/StrawberryFieldsForever_TheBeatles_Cover5S.wav,,,,,,,,,,,,,,,,,,,,,,,,,,,,,,,,,,,,,,,,,,,,,,,,,,,,,,,,,,
,,,,,158648,1,2024-06-17_10h56.24.215,experiment,2024.1.5,Win32,144.092219,667045947eb812cbdacbf325,66704d231dcf2ec2197b43db,,,,,,,,,,,,,,,,,,,,,,,,,,,,,,,,,,,,,,,,,,,,964.769,967.528,3.895833333,2.757,0.0,5.0,5.0,14.0,1.0,song_indices/StrawberryFieldsForever_TheBeatles.csv,,,,,,,,,,,,,,,,,,,,,,,,,,,,,,,,,,,,,,,,,,,,,,,,
,,,,,158648,1,2024-06-17_10h56.24.215,experiment,2024.1.5,Win32,144.092219,667045947eb812cbdacbf325,66704d231dcf2ec2197b43db,,,,,,,,,,,,,,,,,,,,,,,,,,,,,,,,,,,,967.529,973.531,0.0,0.0,0.0,0.0,1.0,SoundStimuli/StayinAlive_BeeGees_Original5S.wav,,,,,,,,,,,,,,,,,,,,,,,,,,,,,,,,,,,,,,,,,,,,,,,,,,,,,,,,,,
,,,,,158648,1,2024-06-17_10h56.24.215,experiment,2024.1.5,Win32,144.092219,667045947eb812cbdacbf325,66704d231dcf2ec2197b43db,,,,,,,,,,,,,,,,,,,,,,,,,,,,,,,,,,,,973.532,979.34,0.0,1.0,1.0,1.0,1.0,SoundStimuli/StayinAlive_BeeGees_Cover5S.wav,,,,,,,,,,,,,,,,,,,,,,,,,,,,,,,,,,,,,,,,,,,,,,,,,,,,,,,,,,
,,,,,158648,1,2024-06-17_10h56.24.215,experiment,2024.1.5,Win32,144.092219,667045947eb812cbdacbf325,66704d231dcf2ec2197b43db,,,,,,,,,,,,,,,,,,,,,,,,,,,,,,,,,,,,,,,,,,,,979.34,990.812,4.016666667,11.468,0.0,6.0,6.0,2.0,1.0,song_indices/StayinAlive_BeeGees.csv,,,,,,,,,,,,,,,,,,,,,,,,,,,,,,,,,,,,,,,,,,,,,,,,
,,,,,158648,1,2024-06-17_10h56.24.215,experiment,2024.1.5,Win32,144.092219,667045947eb812cbdacbf325,66704d231dcf2ec2197b43db,,,,,,,,,,,,,,,,,,,,,,,,,,,,,,,,,,,,990.814,996.573,0.0,0.0,0.0,0.0,1.0,SoundStimuli/IWantToHoldYourHand_TheBeatles_Original5S.wav,,,,,,,,,,,,,,,,,,,,,,,,,,,,,,,,,,,,,,,,,,,,,,,,,,,,,,,,,,
,,,,,158648,1,2024-06-17_10h56.24.215,experiment,2024.1.5,Win32,144.092219,667045947eb812cbdacbf325,66704d231dcf2ec2197b43db,,,,,,,,,,,,,,,,,,,,,,,,,,,,,,,,,,,,996.574,1002.584,0.0,1.0,1.0,1.0,1.0,SoundStimuli/IWantToHoldYourHand_TheBeatles_Cover5S.wav,,,,,,,,,,,,,,,,,,,,,,,,,,,,,,,,,,,,,,,,,,,,,,,,,,,,,,,,,,
,,,,,158648,1,2024-06-17_10h56.24.215,experiment,2024.1.5,Win32,144.092219,667045947eb812cbdacbf325,66704d231dcf2ec2197b43db,,,,,,,,,,,,,,,,,,,,,,,,,,,,,,,,,,,,,,,,,,,,1002.584,1004.662,3.304166667,2.074,0.0,7.0,7.0,19.0,1.0,song_indices/IWantToHoldYourHand_TheBeatles.csv,,,,,,,,,,,,,,,,,,,,,,,,,,,,,,,,,,,,,,,,,,,,,,,,
,,,,,158648,1,2024-06-17_10h56.24.215,experiment,2024.1.5,Win32,144.092219,667045947eb812cbdacbf325,66704d231dcf2ec2197b43db,,,,,,,,,,,,,,,,,,,,,,,,,,,,,,,,,,,,1004.662,1012.145,0.0,0.0,0.0,1.0,1.0,SoundStimuli/EndlessLove_DianaRossLionelRichie_Cover5S.wav,,,,,,,,,,,,,,,,,,,,,,,,,,,,,,,,,,,,,,,,,,,,,,,,,,,,,,,,,,
,,,,,158648,1,2024-06-17_10h56.24.215,experiment,2024.1.5,Win32,144.092219,667045947eb812cbdacbf325,66704d231dcf2ec2197b43db,,,,,,,,,,,,,,,,,,,,,,,,,,,,,,,,,,,,1012.145,1018.462,0.0,1.0,1.0,0.0,1.0,SoundStimuli/EndlessLove_DianaRossLionelRichie_Original5S.wav,,,,,,,,,,,,,,,,,,,,,,,,,,,,,,,,,,,,,,,,,,,,,,,,,,,,,,,,,,
,,,,,158648,1,2024-06-17_10h56.24.215,experiment,2024.1.5,Win32,144.092219,667045947eb812cbdacbf325,66704d231dcf2ec2197b43db,,,,,,,,,,,,,,,,,,,,,,,,,,,,,,,,,,,,,,,,,,,,1018.462,1020.63,5.554166667,2.166,0.0,8.0,8.0,3.0,1.0,song_indices/EndlessLove_DianaRossLionelRichie.csv,,,,,,,,,,,,,,,,,,,,,,,,,,,,,,,,,,,,,,,,,,,,,,,,
,,,,,158648,1,2024-06-17_10h56.24.215,experiment,2024.1.5,Win32,144.092219,667045947eb812cbdacbf325,66704d231dcf2ec2197b43db,,,,,,,,,,,,,,,,,,,,,,,,,,,,,,,,,,,,1020.63,1029.455,0.0,0.0,0.0,0.0,1.0,SoundStimuli/Perfect_EdSheeran_Original5S.wav,,,,,,,,,,,,,,,,,,,,,,,,,,,,,,,,,,,,,,,,,,,,,,,,,,,,,,,,,,
,,,,,158648,1,2024-06-17_10h56.24.215,experiment,2024.1.5,Win32,144.092219,667045947eb812cbdacbf325,66704d231dcf2ec2197b43db,,,,,,,,,,,,,,,,,,,,,,,,,,,,,,,,,,,,1029.455,1037.688,0.0,1.0,1.0,1.0,1.0,SoundStimuli/Perfect_EdSheeran_Cover5S.wav,,,,,,,,,,,,,,,,,,,,,,,,,,,,,,,,,,,,,,,,,,,,,,,,,,,,,,,,,,
,,,,,158648,1,2024-06-17_10h56.24.215,experiment,2024.1.5,Win32,144.092219,667045947eb812cbdacbf325,66704d231dcf2ec2197b43db,,,,,,,,,,,,,,,,,,,,,,,,,,,,,,,,,,,,,,,,,,,,1037.688,1041.072,5.795833333,3.382,0.0,9.0,9.0,0.0,1.0,song_indices/Perfect_EdSheeran.csv,,,,,,,,,,,,,,,,,,,,,,,,,,,,,,,,,,,,,,,,,,,,,,,,
,,,,,158648,1,2024-06-17_10h56.24.215,experiment,2024.1.5,Win32,144.092219,667045947eb812cbdacbf325,66704d231dcf2ec2197b43db,,,,,,,,,,,,,,,,,,,,,,,,,,,,,,,,,,,,1041.073,1048.424,0.0,0.0,0.0,0.0,1.0,SoundStimuli/OldTownRoad_LilNasX_Original5S.wav,,,,,,,,,,,,,,,,,,,,,,,,,,,,,,,,,,,,,,,,,,,,,,,,,,,,,,,,,,
,,,,,158648,1,2024-06-17_10h56.24.215,experiment,2024.1.5,Win32,144.092219,667045947eb812cbdacbf325,66704d231dcf2ec2197b43db,,,,,,,,,,,,,,,,,,,,,,,,,,,,,,,,,,,,1048.425,1054.915,0.0,1.0,1.0,1.0,1.0,SoundStimuli/OldTownRoad_LilNasX_Cover5S.wav,,,,,,,,,,,,,,,,,,,,,,,,,,,,,,,,,,,,,,,,,,,,,,,,,,,,,,,,,,
,,,,,158648,1,2024-06-17_10h56.24.215,experiment,2024.1.5,Win32,144.092219,667045947eb812cbdacbf325,66704d231dcf2ec2197b43db,,,,,,,,,,,,,,,,,,,,,,,,,,,,,,,,,,,,,,,,,,,,1054.915,1055.984,4.708333333,1.065,0.0,10.0,10.0,20.0,1.0,song_indices/OldTownRoad_LilNasX.csv,,,,,,,,,,,,,,,,,,,,,,,,,,,,,,,,,,,,,,,,,,,,,,,,
,,,,,158648,1,2024-06-17_10h56.24.215,experiment,2024.1.5,Win32,144.092219,667045947eb812cbdacbf325,66704d231dcf2ec2197b43db,,,,,,,,,,,,,,,,,,,,,,,,,,,,,,,,,,,,1055.985,1060.029,0.0,0.0,0.0,1.0,1.0,SoundStimuli/BohemianRhapsody_Queen_Cover5S.wav,,,,,,,,,,,,,,,,,,,,,,,,,,,,,,,,,,,,,,,,,,,,,,,,,,,,,,,,,,
,,,,,158648,1,2024-06-17_10h56.24.215,experiment,2024.1.5,Win32,144.092219,667045947eb812cbdacbf325,66704d231dcf2ec2197b43db,,,,,,,,,,,,,,,,,,,,,,,,,,,,,,,,,,,,1060.03,1065.97,0.0,1.0,1.0,0.0,1.0,SoundStimuli/BohemianRhapsody_Queen_Original5S.wav,,,,,,,,,,,,,,,,,,,,,,,,,,,,,,,,,,,,,,,,,,,,,,,,,,,,,,,,,,
,,,,,158648,1,2024-06-17_10h56.24.215,experiment,2024.1.5,Win32,144.092219,667045947eb812cbdacbf325,66704d231dcf2ec2197b43db,,,,,,,,,,,,,,,,,,,,,,,,,,,,,,,,,,,,,,,,,,,,1065.97,1073.718,3.966666667,7.744,0.0,11.0,11.0,18.0,1.0,song_indices/BohemianRhapsody_Queen.csv,,,,,,,,,,,,,,,,,,,,,,,,,,,,,,,,,,,,,,,,,,,,,,,,
,,,,,158648,1,2024-06-17_10h56.24.215,experiment,2024.1.5,Win32,144.092219,667045947eb812cbdacbf325,66704d231dcf2ec2197b43db,,,,,,,,,,,,,,,,,,,,,,,,,,,,,,,,,,,,1073.719,1081.819,0.0,0.0,0.0,1.0,1.0,SoundStimuli/AnotherOneBitesTheDust_Queen_Cover5S.wav,,,,,,,,,,,,,,,,,,,,,,,,,,,,,,,,,,,,,,,,,,,,,,,,,,,,,,,,,,
,,,,,158648,1,2024-06-17_10h56.24.215,experiment,2024.1.5,Win32,144.092219,667045947eb812cbdacbf325,66704d231dcf2ec2197b43db,,,,,,,,,,,,,,,,,,,,,,,,,,,,,,,,,,,,1081.82,1087.83,0.0,1.0,1.0,0.0,1.0,SoundStimuli/AnotherOneBitesTheDust_Queen_Original5S.wav,,,,,,,,,,,,,,,,,,,,,,,,,,,,,,,,,,,,,,,,,,,,,,,,,,,,,,,,,,
,,,,,158648,1,2024-06-17_10h56.24.215,experiment,2024.1.5,Win32,144.092219,667045947eb812cbdacbf325,66704d231dcf2ec2197b43db,,,,,,,,,,,,,,,,,,,,,,,,,,,,,,,,,,,,,,,,,,,,1087.83,1091.006,4.0625,3.172,0.0,12.0,12.0,9.0,1.0,song_indices/AnotherOneBitesTheDust_Queen.csv,,,,,,,,,,,,,,,,,,,,,,,,,,,,,,,,,,,,,,,,,,,,,,,,
,,,,,158648,1,2024-06-17_10h56.24.215,experiment,2024.1.5,Win32,144.092219,667045947eb812cbdacbf325,66704d231dcf2ec2197b43db,,,,,,,,,,,,,,,,,,,,,,,,,,,,,,,,,,,,1091.008,1097.301,0.0,0.0,0.0,0.0,1.0,SoundStimuli/BridgeOverTroubledWater_SimonAndGarfunkel_Original5S.wav,,,,,,,,,,,,,,,,,,,,,,,,,,,,,,,,,,,,,,,,,,,,,,,,,,,,,,,,,,
,,,,,158648,1,2024-06-17_10h56.24.215,experiment,2024.1.5,Win32,144.092219,667045947eb812cbdacbf325,66704d231dcf2ec2197b43db,,,,,,,,,,,,,,,,,,,,,,,,,,,,,,,,,,,,1097.301,1103.972,0.0,1.0,1.0,1.0,1.0,SoundStimuli/BridgeOverTroubledWater_SimonAndGarfunkel_Cover5S.wav,,,,,,,,,,,,,,,,,,,,,,,,,,,,,,,,,,,,,,,,,,,,,,,,,,,,,,,,,,
,,,,,158648,1,2024-06-17_10h56.24.215,experiment,2024.1.5,Win32,144.092219,667045947eb812cbdacbf325,66704d231dcf2ec2197b43db,,,,,,,,,,,,,,,,,,,,,,,,,,,,,,,,,,,,,,,,,,,,1103.972,1106.46,4.054166667,2.483,0.0,13.0,13.0,1.0,1.0,song_indices/BridgeOverTroubledWater_SimonAndGarfunkel.csv,,,,,,,,,,,,,,,,,,,,,,,,,,,,,,,,,,,,,,,,,,,,,,,,
,,,,,158648,1,2024-06-17_10h56.24.215,experiment,2024.1.5,Win32,144.092219,667045947eb812cbdacbf325,66704d231dcf2ec2197b43db,,,,,,,,,,,,,,,,,,,,,,,,,,,,,,,,,,,,1106.46,1112.533,0.0,0.0,0.0,0.0,1.0,SoundStimuli/HeatWaves_GlassAnimals_Original5S.wav,,,,,,,,,,,,,,,,,,,,,,,,,,,,,,,,,,,,,,,,,,,,,,,,,,,,,,,,,,
,,,,,158648,1,2024-06-17_10h56.24.215,experiment,2024.1.5,Win32,144.092219,667045947eb812cbdacbf325,66704d231dcf2ec2197b43db,,,,,,,,,,,,,,,,,,,,,,,,,,,,,,,,,,,,1112.534,1121.115,0.0,1.0,1.0,1.0,1.0,SoundStimuli/HeatWaves_GlassAnimals_Cover5S.wav,,,,,,,,,,,,,,,,,,,,,,,,,,,,,,,,,,,,,,,,,,,,,,,,,,,,,,,,,,
,,,,,158648,1,2024-06-17_10h56.24.215,experiment,2024.1.5,Win32,144.092219,667045947eb812cbdacbf325,66704d231dcf2ec2197b43db,,,,,,,,,,,,,,,,,,,,,,,,,,,,,,,,,,,,,,,,,,,,1121.115,1122.261,2.675,1.143,0.0,14.0,14.0,10.0,1.0,song_indices/HeatWaves_GlassAnimals.csv,,,,,,,,,,,,,,,,,,,,,,,,,,,,,,,,,,,,,,,,,,,,,,,,
,,,,,158648,1,2024-06-17_10h56.24.215,experiment,2024.1.5,Win32,144.092219,667045947eb812cbdacbf325,66704d231dcf2ec2197b43db,,,,,,,,,,,,,,,,,,,,,,,,,,,,,,,,,,,,1122.262,1128.321,0.0,0.0,0.0,0.0,1.0,SoundStimuli/IllMakeLoveToYou_BoyzIIMen_Original5S.wav,,,,,,,,,,,,,,,,,,,,,,,,,,,,,,,,,,,,,,,,,,,,,,,,,,,,,,,,,,
,,,,,158648,1,2024-06-17_10h56.24.215,experiment,2024.1.5,Win32,144.092219,667045947eb812cbdacbf325,66704d231dcf2ec2197b43db,,,,,,,,,,,,,,,,,,,,,,,,,,,,,,,,,,,,1128.321,1134.241,0.0,1.0,1.0,1.0,1.0,SoundStimuli/IllMakeLoveToYou_BoyzIIMen_Cover5S.wav,,,,,,,,,,,,,,,,,,,,,,,,,,,,,,,,,,,,,,,,,,,,,,,,,,,,,,,,,,
,,,,,158648,1,2024-06-17_10h56.24.215,experiment,2024.1.5,Win32,144.092219,667045947eb812cbdacbf325,66704d231dcf2ec2197b43db,,,,,,,,,,,,,,,,,,,,,,,,,,,,,,,,,,,,,,,,,,,,1134.241,1135.783,3.941666667,1.538,0.0,15.0,15.0,6.0,1.0,song_indices/IllMakeLoveToYou_BoyzIIMen.csv,,,,,,,,,,,,,,,,,,,,,,,,,,,,,,,,,,,,,,,,,,,,,,,,
,,,,,158648,1,2024-06-17_10h56.24.215,experiment,2024.1.5,Win32,144.092219,667045947eb812cbdacbf325,66704d231dcf2ec2197b43db,,,,,,,,,,,,,,,,,,,,,,,,,,,,,,,,,,,,1135.784,1141.947,0.0,0.0,0.0,0.0,1.0,SoundStimuli/LikeAPrayer_Madonna_Original5S.wav,,,,,,,,,,,,,,,,,,,,,,,,,,,,,,,,,,,,,,,,,,,,,,,,,,,,,,,,,,
,,,,,158648,1,2024-06-17_10h56.24.215,experiment,2024.1.5,Win32,144.092219,667045947eb812cbdacbf325,66704d231dcf2ec2197b43db,,,,,,,,,,,,,,,,,,,,,,,,,,,,,,,,,,,,1141.947,1148.131,0.0,1.0,1.0,1.0,1.0,SoundStimuli/LikeAPrayer_Madonna_Cover5S.wav,,,,,,,,,,,,,,,,,,,,,,,,,,,,,,,,,,,,,,,,,,,,,,,,,,,,,,,,,,
,,,,,158648,1,2024-06-17_10h56.24.215,experiment,2024.1.5,Win32,144.092219,667045947eb812cbdacbf325,66704d231dcf2ec2197b43db,,,,,,,,,,,,,,,,,,,,,,,,,,,,,,,,,,,,,,,,,,,,1148.131,1149.083,3.95,0.95,0.0,16.0,16.0,7.0,1.0,song_indices/LikeAPrayer_Madonna.csv,,,,,,,,,,,,,,,,,,,,,,,,,,,,,,,,,,,,,,,,,,,,,,,,
,,,,,158648,1,2024-06-17_10h56.24.215,experiment,2024.1.5,Win32,144.092219,667045947eb812cbdacbf325,66704d231dcf2ec2197b43db,,,,,,,,,,,,,,,,,,,,,,,,,,,,,,,,,,,,1149.084,1155.65,0.0,0.0,0.0,1.0,1.0,SoundStimuli/Despacito_LuisFonsiDaddyYankee_Cover5S.wav,,,,,,,,,,,,,,,,,,,,,,,,,,,,,,,,,,,,,,,,,,,,,,,,,,,,,,,,,,
,,,,,158648,1,2024-06-17_10h56.24.215,experiment,2024.1.5,Win32,144.092219,667045947eb812cbdacbf325,66704d231dcf2ec2197b43db,,,,,,,,,,,,,,,,,,,,,,,,,,,,,,,,,,,,1155.65,1162.181,0.0,1.0,1.0,0.0,1.0,SoundStimuli/Despacito_LuisFonsiDaddyYankee_Original5S.wav,,,,,,,,,,,,,,,,,,,,,,,,,,,,,,,,,,,,,,,,,,,,,,,,,,,,,,,,,,
,,,,,158648,1,2024-06-17_10h56.24.215,experiment,2024.1.5,Win32,144.092219,667045947eb812cbdacbf325,66704d231dcf2ec2197b43db,,,,,,,,,,,,,,,,,,,,,,,,,,,,,,,,,,,,,,,,,,,,1162.182,1166.949,5.779166667,4.766,0.0,17.0,17.0,11.0,1.0,song_indices/Despacito_LuisFonsiDaddyYankee.csv,,,,,,,,,,,,,,,,,,,,,,,,,,,,,,,,,,,,,,,,,,,,,,,,
,,,,,158648,1,2024-06-17_10h56.24.215,experiment,2024.1.5,Win32,144.092219,667045947eb812cbdacbf325,66704d231dcf2ec2197b43db,,,,,,,,,,,,,,,,,,,,,,,,,,,,,,,,,,,,1166.95,1173.792,0.0,0.0,0.0,1.0,1.0,SoundStimuli/GodOnlyKnows_TheBeachBoys_Cover5S.wav,,,,,,,,,,,,,,,,,,,,,,,,,,,,,,,,,,,,,,,,,,,,,,,,,,,,,,,,,,
,,,,,158648,1,2024-06-17_10h56.24.215,experiment,2024.1.5,Win32,144.092219,667045947eb812cbdacbf325,66704d231dcf2ec2197b43db,,,,,,,,,,,,,,,,,,,,,,,,,,,,,,,,,,,,1173.792,1180.005,0.0,1.0,1.0,0.0,1.0,SoundStimuli/GodOnlyKnows_TheBeachBoys_Original5S.wav,,,,,,,,,,,,,,,,,,,,,,,,,,,,,,,,,,,,,,,,,,,,,,,,,,,,,,,,,,
,,,,,158648,1,2024-06-17_10h56.24.215,experiment,2024.1.5,Win32,144.092219,667045947eb812cbdacbf325,66704d231dcf2ec2197b43db,,,,,,,,,,,,,,,,,,,,,,,,,,,,,,,,,,,,,,,,,,,,1180.005,1184.042,3.958333333,4.033,0.0,18.0,18.0,8.0,1.0,song_indices/GodOnlyKnows_TheBeachBoys.csv,,,,,,,,,,,,,,,,,,,,,,,,,,,,,,,,,,,,,,,,,,,,,,,,
,,,,,158648,1,2024-06-17_10h56.24.215,experiment,2024.1.5,Win32,144.092219,667045947eb812cbdacbf325,66704d231dcf2ec2197b43db,,,,,,,,,,,,,,,,,,,,,,,,,,,,,,,,,,,,1184.043,1190.282,0.0,0.0,0.0,1.0,1.0,SoundStimuli/MackTheKnife_BobbyDarin_Cover5S.wav,,,,,,,,,,,,,,,,,,,,,,,,,,,,,,,,,,,,,,,,,,,,,,,,,,,,,,,,,,
,,,,,158648,1,2024-06-17_10h56.24.215,experiment,2024.1.5,Win32,144.092219,667045947eb812cbdacbf325,66704d231dcf2ec2197b43db,,,,,,,,,,,,,,,,,,,,,,,,,,,,,,,,,,,,1190.282,1196.396,0.0,1.0,1.0,0.0,1.0,SoundStimuli/MackTheKnife_BobbyDarin_Original5S.wav,,,,,,,,,,,,,,,,,,,,,,,,,,,,,,,,,,,,,,,,,,,,,,,,,,,,,,,,,,
,,,,,158648,1,2024-06-17_10h56.24.215,experiment,2024.1.5,Win32,144.092219,667045947eb812cbdacbf325,66704d231dcf2ec2197b43db,,,,,,,,,,,,,,,,,,,,,,,,,,,,,,,,,,,,,,,,,,,,1196.397,1197.995,3.841666667,1.593,0.0,19.0,19.0,21.0,1.0,song_indices/MackTheKnife_BobbyDarin.csv,,,,,,,,,,,,,,,,,,,,,,,,,,,,,,,,,,,,,,,,,,,,,,,,
,,,,,158648,1,2024-06-17_10h56.24.215,experiment,2024.1.5,Win32,144.092219,667045947eb812cbdacbf325,66704d231dcf2ec2197b43db,,,,,,,,,,,,,,,,,,,,,,,,,,,,,,,,,,,,1197.996,1202.685,0.0,0.0,0.0,1.0,1.0,SoundStimuli/AChangeIsGonnaCome_SamCooke_Cover5S.wav,,,,,,,,,,,,,,,,,,,,,,,,,,,,,,,,,,,,,,,,,,,,,,,,,,,,,,,,,,
,,,,,158648,1,2024-06-17_10h56.24.215,experiment,2024.1.5,Win32,144.092219,667045947eb812cbdacbf325,66704d231dcf2ec2197b43db,,,,,,,,,,,,,,,,,,,,,,,,,,,,,,,,,,,,1202.685,1208.696,0.0,1.0,1.0,0.0,1.0,SoundStimuli/AChangeIsGonnaCome_SamCooke_Original5S.wav,,,,,,,,,,,,,,,,,,,,,,,,,,,,,,,,,,,,,,,,,,,,,,,,,,,,,,,,,,
,,,,,158648,1,2024-06-17_10h56.24.215,experiment,2024.1.5,Win32,144.092219,667045947eb812cbdacbf325,66704d231dcf2ec2197b43db,,,,,,,,,,,,,,,,,,,,,,,,,,,,,,,,,,,,,,,,,,,,1208.696,1211.872,3.991666667,3.172,0.0,20.0,20.0,17.0,1.0,song_indices/AChangeIsGonnaCome_SamCooke.csv,,,,,,,,,,,,,,,,,,,,,,,,,,,,,,,,,,,,,,,,,,,,,,,,
,,,,,158648,1,2024-06-17_10h56.24.215,experiment,2024.1.5,Win32,144.092219,667045947eb812cbdacbf325,66704d231dcf2ec2197b43db,,,,,,,,,,,,,,,,,,,,,,,,,,,,,,,,,,,,1211.873,1217.451,0.0,0.0,0.0,0.0,1.0,SoundStimuli/IWannaDanceWithSomebody_WhitneyHouston_Original5S.wav,,,,,,,,,,,,,,,,,,,,,,,,,,,,,,,,,,,,,,,,,,,,,,,,,,,,,,,,,,
,,,,,158648,1,2024-06-17_10h56.24.215,experiment,2024.1.5,Win32,144.092219,667045947eb812cbdacbf325,66704d231dcf2ec2197b43db,,,,,,,,,,,,,,,,,,,,,,,,,,,,,,,,,,,,1217.451,1224.261,0.0,1.0,1.0,1.0,1.0,SoundStimuli/IWannaDanceWithSomebody_WhitneyHouston_Cover5S.wav,,,,,,,,,,,,,,,,,,,,,,,,,,,,,,,,,,,,,,,,,,,,,,,,,,,,,,,,,,
,,,,,158648,1,2024-06-17_10h56.24.215,experiment,2024.1.5,Win32,144.092219,667045947eb812cbdacbf325,66704d231dcf2ec2197b43db,,,,,,,,,,,,,,,,,,,,,,,,,,,,,,,,,,,,,,,,,,,,1224.261,1226.798,2.508333333,2.534,0.0,21.0,21.0,13.0,1.0,song_indices/IWannaDanceWithSomebody_WhitneyHouston.csv,,,,,,,,,,,,,,,,,,,,,,,,,,,,,,,,,,,,,,,,,,,,,,,,
,,,,,158648,1,2024-06-17_10h56.24.215,experiment,2024.1.5,Win32,144.092219,667045947eb812cbdacbf325,66704d231dcf2ec2197b43db,,,,,,,,,,,,,,,,,,,,,,,,,,,,,,,,,,,,1226.799,1233.023,0.0,0.0,0.0,0.0,1.0,SoundStimuli/LivinOnAPrayer_BonJovi_Original5S.wav,,,,,,,,,,,,,,,,,,,,,,,,,,,,,,,,,,,,,,,,,,,,,,,,,,,,,,,,,,
,,,,,158648,1,2024-06-17_10h56.24.215,experiment,2024.1.5,Win32,144.092219,667045947eb812cbdacbf325,66704d231dcf2ec2197b43db,,,,,,,,,,,,,,,,,,,,,,,,,,,,,,,,,,,,1233.023,1240.673,0.0,1.0,1.0,1.0,1.0,SoundStimuli/LivinOnAPrayer_BonJovi_Cover5S.wav,,,,,,,,,,,,,,,,,,,,,,,,,,,,,,,,,,,,,,,,,,,,,,,,,,,,,,,,,,
,,,,,158648,1,2024-06-17_10h56.24.215,experiment,2024.1.5,Win32,144.092219,667045947eb812cbdacbf325,66704d231dcf2ec2197b43db,,,,,,,,,,,,,,,,,,,,,,,,,,,,,,,,,,,,,,,,,,,,1240.674,1244.197,2.875,3.519,0.0,22.0,22.0,16.0,1.0,song_indices/LivinOnAPrayer_BonJovi.csv,,,,,,,,,,,,,,,,,,,,,,,,,,,,,,,,,,,,,,,,,,,,,,,,
,,,,,158648,1,2024-06-17_10h56.24.215,experiment,2024.1.5,Win32,144.092219,667045947eb812cbdacbf325,66704d231dcf2ec2197b43db,,,,,,,,,,,,,,,,,,,,,,,,,,,,,,,,,,,,,,,,,,,,,,,,,,,,,,1244.197,1244.197,,,,0.0,2.0,2.0,0.0,1.0,choose_song_b1.csv,,,,,,,,,,,,,,,,,,,,,,,,,,,,,,,,,,,,,
,,,,,158648,1,2024-06-17_10h56.24.215,experiment,2024.1.5,Win32,144.092219,667045947eb812cbdacbf325,66704d231dcf2ec2197b43db,,,,,,,,,,,,,,,,,,,,,,,,,,,,,,,,,,,,,,,,,,,,,,,,,,,,,,,,,,,,,,,,,31.0,Item 2,Not a musician.,Item 4,"Apple music, YouTube, radio",5.0,6.0,"house chores, cooking, showering, cleaning, walking/hiking, driving, relaxing.",Rarely,Sometimes,Sometimes,Never,Rarely,Sometimes,Sometimes,Sometimes,Rarely,Often,Sometimes,Often,Often,Rarely,Sometimes,Never,,Pop punk,alternative,rock,"They haven't really changed since I was a teen. I'll listen to music almost constantly for a few months, usually newer songs that I've discovered, then listen less for a few weeks and repeat.",,0.0,0.0,0.0,0.0,1.0,,
,,,,,158648,1,2024-06-17_10h56.24.215,experiment,2024.1.5,Win32,144.092219,667045947eb812cbdacbf325,66704d231dcf2ec2197b43db,,,,,,,,,,,,,,,,,,,,,,,,,,,,,,,,,,,,,,,,,,,,,,,,,,,,,,,,,,,,,,,,,,,,,,,,,,,,,,,,,,,,,,,,,,,,,,,,,,,,1516.983,1519.477
