welcome.started,welcome.stopped,space_to_continue.keys,space_to_continue.rt,space_to_continue.duration,participant,session,date,expName,psychopyVersion,OS,frameRate,STUDY_ID,SESSION_ID,consent.consent,consent.consent_recontact,consent_check.started,consent_check.stopped,calibration_ready.started,calibration_ready.stopped,cal_ready.keys,cal_ready.rt,cal_ready.duration,calibration.started,calibration.stopped,mouse.x,mouse.y,mouse.leftButton,mouse.midButton,mouse.rightButton,mouse.time,mouse.clicked_name,move_on.keys,move_on.rt,move_on.duration,instructions.started,instructions.stopped,next.keys,next.rt,next.duration,practice_trial.started,practice_trial.stopped,practice_slider.response,practice_slider.rt,ready.started,ready.stopped,key_resp.keys,key_resp.rt,key_resp.duration,play_sound.started,play_sound.stopped,trials.thisRepN,trials.thisTrialN,trials.thisN,trials.thisIndex,trials.ran,orig_or_cover,rating.started,rating.stopped,slider.response,slider.rt,songs.thisRepN,songs.thisTrialN,songs.thisN,songs.thisIndex,songs.ran,song_id,short_break.started,short_break.stopped,space_to_move_on.keys,space_to_move_on.rt,space_to_move_on.duration,blocks.thisRepN,blocks.thisTrialN,blocks.thisN,blocks.thisIndex,blocks.ran,block,survey.age,survey.musician,survey.music_making,survey.listen_time,survey.medium,survey.music_seeking,survey.music_choice,survey.activities,survey.question1.Hip hop,survey.question1.Alternative rock,survey.question1.R&B,survey.question1.Jazz,survey.question1.Folk/indie,survey.question1.Disco,survey.question1.Classic rock,survey.question1.A cappella,survey.question1.Pop,survey.question1.Country,survey.question1.Ambient,survey.question1.Electronic (EDM),survey.question1.Metal,survey.question1.Classical,survey.question1.Reggae,survey.question1.Latin,survey.genres_ranked.text1,survey.genres_ranked.text2,survey.genres_ranked.text3,survey.habit_change,survey.habits,experiment.thisRepN,experiment.thisTrialN,experiment.thisN,experiment.thisIndex,experiment.ran,goodbye.started,goodbye.stopped
0.0003,1.9366,space,1.9188,,244222,1,2024-06-14_12h24.31.087,experiment,2024.1.5,Win32,75.75757576,666b5f73dbba3f0cd916b177,666c6e8b12f960dc41d0816b,,,,,,,,,,,,,,,,,,,,,,,,,,,,,,,,,,,,,,,,,,,,,,,,,,,,,,,,,,,,,,,,,,,,,,,,,,,,,,,,,,,,,,,,,,,,,,,,,,,,
,,,,,244222,1,2024-06-14_12h24.31.087,experiment,2024.1.5,Win32,75.75757576,666b5f73dbba3f0cd916b177,666c6e8b12f960dc41d0816b,yes,yes,,,,,,,,,,,,,,,,,,,,,,,,,,,,,,,,,,,,,,,,,,,,,,,,,,,,,,,,,,,,,,,,,,,,,,,,,,,,,,,,,,,,,,,,,,,,,,,,,,
,,,,,244222,1,2024-06-14_12h24.31.087,experiment,2024.1.5,Win32,75.75757576,666b5f73dbba3f0cd916b177,666c6e8b12f960dc41d0816b,,,26.3726,26.3727,,,,,,,,,,,,,,,,,,,,,,,,,,,,,,,,,,,,,,,,,,,,,,,,,,,,,,,,,,,,,,,,,,,,,,,,,,,,,,,,,,,,,,,,,,,,,,,,
,,,,,244222,1,2024-06-14_12h24.31.087,experiment,2024.1.5,Win32,75.75757576,666b5f73dbba3f0cd916b177,666c6e8b12f960dc41d0816b,,,,,26.3741,55.9696,space,29.5781,0.0003,55.9696,135.7857,[],[],[],[],[],[],[],right,69.7993,0.0031,135.7927,147.5233,space,11.7201,,147.5234,167.9305,6.827777778,20.39,167.9307,172.9593,space,5.0132,,172.9831,179.268,0.0,0.0,0.0,1.0,1.0,SoundStimuli/ShapeofYou_EdSheeran_Cover5S.wav,,,,,,,,,,,,,,,,,,,,,,,,,,,,,,,,,,,,,,,,,,,,,,,,,,,,,,,,,
,,,,,244222,1,2024-06-14_12h24.31.087,experiment,2024.1.5,Win32,75.75757576,666b5f73dbba3f0cd916b177,666c6e8b12f960dc41d0816b,,,,,,,,,,,,,,,,,,,,,,,,,,,,,,,,,,,,179.2684,185.7235,0.0,1.0,1.0,0.0,1.0,SoundStimuli/ShapeofYou_EdSheeran_Original5S.wav,,,,,,,,,,,,,,,,,,,,,,,,,,,,,,,,,,,,,,,,,,,,,,,,,,,,,,,,,
,,,,,244222,1,2024-06-14_12h24.31.087,experiment,2024.1.5,Win32,75.75757576,666b5f73dbba3f0cd916b177,666c6e8b12f960dc41d0816b,,,,,,,,,,,,,,,,,,,,,,,,,,,,,,,,,,,,,,,,,,,,185.7311,189.1114,6.988888889,3.3764,0.0,0.0,0.0,21.0,1.0,song_indices/ShapeofYou_EdSheeran.csv,,,,,,,,,,,,,,,,,,,,,,,,,,,,,,,,,,,,,,,,,,,,,,,
,,,,,244222,1,2024-06-14_12h24.31.087,experiment,2024.1.5,Win32,75.75757576,666b5f73dbba3f0cd916b177,666c6e8b12f960dc41d0816b,,,,,,,,,,,,,,,,,,,,,,,,,,,,,,,,,,,,189.1129,195.5406,0.0,0.0,0.0,1.0,1.0,SoundStimuli/Fallin_AliciaKeys_Cover5S.wav,,,,,,,,,,,,,,,,,,,,,,,,,,,,,,,,,,,,,,,,,,,,,,,,,,,,,,,,,
,,,,,244222,1,2024-06-14_12h24.31.087,experiment,2024.1.5,Win32,75.75757576,666b5f73dbba3f0cd916b177,666c6e8b12f960dc41d0816b,,,,,,,,,,,,,,,,,,,,,,,,,,,,,,,,,,,,195.5483,201.7029,0.0,1.0,1.0,0.0,1.0,SoundStimuli/Fallin_AliciaKeys_Original5S.wav,,,,,,,,,,,,,,,,,,,,,,,,,,,,,,,,,,,,,,,,,,,,,,,,,,,,,,,,,
,,,,,244222,1,2024-06-14_12h24.31.087,experiment,2024.1.5,Win32,75.75757576,666b5f73dbba3f0cd916b177,666c6e8b12f960dc41d0816b,,,,,,,,,,,,,,,,,,,,,,,,,,,,,,,,,,,,,,,,,,,,201.703,209.3725,5.011111111,7.6572,0.0,1.0,1.0,12.0,1.0,song_indices/Fallin_AliciaKeys.csv,,,,,,,,,,,,,,,,,,,,,,,,,,,,,,,,,,,,,,,,,,,,,,,
,,,,,244222,1,2024-06-14_12h24.31.087,experiment,2024.1.5,Win32,75.75757576,666b5f73dbba3f0cd916b177,666c6e8b12f960dc41d0816b,,,,,,,,,,,,,,,,,,,,,,,,,,,,,,,,,,,,209.3739,215.575,0.0,0.0,0.0,0.0,1.0,SoundStimuli/TheBattleOfNewOrleans_JohnnyHorton_Original5S.wav,,,,,,,,,,,,,,,,,,,,,,,,,,,,,,,,,,,,,,,,,,,,,,,,,,,,,,,,,
,,,,,244222,1,2024-06-14_12h24.31.087,experiment,2024.1.5,Win32,75.75757576,666b5f73dbba3f0cd916b177,666c6e8b12f960dc41d0816b,,,,,,,,,,,,,,,,,,,,,,,,,,,,,,,,,,,,215.5823,223.5507,0.0,1.0,1.0,1.0,1.0,SoundStimuli/TheBattleOfNewOrleans_JohnnyHorton_Cover5S.wav,,,,,,,,,,,,,,,,,,,,,,,,,,,,,,,,,,,,,,,,,,,,,,,,,,,,,,,,,
,,,,,244222,1,2024-06-14_12h24.31.087,experiment,2024.1.5,Win32,75.75757576,666b5f73dbba3f0cd916b177,666c6e8b12f960dc41d0816b,,,,,,,,,,,,,,,,,,,,,,,,,,,,,,,,,,,,,,,,,,,,223.5509,226.3649,1.038888889,2.805,0.0,2.0,2.0,4.0,1.0,song_indices/TheBattleOfNewOrleans_JohnnyHorton.csv,,,,,,,,,,,,,,,,,,,,,,,,,,,,,,,,,,,,,,,,,,,,,,,
,,,,,244222,1,2024-06-14_12h24.31.087,experiment,2024.1.5,Win32,75.75757576,666b5f73dbba3f0cd916b177,666c6e8b12f960dc41d0816b,,,,,,,,,,,,,,,,,,,,,,,,,,,,,,,,,,,,226.3659,233.501,0.0,0.0,0.0,1.0,1.0,SoundStimuli/IWalkTheLine_JohnnyCash_Cover5S.wav,,,,,,,,,,,,,,,,,,,,,,,,,,,,,,,,,,,,,,,,,,,,,,,,,,,,,,,,,
,,,,,244222,1,2024-06-14_12h24.31.087,experiment,2024.1.5,Win32,75.75757576,666b5f73dbba3f0cd916b177,666c6e8b12f960dc41d0816b,,,,,,,,,,,,,,,,,,,,,,,,,,,,,,,,,,,,233.5079,239.4766,0.0,1.0,1.0,0.0,1.0,SoundStimuli/IWalkTheLine_JohnnyCash_Original5S.wav,,,,,,,,,,,,,,,,,,,,,,,,,,,,,,,,,,,,,,,,,,,,,,,,,,,,,,,,,
,,,,,244222,1,2024-06-14_12h24.31.087,experiment,2024.1.5,Win32,75.75757576,666b5f73dbba3f0cd916b177,666c6e8b12f960dc41d0816b,,,,,,,,,,,,,,,,,,,,,,,,,,,,,,,,,,,,,,,,,,,,239.4767,283.1462,5.1,43.6551,0.0,3.0,3.0,17.0,1.0,song_indices/IWalkTheLine_JohnnyCash.csv,,,,,,,,,,,,,,,,,,,,,,,,,,,,,,,,,,,,,,,,,,,,,,,
,,,,,244222,1,2024-06-14_12h24.31.087,experiment,2024.1.5,Win32,75.75757576,666b5f73dbba3f0cd916b177,666c6e8b12f960dc41d0816b,,,,,,,,,,,,,,,,,,,,,,,,,,,,,,,,,,,,283.1473,289.2014,0.0,0.0,0.0,0.0,1.0,SoundStimuli/GetUrFreakOn_MissyElliot_Original5S.wav,,,,,,,,,,,,,,,,,,,,,,,,,,,,,,,,,,,,,,,,,,,,,,,,,,,,,,,,,
,,,,,244222,1,2024-06-14_12h24.31.087,experiment,2024.1.5,Win32,75.75757576,666b5f73dbba3f0cd916b177,666c6e8b12f960dc41d0816b,,,,,,,,,,,,,,,,,,,,,,,,,,,,,,,,,,,,289.208,295.7771,0.0,1.0,1.0,1.0,1.0,SoundStimuli/GetUrFreakOn_MissyElliot_Cover5S.wav,,,,,,,,,,,,,,,,,,,,,,,,,,,,,,,,,,,,,,,,,,,,,,,,,,,,,,,,,
,,,,,244222,1,2024-06-14_12h24.31.087,experiment,2024.1.5,Win32,75.75757576,666b5f73dbba3f0cd916b177,666c6e8b12f960dc41d0816b,,,,,,,,,,,,,,,,,,,,,,,,,,,,,,,,,,,,,,,,,,,,295.7774,492.1693,3.977777778,196.3792,0.0,4.0,4.0,18.0,1.0,song_indices/GetUrFreakOn_MissyElliot.csv,,,,,,,,,,,,,,,,,,,,,,,,,,,,,,,,,,,,,,,,,,,,,,,
,,,,,244222,1,2024-06-14_12h24.31.087,experiment,2024.1.5,Win32,75.75757576,666b5f73dbba3f0cd916b177,666c6e8b12f960dc41d0816b,,,,,,,,,,,,,,,,,,,,,,,,,,,,,,,,,,,,492.1703,498.9471,0.0,0.0,0.0,1.0,1.0,SoundStimuli/PartyRockAnthem_LMFAO_Cover5S.wav,,,,,,,,,,,,,,,,,,,,,,,,,,,,,,,,,,,,,,,,,,,,,,,,,,,,,,,,,
,,,,,244222,1,2024-06-14_12h24.31.087,experiment,2024.1.5,Win32,75.75757576,666b5f73dbba3f0cd916b177,666c6e8b12f960dc41d0816b,,,,,,,,,,,,,,,,,,,,,,,,,,,,,,,,,,,,498.954,505.6967,0.0,1.0,1.0,0.0,1.0,SoundStimuli/PartyRockAnthem_LMFAO_Original5S.wav,,,,,,,,,,,,,,,,,,,,,,,,,,,,,,,,,,,,,,,,,,,,,,,,,,,,,,,,,
,,,,,244222,1,2024-06-14_12h24.31.087,experiment,2024.1.5,Win32,75.75757576,666b5f73dbba3f0cd916b177,666c6e8b12f960dc41d0816b,,,,,,,,,,,,,,,,,,,,,,,,,,,,,,,,,,,,,,,,,,,,505.6968,507.188,6.05,1.4827,0.0,5.0,5.0,2.0,1.0,song_indices/PartyRockAnthem_LMFAO.csv,,,,,,,,,,,,,,,,,,,,,,,,,,,,,,,,,,,,,,,,,,,,,,,
,,,,,244222,1,2024-06-14_12h24.31.087,experiment,2024.1.5,Win32,75.75757576,666b5f73dbba3f0cd916b177,666c6e8b12f960dc41d0816b,,,,,,,,,,,,,,,,,,,,,,,,,,,,,,,,,,,,507.189,514.5377,0.0,0.0,0.0,0.0,1.0,SoundStimuli/Happy_PharellWilliams_Original5S.wav,,,,,,,,,,,,,,,,,,,,,,,,,,,,,,,,,,,,,,,,,,,,,,,,,,,,,,,,,
,,,,,244222,1,2024-06-14_12h24.31.087,experiment,2024.1.5,Win32,75.75757576,666b5f73dbba3f0cd916b177,666c6e8b12f960dc41d0816b,,,,,,,,,,,,,,,,,,,,,,,,,,,,,,,,,,,,514.5454,521.8866,0.0,1.0,1.0,1.0,1.0,SoundStimuli/Happy_PharellWilliams_Cover5S.wav,,,,,,,,,,,,,,,,,,,,,,,,,,,,,,,,,,,,,,,,,,,,,,,,,,,,,,,,,
,,,,,244222,1,2024-06-14_12h24.31.087,experiment,2024.1.5,Win32,75.75757576,666b5f73dbba3f0cd916b177,666c6e8b12f960dc41d0816b,,,,,,,,,,,,,,,,,,,,,,,,,,,,,,,,,,,,,,,,,,,,521.8868,526.0482,6.972222222,4.1471,0.0,6.0,6.0,7.0,1.0,song_indices/Happy_PharellWilliams.csv,,,,,,,,,,,,,,,,,,,,,,,,,,,,,,,,,,,,,,,,,,,,,,,
,,,,,244222,1,2024-06-14_12h24.31.087,experiment,2024.1.5,Win32,75.75757576,666b5f73dbba3f0cd916b177,666c6e8b12f960dc41d0816b,,,,,,,,,,,,,,,,,,,,,,,,,,,,,,,,,,,,526.0496,532.1037,0.0,0.0,0.0,1.0,1.0,SoundStimuli/RockWithYou_MichaelJackson_Cover5S.wav,,,,,,,,,,,,,,,,,,,,,,,,,,,,,,,,,,,,,,,,,,,,,,,,,,,,,,,,,
,,,,,244222,1,2024-06-14_12h24.31.087,experiment,2024.1.5,Win32,75.75757576,666b5f73dbba3f0cd916b177,666c6e8b12f960dc41d0816b,,,,,,,,,,,,,,,,,,,,,,,,,,,,,,,,,,,,532.1108,538.426,0.0,1.0,1.0,0.0,1.0,SoundStimuli/RockWithYou_MichaelJackson_Original5S.wav,,,,,,,,,,,,,,,,,,,,,,,,,,,,,,,,,,,,,,,,,,,,,,,,,,,,,,,,,
,,,,,244222,1,2024-06-14_12h24.31.087,experiment,2024.1.5,Win32,75.75757576,666b5f73dbba3f0cd916b177,666c6e8b12f960dc41d0816b,,,,,,,,,,,,,,,,,,,,,,,,,,,,,,,,,,,,,,,,,,,,538.4261,550.4438,6.933333333,12.0029,0.0,7.0,7.0,16.0,1.0,song_indices/RockWithYou_MichaelJackson.csv,,,,,,,,,,,,,,,,,,,,,,,,,,,,,,,,,,,,,,,,,,,,,,,
,,,,,244222,1,2024-06-14_12h24.31.087,experiment,2024.1.5,Win32,75.75757576,666b5f73dbba3f0cd916b177,666c6e8b12f960dc41d0816b,,,,,,,,,,,,,,,,,,,,,,,,,,,,,,,,,,,,550.4451,556.6593,0.0,0.0,0.0,1.0,1.0,SoundStimuli/NoOne_AliciaKeys_Cover5S.wav,,,,,,,,,,,,,,,,,,,,,,,,,,,,,,,,,,,,,,,,,,,,,,,,,,,,,,,,,
,,,,,244222,1,2024-06-14_12h24.31.087,experiment,2024.1.5,Win32,75.75757576,666b5f73dbba3f0cd916b177,666c6e8b12f960dc41d0816b,,,,,,,,,,,,,,,,,,,,,,,,,,,,,,,,,,,,556.6669,564.3823,0.0,1.0,1.0,0.0,1.0,SoundStimuli/NoOne_AliciaKeys_Original5S.wav,,,,,,,,,,,,,,,,,,,,,,,,,,,,,,,,,,,,,,,,,,,,,,,,,,,,,,,,,
,,,,,244222,1,2024-06-14_12h24.31.087,experiment,2024.1.5,Win32,75.75757576,666b5f73dbba3f0cd916b177,666c6e8b12f960dc41d0816b,,,,,,,,,,,,,,,,,,,,,,,,,,,,,,,,,,,,,,,,,,,,564.3825,566.9835,6.961111111,2.5863,0.0,8.0,8.0,19.0,1.0,song_indices/NoOne_AliciaKeys.csv,,,,,,,,,,,,,,,,,,,,,,,,,,,,,,,,,,,,,,,,,,,,,,,
,,,,,244222,1,2024-06-14_12h24.31.087,experiment,2024.1.5,Win32,75.75757576,666b5f73dbba3f0cd916b177,666c6e8b12f960dc41d0816b,,,,,,,,,,,,,,,,,,,,,,,,,,,,,,,,,,,,566.9847,572.9054,0.0,0.0,0.0,0.0,1.0,SoundStimuli/StandByMe_BenEKing_Original5S.wav,,,,,,,,,,,,,,,,,,,,,,,,,,,,,,,,,,,,,,,,,,,,,,,,,,,,,,,,,
,,,,,244222,1,2024-06-14_12h24.31.087,experiment,2024.1.5,Win32,75.75757576,666b5f73dbba3f0cd916b177,666c6e8b12f960dc41d0816b,,,,,,,,,,,,,,,,,,,,,,,,,,,,,,,,,,,,572.9125,578.9212,0.0,1.0,1.0,1.0,1.0,SoundStimuli/StandByMe_BenEKing_Cover5S.wav,,,,,,,,,,,,,,,,,,,,,,,,,,,,,,,,,,,,,,,,,,,,,,,,,,,,,,,,,
,,,,,244222,1,2024-06-14_12h24.31.087,experiment,2024.1.5,Win32,75.75757576,666b5f73dbba3f0cd916b177,666c6e8b12f960dc41d0816b,,,,,,,,,,,,,,,,,,,,,,,,,,,,,,,,,,,,,,,,,,,,578.9213,582.2822,6.955555556,3.3448,0.0,9.0,9.0,1.0,1.0,song_indices/StandByMe_BenEKing.csv,,,,,,,,,,,,,,,,,,,,,,,,,,,,,,,,,,,,,,,,,,,,,,,
,,,,,244222,1,2024-06-14_12h24.31.087,experiment,2024.1.5,Win32,75.75757576,666b5f73dbba3f0cd916b177,666c6e8b12f960dc41d0816b,,,,,,,,,,,,,,,,,,,,,,,,,,,,,,,,,,,,582.2835,589.298,0.0,0.0,0.0,1.0,1.0,SoundStimuli/UptownFunk_MarkRonson_Cover5S.wav,,,,,,,,,,,,,,,,,,,,,,,,,,,,,,,,,,,,,,,,,,,,,,,,,,,,,,,,,
,,,,,244222,1,2024-06-14_12h24.31.087,experiment,2024.1.5,Win32,75.75757576,666b5f73dbba3f0cd916b177,666c6e8b12f960dc41d0816b,,,,,,,,,,,,,,,,,,,,,,,,,,,,,,,,,,,,589.3055,596.5273,0.0,1.0,1.0,0.0,1.0,SoundStimuli/UptownFunk_MarkRonson_Original5S.wav,,,,,,,,,,,,,,,,,,,,,,,,,,,,,,,,,,,,,,,,,,,,,,,,,,,,,,,,,
,,,,,244222,1,2024-06-14_12h24.31.087,experiment,2024.1.5,Win32,75.75757576,666b5f73dbba3f0cd916b177,666c6e8b12f960dc41d0816b,,,,,,,,,,,,,,,,,,,,,,,,,,,,,,,,,,,,,,,,,,,,596.5275,598.0215,6.894444444,1.4773,0.0,10.0,10.0,15.0,1.0,song_indices/UptownFunk_MarkRonson.csv,,,,,,,,,,,,,,,,,,,,,,,,,,,,,,,,,,,,,,,,,,,,,,,
,,,,,244222,1,2024-06-14_12h24.31.087,experiment,2024.1.5,Win32,75.75757576,666b5f73dbba3f0cd916b177,666c6e8b12f960dc41d0816b,,,,,,,,,,,,,,,,,,,,,,,,,,,,,,,,,,,,598.0228,604.1172,0.0,0.0,0.0,0.0,1.0,SoundStimuli/GimmeShelter_RollingStones_Original5S.wav,,,,,,,,,,,,,,,,,,,,,,,,,,,,,,,,,,,,,,,,,,,,,,,,,,,,,,,,,
,,,,,244222,1,2024-06-14_12h24.31.087,experiment,2024.1.5,Win32,75.75757576,666b5f73dbba3f0cd916b177,666c6e8b12f960dc41d0816b,,,,,,,,,,,,,,,,,,,,,,,,,,,,,,,,,,,,604.1242,610.3327,0.0,1.0,1.0,1.0,1.0,SoundStimuli/GimmeShelter_RollingStones_Cover5S.wav,,,,,,,,,,,,,,,,,,,,,,,,,,,,,,,,,,,,,,,,,,,,,,,,,,,,,,,,,
,,,,,244222,1,2024-06-14_12h24.31.087,experiment,2024.1.5,Win32,75.75757576,666b5f73dbba3f0cd916b177,666c6e8b12f960dc41d0816b,,,,,,,,,,,,,,,,,,,,,,,,,,,,,,,,,,,,,,,,,,,,610.3329,615.9747,6.038888889,5.6316,0.0,11.0,11.0,20.0,1.0,song_indices/GimmeShelter_RollingStones.csv,,,,,,,,,,,,,,,,,,,,,,,,,,,,,,,,,,,,,,,,,,,,,,,
,,,,,244222,1,2024-06-14_12h24.31.087,experiment,2024.1.5,Win32,75.75757576,666b5f73dbba3f0cd916b177,666c6e8b12f960dc41d0816b,,,,,,,,,,,,,,,,,,,,,,,,,,,,,,,,,,,,615.9759,622.0968,0.0,0.0,0.0,1.0,1.0,SoundStimuli/NoScrubs_TLC_Cover5S.wav,,,,,,,,,,,,,,,,,,,,,,,,,,,,,,,,,,,,,,,,,,,,,,,,,,,,,,,,,
,,,,,244222,1,2024-06-14_12h24.31.087,experiment,2024.1.5,Win32,75.75757576,666b5f73dbba3f0cd916b177,666c6e8b12f960dc41d0816b,,,,,,,,,,,,,,,,,,,,,,,,,,,,,,,,,,,,622.1048,628.2859,0.0,1.0,1.0,0.0,1.0,SoundStimuli/NoScrubs_TLC_Original5S.wav,,,,,,,,,,,,,,,,,,,,,,,,,,,,,,,,,,,,,,,,,,,,,,,,,,,,,,,,,
,,,,,244222,1,2024-06-14_12h24.31.087,experiment,2024.1.5,Win32,75.75757576,666b5f73dbba3f0cd916b177,666c6e8b12f960dc41d0816b,,,,,,,,,,,,,,,,,,,,,,,,,,,,,,,,,,,,,,,,,,,,628.286,643.3979,6.911111111,15.0941,0.0,12.0,12.0,14.0,1.0,song_indices/NoScrubs_TLC.csv,,,,,,,,,,,,,,,,,,,,,,,,,,,,,,,,,,,,,,,,,,,,,,,
,,,,,244222,1,2024-06-14_12h24.31.087,experiment,2024.1.5,Win32,75.75757576,666b5f73dbba3f0cd916b177,666c6e8b12f960dc41d0816b,,,,,,,,,,,,,,,,,,,,,,,,,,,,,,,,,,,,643.3989,649.9341,0.0,0.0,0.0,0.0,1.0,SoundStimuli/CrazyInLove_BeyonceFtJayZ_Original5S.wav,,,,,,,,,,,,,,,,,,,,,,,,,,,,,,,,,,,,,,,,,,,,,,,,,,,,,,,,,
,,,,,244222,1,2024-06-14_12h24.31.087,experiment,2024.1.5,Win32,75.75757576,666b5f73dbba3f0cd916b177,666c6e8b12f960dc41d0816b,,,,,,,,,,,,,,,,,,,,,,,,,,,,,,,,,,,,649.9416,660.1774,0.0,1.0,1.0,1.0,1.0,SoundStimuli/CrazyInLove_BeyonceFtJayZ_Cover5S.wav,,,,,,,,,,,,,,,,,,,,,,,,,,,,,,,,,,,,,,,,,,,,,,,,,,,,,,,,,
,,,,,244222,1,2024-06-14_12h24.31.087,experiment,2024.1.5,Win32,75.75757576,666b5f73dbba3f0cd916b177,666c6e8b12f960dc41d0816b,,,,,,,,,,,,,,,,,,,,,,,,,,,,,,,,,,,,,,,,,,,,660.1774,663.2185,6.966666667,3.0284,0.0,13.0,13.0,3.0,1.0,song_indices/CrazyInLove_BeyonceFtJayZ.csv,,,,,,,,,,,,,,,,,,,,,,,,,,,,,,,,,,,,,,,,,,,,,,,
,,,,,244222,1,2024-06-14_12h24.31.087,experiment,2024.1.5,Win32,75.75757576,666b5f73dbba3f0cd916b177,666c6e8b12f960dc41d0816b,,,,,,,,,,,,,,,,,,,,,,,,,,,,,,,,,,,,663.2196,669.4209,0.0,0.0,0.0,0.0,1.0,SoundStimuli/SmellsLikeTeenSpirit_Nirvana_Original5S.wav,,,,,,,,,,,,,,,,,,,,,,,,,,,,,,,,,,,,,,,,,,,,,,,,,,,,,,,,,
,,,,,244222,1,2024-06-14_12h24.31.087,experiment,2024.1.5,Win32,75.75757576,666b5f73dbba3f0cd916b177,666c6e8b12f960dc41d0816b,,,,,,,,,,,,,,,,,,,,,,,,,,,,,,,,,,,,669.428,675.1831,0.0,1.0,1.0,1.0,1.0,SoundStimuli/SmellsLikeTeenSpirit_Nirvana_Cover5S.wav,,,,,,,,,,,,,,,,,,,,,,,,,,,,,,,,,,,,,,,,,,,,,,,,,,,,,,,,,
,,,,,244222,1,2024-06-14_12h24.31.087,experiment,2024.1.5,Win32,75.75757576,666b5f73dbba3f0cd916b177,666c6e8b12f960dc41d0816b,,,,,,,,,,,,,,,,,,,,,,,,,,,,,,,,,,,,,,,,,,,,675.1833,678.3316,6.866666667,3.1337,0.0,14.0,14.0,8.0,1.0,song_indices/SmellsLikeTeenSpirit_Nirvana.csv,,,,,,,,,,,,,,,,,,,,,,,,,,,,,,,,,,,,,,,,,,,,,,,
,,,,,244222,1,2024-06-14_12h24.31.087,experiment,2024.1.5,Win32,75.75757576,666b5f73dbba3f0cd916b177,666c6e8b12f960dc41d0816b,,,,,,,,,,,,,,,,,,,,,,,,,,,,,,,,,,,,678.3324,684.5328,0.0,0.0,0.0,0.0,1.0,SoundStimuli/BetteDavisEyes_KimCarnes_Original5S.wav,,,,,,,,,,,,,,,,,,,,,,,,,,,,,,,,,,,,,,,,,,,,,,,,,,,,,,,,,
,,,,,244222,1,2024-06-14_12h24.31.087,experiment,2024.1.5,Win32,75.75757576,666b5f73dbba3f0cd916b177,666c6e8b12f960dc41d0816b,,,,,,,,,,,,,,,,,,,,,,,,,,,,,,,,,,,,684.5394,690.2283,0.0,1.0,1.0,1.0,1.0,SoundStimuli/BetteDavisEyes_KimCarnes_Cover5S.wav,,,,,,,,,,,,,,,,,,,,,,,,,,,,,,,,,,,,,,,,,,,,,,,,,,,,,,,,,
,,,,,244222,1,2024-06-14_12h24.31.087,experiment,2024.1.5,Win32,75.75757576,666b5f73dbba3f0cd916b177,666c6e8b12f960dc41d0816b,,,,,,,,,,,,,,,,,,,,,,,,,,,,,,,,,,,,,,,,,,,,690.2285,692.8298,6.944444444,2.5859,0.0,15.0,15.0,5.0,1.0,song_indices/BetteDavisEyes_KimCarnes.csv,,,,,,,,,,,,,,,,,,,,,,,,,,,,,,,,,,,,,,,,,,,,,,,
,,,,,244222,1,2024-06-14_12h24.31.087,experiment,2024.1.5,Win32,75.75757576,666b5f73dbba3f0cd916b177,666c6e8b12f960dc41d0816b,,,,,,,,,,,,,,,,,,,,,,,,,,,,,,,,,,,,692.8305,698.7248,0.0,0.0,0.0,0.0,1.0,SoundStimuli/EyeOfTheTiger_Survivor_Original5S.wav,,,,,,,,,,,,,,,,,,,,,,,,,,,,,,,,,,,,,,,,,,,,,,,,,,,,,,,,,
,,,,,244222,1,2024-06-14_12h24.31.087,experiment,2024.1.5,Win32,75.75757576,666b5f73dbba3f0cd916b177,666c6e8b12f960dc41d0816b,,,,,,,,,,,,,,,,,,,,,,,,,,,,,,,,,,,,698.7322,704.8471,0.0,1.0,1.0,1.0,1.0,SoundStimuli/EyeOfTheTiger_Survivor_Cover5S.wav,,,,,,,,,,,,,,,,,,,,,,,,,,,,,,,,,,,,,,,,,,,,,,,,,,,,,,,,,
,,,,,244222,1,2024-06-14_12h24.31.087,experiment,2024.1.5,Win32,75.75757576,666b5f73dbba3f0cd916b177,666c6e8b12f960dc41d0816b,,,,,,,,,,,,,,,,,,,,,,,,,,,,,,,,,,,,,,,,,,,,704.8472,710.3958,5.077777778,5.5367,0.0,16.0,16.0,11.0,1.0,song_indices/EyeOfTheTiger_Survivor.csv,,,,,,,,,,,,,,,,,,,,,,,,,,,,,,,,,,,,,,,,,,,,,,,
,,,,,244222,1,2024-06-14_12h24.31.087,experiment,2024.1.5,Win32,75.75757576,666b5f73dbba3f0cd916b177,666c6e8b12f960dc41d0816b,,,,,,,,,,,,,,,,,,,,,,,,,,,,,,,,,,,,710.3969,716.6116,0.0,0.0,0.0,0.0,1.0,SoundStimuli/TheBoyIsMine_BrandyMonica_Original5S.wav,,,,,,,,,,,,,,,,,,,,,,,,,,,,,,,,,,,,,,,,,,,,,,,,,,,,,,,,,
,,,,,244222,1,2024-06-14_12h24.31.087,experiment,2024.1.5,Win32,75.75757576,666b5f73dbba3f0cd916b177,666c6e8b12f960dc41d0816b,,,,,,,,,,,,,,,,,,,,,,,,,,,,,,,,,,,,716.6187,722.5469,0.0,1.0,1.0,1.0,1.0,SoundStimuli/TheBoyIsMine_BrandyMonica_Cover5S.wav,,,,,,,,,,,,,,,,,,,,,,,,,,,,,,,,,,,,,,,,,,,,,,,,,,,,,,,,,
,,,,,244222,1,2024-06-14_12h24.31.087,experiment,2024.1.5,Win32,75.75757576,666b5f73dbba3f0cd916b177,666c6e8b12f960dc41d0816b,,,,,,,,,,,,,,,,,,,,,,,,,,,,,,,,,,,,,,,,,,,,722.5471,730.4833,6.877777778,7.9199,0.0,17.0,17.0,6.0,1.0,song_indices/TheBoyIsMine_BrandyMonica.csv,,,,,,,,,,,,,,,,,,,,,,,,,,,,,,,,,,,,,,,,,,,,,,,
,,,,,244222,1,2024-06-14_12h24.31.087,experiment,2024.1.5,Win32,75.75757576,666b5f73dbba3f0cd916b177,666c6e8b12f960dc41d0816b,,,,,,,,,,,,,,,,,,,,,,,,,,,,,,,,,,,,730.4841,736.872,0.0,0.0,0.0,0.0,1.0,SoundStimuli/IWillAlwaysLoveYou_WhitneyHouston_Original5S.wav,,,,,,,,,,,,,,,,,,,,,,,,,,,,,,,,,,,,,,,,,,,,,,,,,,,,,,,,,
,,,,,244222,1,2024-06-14_12h24.31.087,experiment,2024.1.5,Win32,75.75757576,666b5f73dbba3f0cd916b177,666c6e8b12f960dc41d0816b,,,,,,,,,,,,,,,,,,,,,,,,,,,,,,,,,,,,736.8791,742.7143,0.0,1.0,1.0,1.0,1.0,SoundStimuli/IWillAlwaysLoveYou_WhitneyHouston_Cover5S.wav,,,,,,,,,,,,,,,,,,,,,,,,,,,,,,,,,,,,,,,,,,,,,,,,,,,,,,,,,
,,,,,244222,1,2024-06-14_12h24.31.087,experiment,2024.1.5,Win32,75.75757576,666b5f73dbba3f0cd916b177,666c6e8b12f960dc41d0816b,,,,,,,,,,,,,,,,,,,,,,,,,,,,,,,,,,,,,,,,,,,,742.7144,747.9828,6.95,5.2549,0.0,18.0,18.0,10.0,1.0,song_indices/IWillAlwaysLoveYou_WhitneyHouston.csv,,,,,,,,,,,,,,,,,,,,,,,,,,,,,,,,,,,,,,,,,,,,,,,
,,,,,244222,1,2024-06-14_12h24.31.087,experiment,2024.1.5,Win32,75.75757576,666b5f73dbba3f0cd916b177,666c6e8b12f960dc41d0816b,,,,,,,,,,,,,,,,,,,,,,,,,,,,,,,,,,,,747.9841,754.2653,0.0,0.0,0.0,0.0,1.0,SoundStimuli/HeyYa_Outkast_Original5S.wav,,,,,,,,,,,,,,,,,,,,,,,,,,,,,,,,,,,,,,,,,,,,,,,,,,,,,,,,,
,,,,,244222,1,2024-06-14_12h24.31.087,experiment,2024.1.5,Win32,75.75757576,666b5f73dbba3f0cd916b177,666c6e8b12f960dc41d0816b,,,,,,,,,,,,,,,,,,,,,,,,,,,,,,,,,,,,754.2727,763.1751,0.0,1.0,1.0,1.0,1.0,SoundStimuli/HeyYa_Outkast_Cover5S.wav,,,,,,,,,,,,,,,,,,,,,,,,,,,,,,,,,,,,,,,,,,,,,,,,,,,,,,,,,
,,,,,244222,1,2024-06-14_12h24.31.087,experiment,2024.1.5,Win32,75.75757576,666b5f73dbba3f0cd916b177,666c6e8b12f960dc41d0816b,,,,,,,,,,,,,,,,,,,,,,,,,,,,,,,,,,,,,,,,,,,,763.1753,765.0957,4.872222222,1.912,0.0,19.0,19.0,22.0,1.0,song_indices/HeyYa_Outkast.csv,,,,,,,,,,,,,,,,,,,,,,,,,,,,,,,,,,,,,,,,,,,,,,,
,,,,,244222,1,2024-06-14_12h24.31.087,experiment,2024.1.5,Win32,75.75757576,666b5f73dbba3f0cd916b177,666c6e8b12f960dc41d0816b,,,,,,,,,,,,,,,,,,,,,,,,,,,,,,,,,,,,765.0967,771.1518,0.0,0.0,0.0,0.0,1.0,SoundStimuli/Stronger_KanyeWest_Original5S.wav,,,,,,,,,,,,,,,,,,,,,,,,,,,,,,,,,,,,,,,,,,,,,,,,,,,,,,,,,
,,,,,244222,1,2024-06-14_12h24.31.087,experiment,2024.1.5,Win32,75.75757576,666b5f73dbba3f0cd916b177,666c6e8b12f960dc41d0816b,,,,,,,,,,,,,,,,,,,,,,,,,,,,,,,,,,,,771.159,777.4738,0.0,1.0,1.0,1.0,1.0,SoundStimuli/Stronger_KanyeWest_Cover5S.wav,,,,,,,,,,,,,,,,,,,,,,,,,,,,,,,,,,,,,,,,,,,,,,,,,,,,,,,,,
,,,,,244222,1,2024-06-14_12h24.31.087,experiment,2024.1.5,Win32,75.75757576,666b5f73dbba3f0cd916b177,666c6e8b12f960dc41d0816b,,,,,,,,,,,,,,,,,,,,,,,,,,,,,,,,,,,,,,,,,,,,777.474,780.1149,2.033333333,2.6301,0.0,20.0,20.0,9.0,1.0,song_indices/Stronger_KanyeWest.csv,,,,,,,,,,,,,,,,,,,,,,,,,,,,,,,,,,,,,,,,,,,,,,,
,,,,,244222,1,2024-06-14_12h24.31.087,experiment,2024.1.5,Win32,75.75757576,666b5f73dbba3f0cd916b177,666c6e8b12f960dc41d0816b,,,,,,,,,,,,,,,,,,,,,,,,,,,,,,,,,,,,780.116,786.4636,0.0,0.0,0.0,1.0,1.0,SoundStimuli/GoodGollyMissMolly_LittleRichard_Cover5S.wav,,,,,,,,,,,,,,,,,,,,,,,,,,,,,,,,,,,,,,,,,,,,,,,,,,,,,,,,,
,,,,,244222,1,2024-06-14_12h24.31.087,experiment,2024.1.5,Win32,75.75757576,666b5f73dbba3f0cd916b177,666c6e8b12f960dc41d0816b,,,,,,,,,,,,,,,,,,,,,,,,,,,,,,,,,,,,786.4717,792.519,0.0,1.0,1.0,0.0,1.0,SoundStimuli/GoodGollyMissMolly_LittleRichard_Original5S.wav,,,,,,,,,,,,,,,,,,,,,,,,,,,,,,,,,,,,,,,,,,,,,,,,,,,,,,,,,
,,,,,244222,1,2024-06-14_12h24.31.087,experiment,2024.1.5,Win32,75.75757576,666b5f73dbba3f0cd916b177,666c6e8b12f960dc41d0816b,,,,,,,,,,,,,,,,,,,,,,,,,,,,,,,,,,,,,,,,,,,,792.5193,795.8939,4.022222222,3.3628,0.0,21.0,21.0,0.0,1.0,song_indices/GoodGollyMissMolly_LittleRichard.csv,,,,,,,,,,,,,,,,,,,,,,,,,,,,,,,,,,,,,,,,,,,,,,,
,,,,,244222,1,2024-06-14_12h24.31.087,experiment,2024.1.5,Win32,75.75757576,666b5f73dbba3f0cd916b177,666c6e8b12f960dc41d0816b,,,,,,,,,,,,,,,,,,,,,,,,,,,,,,,,,,,,795.8948,802.163,0.0,0.0,0.0,0.0,1.0,SoundStimuli/ItsAllInTheGame_TommyEdwards_Original5S.wav,,,,,,,,,,,,,,,,,,,,,,,,,,,,,,,,,,,,,,,,,,,,,,,,,,,,,,,,,
,,,,,244222,1,2024-06-14_12h24.31.087,experiment,2024.1.5,Win32,75.75757576,666b5f73dbba3f0cd916b177,666c6e8b12f960dc41d0816b,,,,,,,,,,,,,,,,,,,,,,,,,,,,,,,,,,,,802.1698,808.3918,0.0,1.0,1.0,1.0,1.0,SoundStimuli/ItsAllInTheGame_TommyEdwards_Cover5S.wav,,,,,,,,,,,,,,,,,,,,,,,,,,,,,,,,,,,,,,,,,,,,,,,,,,,,,,,,,
,,,,,244222,1,2024-06-14_12h24.31.087,experiment,2024.1.5,Win32,75.75757576,666b5f73dbba3f0cd916b177,666c6e8b12f960dc41d0816b,,,,,,,,,,,,,,,,,,,,,,,,,,,,,,,,,,,,,,,,,,,,808.3921,813.1266,3.944444444,4.7244,0.0,22.0,22.0,13.0,1.0,song_indices/ItsAllInTheGame_TommyEdwards.csv,,,,,,,,,,,,,,,,,,,,,,,,,,,,,,,,,,,,,,,,,,,,,,,
,,,,,244222,1,2024-06-14_12h24.31.087,experiment,2024.1.5,Win32,75.75757576,666b5f73dbba3f0cd916b177,666c6e8b12f960dc41d0816b,,,,,,,,,,,,,,,,,,,,,,,,,,,,,,,,,,,,,,,,,,,,,,,,,,,,,,813.127,823.8248,space,10.6812,,0.0,0.0,0.0,1.0,1.0,choose_song_b2.csv,,,,,,,,,,,,,,,,,,,,,,,,,,,,,,,,,,,,
,,,,,244222,1,2024-06-14_12h24.31.087,experiment,2024.1.5,Win32,75.75757576,666b5f73dbba3f0cd916b177,666c6e8b12f960dc41d0816b,,,,,,,,,,,,,,,,,,,,,,,,,,,,,,,,,,,,823.8263,829.9328,0.0,0.0,0.0,1.0,1.0,SoundStimuli/TossinAndTurnin_BobbyLewis_Cover5S.wav,,,,,,,,,,,,,,,,,,,,,,,,,,,,,,,,,,,,,,,,,,,,,,,,,,,,,,,,,
,,,,,244222,1,2024-06-14_12h24.31.087,experiment,2024.1.5,Win32,75.75757576,666b5f73dbba3f0cd916b177,666c6e8b12f960dc41d0816b,,,,,,,,,,,,,,,,,,,,,,,,,,,,,,,,,,,,829.9397,835.9884,0.0,1.0,1.0,0.0,1.0,SoundStimuli/TossinAndTurnin_BobbyLewis_Original5S.wav,,,,,,,,,,,,,,,,,,,,,,,,,,,,,,,,,,,,,,,,,,,,,,,,,,,,,,,,,
,,,,,244222,1,2024-06-14_12h24.31.087,experiment,2024.1.5,Win32,75.75757576,666b5f73dbba3f0cd916b177,666c6e8b12f960dc41d0816b,,,,,,,,,,,,,,,,,,,,,,,,,,,,,,,,,,,,,,,,,,,,835.9885,842.3373,4.027777778,6.3389,0.0,0.0,0.0,13.0,1.0,song_indices/TossinAndTurnin_BobbyLewis.csv,,,,,,,,,,,,,,,,,,,,,,,,,,,,,,,,,,,,,,,,,,,,,,,
,,,,,244222,1,2024-06-14_12h24.31.087,experiment,2024.1.5,Win32,75.75757576,666b5f73dbba3f0cd916b177,666c6e8b12f960dc41d0816b,,,,,,,,,,,,,,,,,,,,,,,,,,,,,,,,,,,,842.3384,848.4465,0.0,0.0,0.0,0.0,1.0,SoundStimuli/JoyToTheWorld_ThreeDogNight_Original5S.wav,,,,,,,,,,,,,,,,,,,,,,,,,,,,,,,,,,,,,,,,,,,,,,,,,,,,,,,,,
,,,,,244222,1,2024-06-14_12h24.31.087,experiment,2024.1.5,Win32,75.75757576,666b5f73dbba3f0cd916b177,666c6e8b12f960dc41d0816b,,,,,,,,,,,,,,,,,,,,,,,,,,,,,,,,,,,,848.4569,853.5683,0.0,1.0,1.0,1.0,1.0,SoundStimuli/JoyToTheWorld_ThreeDogNight_Cover5S.wav,,,,,,,,,,,,,,,,,,,,,,,,,,,,,,,,,,,,,,,,,,,,,,,,,,,,,,,,,
,,,,,244222,1,2024-06-14_12h24.31.087,experiment,2024.1.5,Win32,75.75757576,666b5f73dbba3f0cd916b177,666c6e8b12f960dc41d0816b,,,,,,,,,,,,,,,,,,,,,,,,,,,,,,,,,,,,,,,,,,,,853.5684,856.6094,5.033333333,3.0231,0.0,1.0,1.0,8.0,1.0,song_indices/JoyToTheWorld_ThreeDogNight.csv,,,,,,,,,,,,,,,,,,,,,,,,,,,,,,,,,,,,,,,,,,,,,,,
,,,,,244222,1,2024-06-14_12h24.31.087,experiment,2024.1.5,Win32,75.75757576,666b5f73dbba3f0cd916b177,666c6e8b12f960dc41d0816b,,,,,,,,,,,,,,,,,,,,,,,,,,,,,,,,,,,,856.6101,862.4782,0.0,0.0,0.0,0.0,1.0,SoundStimuli/Irreplaceable_Beyonce_Original5S.wav,,,,,,,,,,,,,,,,,,,,,,,,,,,,,,,,,,,,,,,,,,,,,,,,,,,,,,,,,
,,,,,244222,1,2024-06-14_12h24.31.087,experiment,2024.1.5,Win32,75.75757576,666b5f73dbba3f0cd916b177,666c6e8b12f960dc41d0816b,,,,,,,,,,,,,,,,,,,,,,,,,,,,,,,,,,,,862.4853,868.3872,0.0,1.0,1.0,1.0,1.0,SoundStimuli/Irreplaceable_Beyonce_Cover5S.wav,,,,,,,,,,,,,,,,,,,,,,,,,,,,,,,,,,,,,,,,,,,,,,,,,,,,,,,,,
,,,,,244222,1,2024-06-14_12h24.31.087,experiment,2024.1.5,Win32,75.75757576,666b5f73dbba3f0cd916b177,666c6e8b12f960dc41d0816b,,,,,,,,,,,,,,,,,,,,,,,,,,,,,,,,,,,,,,,,,,,,868.3874,870.6945,4.0,2.2902,0.0,2.0,2.0,19.0,1.0,song_indices/Irreplaceable_Beyonce.csv,,,,,,,,,,,,,,,,,,,,,,,,,,,,,,,,,,,,,,,,,,,,,,,
,,,,,244222,1,2024-06-14_12h24.31.087,experiment,2024.1.5,Win32,75.75757576,666b5f73dbba3f0cd916b177,666c6e8b12f960dc41d0816b,,,,,,,,,,,,,,,,,,,,,,,,,,,,,,,,,,,,870.6957,877.537,0.0,0.0,0.0,1.0,1.0,SoundStimuli/PokerFace_LadyGaga_Cover5S.wav,,,,,,,,,,,,,,,,,,,,,,,,,,,,,,,,,,,,,,,,,,,,,,,,,,,,,,,,,
,,,,,244222,1,2024-06-14_12h24.31.087,experiment,2024.1.5,Win32,75.75757576,666b5f73dbba3f0cd916b177,666c6e8b12f960dc41d0816b,,,,,,,,,,,,,,,,,,,,,,,,,,,,,,,,,,,,877.5445,884.5529,0.0,1.0,1.0,0.0,1.0,SoundStimuli/PokerFace_LadyGaga_Original5S.wav,,,,,,,,,,,,,,,,,,,,,,,,,,,,,,,,,,,,,,,,,,,,,,,,,,,,,,,,,
,,,,,244222,1,2024-06-14_12h24.31.087,experiment,2024.1.5,Win32,75.75757576,666b5f73dbba3f0cd916b177,666c6e8b12f960dc41d0816b,,,,,,,,,,,,,,,,,,,,,,,,,,,,,,,,,,,,,,,,,,,,884.5531,890.2749,5.033333333,5.7079,0.0,3.0,3.0,23.0,1.0,song_indices/PokerFace_LadyGaga.csv,,,,,,,,,,,,,,,,,,,,,,,,,,,,,,,,,,,,,,,,,,,,,,,
,,,,,244222,1,2024-06-14_12h24.31.087,experiment,2024.1.5,Win32,75.75757576,666b5f73dbba3f0cd916b177,666c6e8b12f960dc41d0816b,,,,,,,,,,,,,,,,,,,,,,,,,,,,,,,,,,,,890.2761,896.4639,0.0,0.0,0.0,0.0,1.0,SoundStimuli/SaveYourTears_TheWeekndArianaGrande_Original5S.wav,,,,,,,,,,,,,,,,,,,,,,,,,,,,,,,,,,,,,,,,,,,,,,,,,,,,,,,,,
,,,,,244222,1,2024-06-14_12h24.31.087,experiment,2024.1.5,Win32,75.75757576,666b5f73dbba3f0cd916b177,666c6e8b12f960dc41d0816b,,,,,,,,,,,,,,,,,,,,,,,,,,,,,,,,,,,,896.4715,902.3461,0.0,1.0,1.0,1.0,1.0,SoundStimuli/SaveYourTears_TheWeekndArianaGrande_Cover5S.wav,,,,,,,,,,,,,,,,,,,,,,,,,,,,,,,,,,,,,,,,,,,,,,,,,,,,,,,,,
,,,,,244222,1,2024-06-14_12h24.31.087,experiment,2024.1.5,Win32,75.75757576,666b5f73dbba3f0cd916b177,666c6e8b12f960dc41d0816b,,,,,,,,,,,,,,,,,,,,,,,,,,,,,,,,,,,,,,,,,,,,902.3462,906.3876,3.888888889,4.0289,0.0,4.0,4.0,12.0,1.0,song_indices/SaveYourTears_TheWeekndArianaGrande.csv,,,,,,,,,,,,,,,,,,,,,,,,,,,,,,,,,,,,,,,,,,,,,,,
,,,,,244222,1,2024-06-14_12h24.31.087,experiment,2024.1.5,Win32,75.75757576,666b5f73dbba3f0cd916b177,666c6e8b12f960dc41d0816b,,,,,,,,,,,,,,,,,,,,,,,,,,,,,,,,,,,,906.3883,910.3627,0.0,0.0,0.0,1.0,1.0,SoundStimuli/UnbreakMyHeart_ToniBraxton_Cover5S.wav,,,,,,,,,,,,,,,,,,,,,,,,,,,,,,,,,,,,,,,,,,,,,,,,,,,,,,,,,
,,,,,244222,1,2024-06-14_12h24.31.087,experiment,2024.1.5,Win32,75.75757576,666b5f73dbba3f0cd916b177,666c6e8b12f960dc41d0816b,,,,,,,,,,,,,,,,,,,,,,,,,,,,,,,,,,,,910.3704,916.458,0.0,1.0,1.0,0.0,1.0,SoundStimuli/UnbreakMyHeart_ToniBraxton_Original5S.wav,,,,,,,,,,,,,,,,,,,,,,,,,,,,,,,,,,,,,,,,,,,,,,,,,,,,,,,,,
,,,,,244222,1,2024-06-14_12h24.31.087,experiment,2024.1.5,Win32,75.75757576,666b5f73dbba3f0cd916b177,666c6e8b12f960dc41d0816b,,,,,,,,,,,,,,,,,,,,,,,,,,,,,,,,,,,,,,,,,,,,916.4581,920.54,4.916666667,4.0646,0.0,5.0,5.0,16.0,1.0,song_indices/UnbreakMyHeart_ToniBraxton.csv,,,,,,,,,,,,,,,,,,,,,,,,,,,,,,,,,,,,,,,,,,,,,,,
,,,,,244222,1,2024-06-14_12h24.31.087,experiment,2024.1.5,Win32,75.75757576,666b5f73dbba3f0cd916b177,666c6e8b12f960dc41d0816b,,,,,,,,,,,,,,,,,,,,,,,,,,,,,,,,,,,,920.5413,927.182,0.0,0.0,0.0,1.0,1.0,SoundStimuli/LetsGetItOn_MarvinGaye_Cover5S.wav,,,,,,,,,,,,,,,,,,,,,,,,,,,,,,,,,,,,,,,,,,,,,,,,,,,,,,,,,
,,,,,244222,1,2024-06-14_12h24.31.087,experiment,2024.1.5,Win32,75.75757576,666b5f73dbba3f0cd916b177,666c6e8b12f960dc41d0816b,,,,,,,,,,,,,,,,,,,,,,,,,,,,,,,,,,,,927.1894,933.4774,0.0,1.0,1.0,0.0,1.0,SoundStimuli/LetsGetItOn_MarvinGaye_Original5S.wav,,,,,,,,,,,,,,,,,,,,,,,,,,,,,,,,,,,,,,,,,,,,,,,,,,,,,,,,,
,,,,,244222,1,2024-06-14_12h24.31.087,experiment,2024.1.5,Win32,75.75757576,666b5f73dbba3f0cd916b177,666c6e8b12f960dc41d0816b,,,,,,,,,,,,,,,,,,,,,,,,,,,,,,,,,,,,,,,,,,,,933.4776,949.4834,3.872222222,15.9876,0.0,6.0,6.0,20.0,1.0,song_indices/LetsGetItOn_MarvinGaye.csv,,,,,,,,,,,,,,,,,,,,,,,,,,,,,,,,,,,,,,,,,,,,,,,
,,,,,244222,1,2024-06-14_12h24.31.087,experiment,2024.1.5,Win32,75.75757576,666b5f73dbba3f0cd916b177,666c6e8b12f960dc41d0816b,,,,,,,,,,,,,,,,,,,,,,,,,,,,,,,,,,,,949.4845,955.9527,0.0,0.0,0.0,1.0,1.0,SoundStimuli/Weak_SWV_Cover5S.wav,,,,,,,,,,,,,,,,,,,,,,,,,,,,,,,,,,,,,,,,,,,,,,,,,,,,,,,,,
,,,,,244222,1,2024-06-14_12h24.31.087,experiment,2024.1.5,Win32,75.75757576,666b5f73dbba3f0cd916b177,666c6e8b12f960dc41d0816b,,,,,,,,,,,,,,,,,,,,,,,,,,,,,,,,,,,,955.9599,962.0346,0.0,1.0,1.0,0.0,1.0,SoundStimuli/Weak_SWV_Original5S.wav,,,,,,,,,,,,,,,,,,,,,,,,,,,,,,,,,,,,,,,,,,,,,,,,,,,,,,,,,
,,,,,244222,1,2024-06-14_12h24.31.087,experiment,2024.1.5,Win32,75.75757576,666b5f73dbba3f0cd916b177,666c6e8b12f960dc41d0816b,,,,,,,,,,,,,,,,,,,,,,,,,,,,,,,,,,,,,,,,,,,,962.0348,978.2273,5.005555556,16.1852,0.0,7.0,7.0,6.0,1.0,song_indices/Weak_SWV.csv,,,,,,,,,,,,,,,,,,,,,,,,,,,,,,,,,,,,,,,,,,,,,,,
,,,,,244222,1,2024-06-14_12h24.31.087,experiment,2024.1.5,Win32,75.75757576,666b5f73dbba3f0cd916b177,666c6e8b12f960dc41d0816b,,,,,,,,,,,,,,,,,,,,,,,,,,,,,,,,,,,,978.2284,985.2832,0.0,0.0,0.0,1.0,1.0,SoundStimuli/ComeAndGetYourLove_Redbone_Cover5S.wav,,,,,,,,,,,,,,,,,,,,,,,,,,,,,,,,,,,,,,,,,,,,,,,,,,,,,,,,,
,,,,,244222,1,2024-06-14_12h24.31.087,experiment,2024.1.5,Win32,75.75757576,666b5f73dbba3f0cd916b177,666c6e8b12f960dc41d0816b,,,,,,,,,,,,,,,,,,,,,,,,,,,,,,,,,,,,985.2903,991.3787,0.0,1.0,1.0,0.0,1.0,SoundStimuli/ComeAndGetYourLove_Redbone_Original5S.wav,,,,,,,,,,,,,,,,,,,,,,,,,,,,,,,,,,,,,,,,,,,,,,,,,,,,,,,,,
,,,,,244222,1,2024-06-14_12h24.31.087,experiment,2024.1.5,Win32,75.75757576,666b5f73dbba3f0cd916b177,666c6e8b12f960dc41d0816b,,,,,,,,,,,,,,,,,,,,,,,,,,,,,,,,,,,,,,,,,,,,991.3789,995.0467,4.988888889,3.6537,0.0,8.0,8.0,22.0,1.0,song_indices/ComeAndGetYourLove_Redbone.csv,,,,,,,,,,,,,,,,,,,,,,,,,,,,,,,,,,,,,,,,,,,,,,,
,,,,,244222,1,2024-06-14_12h24.31.087,experiment,2024.1.5,Win32,75.75757576,666b5f73dbba3f0cd916b177,666c6e8b12f960dc41d0816b,,,,,,,,,,,,,,,,,,,,,,,,,,,,,,,,,,,,995.0476,1001.8492,0.0,0.0,0.0,1.0,1.0,SoundStimuli/SomebodyThatIUsedtoKnow_Gotye_Cover5S.wav,,,,,,,,,,,,,,,,,,,,,,,,,,,,,,,,,,,,,,,,,,,,,,,,,,,,,,,,,
,,,,,244222,1,2024-06-14_12h24.31.087,experiment,2024.1.5,Win32,75.75757576,666b5f73dbba3f0cd916b177,666c6e8b12f960dc41d0816b,,,,,,,,,,,,,,,,,,,,,,,,,,,,,,,,,,,,1001.8566,1009.0785,0.0,1.0,1.0,0.0,1.0,SoundStimuli/SomebodyThatIUsedtoKnow_Gotye_Original5S.wav,,,,,,,,,,,,,,,,,,,,,,,,,,,,,,,,,,,,,,,,,,,,,,,,,,,,,,,,,
,,,,,244222,1,2024-06-14_12h24.31.087,experiment,2024.1.5,Win32,75.75757576,666b5f73dbba3f0cd916b177,666c6e8b12f960dc41d0816b,,,,,,,,,,,,,,,,,,,,,,,,,,,,,,,,,,,,,,,,,,,,1009.0786,1015.9609,5.027777778,6.8733,0.0,9.0,9.0,7.0,1.0,song_indices/SomebodyThatIUsedtoKnow_Gotye.csv,,,,,,,,,,,,,,,,,,,,,,,,,,,,,,,,,,,,,,,,,,,,,,,
,,,,,244222,1,2024-06-14_12h24.31.087,experiment,2024.1.5,Win32,75.75757576,666b5f73dbba3f0cd916b177,666c6e8b12f960dc41d0816b,,,,,,,,,,,,,,,,,,,,,,,,,,,,,,,,,,,,1015.9616,1022.3367,0.0,0.0,0.0,0.0,1.0,SoundStimuli/FlashdanceWhatAFeeling_IreneCara_Original5S.wav,,,,,,,,,,,,,,,,,,,,,,,,,,,,,,,,,,,,,,,,,,,,,,,,,,,,,,,,,
,,,,,244222,1,2024-06-14_12h24.31.087,experiment,2024.1.5,Win32,75.75757576,666b5f73dbba3f0cd916b177,666c6e8b12f960dc41d0816b,,,,,,,,,,,,,,,,,,,,,,,,,,,,,,,,,,,,1022.3439,1029.6061,0.0,1.0,1.0,1.0,1.0,SoundStimuli/FlashdanceWhatAFeeling_IreneCara_Cover5S.wav,,,,,,,,,,,,,,,,,,,,,,,,,,,,,,,,,,,,,,,,,,,,,,,,,,,,,,,,,
,,,,,244222,1,2024-06-14_12h24.31.087,experiment,2024.1.5,Win32,75.75757576,666b5f73dbba3f0cd916b177,666c6e8b12f960dc41d0816b,,,,,,,,,,,,,,,,,,,,,,,,,,,,,,,,,,,,,,,,,,,,1029.6063,1030.7933,6.944444444,1.1687,0.0,10.0,10.0,18.0,1.0,song_indices/FlashdanceWhatAFeeling_IreneCara.csv,,,,,,,,,,,,,,,,,,,,,,,,,,,,,,,,,,,,,,,,,,,,,,,
,,,,,244222,1,2024-06-14_12h24.31.087,experiment,2024.1.5,Win32,75.75757576,666b5f73dbba3f0cd916b177,666c6e8b12f960dc41d0816b,,,,,,,,,,,,,,,,,,,,,,,,,,,,,,,,,,,,1030.7939,1036.2618,0.0,0.0,0.0,1.0,1.0,SoundStimuli/HowDoILive_LeAnnRimes_Cover5S.wav,,,,,,,,,,,,,,,,,,,,,,,,,,,,,,,,,,,,,,,,,,,,,,,,,,,,,,,,,
,,,,,244222,1,2024-06-14_12h24.31.087,experiment,2024.1.5,Win32,75.75757576,666b5f73dbba3f0cd916b177,666c6e8b12f960dc41d0816b,,,,,,,,,,,,,,,,,,,,,,,,,,,,,,,,,,,,1036.269,1042.2907,0.0,1.0,1.0,0.0,1.0,SoundStimuli/HowDoILive_LeAnnRimes_Original5S.wav,,,,,,,,,,,,,,,,,,,,,,,,,,,,,,,,,,,,,,,,,,,,,,,,,,,,,,,,,
,,,,,244222,1,2024-06-14_12h24.31.087,experiment,2024.1.5,Win32,75.75757576,666b5f73dbba3f0cd916b177,666c6e8b12f960dc41d0816b,,,,,,,,,,,,,,,,,,,,,,,,,,,,,,,,,,,,,,,,,,,,1042.2908,1053.4548,6.022222222,11.1562,0.0,11.0,11.0,17.0,1.0,song_indices/HowDoILive_LeAnnRimes.csv,,,,,,,,,,,,,,,,,,,,,,,,,,,,,,,,,,,,,,,,,,,,,,,
,,,,,244222,1,2024-06-14_12h24.31.087,experiment,2024.1.5,Win32,75.75757576,666b5f73dbba3f0cd916b177,666c6e8b12f960dc41d0816b,,,,,,,,,,,,,,,,,,,,,,,,,,,,,,,,,,,,1053.4558,1060.8842,0.0,0.0,0.0,0.0,1.0,SoundStimuli/Kiss_Prince_Original5S.wav,,,,,,,,,,,,,,,,,,,,,,,,,,,,,,,,,,,,,,,,,,,,,,,,,,,,,,,,,
,,,,,244222,1,2024-06-14_12h24.31.087,experiment,2024.1.5,Win32,75.75757576,666b5f73dbba3f0cd916b177,666c6e8b12f960dc41d0816b,,,,,,,,,,,,,,,,,,,,,,,,,,,,,,,,,,,,1060.891,1067.1533,0.0,1.0,1.0,1.0,1.0,SoundStimuli/Kiss_Prince_Cover5S.wav,,,,,,,,,,,,,,,,,,,,,,,,,,,,,,,,,,,,,,,,,,,,,,,,,,,,,,,,,
,,,,,244222,1,2024-06-14_12h24.31.087,experiment,2024.1.5,Win32,75.75757576,666b5f73dbba3f0cd916b177,666c6e8b12f960dc41d0816b,,,,,,,,,,,,,,,,,,,,,,,,,,,,,,,,,,,,,,,,,,,,1067.1535,1072.9553,4.894444444,5.7861,0.0,12.0,12.0,14.0,1.0,song_indices/Kiss_Prince.csv,,,,,,,,,,,,,,,,,,,,,,,,,,,,,,,,,,,,,,,,,,,,,,,
,,,,,244222,1,2024-06-14_12h24.31.087,experiment,2024.1.5,Win32,75.75757576,666b5f73dbba3f0cd916b177,666c6e8b12f960dc41d0816b,,,,,,,,,,,,,,,,,,,,,,,,,,,,,,,,,,,,1072.9559,1079.3978,0.0,0.0,0.0,1.0,1.0,SoundStimuli/YouLightUpMyLife_DebbyBoone_Cover5S.wav,,,,,,,,,,,,,,,,,,,,,,,,,,,,,,,,,,,,,,,,,,,,,,,,,,,,,,,,,
,,,,,244222,1,2024-06-14_12h24.31.087,experiment,2024.1.5,Win32,75.75757576,666b5f73dbba3f0cd916b177,666c6e8b12f960dc41d0816b,,,,,,,,,,,,,,,,,,,,,,,,,,,,,,,,,,,,1079.4052,1085.4821,0.0,1.0,1.0,0.0,1.0,SoundStimuli/YouLightUpMyLife_DebbyBoone_Original5S.wav,,,,,,,,,,,,,,,,,,,,,,,,,,,,,,,,,,,,,,,,,,,,,,,,,,,,,,,,,
,,,,,244222,1,2024-06-14_12h24.31.087,experiment,2024.1.5,Win32,75.75757576,666b5f73dbba3f0cd916b177,666c6e8b12f960dc41d0816b,,,,,,,,,,,,,,,,,,,,,,,,,,,,,,,,,,,,,,,,,,,,1085.4823,1121.6,5.005555556,36.1049,0.0,13.0,13.0,4.0,1.0,song_indices/YouLightUpMyLife_DebbyBoone.csv,,,,,,,,,,,,,,,,,,,,,,,,,,,,,,,,,,,,,,,,,,,,,,,
,,,,,244222,1,2024-06-14_12h24.31.087,experiment,2024.1.5,Win32,75.75757576,666b5f73dbba3f0cd916b177,666c6e8b12f960dc41d0816b,,,,,,,,,,,,,,,,,,,,,,,,,,,,,,,,,,,,1121.6013,1128.3491,0.0,0.0,0.0,0.0,1.0,SoundStimuli/BlurredLines_RobinThicke_Original5S.wav,,,,,,,,,,,,,,,,,,,,,,,,,,,,,,,,,,,,,,,,,,,,,,,,,,,,,,,,,
,,,,,244222,1,2024-06-14_12h24.31.087,experiment,2024.1.5,Win32,75.75757576,666b5f73dbba3f0cd916b177,666c6e8b12f960dc41d0816b,,,,,,,,,,,,,,,,,,,,,,,,,,,,,,,,,,,,1128.3566,1135.4454,0.0,1.0,1.0,1.0,1.0,SoundStimuli/BlurredLines_RobinThicke_Cover5S.wav,,,,,,,,,,,,,,,,,,,,,,,,,,,,,,,,,,,,,,,,,,,,,,,,,,,,,,,,,
,,,,,244222,1,2024-06-14_12h24.31.087,experiment,2024.1.5,Win32,75.75757576,666b5f73dbba3f0cd916b177,666c6e8b12f960dc41d0816b,,,,,,,,,,,,,,,,,,,,,,,,,,,,,,,,,,,,,,,,,,,,1135.4456,1148.1455,5.95,12.6925,0.0,14.0,14.0,9.0,1.0,song_indices/BlurredLines_RobinThicke.csv,,,,,,,,,,,,,,,,,,,,,,,,,,,,,,,,,,,,,,,,,,,,,,,
,,,,,244222,1,2024-06-14_12h24.31.087,experiment,2024.1.5,Win32,75.75757576,666b5f73dbba3f0cd916b177,666c6e8b12f960dc41d0816b,,,,,,,,,,,,,,,,,,,,,,,,,,,,,,,,,,,,1148.1461,1154.3452,0.0,0.0,0.0,0.0,1.0,SoundStimuli/Dilemma_NellyKellyRowland_Original5S.wav,,,,,,,,,,,,,,,,,,,,,,,,,,,,,,,,,,,,,,,,,,,,,,,,,,,,,,,,,
,,,,,244222,1,2024-06-14_12h24.31.087,experiment,2024.1.5,Win32,75.75757576,666b5f73dbba3f0cd916b177,666c6e8b12f960dc41d0816b,,,,,,,,,,,,,,,,,,,,,,,,,,,,,,,,,,,,1154.3547,1161.3343,0.0,1.0,1.0,1.0,1.0,SoundStimuli/Dilemma_NellyKellyRowland_Cover5S.wav,,,,,,,,,,,,,,,,,,,,,,,,,,,,,,,,,,,,,,,,,,,,,,,,,,,,,,,,,
,,,,,244222,1,2024-06-14_12h24.31.087,experiment,2024.1.5,Win32,75.75757576,666b5f73dbba3f0cd916b177,666c6e8b12f960dc41d0816b,,,,,,,,,,,,,,,,,,,,,,,,,,,,,,,,,,,,,,,,,,,,1161.3344,1165.2426,2.966666667,3.8902,0.0,15.0,15.0,2.0,1.0,song_indices/Dilemma_NellyKellyRowland.csv,,,,,,,,,,,,,,,,,,,,,,,,,,,,,,,,,,,,,,,,,,,,,,,
,,,,,244222,1,2024-06-14_12h24.31.087,experiment,2024.1.5,Win32,75.75757576,666b5f73dbba3f0cd916b177,666c6e8b12f960dc41d0816b,,,,,,,,,,,,,,,,,,,,,,,,,,,,,,,,,,,,1165.2437,1171.7519,0.0,0.0,0.0,0.0,1.0,SoundStimuli/Dreams_FleetwoodMac_Original5S.wav,,,,,,,,,,,,,,,,,,,,,,,,,,,,,,,,,,,,,,,,,,,,,,,,,,,,,,,,,
,,,,,244222,1,2024-06-14_12h24.31.087,experiment,2024.1.5,Win32,75.75757576,666b5f73dbba3f0cd916b177,666c6e8b12f960dc41d0816b,,,,,,,,,,,,,,,,,,,,,,,,,,,,,,,,,,,,1171.7596,1179.5813,0.0,1.0,1.0,1.0,1.0,SoundStimuli/Dreams_FleetwoodMac_Cover5S.wav,,,,,,,,,,,,,,,,,,,,,,,,,,,,,,,,,,,,,,,,,,,,,,,,,,,,,,,,,
,,,,,244222,1,2024-06-14_12h24.31.087,experiment,2024.1.5,Win32,75.75757576,666b5f73dbba3f0cd916b177,666c6e8b12f960dc41d0816b,,,,,,,,,,,,,,,,,,,,,,,,,,,,,,,,,,,,,,,,,,,,1179.5815,1238.2026,4.977777778,58.6025,0.0,16.0,16.0,1.0,1.0,song_indices/Dreams_FleetwoodMac.csv,,,,,,,,,,,,,,,,,,,,,,,,,,,,,,,,,,,,,,,,,,,,,,,
,,,,,244222,1,2024-06-14_12h24.31.087,experiment,2024.1.5,Win32,75.75757576,666b5f73dbba3f0cd916b177,666c6e8b12f960dc41d0816b,,,,,,,,,,,,,,,,,,,,,,,,,,,,,,,,,,,,1238.2037,1244.2048,0.0,0.0,0.0,1.0,1.0,SoundStimuli/TheSign_AceOfBase_Cover5S.wav,,,,,,,,,,,,,,,,,,,,,,,,,,,,,,,,,,,,,,,,,,,,,,,,,,,,,,,,,
,,,,,244222,1,2024-06-14_12h24.31.087,experiment,2024.1.5,Win32,75.75757576,666b5f73dbba3f0cd916b177,666c6e8b12f960dc41d0816b,,,,,,,,,,,,,,,,,,,,,,,,,,,,,,,,,,,,1244.2118,1250.3671,0.0,1.0,1.0,0.0,1.0,SoundStimuli/TheSign_AceOfBase_Original5S.wav,,,,,,,,,,,,,,,,,,,,,,,,,,,,,,,,,,,,,,,,,,,,,,,,,,,,,,,,,
,,,,,244222,1,2024-06-14_12h24.31.087,experiment,2024.1.5,Win32,75.75757576,666b5f73dbba3f0cd916b177,666c6e8b12f960dc41d0816b,,,,,,,,,,,,,,,,,,,,,,,,,,,,,,,,,,,,,,,,,,,,1250.3672,1256.4383,6.888888889,6.0641,0.0,17.0,17.0,5.0,1.0,song_indices/TheSign_AceOfBase.csv,,,,,,,,,,,,,,,,,,,,,,,,,,,,,,,,,,,,,,,,,,,,,,,
,,,,,244222,1,2024-06-14_12h24.31.087,experiment,2024.1.5,Win32,75.75757576,666b5f73dbba3f0cd916b177,666c6e8b12f960dc41d0816b,,,,,,,,,,,,,,,,,,,,,,,,,,,,,,,,,,,,1256.4388,1261.9448,0.0,0.0,0.0,1.0,1.0,SoundStimuli/LeFreak_Chic_Cover5S.wav,,,,,,,,,,,,,,,,,,,,,,,,,,,,,,,,,,,,,,,,,,,,,,,,,,,,,,,,,
,,,,,244222,1,2024-06-14_12h24.31.087,experiment,2024.1.5,Win32,75.75757576,666b5f73dbba3f0cd916b177,666c6e8b12f960dc41d0816b,,,,,,,,,,,,,,,,,,,,,,,,,,,,,,,,,,,,1261.9522,1267.9734,0.0,1.0,1.0,0.0,1.0,SoundStimuli/LeFreak_Chic_Original5S.wav,,,,,,,,,,,,,,,,,,,,,,,,,,,,,,,,,,,,,,,,,,,,,,,,,,,,,,,,,
,,,,,244222,1,2024-06-14_12h24.31.087,experiment,2024.1.5,Win32,75.75757576,666b5f73dbba3f0cd916b177,666c6e8b12f960dc41d0816b,,,,,,,,,,,,,,,,,,,,,,,,,,,,,,,,,,,,,,,,,,,,1267.9736,1288.2075,6.938888889,20.2259,0.0,18.0,18.0,11.0,1.0,song_indices/LeFreak_Chic.csv,,,,,,,,,,,,,,,,,,,,,,,,,,,,,,,,,,,,,,,,,,,,,,,
,,,,,244222,1,2024-06-14_12h24.31.087,experiment,2024.1.5,Win32,75.75757576,666b5f73dbba3f0cd916b177,666c6e8b12f960dc41d0816b,,,,,,,,,,,,,,,,,,,,,,,,,,,,,,,,,,,,1288.2085,1294.4102,0.0,0.0,0.0,0.0,1.0,SoundStimuli/TikTok_Kesha_Original5S.wav,,,,,,,,,,,,,,,,,,,,,,,,,,,,,,,,,,,,,,,,,,,,,,,,,,,,,,,,,
,,,,,244222,1,2024-06-14_12h24.31.087,experiment,2024.1.5,Win32,75.75757576,666b5f73dbba3f0cd916b177,666c6e8b12f960dc41d0816b,,,,,,,,,,,,,,,,,,,,,,,,,,,,,,,,,,,,1294.4173,1301.9461,0.0,1.0,1.0,1.0,1.0,SoundStimuli/TikTok_Kesha_Cover5S.wav,,,,,,,,,,,,,,,,,,,,,,,,,,,,,,,,,,,,,,,,,,,,,,,,,,,,,,,,,
,,,,,244222,1,2024-06-14_12h24.31.087,experiment,2024.1.5,Win32,75.75757576,666b5f73dbba3f0cd916b177,666c6e8b12f960dc41d0816b,,,,,,,,,,,,,,,,,,,,,,,,,,,,,,,,,,,,,,,,,,,,1301.9464,1311.7496,4.988888889,9.7848,0.0,19.0,19.0,3.0,1.0,song_indices/TikTok_Kesha.csv,,,,,,,,,,,,,,,,,,,,,,,,,,,,,,,,,,,,,,,,,,,,,,,
,,,,,244222,1,2024-06-14_12h24.31.087,experiment,2024.1.5,Win32,75.75757576,666b5f73dbba3f0cd916b177,666c6e8b12f960dc41d0816b,,,,,,,,,,,,,,,,,,,,,,,,,,,,,,,,,,,,1311.7508,1317.8853,0.0,0.0,0.0,0.0,1.0,SoundStimuli/Superstition_StevieWonder_Original5S.wav,,,,,,,,,,,,,,,,,,,,,,,,,,,,,,,,,,,,,,,,,,,,,,,,,,,,,,,,,
,,,,,244222,1,2024-06-14_12h24.31.087,experiment,2024.1.5,Win32,75.75757576,666b5f73dbba3f0cd916b177,666c6e8b12f960dc41d0816b,,,,,,,,,,,,,,,,,,,,,,,,,,,,,,,,,,,,1317.8921,1323.1805,0.0,1.0,1.0,1.0,1.0,SoundStimuli/Superstition_StevieWonder_Cover5S.wav,,,,,,,,,,,,,,,,,,,,,,,,,,,,,,,,,,,,,,,,,,,,,,,,,,,,,,,,,
,,,,,244222,1,2024-06-14_12h24.31.087,experiment,2024.1.5,Win32,75.75757576,666b5f73dbba3f0cd916b177,666c6e8b12f960dc41d0816b,,,,,,,,,,,,,,,,,,,,,,,,,,,,,,,,,,,,,,,,,,,,1323.1808,1327.5287,5.011111111,4.3345,0.0,20.0,20.0,15.0,1.0,song_indices/Superstition_StevieWonder.csv,,,,,,,,,,,,,,,,,,,,,,,,,,,,,,,,,,,,,,,,,,,,,,,
,,,,,244222,1,2024-06-14_12h24.31.087,experiment,2024.1.5,Win32,75.75757576,666b5f73dbba3f0cd916b177,666c6e8b12f960dc41d0816b,,,,,,,,,,,,,,,,,,,,,,,,,,,,,,,,,,,,1327.5297,1333.4509,0.0,0.0,0.0,0.0,1.0,SoundStimuli/Respect_ArethaFranklin_Original5S.wav,,,,,,,,,,,,,,,,,,,,,,,,,,,,,,,,,,,,,,,,,,,,,,,,,,,,,,,,,
,,,,,244222,1,2024-06-14_12h24.31.087,experiment,2024.1.5,Win32,75.75757576,666b5f73dbba3f0cd916b177,666c6e8b12f960dc41d0816b,,,,,,,,,,,,,,,,,,,,,,,,,,,,,,,,,,,,1333.458,1339.5065,0.0,1.0,1.0,1.0,1.0,SoundStimuli/Respect_ArethaFranklin_Cover5S.wav,,,,,,,,,,,,,,,,,,,,,,,,,,,,,,,,,,,,,,,,,,,,,,,,,,,,,,,,,
,,,,,244222,1,2024-06-14_12h24.31.087,experiment,2024.1.5,Win32,75.75757576,666b5f73dbba3f0cd916b177,666c6e8b12f960dc41d0816b,,,,,,,,,,,,,,,,,,,,,,,,,,,,,,,,,,,,,,,,,,,,1339.5066,1341.1336,3.033333333,1.6187,0.0,21.0,21.0,0.0,1.0,song_indices/Respect_ArethaFranklin.csv,,,,,,,,,,,,,,,,,,,,,,,,,,,,,,,,,,,,,,,,,,,,,,,
,,,,,244222,1,2024-06-14_12h24.31.087,experiment,2024.1.5,Win32,75.75757576,666b5f73dbba3f0cd916b177,666c6e8b12f960dc41d0816b,,,,,,,,,,,,,,,,,,,,,,,,,,,,,,,,,,,,1341.1344,1347.616,0.0,0.0,0.0,0.0,1.0,SoundStimuli/BlindingLights_TheWeeknd_Original5S.wav,,,,,,,,,,,,,,,,,,,,,,,,,,,,,,,,,,,,,,,,,,,,,,,,,,,,,,,,,
,,,,,244222,1,2024-06-14_12h24.31.087,experiment,2024.1.5,Win32,75.75757576,666b5f73dbba3f0cd916b177,666c6e8b12f960dc41d0816b,,,,,,,,,,,,,,,,,,,,,,,,,,,,,,,,,,,,1347.623,1354.4052,0.0,1.0,1.0,1.0,1.0,SoundStimuli/BlindingLights_TheWeeknd_Cover5S.wav,,,,,,,,,,,,,,,,,,,,,,,,,,,,,,,,,,,,,,,,,,,,,,,,,,,,,,,,,
,,,,,244222,1,2024-06-14_12h24.31.087,experiment,2024.1.5,Win32,75.75757576,666b5f73dbba3f0cd916b177,666c6e8b12f960dc41d0816b,,,,,,,,,,,,,,,,,,,,,,,,,,,,,,,,,,,,,,,,,,,,1354.4054,1365.2624,6.944444444,10.8493,0.0,22.0,22.0,21.0,1.0,song_indices/BlindingLights_TheWeeknd.csv,,,,,,,,,,,,,,,,,,,,,,,,,,,,,,,,,,,,,,,,,,,,,,,
,,,,,244222,1,2024-06-14_12h24.31.087,experiment,2024.1.5,Win32,75.75757576,666b5f73dbba3f0cd916b177,666c6e8b12f960dc41d0816b,,,,,,,,,,,,,,,,,,,,,,,,,,,,,,,,,,,,1365.2635,1371.2513,0.0,0.0,0.0,0.0,1.0,SoundStimuli/Levitating_DuaLipa_Original5S.wav,,,,,,,,,,,,,,,,,,,,,,,,,,,,,,,,,,,,,,,,,,,,,,,,,,,,,,,,,
,,,,,244222,1,2024-06-14_12h24.31.087,experiment,2024.1.5,Win32,75.75757576,666b5f73dbba3f0cd916b177,666c6e8b12f960dc41d0816b,,,,,,,,,,,,,,,,,,,,,,,,,,,,,,,,,,,,1371.2588,1376.96,0.0,1.0,1.0,1.0,1.0,SoundStimuli/Levitating_DuaLipa_Cover5S.wav,,,,,,,,,,,,,,,,,,,,,,,,,,,,,,,,,,,,,,,,,,,,,,,,,,,,,,,,,
,,,,,244222,1,2024-06-14_12h24.31.087,experiment,2024.1.5,Win32,75.75757576,666b5f73dbba3f0cd916b177,666c6e8b12f960dc41d0816b,,,,,,,,,,,,,,,,,,,,,,,,,,,,,,,,,,,,,,,,,,,,1376.9601,1393.5929,5.094444444,16.6188,0.0,23.0,23.0,10.0,1.0,song_indices/Levitating_DuaLipa.csv,,,,,,,,,,,,,,,,,,,,,,,,,,,,,,,,,,,,,,,,,,,,,,,
,,,,,244222,1,2024-06-14_12h24.31.087,experiment,2024.1.5,Win32,75.75757576,666b5f73dbba3f0cd916b177,666c6e8b12f960dc41d0816b,,,,,,,,,,,,,,,,,,,,,,,,,,,,,,,,,,,,,,,,,,,,,,,,,,,,,,1393.593,1562.8901,space,169.2739,0.007,0.0,1.0,1.0,2.0,1.0,choose_song_b3.csv,,,,,,,,,,,,,,,,,,,,,,,,,,,,,,,,,,,,
,,,,,244222,1,2024-06-14_12h24.31.087,experiment,2024.1.5,Win32,75.75757576,666b5f73dbba3f0cd916b177,666c6e8b12f960dc41d0816b,,,,,,,,,,,,,,,,,,,,,,,,,,,,,,,,,,,,1562.8915,1569.0839,0.0,0.0,0.0,1.0,1.0,SoundStimuli/LikeAPrayer_Madonna_Cover5S.wav,,,,,,,,,,,,,,,,,,,,,,,,,,,,,,,,,,,,,,,,,,,,,,,,,,,,,,,,,
,,,,,244222,1,2024-06-14_12h24.31.087,experiment,2024.1.5,Win32,75.75757576,666b5f73dbba3f0cd916b177,666c6e8b12f960dc41d0816b,,,,,,,,,,,,,,,,,,,,,,,,,,,,,,,,,,,,1569.0913,1575.2727,0.0,1.0,1.0,0.0,1.0,SoundStimuli/LikeAPrayer_Madonna_Original5S.wav,,,,,,,,,,,,,,,,,,,,,,,,,,,,,,,,,,,,,,,,,,,,,,,,,,,,,,,,,
,,,,,244222,1,2024-06-14_12h24.31.087,experiment,2024.1.5,Win32,75.75757576,666b5f73dbba3f0cd916b177,666c6e8b12f960dc41d0816b,,,,,,,,,,,,,,,,,,,,,,,,,,,,,,,,,,,,,,,,,,,,1575.2727,1577.6469,6.155555556,2.3621,0.0,0.0,0.0,7.0,1.0,song_indices/LikeAPrayer_Madonna.csv,,,,,,,,,,,,,,,,,,,,,,,,,,,,,,,,,,,,,,,,,,,,,,,
,,,,,244222,1,2024-06-14_12h24.31.087,experiment,2024.1.5,Win32,75.75757576,666b5f73dbba3f0cd916b177,666c6e8b12f960dc41d0816b,,,,,,,,,,,,,,,,,,,,,,,,,,,,,,,,,,,,1577.6477,1585.0251,0.0,0.0,0.0,0.0,1.0,SoundStimuli/OldTownRoad_LilNasX_Original5S.wav,,,,,,,,,,,,,,,,,,,,,,,,,,,,,,,,,,,,,,,,,,,,,,,,,,,,,,,,,
,,,,,244222,1,2024-06-14_12h24.31.087,experiment,2024.1.5,Win32,75.75757576,666b5f73dbba3f0cd916b177,666c6e8b12f960dc41d0816b,,,,,,,,,,,,,,,,,,,,,,,,,,,,,,,,,,,,1585.0323,1591.5322,0.0,1.0,1.0,1.0,1.0,SoundStimuli/OldTownRoad_LilNasX_Cover5S.wav,,,,,,,,,,,,,,,,,,,,,,,,,,,,,,,,,,,,,,,,,,,,,,,,,,,,,,,,,
,,,,,244222,1,2024-06-14_12h24.31.087,experiment,2024.1.5,Win32,75.75757576,666b5f73dbba3f0cd916b177,666c6e8b12f960dc41d0816b,,,,,,,,,,,,,,,,,,,,,,,,,,,,,,,,,,,,,,,,,,,,1591.5325,1620.5692,6.072222222,29.0271,0.0,1.0,1.0,20.0,1.0,song_indices/OldTownRoad_LilNasX.csv,,,,,,,,,,,,,,,,,,,,,,,,,,,,,,,,,,,,,,,,,,,,,,,
,,,,,244222,1,2024-06-14_12h24.31.087,experiment,2024.1.5,Win32,75.75757576,666b5f73dbba3f0cd916b177,666c6e8b12f960dc41d0816b,,,,,,,,,,,,,,,,,,,,,,,,,,,,,,,,,,,,1620.5701,1626.7051,0.0,0.0,0.0,0.0,1.0,SoundStimuli/LikeARollingStone_BobDylan_Original5S.wav,,,,,,,,,,,,,,,,,,,,,,,,,,,,,,,,,,,,,,,,,,,,,,,,,,,,,,,,,
,,,,,244222,1,2024-06-14_12h24.31.087,experiment,2024.1.5,Win32,75.75757576,666b5f73dbba3f0cd916b177,666c6e8b12f960dc41d0816b,,,,,,,,,,,,,,,,,,,,,,,,,,,,,,,,,,,,1626.7128,1631.0936,0.0,1.0,1.0,1.0,1.0,SoundStimuli/LikeARollingStone_BobDylan_Cover5S.wav,,,,,,,,,,,,,,,,,,,,,,,,,,,,,,,,,,,,,,,,,,,,,,,,,,,,,,,,,
,,,,,244222,1,2024-06-14_12h24.31.087,experiment,2024.1.5,Win32,75.75757576,666b5f73dbba3f0cd916b177,666c6e8b12f960dc41d0816b,,,,,,,,,,,,,,,,,,,,,,,,,,,,,,,,,,,,,,,,,,,,1631.0938,1664.9455,5.927777778,33.8436,0.0,2.0,2.0,12.0,1.0,song_indices/LikeARollingStone_BobDylan.csv,,,,,,,,,,,,,,,,,,,,,,,,,,,,,,,,,,,,,,,,,,,,,,,
,,,,,244222,1,2024-06-14_12h24.31.087,experiment,2024.1.5,Win32,75.75757576,666b5f73dbba3f0cd916b177,666c6e8b12f960dc41d0816b,,,,,,,,,,,,,,,,,,,,,,,,,,,,,,,,,,,,1664.9466,1670.9482,0.0,0.0,0.0,0.0,1.0,SoundStimuli/StayinAlive_BeeGees_Original5S.wav,,,,,,,,,,,,,,,,,,,,,,,,,,,,,,,,,,,,,,,,,,,,,,,,,,,,,,,,,
,,,,,244222,1,2024-06-14_12h24.31.087,experiment,2024.1.5,Win32,75.75757576,666b5f73dbba3f0cd916b177,666c6e8b12f960dc41d0816b,,,,,,,,,,,,,,,,,,,,,,,,,,,,,,,,,,,,1670.9549,1676.777,0.0,1.0,1.0,1.0,1.0,SoundStimuli/StayinAlive_BeeGees_Cover5S.wav,,,,,,,,,,,,,,,,,,,,,,,,,,,,,,,,,,,,,,,,,,,,,,,,,,,,,,,,,
,,,,,244222,1,2024-06-14_12h24.31.087,experiment,2024.1.5,Win32,75.75757576,666b5f73dbba3f0cd916b177,666c6e8b12f960dc41d0816b,,,,,,,,,,,,,,,,,,,,,,,,,,,,,,,,,,,,,,,,,,,,1676.7771,1682.472,6.938888889,5.688,0.0,3.0,3.0,2.0,1.0,song_indices/StayinAlive_BeeGees.csv,,,,,,,,,,,,,,,,,,,,,,,,,,,,,,,,,,,,,,,,,,,,,,,
,,,,,244222,1,2024-06-14_12h24.31.087,experiment,2024.1.5,Win32,75.75757576,666b5f73dbba3f0cd916b177,666c6e8b12f960dc41d0816b,,,,,,,,,,,,,,,,,,,,,,,,,,,,,,,,,,,,1682.473,1688.6079,0.0,0.0,0.0,1.0,1.0,SoundStimuli/Smooth_SantanaRobThomas_Cover5S.wav,,,,,,,,,,,,,,,,,,,,,,,,,,,,,,,,,,,,,,,,,,,,,,,,,,,,,,,,,
,,,,,244222,1,2024-06-14_12h24.31.087,experiment,2024.1.5,Win32,75.75757576,666b5f73dbba3f0cd916b177,666c6e8b12f960dc41d0816b,,,,,,,,,,,,,,,,,,,,,,,,,,,,,,,,,,,,1688.6145,1694.8233,0.0,1.0,1.0,0.0,1.0,SoundStimuli/Smooth_SantanaRobThomas_Original5S.wav,,,,,,,,,,,,,,,,,,,,,,,,,,,,,,,,,,,,,,,,,,,,,,,,,,,,,,,,,
,,,,,244222,1,2024-06-14_12h24.31.087,experiment,2024.1.5,Win32,75.75757576,666b5f73dbba3f0cd916b177,666c6e8b12f960dc41d0816b,,,,,,,,,,,,,,,,,,,,,,,,,,,,,,,,,,,,,,,,,,,,1694.8233,1705.9471,6.938888889,11.1149,0.0,4.0,4.0,4.0,1.0,song_indices/Smooth_SantanaRobThomas.csv,,,,,,,,,,,,,,,,,,,,,,,,,,,,,,,,,,,,,,,,,,,,,,,
,,,,,244222,1,2024-06-14_12h24.31.087,experiment,2024.1.5,Win32,75.75757576,666b5f73dbba3f0cd916b177,666c6e8b12f960dc41d0816b,,,,,,,,,,,,,,,,,,,,,,,,,,,,,,,,,,,,1705.9478,1712.2429,0.0,0.0,0.0,0.0,1.0,SoundStimuli/BridgeOverTroubledWater_SimonAndGarfunkel_Original5S.wav,,,,,,,,,,,,,,,,,,,,,,,,,,,,,,,,,,,,,,,,,,,,,,,,,,,,,,,,,
,,,,,244222,1,2024-06-14_12h24.31.087,experiment,2024.1.5,Win32,75.75757576,666b5f73dbba3f0cd916b177,666c6e8b12f960dc41d0816b,,,,,,,,,,,,,,,,,,,,,,,,,,,,,,,,,,,,1712.2495,1718.9388,0.0,1.0,1.0,1.0,1.0,SoundStimuli/BridgeOverTroubledWater_SimonAndGarfunkel_Cover5S.wav,,,,,,,,,,,,,,,,,,,,,,,,,,,,,,,,,,,,,,,,,,,,,,,,,,,,,,,,,
,,,,,244222,1,2024-06-14_12h24.31.087,experiment,2024.1.5,Win32,75.75757576,666b5f73dbba3f0cd916b177,666c6e8b12f960dc41d0816b,,,,,,,,,,,,,,,,,,,,,,,,,,,,,,,,,,,,,,,,,,,,1718.9389,1728.9825,5.983333333,10.0263,0.0,5.0,5.0,1.0,1.0,song_indices/BridgeOverTroubledWater_SimonAndGarfunkel.csv,,,,,,,,,,,,,,,,,,,,,,,,,,,,,,,,,,,,,,,,,,,,,,,
,,,,,244222,1,2024-06-14_12h24.31.087,experiment,2024.1.5,Win32,75.75757576,666b5f73dbba3f0cd916b177,666c6e8b12f960dc41d0816b,,,,,,,,,,,,,,,,,,,,,,,,,,,,,,,,,,,,1728.9836,1735.1046,0.0,0.0,0.0,0.0,1.0,SoundStimuli/StrawberryFieldsForever_TheBeatles_Original5S.wav,,,,,,,,,,,,,,,,,,,,,,,,,,,,,,,,,,,,,,,,,,,,,,,,,,,,,,,,,
,,,,,244222,1,2024-06-14_12h24.31.087,experiment,2024.1.5,Win32,75.75757576,666b5f73dbba3f0cd916b177,666c6e8b12f960dc41d0816b,,,,,,,,,,,,,,,,,,,,,,,,,,,,,,,,,,,,1735.1117,1742.1207,0.0,1.0,1.0,1.0,1.0,SoundStimuli/StrawberryFieldsForever_TheBeatles_Cover5S.wav,,,,,,,,,,,,,,,,,,,,,,,,,,,,,,,,,,,,,,,,,,,,,,,,,,,,,,,,,
,,,,,244222,1,2024-06-14_12h24.31.087,experiment,2024.1.5,Win32,75.75757576,666b5f73dbba3f0cd916b177,666c6e8b12f960dc41d0816b,,,,,,,,,,,,,,,,,,,,,,,,,,,,,,,,,,,,,,,,,,,,1742.1208,1745.0817,1.972222222,2.9433,0.0,6.0,6.0,14.0,1.0,song_indices/StrawberryFieldsForever_TheBeatles.csv,,,,,,,,,,,,,,,,,,,,,,,,,,,,,,,,,,,,,,,,,,,,,,,
,,,,,244222,1,2024-06-14_12h24.31.087,experiment,2024.1.5,Win32,75.75757576,666b5f73dbba3f0cd916b177,666c6e8b12f960dc41d0816b,,,,,,,,,,,,,,,,,,,,,,,,,,,,,,,,,,,,1745.0829,1751.339,0.0,0.0,0.0,1.0,1.0,SoundStimuli/MackTheKnife_BobbyDarin_Cover5S.wav,,,,,,,,,,,,,,,,,,,,,,,,,,,,,,,,,,,,,,,,,,,,,,,,,,,,,,,,,
,,,,,244222,1,2024-06-14_12h24.31.087,experiment,2024.1.5,Win32,75.75757576,666b5f73dbba3f0cd916b177,666c6e8b12f960dc41d0816b,,,,,,,,,,,,,,,,,,,,,,,,,,,,,,,,,,,,1751.346,1757.4729,0.0,1.0,1.0,0.0,1.0,SoundStimuli/MackTheKnife_BobbyDarin_Original5S.wav,,,,,,,,,,,,,,,,,,,,,,,,,,,,,,,,,,,,,,,,,,,,,,,,,,,,,,,,,
,,,,,244222,1,2024-06-14_12h24.31.087,experiment,2024.1.5,Win32,75.75757576,666b5f73dbba3f0cd916b177,666c6e8b12f960dc41d0816b,,,,,,,,,,,,,,,,,,,,,,,,,,,,,,,,,,,,,,,,,,,,1757.4729,1774.1724,4.833333333,16.6826,0.0,7.0,7.0,21.0,1.0,song_indices/MackTheKnife_BobbyDarin.csv,,,,,,,,,,,,,,,,,,,,,,,,,,,,,,,,,,,,,,,,,,,,,,,
,,,,,244222,1,2024-06-14_12h24.31.087,experiment,2024.1.5,Win32,75.75757576,666b5f73dbba3f0cd916b177,666c6e8b12f960dc41d0816b,,,,,,,,,,,,,,,,,,,,,,,,,,,,,,,,,,,,1774.1734,1781.8152,0.0,0.0,0.0,1.0,1.0,SoundStimuli/MyGirl_TheTemptations_Cover5S.wav,,,,,,,,,,,,,,,,,,,,,,,,,,,,,,,,,,,,,,,,,,,,,,,,,,,,,,,,,
,,,,,244222,1,2024-06-14_12h24.31.087,experiment,2024.1.5,Win32,75.75757576,666b5f73dbba3f0cd916b177,666c6e8b12f960dc41d0816b,,,,,,,,,,,,,,,,,,,,,,,,,,,,,,,,,,,,1781.8228,1788.2041,0.0,1.0,1.0,0.0,1.0,SoundStimuli/MyGirl_TheTemptations_Original5S.wav,,,,,,,,,,,,,,,,,,,,,,,,,,,,,,,,,,,,,,,,,,,,,,,,,,,,,,,,,
,,,,,244222,1,2024-06-14_12h24.31.087,experiment,2024.1.5,Win32,75.75757576,666b5f73dbba3f0cd916b177,666c6e8b12f960dc41d0816b,,,,,,,,,,,,,,,,,,,,,,,,,,,,,,,,,,,,,,,,,,,,1788.2043,1792.2857,5.061111111,4.0693,0.0,8.0,8.0,15.0,1.0,song_indices/MyGirl_TheTemptations.csv,,,,,,,,,,,,,,,,,,,,,,,,,,,,,,,,,,,,,,,,,,,,,,,
,,,,,244222,1,2024-06-14_12h24.31.087,experiment,2024.1.5,Win32,75.75757576,666b5f73dbba3f0cd916b177,666c6e8b12f960dc41d0816b,,,,,,,,,,,,,,,,,,,,,,,,,,,,,,,,,,,,1792.2867,1798.2215,0.0,0.0,0.0,1.0,1.0,SoundStimuli/IllMakeLoveToYou_BoyzIIMen_Cover5S.wav,,,,,,,,,,,,,,,,,,,,,,,,,,,,,,,,,,,,,,,,,,,,,,,,,,,,,,,,,
,,,,,244222,1,2024-06-14_12h24.31.087,experiment,2024.1.5,Win32,75.75757576,666b5f73dbba3f0cd916b177,666c6e8b12f960dc41d0816b,,,,,,,,,,,,,,,,,,,,,,,,,,,,,,,,,,,,1798.2287,1804.29,0.0,1.0,1.0,0.0,1.0,SoundStimuli/IllMakeLoveToYou_BoyzIIMen_Original5S.wav,,,,,,,,,,,,,,,,,,,,,,,,,,,,,,,,,,,,,,,,,,,,,,,,,,,,,,,,,
,,,,,244222,1,2024-06-14_12h24.31.087,experiment,2024.1.5,Win32,75.75757576,666b5f73dbba3f0cd916b177,666c6e8b12f960dc41d0816b,,,,,,,,,,,,,,,,,,,,,,,,,,,,,,,,,,,,,,,,,,,,1804.2901,1807.225,4.9,2.9163,0.0,9.0,9.0,6.0,1.0,song_indices/IllMakeLoveToYou_BoyzIIMen.csv,,,,,,,,,,,,,,,,,,,,,,,,,,,,,,,,,,,,,,,,,,,,,,,
,,,,,244222,1,2024-06-14_12h24.31.087,experiment,2024.1.5,Win32,75.75757576,666b5f73dbba3f0cd916b177,666c6e8b12f960dc41d0816b,,,,,,,,,,,,,,,,,,,,,,,,,,,,,,,,,,,,1807.2263,1813.2533,0.0,0.0,0.0,1.0,1.0,SoundStimuli/IWantToHoldYourHand_TheBeatles_Cover5S.wav,,,,,,,,,,,,,,,,,,,,,,,,,,,,,,,,,,,,,,,,,,,,,,,,,,,,,,,,,
,,,,,244222,1,2024-06-14_12h24.31.087,experiment,2024.1.5,Win32,75.75757576,666b5f73dbba3f0cd916b177,666c6e8b12f960dc41d0816b,,,,,,,,,,,,,,,,,,,,,,,,,,,,,,,,,,,,1813.2605,1819.0421,0.0,1.0,1.0,0.0,1.0,SoundStimuli/IWantToHoldYourHand_TheBeatles_Original5S.wav,,,,,,,,,,,,,,,,,,,,,,,,,,,,,,,,,,,,,,,,,,,,,,,,,,,,,,,,,
,,,,,244222,1,2024-06-14_12h24.31.087,experiment,2024.1.5,Win32,75.75757576,666b5f73dbba3f0cd916b177,666c6e8b12f960dc41d0816b,,,,,,,,,,,,,,,,,,,,,,,,,,,,,,,,,,,,,,,,,,,,1819.0423,1824.1505,5.972222222,5.1002,0.0,10.0,10.0,19.0,1.0,song_indices/IWantToHoldYourHand_TheBeatles.csv,,,,,,,,,,,,,,,,,,,,,,,,,,,,,,,,,,,,,,,,,,,,,,,
,,,,,244222,1,2024-06-14_12h24.31.087,experiment,2024.1.5,Win32,75.75757576,666b5f73dbba3f0cd916b177,666c6e8b12f960dc41d0816b,,,,,,,,,,,,,,,,,,,,,,,,,,,,,,,,,,,,1824.1517,1830.9798,0.0,0.0,0.0,1.0,1.0,SoundStimuli/IWannaDanceWithSomebody_WhitneyHouston_Cover5S.wav,,,,,,,,,,,,,,,,,,,,,,,,,,,,,,,,,,,,,,,,,,,,,,,,,,,,,,,,,
,,,,,244222,1,2024-06-14_12h24.31.087,experiment,2024.1.5,Win32,75.75757576,666b5f73dbba3f0cd916b177,666c6e8b12f960dc41d0816b,,,,,,,,,,,,,,,,,,,,,,,,,,,,,,,,,,,,1830.9873,1836.5821,0.0,1.0,1.0,0.0,1.0,SoundStimuli/IWannaDanceWithSomebody_WhitneyHouston_Original5S.wav,,,,,,,,,,,,,,,,,,,,,,,,,,,,,,,,,,,,,,,,,,,,,,,,,,,,,,,,,
,,,,,244222,1,2024-06-14_12h24.31.087,experiment,2024.1.5,Win32,75.75757576,666b5f73dbba3f0cd916b177,666c6e8b12f960dc41d0816b,,,,,,,,,,,,,,,,,,,,,,,,,,,,,,,,,,,,,,,,,,,,1836.5824,1846.8525,5.016666667,10.2542,0.0,11.0,11.0,13.0,1.0,song_indices/IWannaDanceWithSomebody_WhitneyHouston.csv,,,,,,,,,,,,,,,,,,,,,,,,,,,,,,,,,,,,,,,,,,,,,,,
,,,,,244222,1,2024-06-14_12h24.31.087,experiment,2024.1.5,Win32,75.75757576,666b5f73dbba3f0cd916b177,666c6e8b12f960dc41d0816b,,,,,,,,,,,,,,,,,,,,,,,,,,,,,,,,,,,,1846.8533,1855.1087,0.0,0.0,0.0,1.0,1.0,SoundStimuli/Perfect_EdSheeran_Cover5S.wav,,,,,,,,,,,,,,,,,,,,,,,,,,,,,,,,,,,,,,,,,,,,,,,,,,,,,,,,,
,,,,,244222,1,2024-06-14_12h24.31.087,experiment,2024.1.5,Win32,75.75757576,666b5f73dbba3f0cd916b177,666c6e8b12f960dc41d0816b,,,,,,,,,,,,,,,,,,,,,,,,,,,,,,,,,,,,1855.1158,1863.9654,0.0,1.0,1.0,0.0,1.0,SoundStimuli/Perfect_EdSheeran_Original5S.wav,,,,,,,,,,,,,,,,,,,,,,,,,,,,,,,,,,,,,,,,,,,,,,,,,,,,,,,,,
,,,,,244222,1,2024-06-14_12h24.31.087,experiment,2024.1.5,Win32,75.75757576,666b5f73dbba3f0cd916b177,666c6e8b12f960dc41d0816b,,,,,,,,,,,,,,,,,,,,,,,,,,,,,,,,,,,,,,,,,,,,1863.9655,1872.0223,5.15,8.0437,0.0,12.0,12.0,0.0,1.0,song_indices/Perfect_EdSheeran.csv,,,,,,,,,,,,,,,,,,,,,,,,,,,,,,,,,,,,,,,,,,,,,,,
,,,,,244222,1,2024-06-14_12h24.31.087,experiment,2024.1.5,Win32,75.75757576,666b5f73dbba3f0cd916b177,666c6e8b12f960dc41d0816b,,,,,,,,,,,,,,,,,,,,,,,,,,,,,,,,,,,,1872.0235,1878.2638,0.0,0.0,0.0,0.0,1.0,SoundStimuli/LivinOnAPrayer_BonJovi_Original5S.wav,,,,,,,,,,,,,,,,,,,,,,,,,,,,,,,,,,,,,,,,,,,,,,,,,,,,,,,,,
,,,,,244222,1,2024-06-14_12h24.31.087,experiment,2024.1.5,Win32,75.75757576,666b5f73dbba3f0cd916b177,666c6e8b12f960dc41d0816b,,,,,,,,,,,,,,,,,,,,,,,,,,,,,,,,,,,,1878.2716,1885.9334,0.0,1.0,1.0,1.0,1.0,SoundStimuli/LivinOnAPrayer_BonJovi_Cover5S.wav,,,,,,,,,,,,,,,,,,,,,,,,,,,,,,,,,,,,,,,,,,,,,,,,,,,,,,,,,
,,,,,244222,1,2024-06-14_12h24.31.087,experiment,2024.1.5,Win32,75.75757576,666b5f73dbba3f0cd916b177,666c6e8b12f960dc41d0816b,,,,,,,,,,,,,,,,,,,,,,,,,,,,,,,,,,,,,,,,,,,,1885.9335,1890.0681,3.988888889,4.1224,0.0,13.0,13.0,16.0,1.0,song_indices/LivinOnAPrayer_BonJovi.csv,,,,,,,,,,,,,,,,,,,,,,,,,,,,,,,,,,,,,,,,,,,,,,,
,,,,,244222,1,2024-06-14_12h24.31.087,experiment,2024.1.5,Win32,75.75757576,666b5f73dbba3f0cd916b177,666c6e8b12f960dc41d0816b,,,,,,,,,,,,,,,,,,,,,,,,,,,,,,,,,,,,1890.0687,1896.1104,0.0,0.0,0.0,0.0,1.0,SoundStimuli/AnotherOneBitesTheDust_Queen_Original5S.wav,,,,,,,,,,,,,,,,,,,,,,,,,,,,,,,,,,,,,,,,,,,,,,,,,,,,,,,,,
,,,,,244222,1,2024-06-14_12h24.31.087,experiment,2024.1.5,Win32,75.75757576,666b5f73dbba3f0cd916b177,666c6e8b12f960dc41d0816b,,,,,,,,,,,,,,,,,,,,,,,,,,,,,,,,,,,,1896.1179,1904.2333,0.0,1.0,1.0,1.0,1.0,SoundStimuli/AnotherOneBitesTheDust_Queen_Cover5S.wav,,,,,,,,,,,,,,,,,,,,,,,,,,,,,,,,,,,,,,,,,,,,,,,,,,,,,,,,,
,,,,,244222,1,2024-06-14_12h24.31.087,experiment,2024.1.5,Win32,75.75757576,666b5f73dbba3f0cd916b177,666c6e8b12f960dc41d0816b,,,,,,,,,,,,,,,,,,,,,,,,,,,,,,,,,,,,,,,,,,,,1904.2335,1905.9005,4.088888889,1.6583,0.0,14.0,14.0,9.0,1.0,song_indices/AnotherOneBitesTheDust_Queen.csv,,,,,,,,,,,,,,,,,,,,,,,,,,,,,,,,,,,,,,,,,,,,,,,
,,,,,244222,1,2024-06-14_12h24.31.087,experiment,2024.1.5,Win32,75.75757576,666b5f73dbba3f0cd916b177,666c6e8b12f960dc41d0816b,,,,,,,,,,,,,,,,,,,,,,,,,,,,,,,,,,,,1905.9011,1909.9691,0.0,0.0,0.0,1.0,1.0,SoundStimuli/BohemianRhapsody_Queen_Cover5S.wav,,,,,,,,,,,,,,,,,,,,,,,,,,,,,,,,,,,,,,,,,,,,,,,,,,,,,,,,,
,,,,,244222,1,2024-06-14_12h24.31.087,experiment,2024.1.5,Win32,75.75757576,666b5f73dbba3f0cd916b177,666c6e8b12f960dc41d0816b,,,,,,,,,,,,,,,,,,,,,,,,,,,,,,,,,,,,1909.9762,1915.931,0.0,1.0,1.0,0.0,1.0,SoundStimuli/BohemianRhapsody_Queen_Original5S.wav,,,,,,,,,,,,,,,,,,,,,,,,,,,,,,,,,,,,,,,,,,,,,,,,,,,,,,,,,
,,,,,244222,1,2024-06-14_12h24.31.087,experiment,2024.1.5,Win32,75.75757576,666b5f73dbba3f0cd916b177,666c6e8b12f960dc41d0816b,,,,,,,,,,,,,,,,,,,,,,,,,,,,,,,,,,,,,,,,,,,,1915.9312,1930.0028,4.033333333,14.0554,0.0,15.0,15.0,18.0,1.0,song_indices/BohemianRhapsody_Queen.csv,,,,,,,,,,,,,,,,,,,,,,,,,,,,,,,,,,,,,,,,,,,,,,,
,,,,,244222,1,2024-06-14_12h24.31.087,experiment,2024.1.5,Win32,75.75757576,666b5f73dbba3f0cd916b177,666c6e8b12f960dc41d0816b,,,,,,,,,,,,,,,,,,,,,,,,,,,,,,,,,,,,1930.0037,1937.499,0.0,0.0,0.0,1.0,1.0,SoundStimuli/EndlessLove_DianaRossLionelRichie_Cover5S.wav,,,,,,,,,,,,,,,,,,,,,,,,,,,,,,,,,,,,,,,,,,,,,,,,,,,,,,,,,
,,,,,244222,1,2024-06-14_12h24.31.087,experiment,2024.1.5,Win32,75.75757576,666b5f73dbba3f0cd916b177,666c6e8b12f960dc41d0816b,,,,,,,,,,,,,,,,,,,,,,,,,,,,,,,,,,,,1937.5065,1943.8346,0.0,1.0,1.0,0.0,1.0,SoundStimuli/EndlessLove_DianaRossLionelRichie_Original5S.wav,,,,,,,,,,,,,,,,,,,,,,,,,,,,,,,,,,,,,,,,,,,,,,,,,,,,,,,,,
,,,,,244222,1,2024-06-14_12h24.31.087,experiment,2024.1.5,Win32,75.75757576,666b5f73dbba3f0cd916b177,666c6e8b12f960dc41d0816b,,,,,,,,,,,,,,,,,,,,,,,,,,,,,,,,,,,,,,,,,,,,1943.8347,1963.3086,4.988888889,19.462,0.0,16.0,16.0,3.0,1.0,song_indices/EndlessLove_DianaRossLionelRichie.csv,,,,,,,,,,,,,,,,,,,,,,,,,,,,,,,,,,,,,,,,,,,,,,,
,,,,,244222,1,2024-06-14_12h24.31.087,experiment,2024.1.5,Win32,75.75757576,666b5f73dbba3f0cd916b177,666c6e8b12f960dc41d0816b,,,,,,,,,,,,,,,,,,,,,,,,,,,,,,,,,,,,1963.3098,1969.8576,0.0,0.0,0.0,0.0,1.0,SoundStimuli/Despacito_LuisFonsiDaddyYankee_Original5S.wav,,,,,,,,,,,,,,,,,,,,,,,,,,,,,,,,,,,,,,,,,,,,,,,,,,,,,,,,,
,,,,,244222,1,2024-06-14_12h24.31.087,experiment,2024.1.5,Win32,75.75757576,666b5f73dbba3f0cd916b177,666c6e8b12f960dc41d0816b,,,,,,,,,,,,,,,,,,,,,,,,,,,,,,,,,,,,1969.8642,1976.4331,0.0,1.0,1.0,1.0,1.0,SoundStimuli/Despacito_LuisFonsiDaddyYankee_Cover5S.wav,,,,,,,,,,,,,,,,,,,,,,,,,,,,,,,,,,,,,,,,,,,,,,,,,,,,,,,,,
,,,,,244222,1,2024-06-14_12h24.31.087,experiment,2024.1.5,Win32,75.75757576,666b5f73dbba3f0cd916b177,666c6e8b12f960dc41d0816b,,,,,,,,,,,,,,,,,,,,,,,,,,,,,,,,,,,,,,,,,,,,1976.4332,1977.6602,1.922222222,1.2094,0.0,17.0,17.0,11.0,1.0,song_indices/Despacito_LuisFonsiDaddyYankee.csv,,,,,,,,,,,,,,,,,,,,,,,,,,,,,,,,,,,,,,,,,,,,,,,
,,,,,244222,1,2024-06-14_12h24.31.087,experiment,2024.1.5,Win32,75.75757576,666b5f73dbba3f0cd916b177,666c6e8b12f960dc41d0816b,,,,,,,,,,,,,,,,,,,,,,,,,,,,,,,,,,,,1977.6616,1982.3686,0.0,0.0,0.0,1.0,1.0,SoundStimuli/AChangeIsGonnaCome_SamCooke_Cover5S.wav,,,,,,,,,,,,,,,,,,,,,,,,,,,,,,,,,,,,,,,,,,,,,,,,,,,,,,,,,
,,,,,244222,1,2024-06-14_12h24.31.087,experiment,2024.1.5,Win32,75.75757576,666b5f73dbba3f0cd916b177,666c6e8b12f960dc41d0816b,,,,,,,,,,,,,,,,,,,,,,,,,,,,,,,,,,,,1982.3755,1988.3976,0.0,1.0,1.0,0.0,1.0,SoundStimuli/AChangeIsGonnaCome_SamCooke_Original5S.wav,,,,,,,,,,,,,,,,,,,,,,,,,,,,,,,,,,,,,,,,,,,,,,,,,,,,,,,,,
,,,,,244222,1,2024-06-14_12h24.31.087,experiment,2024.1.5,Win32,75.75757576,666b5f73dbba3f0cd916b177,666c6e8b12f960dc41d0816b,,,,,,,,,,,,,,,,,,,,,,,,,,,,,,,,,,,,,,,,,,,,1988.3977,1992.9458,4.027777778,4.5324,0.0,18.0,18.0,17.0,1.0,song_indices/AChangeIsGonnaCome_SamCooke.csv,,,,,,,,,,,,,,,,,,,,,,,,,,,,,,,,,,,,,,,,,,,,,,,
,,,,,244222,1,2024-06-14_12h24.31.087,experiment,2024.1.5,Win32,75.75757576,666b5f73dbba3f0cd916b177,666c6e8b12f960dc41d0816b,,,,,,,,,,,,,,,,,,,,,,,,,,,,,,,,,,,,1992.9468,2001.2288,0.0,0.0,0.0,1.0,1.0,SoundStimuli/Mood_24kGoldnianndior_Cover5S.wav,,,,,,,,,,,,,,,,,,,,,,,,,,,,,,,,,,,,,,,,,,,,,,,,,,,,,,,,,
,,,,,244222,1,2024-06-14_12h24.31.087,experiment,2024.1.5,Win32,75.75757576,666b5f73dbba3f0cd916b177,666c6e8b12f960dc41d0816b,,,,,,,,,,,,,,,,,,,,,,,,,,,,,,,,,,,,2001.2358,2007.5247,0.0,1.0,1.0,0.0,1.0,SoundStimuli/Mood_24kGoldnianndior_Original5S.wav,,,,,,,,,,,,,,,,,,,,,,,,,,,,,,,,,,,,,,,,,,,,,,,,,,,,,,,,,
,,,,,244222,1,2024-06-14_12h24.31.087,experiment,2024.1.5,Win32,75.75757576,666b5f73dbba3f0cd916b177,666c6e8b12f960dc41d0816b,,,,,,,,,,,,,,,,,,,,,,,,,,,,,,,,,,,,,,,,,,,,2007.525,2019.3823,4.955555556,11.8386,0.0,19.0,19.0,5.0,1.0,song_indices/Mood_24kGoldnianndior.csv,,,,,,,,,,,,,,,,,,,,,,,,,,,,,,,,,,,,,,,,,,,,,,,
,,,,,244222,1,2024-06-14_12h24.31.087,experiment,2024.1.5,Win32,75.75757576,666b5f73dbba3f0cd916b177,666c6e8b12f960dc41d0816b,,,,,,,,,,,,,,,,,,,,,,,,,,,,,,,,,,,,2019.3834,2025.6262,0.0,0.0,0.0,0.0,1.0,SoundStimuli/GodOnlyKnows_TheBeachBoys_Original5S.wav,,,,,,,,,,,,,,,,,,,,,,,,,,,,,,,,,,,,,,,,,,,,,,,,,,,,,,,,,
,,,,,244222,1,2024-06-14_12h24.31.087,experiment,2024.1.5,Win32,75.75757576,666b5f73dbba3f0cd916b177,666c6e8b12f960dc41d0816b,,,,,,,,,,,,,,,,,,,,,,,,,,,,,,,,,,,,2025.6327,2032.4942,0.0,1.0,1.0,1.0,1.0,SoundStimuli/GodOnlyKnows_TheBeachBoys_Cover5S.wav,,,,,,,,,,,,,,,,,,,,,,,,,,,,,,,,,,,,,,,,,,,,,,,,,,,,,,,,,
,,,,,244222,1,2024-06-14_12h24.31.087,experiment,2024.1.5,Win32,75.75757576,666b5f73dbba3f0cd916b177,666c6e8b12f960dc41d0816b,,,,,,,,,,,,,,,,,,,,,,,,,,,,,,,,,,,,,,,,,,,,2032.4944,2039.7395,4.977777778,7.2371,0.0,20.0,20.0,8.0,1.0,song_indices/GodOnlyKnows_TheBeachBoys.csv,,,,,,,,,,,,,,,,,,,,,,,,,,,,,,,,,,,,,,,,,,,,,,,
,,,,,244222,1,2024-06-14_12h24.31.087,experiment,2024.1.5,Win32,75.75757576,666b5f73dbba3f0cd916b177,666c6e8b12f960dc41d0816b,,,,,,,,,,,,,,,,,,,,,,,,,,,,,,,,,,,,2039.7404,2047.2326,0.0,0.0,0.0,1.0,1.0,SoundStimuli/BadDay_DanielPowter_Cover5S.wav,,,,,,,,,,,,,,,,,,,,,,,,,,,,,,,,,,,,,,,,,,,,,,,,,,,,,,,,,
,,,,,244222,1,2024-06-14_12h24.31.087,experiment,2024.1.5,Win32,75.75757576,666b5f73dbba3f0cd916b177,666c6e8b12f960dc41d0816b,,,,,,,,,,,,,,,,,,,,,,,,,,,,,,,,,,,,2047.2397,2053.6748,0.0,1.0,1.0,0.0,1.0,SoundStimuli/BadDay_DanielPowter_Original5S.wav,,,,,,,,,,,,,,,,,,,,,,,,,,,,,,,,,,,,,,,,,,,,,,,,,,,,,,,,,
,,,,,244222,1,2024-06-14_12h24.31.087,experiment,2024.1.5,Win32,75.75757576,666b5f73dbba3f0cd916b177,666c6e8b12f960dc41d0816b,,,,,,,,,,,,,,,,,,,,,,,,,,,,,,,,,,,,,,,,,,,,2053.6749,2066.2662,4.833333333,12.5735,0.0,21.0,21.0,22.0,1.0,song_indices/BadDay_DanielPowter.csv,,,,,,,,,,,,,,,,,,,,,,,,,,,,,,,,,,,,,,,,,,,,,,,
,,,,,244222,1,2024-06-14_12h24.31.087,experiment,2024.1.5,Win32,75.75757576,666b5f73dbba3f0cd916b177,666c6e8b12f960dc41d0816b,,,,,,,,,,,,,,,,,,,,,,,,,,,,,,,,,,,,2066.2674,2074.8559,0.0,0.0,0.0,1.0,1.0,SoundStimuli/HeatWaves_GlassAnimals_Cover5S.wav,,,,,,,,,,,,,,,,,,,,,,,,,,,,,,,,,,,,,,,,,,,,,,,,,,,,,,,,,
,,,,,244222,1,2024-06-14_12h24.31.087,experiment,2024.1.5,Win32,75.75757576,666b5f73dbba3f0cd916b177,666c6e8b12f960dc41d0816b,,,,,,,,,,,,,,,,,,,,,,,,,,,,,,,,,,,,2074.8631,2080.9514,0.0,1.0,1.0,0.0,1.0,SoundStimuli/HeatWaves_GlassAnimals_Original5S.wav,,,,,,,,,,,,,,,,,,,,,,,,,,,,,,,,,,,,,,,,,,,,,,,,,,,,,,,,,
,,,,,244222,1,2024-06-14_12h24.31.087,experiment,2024.1.5,Win32,75.75757576,666b5f73dbba3f0cd916b177,666c6e8b12f960dc41d0816b,,,,,,,,,,,,,,,,,,,,,,,,,,,,,,,,,,,,,,,,,,,,2080.9516,2087.0471,5.927777778,6.0776,0.0,22.0,22.0,10.0,1.0,song_indices/HeatWaves_GlassAnimals.csv,,,,,,,,,,,,,,,,,,,,,,,,,,,,,,,,,,,,,,,,,,,,,,,
,,,,,244222,1,2024-06-14_12h24.31.087,experiment,2024.1.5,Win32,75.75757576,666b5f73dbba3f0cd916b177,666c6e8b12f960dc41d0816b,,,,,,,,,,,,,,,,,,,,,,,,,,,,,,,,,,,,,,,,,,,,,,,,,,,,,,2087.0472,2087.0473,,,,0.0,2.0,2.0,0.0,1.0,choose_song_b1.csv,,,,,,,,,,,,,,,,,,,,,,,,,,,,,,,,,,,,
,,,,,244222,1,2024-06-14_12h24.31.087,experiment,2024.1.5,Win32,75.75757576,666b5f73dbba3f0cd916b177,666c6e8b12f960dc41d0816b,,,,,,,,,,,,,,,,,,,,,,,,,,,,,,,,,,,,,,,,,,,,,,,,,,,,,,,,,,,,,,,,,22.0,Item 2,"Choir flute age 8-11, Self taught drums 10-12",Item 4,Youtube and Apple music ,5.0,7.0,"Exercise, house work, computer work, really everything ",Always,Often,Rarely,Rarely,Sometimes,Never,Rarely,Never,Sometimes,Rarely,Never,Rarely,Never,Rarely,Rarely,Never,Hip hop,Alternative/Alternative rock,Indie/Indie pop,"Being open to different kinds of artists but in the same genres that I listen to, also understanding why people love certain albums ",I really enjoy repeating a lot of songs based on how I'm feeling that day but I mostly gravitate towards music that is kind of euphoric and gives me a feeling of comfort reflecting my energy for that day ,0.0,0.0,0.0,0.0,1.0,,
,,,,,244222,1,2024-06-14_12h24.31.087,experiment,2024.1.5,Win32,75.75757576,666b5f73dbba3f0cd916b177,666c6e8b12f960dc41d0816b,,,,,,,,,,,,,,,,,,,,,,,,,,,,,,,,,,,,,,,,,,,,,,,,,,,,,,,,,,,,,,,,,,,,,,,,,,,,,,,,,,,,,,,,,,,,,,,,,,,2752.8421,2755.0792
