welcome.started,welcome.stopped,space_to_continue.keys,space_to_continue.rt,space_to_continue.duration,participant,session,date,expName,psychopyVersion,OS,frameRate,STUDY_ID,SESSION_ID,consent.consent,consent.consent_recontact,consent_check.started,consent_check.stopped,calibration_ready.started,calibration_ready.stopped,cal_ready.keys,cal_ready.rt,cal_ready.duration,calibration.started,calibration.stopped,mouse.x,mouse.y,mouse.leftButton,mouse.midButton,mouse.rightButton,mouse.time,mouse.clicked_name,move_on.keys,move_on.rt,move_on.duration,instructions.started,instructions.stopped,next.keys,next.rt,next.duration,practice_trial.started,practice_trial.stopped,practice_slider.response,practice_slider.rt,ready.started,ready.stopped,key_resp.keys,key_resp.rt,key_resp.duration,play_sound.started,play_sound.stopped,trials.thisRepN,trials.thisTrialN,trials.thisN,trials.thisIndex,trials.ran,orig_or_cover,rating.started,rating.stopped,slider.response,slider.rt,songs.thisRepN,songs.thisTrialN,songs.thisN,songs.thisIndex,songs.ran,song_id,short_break.started,short_break.stopped,space_to_move_on.keys,space_to_move_on.rt,space_to_move_on.duration,blocks.thisRepN,blocks.thisTrialN,blocks.thisN,blocks.thisIndex,blocks.ran,block,survey.age,survey.musician,survey.music_making,survey.listen_time,survey.medium,survey.music_seeking,survey.music_choice,survey.activities,survey.question1.Classic rock,survey.question1.Pop,survey.question1.Classical,survey.question1.Folk/indie,survey.question1.Reggae,survey.question1.A cappella,survey.question1.Alternative rock,survey.question1.R&B,survey.question1.Hip hop,survey.question1.Jazz,survey.question1.Country,survey.question1.Disco,survey.question1.Latin,survey.question1.Electronic (EDM),survey.question1.Metal,survey.question1.Ambient,survey.other_genres,survey.genres_ranked.text1,survey.genres_ranked.text2,survey.genres_ranked.text3,survey.habit_change,survey.habits,experiment.thisRepN,experiment.thisTrialN,experiment.thisN,experiment.thisIndex,experiment.ran,goodbye.started,goodbye.stopped
0.0003,2636.3673,space,2636.358,,335991,1,2024-06-17_10h52.47.712,experiment,2024.1.5,MacIntel,60.24096386,667045947eb812cbdacbf325,66704aaaf5f945d019245d3f,,,,,,,,,,,,,,,,,,,,,,,,,,,,,,,,,,,,,,,,,,,,,,,,,,,,,,,,,,,,,,,,,,,,,,,,,,,,,,,,,,,,,,,,,,,,,,,,,,,,,
,,,,,335991,1,2024-06-17_10h52.47.712,experiment,2024.1.5,MacIntel,60.24096386,667045947eb812cbdacbf325,66704aaaf5f945d019245d3f,yes,yes,,,,,,,,,,,,,,,,,,,,,,,,,,,,,,,,,,,,,,,,,,,,,,,,,,,,,,,,,,,,,,,,,,,,,,,,,,,,,,,,,,,,,,,,,,,,,,,,,,,
,,,,,335991,1,2024-06-17_10h52.47.712,experiment,2024.1.5,MacIntel,60.24096386,667045947eb812cbdacbf325,66704aaaf5f945d019245d3f,,,2649.5386,2649.5388,,,,,,,,,,,,,,,,,,,,,,,,,,,,,,,,,,,,,,,,,,,,,,,,,,,,,,,,,,,,,,,,,,,,,,,,,,,,,,,,,,,,,,,,,,,,,,,,,
,,,,,335991,1,2024-06-17_10h52.47.712,experiment,2024.1.5,MacIntel,60.24096386,667045947eb812cbdacbf325,66704aaaf5f945d019245d3f,,,,,2649.5412,2757.9277,space,108.3684,,2757.9279,2784.8107,"[-0.018148199555837564,-0.004129322652284264]","[-0.43027244606598986,-0.4277591608502538]","[1,1]","[0,0]","[0,0]","[6.92819999998801,25.864800000011655]","[""play_button"",""play_button""]",right,16.8518,,2784.8111,2814.1094,space,29.2745,,2814.1096,2829.4563,4.991513325,15.3363,2829.4566,2830.4413,space,0.9714,,2830.4593,2836.7087,0.0,0.0,0.0,0.0,1.0,SoundStimuli/GodOnlyKnows_TheBeachBoys_Original5S.wav,,,,,,,,,,,,,,,,,,,,,,,,,,,,,,,,,,,,,,,,,,,,,,,,,,,,,,,,,,
,,,,,335991,1,2024-06-17_10h52.47.712,experiment,2024.1.5,MacIntel,60.24096386,667045947eb812cbdacbf325,66704aaaf5f945d019245d3f,,,,,,,,,,,,,,,,,,,,,,,,,,,,,,,,,,,,2836.7187,2843.5747,0.0,1.0,1.0,1.0,1.0,SoundStimuli/GodOnlyKnows_TheBeachBoys_Cover5S.wav,,,,,,,,,,,,,,,,,,,,,,,,,,,,,,,,,,,,,,,,,,,,,,,,,,,,,,,,,,
,,,,,335991,1,2024-06-17_10h52.47.712,experiment,2024.1.5,MacIntel,60.24096386,667045947eb812cbdacbf325,66704aaaf5f945d019245d3f,,,,,,,,,,,,,,,,,,,,,,,,,,,,,,,,,,,,,,,,,,,,2843.5855,2845.805,4.026441545,2.2111,0.0,0.0,0.0,8.0,1.0,song_indices/GodOnlyKnows_TheBeachBoys.csv,,,,,,,,,,,,,,,,,,,,,,,,,,,,,,,,,,,,,,,,,,,,,,,,
,,,,,335991,1,2024-06-17_10h52.47.712,experiment,2024.1.5,MacIntel,60.24096386,667045947eb812cbdacbf325,66704aaaf5f945d019245d3f,,,,,,,,,,,,,,,,,,,,,,,,,,,,,,,,,,,,2845.8067,2850.2072,0.0,0.0,0.0,1.0,1.0,SoundStimuli/LikeARollingStone_BobDylan_Cover5S.wav,,,,,,,,,,,,,,,,,,,,,,,,,,,,,,,,,,,,,,,,,,,,,,,,,,,,,,,,,,
,,,,,335991,1,2024-06-17_10h52.47.712,experiment,2024.1.5,MacIntel,60.24096386,667045947eb812cbdacbf325,66704aaaf5f945d019245d3f,,,,,,,,,,,,,,,,,,,,,,,,,,,,,,,,,,,,2850.2155,2856.3551,0.0,1.0,1.0,0.0,1.0,SoundStimuli/LikeARollingStone_BobDylan_Original5S.wav,,,,,,,,,,,,,,,,,,,,,,,,,,,,,,,,,,,,,,,,,,,,,,,,,,,,,,,,,,
,,,,,335991,1,2024-06-17_10h52.47.712,experiment,2024.1.5,MacIntel,60.24096386,667045947eb812cbdacbf325,66704aaaf5f945d019245d3f,,,,,,,,,,,,,,,,,,,,,,,,,,,,,,,,,,,,,,,,,,,,2856.3554,2859.0211,6.00203244,2.6438,0.0,1.0,1.0,12.0,1.0,song_indices/LikeARollingStone_BobDylan.csv,,,,,,,,,,,,,,,,,,,,,,,,,,,,,,,,,,,,,,,,,,,,,,,,
,,,,,335991,1,2024-06-17_10h52.47.712,experiment,2024.1.5,MacIntel,60.24096386,667045947eb812cbdacbf325,66704aaaf5f945d019245d3f,,,,,,,,,,,,,,,,,,,,,,,,,,,,,,,,,,,,2859.0225,2865.59,0.0,0.0,0.0,0.0,1.0,SoundStimuli/Despacito_LuisFonsiDaddyYankee_Original5S.wav,,,,,,,,,,,,,,,,,,,,,,,,,,,,,,,,,,,,,,,,,,,,,,,,,,,,,,,,,,
,,,,,335991,1,2024-06-17_10h52.47.712,experiment,2024.1.5,MacIntel,60.24096386,667045947eb812cbdacbf325,66704aaaf5f945d019245d3f,,,,,,,,,,,,,,,,,,,,,,,,,,,,,,,,,,,,2865.5992,2872.1725,0.0,1.0,1.0,1.0,1.0,SoundStimuli/Despacito_LuisFonsiDaddyYankee_Cover5S.wav,,,,,,,,,,,,,,,,,,,,,,,,,,,,,,,,,,,,,,,,,,,,,,,,,,,,,,,,,,
,,,,,335991,1,2024-06-17_10h52.47.712,experiment,2024.1.5,MacIntel,60.24096386,667045947eb812cbdacbf325,66704aaaf5f945d019245d3f,,,,,,,,,,,,,,,,,,,,,,,,,,,,,,,,,,,,,,,,,,,,2872.1727,2872.9883,6.98483106,0.7974,0.0,2.0,2.0,11.0,1.0,song_indices/Despacito_LuisFonsiDaddyYankee.csv,,,,,,,,,,,,,,,,,,,,,,,,,,,,,,,,,,,,,,,,,,,,,,,,
,,,,,335991,1,2024-06-17_10h52.47.712,experiment,2024.1.5,MacIntel,60.24096386,667045947eb812cbdacbf325,66704aaaf5f945d019245d3f,,,,,,,,,,,,,,,,,,,,,,,,,,,,,,,,,,,,2872.9897,2879.4392,0.0,0.0,0.0,0.0,1.0,SoundStimuli/BadDay_DanielPowter_Original5S.wav,,,,,,,,,,,,,,,,,,,,,,,,,,,,,,,,,,,,,,,,,,,,,,,,,,,,,,,,,,
,,,,,335991,1,2024-06-17_10h52.47.712,experiment,2024.1.5,MacIntel,60.24096386,667045947eb812cbdacbf325,66704aaaf5f945d019245d3f,,,,,,,,,,,,,,,,,,,,,,,,,,,,,,,,,,,,2879.4474,2886.9392,0.0,1.0,1.0,1.0,1.0,SoundStimuli/BadDay_DanielPowter_Cover5S.wav,,,,,,,,,,,,,,,,,,,,,,,,,,,,,,,,,,,,,,,,,,,,,,,,,,,,,,,,,,
,,,,,335991,1,2024-06-17_10h52.47.712,experiment,2024.1.5,MacIntel,60.24096386,667045947eb812cbdacbf325,66704aaaf5f945d019245d3f,,,,,,,,,,,,,,,,,,,,,,,,,,,,,,,,,,,,,,,,,,,,2886.9394,2888.8893,3.998661564,1.9309,0.0,3.0,3.0,22.0,1.0,song_indices/BadDay_DanielPowter.csv,,,,,,,,,,,,,,,,,,,,,,,,,,,,,,,,,,,,,,,,,,,,,,,,
,,,,,335991,1,2024-06-17_10h52.47.712,experiment,2024.1.5,MacIntel,60.24096386,667045947eb812cbdacbf325,66704aaaf5f945d019245d3f,,,,,,,,,,,,,,,,,,,,,,,,,,,,,,,,,,,,2888.8905,2895.1886,0.0,0.0,0.0,0.0,1.0,SoundStimuli/Mood_24kGoldnianndior_Original5S.wav,,,,,,,,,,,,,,,,,,,,,,,,,,,,,,,,,,,,,,,,,,,,,,,,,,,,,,,,,,
,,,,,335991,1,2024-06-17_10h52.47.712,experiment,2024.1.5,MacIntel,60.24096386,667045947eb812cbdacbf325,66704aaaf5f945d019245d3f,,,,,,,,,,,,,,,,,,,,,,,,,,,,,,,,,,,,2895.2006,2903.489,0.0,1.0,1.0,1.0,1.0,SoundStimuli/Mood_24kGoldnianndior_Cover5S.wav,,,,,,,,,,,,,,,,,,,,,,,,,,,,,,,,,,,,,,,,,,,,,,,,,,,,,,,,,,
,,,,,335991,1,2024-06-17_10h52.47.712,experiment,2024.1.5,MacIntel,60.24096386,667045947eb812cbdacbf325,66704aaaf5f945d019245d3f,,,,,,,,,,,,,,,,,,,,,,,,,,,,,,,,,,,,,,,,,,,,2903.4894,2910.2716,3.010985089,6.7638,0.0,4.0,4.0,5.0,1.0,song_indices/Mood_24kGoldnianndior.csv,,,,,,,,,,,,,,,,,,,,,,,,,,,,,,,,,,,,,,,,,,,,,,,,
,,,,,335991,1,2024-06-17_10h52.47.712,experiment,2024.1.5,MacIntel,60.24096386,667045947eb812cbdacbf325,66704aaaf5f945d019245d3f,,,,,,,,,,,,,,,,,,,,,,,,,,,,,,,,,,,,2910.2729,2916.2227,0.0,0.0,0.0,1.0,1.0,SoundStimuli/IllMakeLoveToYou_BoyzIIMen_Cover5S.wav,,,,,,,,,,,,,,,,,,,,,,,,,,,,,,,,,,,,,,,,,,,,,,,,,,,,,,,,,,
,,,,,335991,1,2024-06-17_10h52.47.712,experiment,2024.1.5,MacIntel,60.24096386,667045947eb812cbdacbf325,66704aaaf5f945d019245d3f,,,,,,,,,,,,,,,,,,,,,,,,,,,,,,,,,,,,2916.2333,2922.3052,0.0,1.0,1.0,0.0,1.0,SoundStimuli/IllMakeLoveToYou_BoyzIIMen_Original5S.wav,,,,,,,,,,,,,,,,,,,,,,,,,,,,,,,,,,,,,,,,,,,,,,,,,,,,,,,,,,
,,,,,335991,1,2024-06-17_10h52.47.712,experiment,2024.1.5,MacIntel,60.24096386,667045947eb812cbdacbf325,66704aaaf5f945d019245d3f,,,,,,,,,,,,,,,,,,,,,,,,,,,,,,,,,,,,,,,,,,,,2922.3054,2923.9189,4.998175761,1.6084,0.0,5.0,5.0,6.0,1.0,song_indices/IllMakeLoveToYou_BoyzIIMen.csv,,,,,,,,,,,,,,,,,,,,,,,,,,,,,,,,,,,,,,,,,,,,,,,,
,,,,,335991,1,2024-06-17_10h52.47.712,experiment,2024.1.5,MacIntel,60.24096386,667045947eb812cbdacbf325,66704aaaf5f945d019245d3f,,,,,,,,,,,,,,,,,,,,,,,,,,,,,,,,,,,,2923.9206,2930.0707,0.0,0.0,0.0,0.0,1.0,SoundStimuli/MackTheKnife_BobbyDarin_Original5S.wav,,,,,,,,,,,,,,,,,,,,,,,,,,,,,,,,,,,,,,,,,,,,,,,,,,,,,,,,,,
,,,,,335991,1,2024-06-17_10h52.47.712,experiment,2024.1.5,MacIntel,60.24096386,667045947eb812cbdacbf325,66704aaaf5f945d019245d3f,,,,,,,,,,,,,,,,,,,,,,,,,,,,,,,,,,,,2930.0814,2936.3371,0.0,1.0,1.0,1.0,1.0,SoundStimuli/MackTheKnife_BobbyDarin_Cover5S.wav,,,,,,,,,,,,,,,,,,,,,,,,,,,,,,,,,,,,,,,,,,,,,,,,,,,,,,,,,,
,,,,,335991,1,2024-06-17_10h52.47.712,experiment,2024.1.5,MacIntel,60.24096386,667045947eb812cbdacbf325,66704aaaf5f945d019245d3f,,,,,,,,,,,,,,,,,,,,,,,,,,,,,,,,,,,,,,,,,,,,2936.3373,2938.5191,1.00758447,2.169,0.0,6.0,6.0,21.0,1.0,song_indices/MackTheKnife_BobbyDarin.csv,,,,,,,,,,,,,,,,,,,,,,,,,,,,,,,,,,,,,,,,,,,,,,,,
,,,,,335991,1,2024-06-17_10h52.47.712,experiment,2024.1.5,MacIntel,60.24096386,667045947eb812cbdacbf325,66704aaaf5f945d019245d3f,,,,,,,,,,,,,,,,,,,,,,,,,,,,,,,,,,,,2938.5206,2944.6201,0.0,0.0,0.0,0.0,1.0,SoundStimuli/HeatWaves_GlassAnimals_Original5S.wav,,,,,,,,,,,,,,,,,,,,,,,,,,,,,,,,,,,,,,,,,,,,,,,,,,,,,,,,,,
,,,,,335991,1,2024-06-17_10h52.47.712,experiment,2024.1.5,MacIntel,60.24096386,667045947eb812cbdacbf325,66704aaaf5f945d019245d3f,,,,,,,,,,,,,,,,,,,,,,,,,,,,,,,,,,,,2944.6286,2953.2192,0.0,1.0,1.0,1.0,1.0,SoundStimuli/HeatWaves_GlassAnimals_Cover5S.wav,,,,,,,,,,,,,,,,,,,,,,,,,,,,,,,,,,,,,,,,,,,,,,,,,,,,,,,,,,
,,,,,335991,1,2024-06-17_10h52.47.712,experiment,2024.1.5,MacIntel,60.24096386,667045947eb812cbdacbf325,66704aaaf5f945d019245d3f,,,,,,,,,,,,,,,,,,,,,,,,,,,,,,,,,,,,,,,,,,,,2953.2195,2954.3362,5.905010707,1.1015,0.0,7.0,7.0,10.0,1.0,song_indices/HeatWaves_GlassAnimals.csv,,,,,,,,,,,,,,,,,,,,,,,,,,,,,,,,,,,,,,,,,,,,,,,,
,,,,,335991,1,2024-06-17_10h52.47.712,experiment,2024.1.5,MacIntel,60.24096386,667045947eb812cbdacbf325,66704aaaf5f945d019245d3f,,,,,,,,,,,,,,,,,,,,,,,,,,,,,,,,,,,,2954.3374,2960.5857,0.0,0.0,0.0,0.0,1.0,SoundStimuli/LivinOnAPrayer_BonJovi_Original5S.wav,,,,,,,,,,,,,,,,,,,,,,,,,,,,,,,,,,,,,,,,,,,,,,,,,,,,,,,,,,
,,,,,335991,1,2024-06-17_10h52.47.712,experiment,2024.1.5,MacIntel,60.24096386,667045947eb812cbdacbf325,66704aaaf5f945d019245d3f,,,,,,,,,,,,,,,,,,,,,,,,,,,,,,,,,,,,2960.596,2968.2699,0.0,1.0,1.0,1.0,1.0,SoundStimuli/LivinOnAPrayer_BonJovi_Cover5S.wav,,,,,,,,,,,,,,,,,,,,,,,,,,,,,,,,,,,,,,,,,,,,,,,,,,,,,,,,,,
,,,,,335991,1,2024-06-17_10h52.47.712,experiment,2024.1.5,MacIntel,60.24096386,667045947eb812cbdacbf325,66704aaaf5f945d019245d3f,,,,,,,,,,,,,,,,,,,,,,,,,,,,,,,,,,,,,,,,,,,,2968.2701,2970.5844,1.00728704,2.3038,0.0,8.0,8.0,16.0,1.0,song_indices/LivinOnAPrayer_BonJovi.csv,,,,,,,,,,,,,,,,,,,,,,,,,,,,,,,,,,,,,,,,,,,,,,,,
,,,,,335991,1,2024-06-17_10h52.47.712,experiment,2024.1.5,MacIntel,60.24096386,667045947eb812cbdacbf325,66704aaaf5f945d019245d3f,,,,,,,,,,,,,,,,,,,,,,,,,,,,,,,,,,,,2970.5853,2978.1025,0.0,0.0,0.0,1.0,1.0,SoundStimuli/EndlessLove_DianaRossLionelRichie_Cover5S.wav,,,,,,,,,,,,,,,,,,,,,,,,,,,,,,,,,,,,,,,,,,,,,,,,,,,,,,,,,,
,,,,,335991,1,2024-06-17_10h52.47.712,experiment,2024.1.5,MacIntel,60.24096386,667045947eb812cbdacbf325,66704aaaf5f945d019245d3f,,,,,,,,,,,,,,,,,,,,,,,,,,,,,,,,,,,,2978.1121,2984.4506,0.0,1.0,1.0,0.0,1.0,SoundStimuli/EndlessLove_DianaRossLionelRichie_Original5S.wav,,,,,,,,,,,,,,,,,,,,,,,,,,,,,,,,,,,,,,,,,,,,,,,,,,,,,,,,,,
,,,,,335991,1,2024-06-17_10h52.47.712,experiment,2024.1.5,MacIntel,60.24096386,667045947eb812cbdacbf325,66704aaaf5f945d019245d3f,,,,,,,,,,,,,,,,,,,,,,,,,,,,,,,,,,,,,,,,,,,,2984.4508,2986.4854,6.968859058,2.0239,0.0,9.0,9.0,3.0,1.0,song_indices/EndlessLove_DianaRossLionelRichie.csv,,,,,,,,,,,,,,,,,,,,,,,,,,,,,,,,,,,,,,,,,,,,,,,,
,,,,,335991,1,2024-06-17_10h52.47.712,experiment,2024.1.5,MacIntel,60.24096386,667045947eb812cbdacbf325,66704aaaf5f945d019245d3f,,,,,,,,,,,,,,,,,,,,,,,,,,,,,,,,,,,,2986.4863,2992.6176,0.0,0.0,0.0,1.0,1.0,SoundStimuli/Smooth_SantanaRobThomas_Cover5S.wav,,,,,,,,,,,,,,,,,,,,,,,,,,,,,,,,,,,,,,,,,,,,,,,,,,,,,,,,,,
,,,,,335991,1,2024-06-17_10h52.47.712,experiment,2024.1.5,MacIntel,60.24096386,667045947eb812cbdacbf325,66704aaaf5f945d019245d3f,,,,,,,,,,,,,,,,,,,,,,,,,,,,,,,,,,,,2992.6274,2998.8338,0.0,1.0,1.0,0.0,1.0,SoundStimuli/Smooth_SantanaRobThomas_Original5S.wav,,,,,,,,,,,,,,,,,,,,,,,,,,,,,,,,,,,,,,,,,,,,,,,,,,,,,,,,,,
,,,,,335991,1,2024-06-17_10h52.47.712,experiment,2024.1.5,MacIntel,60.24096386,667045947eb812cbdacbf325,66704aaaf5f945d019245d3f,,,,,,,,,,,,,,,,,,,,,,,,,,,,,,,,,,,,,,,,,,,,2998.8342,2999.9849,6.022287437,1.1375,0.0,10.0,10.0,4.0,1.0,song_indices/Smooth_SantanaRobThomas.csv,,,,,,,,,,,,,,,,,,,,,,,,,,,,,,,,,,,,,,,,,,,,,,,,
,,,,,335991,1,2024-06-17_10h52.47.712,experiment,2024.1.5,MacIntel,60.24096386,667045947eb812cbdacbf325,66704aaaf5f945d019245d3f,,,,,,,,,,,,,,,,,,,,,,,,,,,,,,,,,,,,2999.9859,3008.8516,0.0,0.0,0.0,0.0,1.0,SoundStimuli/Perfect_EdSheeran_Original5S.wav,,,,,,,,,,,,,,,,,,,,,,,,,,,,,,,,,,,,,,,,,,,,,,,,,,,,,,,,,,
,,,,,335991,1,2024-06-17_10h52.47.712,experiment,2024.1.5,MacIntel,60.24096386,667045947eb812cbdacbf325,66704aaaf5f945d019245d3f,,,,,,,,,,,,,,,,,,,,,,,,,,,,,,,,,,,,3008.8616,3017.1148,0.0,1.0,1.0,1.0,1.0,SoundStimuli/Perfect_EdSheeran_Cover5S.wav,,,,,,,,,,,,,,,,,,,,,,,,,,,,,,,,,,,,,,,,,,,,,,,,,,,,,,,,,,
,,,,,335991,1,2024-06-17_10h52.47.712,experiment,2024.1.5,MacIntel,60.24096386,667045947eb812cbdacbf325,66704aaaf5f945d019245d3f,,,,,,,,,,,,,,,,,,,,,,,,,,,,,,,,,,,,,,,,,,,,3017.115,3018.132,5.001477237,0.9973,0.0,11.0,11.0,0.0,1.0,song_indices/Perfect_EdSheeran.csv,,,,,,,,,,,,,,,,,,,,,,,,,,,,,,,,,,,,,,,,,,,,,,,,
,,,,,335991,1,2024-06-17_10h52.47.712,experiment,2024.1.5,MacIntel,60.24096386,667045947eb812cbdacbf325,66704aaaf5f945d019245d3f,,,,,,,,,,,,,,,,,,,,,,,,,,,,,,,,,,,,3018.1332,3024.1825,0.0,0.0,0.0,0.0,1.0,SoundStimuli/AChangeIsGonnaCome_SamCooke_Original5S.wav,,,,,,,,,,,,,,,,,,,,,,,,,,,,,,,,,,,,,,,,,,,,,,,,,,,,,,,,,,
,,,,,335991,1,2024-06-17_10h52.47.712,experiment,2024.1.5,MacIntel,60.24096386,667045947eb812cbdacbf325,66704aaaf5f945d019245d3f,,,,,,,,,,,,,,,,,,,,,,,,,,,,,,,,,,,,3024.1922,3028.8995,0.0,1.0,1.0,1.0,1.0,SoundStimuli/AChangeIsGonnaCome_SamCooke_Cover5S.wav,,,,,,,,,,,,,,,,,,,,,,,,,,,,,,,,,,,,,,,,,,,,,,,,,,,,,,,,,,
,,,,,335991,1,2024-06-17_10h52.47.712,experiment,2024.1.5,MacIntel,60.24096386,667045947eb812cbdacbf325,66704aaaf5f945d019245d3f,,,,,,,,,,,,,,,,,,,,,,,,,,,,,,,,,,,,,,,,,,,,3028.8999,3031.7822,5.00022803,2.8605,0.0,12.0,12.0,17.0,1.0,song_indices/AChangeIsGonnaCome_SamCooke.csv,,,,,,,,,,,,,,,,,,,,,,,,,,,,,,,,,,,,,,,,,,,,,,,,
,,,,,335991,1,2024-06-17_10h52.47.712,experiment,2024.1.5,MacIntel,60.24096386,667045947eb812cbdacbf325,66704aaaf5f945d019245d3f,,,,,,,,,,,,,,,,,,,,,,,,,,,,,,,,,,,,3031.7827,3038.099,0.0,0.0,0.0,0.0,1.0,SoundStimuli/BridgeOverTroubledWater_SimonAndGarfunkel_Original5S.wav,,,,,,,,,,,,,,,,,,,,,,,,,,,,,,,,,,,,,,,,,,,,,,,,,,,,,,,,,,
,,,,,335991,1,2024-06-17_10h52.47.712,experiment,2024.1.5,MacIntel,60.24096386,667045947eb812cbdacbf325,66704aaaf5f945d019245d3f,,,,,,,,,,,,,,,,,,,,,,,,,,,,,,,,,,,,3038.1094,3044.7999,0.0,1.0,1.0,1.0,1.0,SoundStimuli/BridgeOverTroubledWater_SimonAndGarfunkel_Cover5S.wav,,,,,,,,,,,,,,,,,,,,,,,,,,,,,,,,,,,,,,,,,,,,,,,,,,,,,,,,,,
,,,,,335991,1,2024-06-17_10h52.47.712,experiment,2024.1.5,MacIntel,60.24096386,667045947eb812cbdacbf325,66704aaaf5f945d019245d3f,,,,,,,,,,,,,,,,,,,,,,,,,,,,,,,,,,,,,,,,,,,,3044.8001,3047.3498,3.982362389,2.5266,0.0,13.0,13.0,1.0,1.0,song_indices/BridgeOverTroubledWater_SimonAndGarfunkel.csv,,,,,,,,,,,,,,,,,,,,,,,,,,,,,,,,,,,,,,,,,,,,,,,,
,,,,,335991,1,2024-06-17_10h52.47.712,experiment,2024.1.5,MacIntel,60.24096386,667045947eb812cbdacbf325,66704aaaf5f945d019245d3f,,,,,,,,,,,,,,,,,,,,,,,,,,,,,,,,,,,,3047.3505,3053.3152,0.0,0.0,0.0,0.0,1.0,SoundStimuli/BohemianRhapsody_Queen_Original5S.wav,,,,,,,,,,,,,,,,,,,,,,,,,,,,,,,,,,,,,,,,,,,,,,,,,,,,,,,,,,
,,,,,335991,1,2024-06-17_10h52.47.712,experiment,2024.1.5,MacIntel,60.24096386,667045947eb812cbdacbf325,66704aaaf5f945d019245d3f,,,,,,,,,,,,,,,,,,,,,,,,,,,,,,,,,,,,3053.3251,3057.3971,0.0,1.0,1.0,1.0,1.0,SoundStimuli/BohemianRhapsody_Queen_Cover5S.wav,,,,,,,,,,,,,,,,,,,,,,,,,,,,,,,,,,,,,,,,,,,,,,,,,,,,,,,,,,
,,,,,335991,1,2024-06-17_10h52.47.712,experiment,2024.1.5,MacIntel,60.24096386,667045947eb812cbdacbf325,66704aaaf5f945d019245d3f,,,,,,,,,,,,,,,,,,,,,,,,,,,,,,,,,,,,,,,,,,,,3057.3974,3061.4319,2.020215339,4.0115,0.0,14.0,14.0,18.0,1.0,song_indices/BohemianRhapsody_Queen.csv,,,,,,,,,,,,,,,,,,,,,,,,,,,,,,,,,,,,,,,,,,,,,,,,
,,,,,335991,1,2024-06-17_10h52.47.712,experiment,2024.1.5,MacIntel,60.24096386,667045947eb812cbdacbf325,66704aaaf5f945d019245d3f,,,,,,,,,,,,,,,,,,,,,,,,,,,,,,,,,,,,3061.4336,3067.2157,0.0,0.0,0.0,0.0,1.0,SoundStimuli/IWantToHoldYourHand_TheBeatles_Original5S.wav,,,,,,,,,,,,,,,,,,,,,,,,,,,,,,,,,,,,,,,,,,,,,,,,,,,,,,,,,,
,,,,,335991,1,2024-06-17_10h52.47.712,experiment,2024.1.5,MacIntel,60.24096386,667045947eb812cbdacbf325,66704aaaf5f945d019245d3f,,,,,,,,,,,,,,,,,,,,,,,,,,,,,,,,,,,,3067.2242,3073.2477,0.0,1.0,1.0,1.0,1.0,SoundStimuli/IWantToHoldYourHand_TheBeatles_Cover5S.wav,,,,,,,,,,,,,,,,,,,,,,,,,,,,,,,,,,,,,,,,,,,,,,,,,,,,,,,,,,
,,,,,335991,1,2024-06-17_10h52.47.712,experiment,2024.1.5,MacIntel,60.24096386,667045947eb812cbdacbf325,66704aaaf5f945d019245d3f,,,,,,,,,,,,,,,,,,,,,,,,,,,,,,,,,,,,,,,,,,,,3073.2479,3075.9652,1.002587643,2.6956,0.0,15.0,15.0,19.0,1.0,song_indices/IWantToHoldYourHand_TheBeatles.csv,,,,,,,,,,,,,,,,,,,,,,,,,,,,,,,,,,,,,,,,,,,,,,,,
,,,,,335991,1,2024-06-17_10h52.47.712,experiment,2024.1.5,MacIntel,60.24096386,667045947eb812cbdacbf325,66704aaaf5f945d019245d3f,,,,,,,,,,,,,,,,,,,,,,,,,,,,,,,,,,,,3075.9664,3082.1812,0.0,0.0,0.0,1.0,1.0,SoundStimuli/LikeAPrayer_Madonna_Cover5S.wav,,,,,,,,,,,,,,,,,,,,,,,,,,,,,,,,,,,,,,,,,,,,,,,,,,,,,,,,,,
,,,,,335991,1,2024-06-17_10h52.47.712,experiment,2024.1.5,MacIntel,60.24096386,667045947eb812cbdacbf325,66704aaaf5f945d019245d3f,,,,,,,,,,,,,,,,,,,,,,,,,,,,,,,,,,,,3082.1925,3088.3811,0.0,1.0,1.0,0.0,1.0,SoundStimuli/LikeAPrayer_Madonna_Original5S.wav,,,,,,,,,,,,,,,,,,,,,,,,,,,,,,,,,,,,,,,,,,,,,,,,,,,,,,,,,,
,,,,,335991,1,2024-06-17_10h52.47.712,experiment,2024.1.5,MacIntel,60.24096386,667045947eb812cbdacbf325,66704aaaf5f945d019245d3f,,,,,,,,,,,,,,,,,,,,,,,,,,,,,,,,,,,,,,,,,,,,3088.3813,3090.1813,6.026094543,1.7807,0.0,16.0,16.0,7.0,1.0,song_indices/LikeAPrayer_Madonna.csv,,,,,,,,,,,,,,,,,,,,,,,,,,,,,,,,,,,,,,,,,,,,,,,,
,,,,,335991,1,2024-06-17_10h52.47.712,experiment,2024.1.5,MacIntel,60.24096386,667045947eb812cbdacbf325,66704aaaf5f945d019245d3f,,,,,,,,,,,,,,,,,,,,,,,,,,,,,,,,,,,,3090.183,3096.2129,0.0,0.0,0.0,0.0,1.0,SoundStimuli/StayinAlive_BeeGees_Original5S.wav,,,,,,,,,,,,,,,,,,,,,,,,,,,,,,,,,,,,,,,,,,,,,,,,,,,,,,,,,,
,,,,,335991,1,2024-06-17_10h52.47.712,experiment,2024.1.5,MacIntel,60.24096386,667045947eb812cbdacbf325,66704aaaf5f945d019245d3f,,,,,,,,,,,,,,,,,,,,,,,,,,,,,,,,,,,,3096.2232,3102.0469,0.0,1.0,1.0,1.0,1.0,SoundStimuli/StayinAlive_BeeGees_Cover5S.wav,,,,,,,,,,,,,,,,,,,,,,,,,,,,,,,,,,,,,,,,,,,,,,,,,,,,,,,,,,
,,,,,335991,1,2024-06-17_10h52.47.712,experiment,2024.1.5,MacIntel,60.24096386,667045947eb812cbdacbf325,66704aaaf5f945d019245d3f,,,,,,,,,,,,,,,,,,,,,,,,,,,,,,,,,,,,,,,,,,,,3102.0472,3103.3132,5.956466133,1.2536,0.0,17.0,17.0,2.0,1.0,song_indices/StayinAlive_BeeGees.csv,,,,,,,,,,,,,,,,,,,,,,,,,,,,,,,,,,,,,,,,,,,,,,,,
,,,,,335991,1,2024-06-17_10h52.47.712,experiment,2024.1.5,MacIntel,60.24096386,667045947eb812cbdacbf325,66704aaaf5f945d019245d3f,,,,,,,,,,,,,,,,,,,,,,,,,,,,,,,,,,,,3103.3138,3108.9128,0.0,0.0,0.0,0.0,1.0,SoundStimuli/IWannaDanceWithSomebody_WhitneyHouston_Original5S.wav,,,,,,,,,,,,,,,,,,,,,,,,,,,,,,,,,,,,,,,,,,,,,,,,,,,,,,,,,,
,,,,,335991,1,2024-06-17_10h52.47.712,experiment,2024.1.5,MacIntel,60.24096386,667045947eb812cbdacbf325,66704aaaf5f945d019245d3f,,,,,,,,,,,,,,,,,,,,,,,,,,,,,,,,,,,,3108.9225,3115.7642,0.0,1.0,1.0,1.0,1.0,SoundStimuli/IWannaDanceWithSomebody_WhitneyHouston_Cover5S.wav,,,,,,,,,,,,,,,,,,,,,,,,,,,,,,,,,,,,,,,,,,,,,,,,,,,,,,,,,,
,,,,,335991,1,2024-06-17_10h52.47.712,experiment,2024.1.5,MacIntel,60.24096386,667045947eb812cbdacbf325,66704aaaf5f945d019245d3f,,,,,,,,,,,,,,,,,,,,,,,,,,,,,,,,,,,,,,,,,,,,3115.7643,3118.3962,1.008447018,2.613,0.0,18.0,18.0,13.0,1.0,song_indices/IWannaDanceWithSomebody_WhitneyHouston.csv,,,,,,,,,,,,,,,,,,,,,,,,,,,,,,,,,,,,,,,,,,,,,,,,
,,,,,335991,1,2024-06-17_10h52.47.712,experiment,2024.1.5,MacIntel,60.24096386,667045947eb812cbdacbf325,66704aaaf5f945d019245d3f,,,,,,,,,,,,,,,,,,,,,,,,,,,,,,,,,,,,3118.3974,3125.7796,0.0,0.0,0.0,0.0,1.0,SoundStimuli/OldTownRoad_LilNasX_Original5S.wav,,,,,,,,,,,,,,,,,,,,,,,,,,,,,,,,,,,,,,,,,,,,,,,,,,,,,,,,,,
,,,,,335991,1,2024-06-17_10h52.47.712,experiment,2024.1.5,MacIntel,60.24096386,667045947eb812cbdacbf325,66704aaaf5f945d019245d3f,,,,,,,,,,,,,,,,,,,,,,,,,,,,,,,,,,,,3125.7892,3132.2961,0.0,1.0,1.0,1.0,1.0,SoundStimuli/OldTownRoad_LilNasX_Cover5S.wav,,,,,,,,,,,,,,,,,,,,,,,,,,,,,,,,,,,,,,,,,,,,,,,,,,,,,,,,,,
,,,,,335991,1,2024-06-17_10h52.47.712,experiment,2024.1.5,MacIntel,60.24096386,667045947eb812cbdacbf325,66704aaaf5f945d019245d3f,,,,,,,,,,,,,,,,,,,,,,,,,,,,,,,,,,,,,,,,,,,,3132.2964,3139.8796,6.984950032,7.5674,0.0,19.0,19.0,20.0,1.0,song_indices/OldTownRoad_LilNasX.csv,,,,,,,,,,,,,,,,,,,,,,,,,,,,,,,,,,,,,,,,,,,,,,,,
,,,,,335991,1,2024-06-17_10h52.47.712,experiment,2024.1.5,MacIntel,60.24096386,667045947eb812cbdacbf325,66704aaaf5f945d019245d3f,,,,,,,,,,,,,,,,,,,,,,,,,,,,,,,,,,,,3139.8811,3146.0124,0.0,0.0,0.0,0.0,1.0,SoundStimuli/StrawberryFieldsForever_TheBeatles_Original5S.wav,,,,,,,,,,,,,,,,,,,,,,,,,,,,,,,,,,,,,,,,,,,,,,,,,,,,,,,,,,
,,,,,335991,1,2024-06-17_10h52.47.712,experiment,2024.1.5,MacIntel,60.24096386,667045947eb812cbdacbf325,66704aaaf5f945d019245d3f,,,,,,,,,,,,,,,,,,,,,,,,,,,,,,,,,,,,3146.0217,3153.0451,0.0,1.0,1.0,1.0,1.0,SoundStimuli/StrawberryFieldsForever_TheBeatles_Cover5S.wav,,,,,,,,,,,,,,,,,,,,,,,,,,,,,,,,,,,,,,,,,,,,,,,,,,,,,,,,,,
,,,,,335991,1,2024-06-17_10h52.47.712,experiment,2024.1.5,MacIntel,60.24096386,667045947eb812cbdacbf325,66704aaaf5f945d019245d3f,,,,,,,,,,,,,,,,,,,,,,,,,,,,,,,,,,,,,,,,,,,,3153.0453,3157.1109,4.037059803,4.0544,0.0,20.0,20.0,14.0,1.0,song_indices/StrawberryFieldsForever_TheBeatles.csv,,,,,,,,,,,,,,,,,,,,,,,,,,,,,,,,,,,,,,,,,,,,,,,,
,,,,,335991,1,2024-06-17_10h52.47.712,experiment,2024.1.5,MacIntel,60.24096386,667045947eb812cbdacbf325,66704aaaf5f945d019245d3f,,,,,,,,,,,,,,,,,,,,,,,,,,,,,,,,,,,,3157.112,3165.2935,0.0,0.0,0.0,1.0,1.0,SoundStimuli/MyGirl_TheTemptations_Cover5S.wav,,,,,,,,,,,,,,,,,,,,,,,,,,,,,,,,,,,,,,,,,,,,,,,,,,,,,,,,,,
,,,,,335991,1,2024-06-17_10h52.47.712,experiment,2024.1.5,MacIntel,60.24096386,667045947eb812cbdacbf325,66704aaaf5f945d019245d3f,,,,,,,,,,,,,,,,,,,,,,,,,,,,,,,,,,,,3165.3016,3171.6941,0.0,1.0,1.0,0.0,1.0,SoundStimuli/MyGirl_TheTemptations_Original5S.wav,,,,,,,,,,,,,,,,,,,,,,,,,,,,,,,,,,,,,,,,,,,,,,,,,,,,,,,,,,
,,,,,335991,1,2024-06-17_10h52.47.712,experiment,2024.1.5,MacIntel,60.24096386,667045947eb812cbdacbf325,66704aaaf5f945d019245d3f,,,,,,,,,,,,,,,,,,,,,,,,,,,,,,,,,,,,,,,,,,,,3171.6944,3177.094,1.955702728,5.3889,0.0,21.0,21.0,15.0,1.0,song_indices/MyGirl_TheTemptations.csv,,,,,,,,,,,,,,,,,,,,,,,,,,,,,,,,,,,,,,,,,,,,,,,,
,,,,,335991,1,2024-06-17_10h52.47.712,experiment,2024.1.5,MacIntel,60.24096386,667045947eb812cbdacbf325,66704aaaf5f945d019245d3f,,,,,,,,,,,,,,,,,,,,,,,,,,,,,,,,,,,,3177.0952,3183.1425,0.0,0.0,0.0,0.0,1.0,SoundStimuli/AnotherOneBitesTheDust_Queen_Original5S.wav,,,,,,,,,,,,,,,,,,,,,,,,,,,,,,,,,,,,,,,,,,,,,,,,,,,,,,,,,,
,,,,,335991,1,2024-06-17_10h52.47.712,experiment,2024.1.5,MacIntel,60.24096386,667045947eb812cbdacbf325,66704aaaf5f945d019245d3f,,,,,,,,,,,,,,,,,,,,,,,,,,,,,,,,,,,,3183.1521,3191.2771,0.0,1.0,1.0,1.0,1.0,SoundStimuli/AnotherOneBitesTheDust_Queen_Cover5S.wav,,,,,,,,,,,,,,,,,,,,,,,,,,,,,,,,,,,,,,,,,,,,,,,,,,,,,,,,,,
,,,,,335991,1,2024-06-17_10h52.47.712,experiment,2024.1.5,MacIntel,60.24096386,667045947eb812cbdacbf325,66704aaaf5f945d019245d3f,,,,,,,,,,,,,,,,,,,,,,,,,,,,,,,,,,,,,,,,,,,,3191.2772,3194.6268,1.993773794,3.326,0.0,22.0,22.0,9.0,1.0,song_indices/AnotherOneBitesTheDust_Queen.csv,,,,,,,,,,,,,,,,,,,,,,,,,,,,,,,,,,,,,,,,,,,,,,,,
,,,,,335991,1,2024-06-17_10h52.47.712,experiment,2024.1.5,MacIntel,60.24096386,667045947eb812cbdacbf325,66704aaaf5f945d019245d3f,,,,,,,,,,,,,,,,,,,,,,,,,,,,,,,,,,,,,,,,,,,,,,,,,,,,,,3194.6275,3196.2604,space,1.614,,0.0,0.0,0.0,0.0,1.0,choose_song_b1.csv,,,,,,,,,,,,,,,,,,,,,,,,,,,,,,,,,,,,,
,,,,,335991,1,2024-06-17_10h52.47.712,experiment,2024.1.5,MacIntel,60.24096386,667045947eb812cbdacbf325,66704aaaf5f945d019245d3f,,,,,,,,,,,,,,,,,,,,,,,,,,,,,,,,,,,,3196.2626,3202.3267,0.0,0.0,0.0,0.0,1.0,SoundStimuli/GoodGollyMissMolly_LittleRichard_Original5S.wav,,,,,,,,,,,,,,,,,,,,,,,,,,,,,,,,,,,,,,,,,,,,,,,,,,,,,,,,,,
,,,,,335991,1,2024-06-17_10h52.47.712,experiment,2024.1.5,MacIntel,60.24096386,667045947eb812cbdacbf325,66704aaaf5f945d019245d3f,,,,,,,,,,,,,,,,,,,,,,,,,,,,,,,,,,,,3202.3359,3208.6908,0.0,1.0,1.0,1.0,1.0,SoundStimuli/GoodGollyMissMolly_LittleRichard_Cover5S.wav,,,,,,,,,,,,,,,,,,,,,,,,,,,,,,,,,,,,,,,,,,,,,,,,,,,,,,,,,,
,,,,,335991,1,2024-06-17_10h52.47.712,experiment,2024.1.5,MacIntel,60.24096386,667045947eb812cbdacbf325,66704aaaf5f945d019245d3f,,,,,,,,,,,,,,,,,,,,,,,,,,,,,,,,,,,,,,,,,,,,3208.6911,3210.1406,5.11741553,1.43,0.0,0.0,0.0,0.0,1.0,song_indices/GoodGollyMissMolly_LittleRichard.csv,,,,,,,,,,,,,,,,,,,,,,,,,,,,,,,,,,,,,,,,,,,,,,,,
,,,,,335991,1,2024-06-17_10h52.47.712,experiment,2024.1.5,MacIntel,60.24096386,667045947eb812cbdacbf325,66704aaaf5f945d019245d3f,,,,,,,,,,,,,,,,,,,,,,,,,,,,,,,,,,,,3210.1419,3216.926,0.0,0.0,0.0,1.0,1.0,SoundStimuli/PartyRockAnthem_LMFAO_Cover5S.wav,,,,,,,,,,,,,,,,,,,,,,,,,,,,,,,,,,,,,,,,,,,,,,,,,,,,,,,,,,
,,,,,335991,1,2024-06-17_10h52.47.712,experiment,2024.1.5,MacIntel,60.24096386,667045947eb812cbdacbf325,66704aaaf5f945d019245d3f,,,,,,,,,,,,,,,,,,,,,,,,,,,,,,,,,,,,3216.936,3223.6735,0.0,1.0,1.0,0.0,1.0,SoundStimuli/PartyRockAnthem_LMFAO_Original5S.wav,,,,,,,,,,,,,,,,,,,,,,,,,,,,,,,,,,,,,,,,,,,,,,,,,,,,,,,,,,
,,,,,335991,1,2024-06-17_10h52.47.712,experiment,2024.1.5,MacIntel,60.24096386,667045947eb812cbdacbf325,66704aaaf5f945d019245d3f,,,,,,,,,,,,,,,,,,,,,,,,,,,,,,,,,,,,,,,,,,,,3223.6736,3225.4589,4.993476364,1.7645,0.0,1.0,1.0,2.0,1.0,song_indices/PartyRockAnthem_LMFAO.csv,,,,,,,,,,,,,,,,,,,,,,,,,,,,,,,,,,,,,,,,,,,,,,,,
,,,,,335991,1,2024-06-17_10h52.47.712,experiment,2024.1.5,MacIntel,60.24096386,667045947eb812cbdacbf325,66704aaaf5f945d019245d3f,,,,,,,,,,,,,,,,,,,,,,,,,,,,,,,,,,,,3225.4605,3231.7245,0.0,0.0,0.0,0.0,1.0,SoundStimuli/ItsAllInTheGame_TommyEdwards_Original5S.wav,,,,,,,,,,,,,,,,,,,,,,,,,,,,,,,,,,,,,,,,,,,,,,,,,,,,,,,,,,
,,,,,335991,1,2024-06-17_10h52.47.712,experiment,2024.1.5,MacIntel,60.24096386,667045947eb812cbdacbf325,66704aaaf5f945d019245d3f,,,,,,,,,,,,,,,,,,,,,,,,,,,,,,,,,,,,3231.7323,3237.9735,0.0,1.0,1.0,1.0,1.0,SoundStimuli/ItsAllInTheGame_TommyEdwards_Cover5S.wav,,,,,,,,,,,,,,,,,,,,,,,,,,,,,,,,,,,,,,,,,,,,,,,,,,,,,,,,,,
,,,,,335991,1,2024-06-17_10h52.47.712,experiment,2024.1.5,MacIntel,60.24096386,667045947eb812cbdacbf325,66704aaaf5f945d019245d3f,,,,,,,,,,,,,,,,,,,,,,,,,,,,,,,,,,,,,,,,,,,,3237.9738,3239.8744,2.998463277,1.8798,0.0,2.0,2.0,13.0,1.0,song_indices/ItsAllInTheGame_TommyEdwards.csv,,,,,,,,,,,,,,,,,,,,,,,,,,,,,,,,,,,,,,,,,,,,,,,,
,,,,,335991,1,2024-06-17_10h52.47.712,experiment,2024.1.5,MacIntel,60.24096386,667045947eb812cbdacbf325,66704aaaf5f945d019245d3f,,,,,,,,,,,,,,,,,,,,,,,,,,,,,,,,,,,,3239.8757,3246.0887,0.0,0.0,0.0,0.0,1.0,SoundStimuli/TheBattleOfNewOrleans_JohnnyHorton_Original5S.wav,,,,,,,,,,,,,,,,,,,,,,,,,,,,,,,,,,,,,,,,,,,,,,,,,,,,,,,,,,
,,,,,335991,1,2024-06-17_10h52.47.712,experiment,2024.1.5,MacIntel,60.24096386,667045947eb812cbdacbf325,66704aaaf5f945d019245d3f,,,,,,,,,,,,,,,,,,,,,,,,,,,,,,,,,,,,3246.0978,3254.0738,0.0,1.0,1.0,1.0,1.0,SoundStimuli/TheBattleOfNewOrleans_JohnnyHorton_Cover5S.wav,,,,,,,,,,,,,,,,,,,,,,,,,,,,,,,,,,,,,,,,,,,,,,,,,,,,,,,,,,
,,,,,335991,1,2024-06-17_10h52.47.712,experiment,2024.1.5,MacIntel,60.24096386,667045947eb812cbdacbf325,66704aaaf5f945d019245d3f,,,,,,,,,,,,,,,,,,,,,,,,,,,,,,,,,,,,,,,,,,,,3254.0741,3256.9744,2.007782757,2.8778,0.0,3.0,3.0,4.0,1.0,song_indices/TheBattleOfNewOrleans_JohnnyHorton.csv,,,,,,,,,,,,,,,,,,,,,,,,,,,,,,,,,,,,,,,,,,,,,,,,
,,,,,335991,1,2024-06-17_10h52.47.712,experiment,2024.1.5,MacIntel,60.24096386,667045947eb812cbdacbf325,66704aaaf5f945d019245d3f,,,,,,,,,,,,,,,,,,,,,,,,,,,,,,,,,,,,3256.9755,3263.2741,0.0,0.0,0.0,0.0,1.0,SoundStimuli/HeyYa_Outkast_Original5S.wav,,,,,,,,,,,,,,,,,,,,,,,,,,,,,,,,,,,,,,,,,,,,,,,,,,,,,,,,,,
,,,,,335991,1,2024-06-17_10h52.47.712,experiment,2024.1.5,MacIntel,60.24096386,667045947eb812cbdacbf325,66704aaaf5f945d019245d3f,,,,,,,,,,,,,,,,,,,,,,,,,,,,,,,,,,,,3263.2839,3272.1898,0.0,1.0,1.0,1.0,1.0,SoundStimuli/HeyYa_Outkast_Cover5S.wav,,,,,,,,,,,,,,,,,,,,,,,,,,,,,,,,,,,,,,,,,,,,,,,,,,,,,,,,,,
,,,,,335991,1,2024-06-17_10h52.47.712,experiment,2024.1.5,MacIntel,60.24096386,667045947eb812cbdacbf325,66704aaaf5f945d019245d3f,,,,,,,,,,,,,,,,,,,,,,,,,,,,,,,,,,,,,,,,,,,,3272.19,3273.9563,1.0104398,1.7462,0.0,4.0,4.0,22.0,1.0,song_indices/HeyYa_Outkast.csv,,,,,,,,,,,,,,,,,,,,,,,,,,,,,,,,,,,,,,,,,,,,,,,,
,,,,,335991,1,2024-06-17_10h52.47.712,experiment,2024.1.5,MacIntel,60.24096386,667045947eb812cbdacbf325,66704aaaf5f945d019245d3f,,,,,,,,,,,,,,,,,,,,,,,,,,,,,,,,,,,,3273.9576,3280.2909,0.0,0.0,0.0,1.0,1.0,SoundStimuli/Stronger_KanyeWest_Cover5S.wav,,,,,,,,,,,,,,,,,,,,,,,,,,,,,,,,,,,,,,,,,,,,,,,,,,,,,,,,,,
,,,,,335991,1,2024-06-17_10h52.47.712,experiment,2024.1.5,MacIntel,60.24096386,667045947eb812cbdacbf325,66704aaaf5f945d019245d3f,,,,,,,,,,,,,,,,,,,,,,,,,,,,,,,,,,,,3280.3014,3286.3564,0.0,1.0,1.0,0.0,1.0,SoundStimuli/Stronger_KanyeWest_Original5S.wav,,,,,,,,,,,,,,,,,,,,,,,,,,,,,,,,,,,,,,,,,,,,,,,,,,,,,,,,,,
,,,,,335991,1,2024-06-17_10h52.47.712,experiment,2024.1.5,MacIntel,60.24096386,667045947eb812cbdacbf325,66704aaaf5f945d019245d3f,,,,,,,,,,,,,,,,,,,,,,,,,,,,,,,,,,,,,,,,,,,,3286.3567,3289.5548,1.028880473,3.1796,0.0,5.0,5.0,9.0,1.0,song_indices/Stronger_KanyeWest.csv,,,,,,,,,,,,,,,,,,,,,,,,,,,,,,,,,,,,,,,,,,,,,,,,
,,,,,335991,1,2024-06-17_10h52.47.712,experiment,2024.1.5,MacIntel,60.24096386,667045947eb812cbdacbf325,66704aaaf5f945d019245d3f,,,,,,,,,,,,,,,,,,,,,,,,,,,,,,,,,,,,3289.5555,3295.3217,0.0,0.0,0.0,1.0,1.0,SoundStimuli/SmellsLikeTeenSpirit_Nirvana_Cover5S.wav,,,,,,,,,,,,,,,,,,,,,,,,,,,,,,,,,,,,,,,,,,,,,,,,,,,,,,,,,,
,,,,,335991,1,2024-06-17_10h52.47.712,experiment,2024.1.5,MacIntel,60.24096386,667045947eb812cbdacbf325,66704aaaf5f945d019245d3f,,,,,,,,,,,,,,,,,,,,,,,,,,,,,,,,,,,,3295.3314,3301.5226,0.0,1.0,1.0,0.0,1.0,SoundStimuli/SmellsLikeTeenSpirit_Nirvana_Original5S.wav,,,,,,,,,,,,,,,,,,,,,,,,,,,,,,,,,,,,,,,,,,,,,,,,,,,,,,,,,,
,,,,,335991,1,2024-06-17_10h52.47.712,experiment,2024.1.5,MacIntel,60.24096386,667045947eb812cbdacbf325,66704aaaf5f945d019245d3f,,,,,,,,,,,,,,,,,,,,,,,,,,,,,,,,,,,,,,,,,,,,3301.523,3303.9716,6.958211056,2.429,0.0,6.0,6.0,8.0,1.0,song_indices/SmellsLikeTeenSpirit_Nirvana.csv,,,,,,,,,,,,,,,,,,,,,,,,,,,,,,,,,,,,,,,,,,,,,,,,
,,,,,335991,1,2024-06-17_10h52.47.712,experiment,2024.1.5,MacIntel,60.24096386,667045947eb812cbdacbf325,66704aaaf5f945d019245d3f,,,,,,,,,,,,,,,,,,,,,,,,,,,,,,,,,,,,3303.9722,3310.0722,0.0,0.0,0.0,0.0,1.0,SoundStimuli/GimmeShelter_RollingStones_Original5S.wav,,,,,,,,,,,,,,,,,,,,,,,,,,,,,,,,,,,,,,,,,,,,,,,,,,,,,,,,,,
,,,,,335991,1,2024-06-17_10h52.47.712,experiment,2024.1.5,MacIntel,60.24096386,667045947eb812cbdacbf325,66704aaaf5f945d019245d3f,,,,,,,,,,,,,,,,,,,,,,,,,,,,,,,,,,,,3310.0823,3316.2888,0.0,1.0,1.0,1.0,1.0,SoundStimuli/GimmeShelter_RollingStones_Cover5S.wav,,,,,,,,,,,,,,,,,,,,,,,,,,,,,,,,,,,,,,,,,,,,,,,,,,,,,,,,,,
,,,,,335991,1,2024-06-17_10h52.47.712,experiment,2024.1.5,MacIntel,60.24096386,667045947eb812cbdacbf325,66704aaaf5f945d019245d3f,,,,,,,,,,,,,,,,,,,,,,,,,,,,,,,,,,,,,,,,,,,,3316.2889,3317.3045,3.986466926,0.9998,0.0,7.0,7.0,20.0,1.0,song_indices/GimmeShelter_RollingStones.csv,,,,,,,,,,,,,,,,,,,,,,,,,,,,,,,,,,,,,,,,,,,,,,,,
,,,,,335991,1,2024-06-17_10h52.47.712,experiment,2024.1.5,MacIntel,60.24096386,667045947eb812cbdacbf325,66704aaaf5f945d019245d3f,,,,,,,,,,,,,,,,,,,,,,,,,,,,,,,,,,,,3317.3056,3324.672,0.0,0.0,0.0,1.0,1.0,SoundStimuli/Happy_PharellWilliams_Cover5S.wav,,,,,,,,,,,,,,,,,,,,,,,,,,,,,,,,,,,,,,,,,,,,,,,,,,,,,,,,,,
,,,,,335991,1,2024-06-17_10h52.47.712,experiment,2024.1.5,MacIntel,60.24096386,667045947eb812cbdacbf325,66704aaaf5f945d019245d3f,,,,,,,,,,,,,,,,,,,,,,,,,,,,,,,,,,,,3324.6832,3332.0216,0.0,1.0,1.0,0.0,1.0,SoundStimuli/Happy_PharellWilliams_Original5S.wav,,,,,,,,,,,,,,,,,,,,,,,,,,,,,,,,,,,,,,,,,,,,,,,,,,,,,,,,,,
,,,,,335991,1,2024-06-17_10h52.47.712,experiment,2024.1.5,MacIntel,60.24096386,667045947eb812cbdacbf325,66704aaaf5f945d019245d3f,,,,,,,,,,,,,,,,,,,,,,,,,,,,,,,,,,,,,,,,,,,,3332.0218,3333.5877,6.028979616,1.5499,0.0,8.0,8.0,7.0,1.0,song_indices/Happy_PharellWilliams.csv,,,,,,,,,,,,,,,,,,,,,,,,,,,,,,,,,,,,,,,,,,,,,,,,
,,,,,335991,1,2024-06-17_10h52.47.712,experiment,2024.1.5,MacIntel,60.24096386,667045947eb812cbdacbf325,66704aaaf5f945d019245d3f,,,,,,,,,,,,,,,,,,,,,,,,,,,,,,,,,,,,3333.5889,3339.771,0.0,0.0,0.0,0.0,1.0,SoundStimuli/Fallin_AliciaKeys_Original5S.wav,,,,,,,,,,,,,,,,,,,,,,,,,,,,,,,,,,,,,,,,,,,,,,,,,,,,,,,,,,
,,,,,335991,1,2024-06-17_10h52.47.712,experiment,2024.1.5,MacIntel,60.24096386,667045947eb812cbdacbf325,66704aaaf5f945d019245d3f,,,,,,,,,,,,,,,,,,,,,,,,,,,,,,,,,,,,3339.7809,3346.2034,0.0,1.0,1.0,1.0,1.0,SoundStimuli/Fallin_AliciaKeys_Cover5S.wav,,,,,,,,,,,,,,,,,,,,,,,,,,,,,,,,,,,,,,,,,,,,,,,,,,,,,,,,,,
,,,,,335991,1,2024-06-17_10h52.47.712,experiment,2024.1.5,MacIntel,60.24096386,667045947eb812cbdacbf325,66704aaaf5f945d019245d3f,,,,,,,,,,,,,,,,,,,,,,,,,,,,,,,,,,,,,,,,,,,,3346.2037,3347.2208,6.968918544,1.005,0.0,9.0,9.0,12.0,1.0,song_indices/Fallin_AliciaKeys.csv,,,,,,,,,,,,,,,,,,,,,,,,,,,,,,,,,,,,,,,,,,,,,,,,
,,,,,335991,1,2024-06-17_10h52.47.712,experiment,2024.1.5,MacIntel,60.24096386,667045947eb812cbdacbf325,66704aaaf5f945d019245d3f,,,,,,,,,,,,,,,,,,,,,,,,,,,,,,,,,,,,3347.2219,3354.4543,0.0,0.0,0.0,0.0,1.0,SoundStimuli/UptownFunk_MarkRonson_Original5S.wav,,,,,,,,,,,,,,,,,,,,,,,,,,,,,,,,,,,,,,,,,,,,,,,,,,,,,,,,,,
,,,,,335991,1,2024-06-17_10h52.47.712,experiment,2024.1.5,MacIntel,60.24096386,667045947eb812cbdacbf325,66704aaaf5f945d019245d3f,,,,,,,,,,,,,,,,,,,,,,,,,,,,,,,,,,,,3354.464,3361.4866,0.0,1.0,1.0,1.0,1.0,SoundStimuli/UptownFunk_MarkRonson_Cover5S.wav,,,,,,,,,,,,,,,,,,,,,,,,,,,,,,,,,,,,,,,,,,,,,,,,,,,,,,,,,,
,,,,,335991,1,2024-06-17_10h52.47.712,experiment,2024.1.5,MacIntel,60.24096386,667045947eb812cbdacbf325,66704aaaf5f945d019245d3f,,,,,,,,,,,,,,,,,,,,,,,,,,,,,,,,,,,,,,,,,,,,3361.4869,3363.5197,6.997114927,2.0199,0.0,10.0,10.0,15.0,1.0,song_indices/UptownFunk_MarkRonson.csv,,,,,,,,,,,,,,,,,,,,,,,,,,,,,,,,,,,,,,,,,,,,,,,,
,,,,,335991,1,2024-06-17_10h52.47.712,experiment,2024.1.5,MacIntel,60.24096386,667045947eb812cbdacbf325,66704aaaf5f945d019245d3f,,,,,,,,,,,,,,,,,,,,,,,,,,,,,,,,,,,,3363.5208,3370.6687,0.0,0.0,0.0,1.0,1.0,SoundStimuli/IWalkTheLine_JohnnyCash_Cover5S.wav,,,,,,,,,,,,,,,,,,,,,,,,,,,,,,,,,,,,,,,,,,,,,,,,,,,,,,,,,,
,,,,,335991,1,2024-06-17_10h52.47.712,experiment,2024.1.5,MacIntel,60.24096386,667045947eb812cbdacbf325,66704aaaf5f945d019245d3f,,,,,,,,,,,,,,,,,,,,,,,,,,,,,,,,,,,,3370.6789,3376.6531,0.0,1.0,1.0,0.0,1.0,SoundStimuli/IWalkTheLine_JohnnyCash_Original5S.wav,,,,,,,,,,,,,,,,,,,,,,,,,,,,,,,,,,,,,,,,,,,,,,,,,,,,,,,,,,
,,,,,335991,1,2024-06-17_10h52.47.712,experiment,2024.1.5,MacIntel,60.24096386,667045947eb812cbdacbf325,66704aaaf5f945d019245d3f,,,,,,,,,,,,,,,,,,,,,,,,,,,,,,,,,,,,,,,,,,,,3376.6533,3379.919,1.016061231,3.2408,0.0,11.0,11.0,17.0,1.0,song_indices/IWalkTheLine_JohnnyCash.csv,,,,,,,,,,,,,,,,,,,,,,,,,,,,,,,,,,,,,,,,,,,,,,,,
,,,,,335991,1,2024-06-17_10h52.47.712,experiment,2024.1.5,MacIntel,60.24096386,667045947eb812cbdacbf325,66704aaaf5f945d019245d3f,,,,,,,,,,,,,,,,,,,,,,,,,,,,,,,,,,,,3379.9201,3385.8173,0.0,0.0,0.0,0.0,1.0,SoundStimuli/EyeOfTheTiger_Survivor_Original5S.wav,,,,,,,,,,,,,,,,,,,,,,,,,,,,,,,,,,,,,,,,,,,,,,,,,,,,,,,,,,
,,,,,335991,1,2024-06-17_10h52.47.712,experiment,2024.1.5,MacIntel,60.24096386,667045947eb812cbdacbf325,66704aaaf5f945d019245d3f,,,,,,,,,,,,,,,,,,,,,,,,,,,,,,,,,,,,3385.8273,3391.9507,0.0,1.0,1.0,1.0,1.0,SoundStimuli/EyeOfTheTiger_Survivor_Cover5S.wav,,,,,,,,,,,,,,,,,,,,,,,,,,,,,,,,,,,,,,,,,,,,,,,,,,,,,,,,,,
,,,,,335991,1,2024-06-17_10h52.47.712,experiment,2024.1.5,MacIntel,60.24096386,667045947eb812cbdacbf325,66704aaaf5f945d019245d3f,,,,,,,,,,,,,,,,,,,,,,,,,,,,,,,,,,,,,,,,,,,,3391.9509,3395.3677,6.988370479,3.407,0.0,12.0,12.0,11.0,1.0,song_indices/EyeOfTheTiger_Survivor.csv,,,,,,,,,,,,,,,,,,,,,,,,,,,,,,,,,,,,,,,,,,,,,,,,
,,,,,335991,1,2024-06-17_10h52.47.712,experiment,2024.1.5,MacIntel,60.24096386,667045947eb812cbdacbf325,66704aaaf5f945d019245d3f,,,,,,,,,,,,,,,,,,,,,,,,,,,,,,,,,,,,3395.3681,3401.3022,0.0,0.0,0.0,0.0,1.0,SoundStimuli/StandByMe_BenEKing_Original5S.wav,,,,,,,,,,,,,,,,,,,,,,,,,,,,,,,,,,,,,,,,,,,,,,,,,,,,,,,,,,
,,,,,335991,1,2024-06-17_10h52.47.712,experiment,2024.1.5,MacIntel,60.24096386,667045947eb812cbdacbf325,66704aaaf5f945d019245d3f,,,,,,,,,,,,,,,,,,,,,,,,,,,,,,,,,,,,3401.3133,3407.3366,0.0,1.0,1.0,1.0,1.0,SoundStimuli/StandByMe_BenEKing_Cover5S.wav,,,,,,,,,,,,,,,,,,,,,,,,,,,,,,,,,,,,,,,,,,,,,,,,,,,,,,,,,,
,,,,,335991,1,2024-06-17_10h52.47.712,experiment,2024.1.5,MacIntel,60.24096386,667045947eb812cbdacbf325,66704aaaf5f945d019245d3f,,,,,,,,,,,,,,,,,,,,,,,,,,,,,,,,,,,,,,,,,,,,3407.3368,3409.1335,3.042988579,1.7772,0.0,13.0,13.0,1.0,1.0,song_indices/StandByMe_BenEKing.csv,,,,,,,,,,,,,,,,,,,,,,,,,,,,,,,,,,,,,,,,,,,,,,,,
,,,,,335991,1,2024-06-17_10h52.47.712,experiment,2024.1.5,MacIntel,60.24096386,667045947eb812cbdacbf325,66704aaaf5f945d019245d3f,,,,,,,,,,,,,,,,,,,,,,,,,,,,,,,,,,,,3409.1346,3415.584,0.0,0.0,0.0,0.0,1.0,SoundStimuli/ShapeofYou_EdSheeran_Original5S.wav,,,,,,,,,,,,,,,,,,,,,,,,,,,,,,,,,,,,,,,,,,,,,,,,,,,,,,,,,,
,,,,,335991,1,2024-06-17_10h52.47.712,experiment,2024.1.5,MacIntel,60.24096386,667045947eb812cbdacbf325,66704aaaf5f945d019245d3f,,,,,,,,,,,,,,,,,,,,,,,,,,,,,,,,,,,,3415.594,3421.9002,0.0,1.0,1.0,1.0,1.0,SoundStimuli/ShapeofYou_EdSheeran_Cover5S.wav,,,,,,,,,,,,,,,,,,,,,,,,,,,,,,,,,,,,,,,,,,,,,,,,,,,,,,,,,,
,,,,,335991,1,2024-06-17_10h52.47.712,experiment,2024.1.5,MacIntel,60.24096386,667045947eb812cbdacbf325,66704aaaf5f945d019245d3f,,,,,,,,,,,,,,,,,,,,,,,,,,,,,,,,,,,,,,,,,,,,3421.9003,3424.8155,1.990977951,2.8965,0.0,14.0,14.0,21.0,1.0,song_indices/ShapeofYou_EdSheeran.csv,,,,,,,,,,,,,,,,,,,,,,,,,,,,,,,,,,,,,,,,,,,,,,,,
,,,,,335991,1,2024-06-17_10h52.47.712,experiment,2024.1.5,MacIntel,60.24096386,667045947eb812cbdacbf325,66704aaaf5f945d019245d3f,,,,,,,,,,,,,,,,,,,,,,,,,,,,,,,,,,,,3424.8172,3431.3661,0.0,0.0,0.0,0.0,1.0,SoundStimuli/CrazyInLove_BeyonceFtJayZ_Original5S.wav,,,,,,,,,,,,,,,,,,,,,,,,,,,,,,,,,,,,,,,,,,,,,,,,,,,,,,,,,,
,,,,,335991,1,2024-06-17_10h52.47.712,experiment,2024.1.5,MacIntel,60.24096386,667045947eb812cbdacbf325,66704aaaf5f945d019245d3f,,,,,,,,,,,,,,,,,,,,,,,,,,,,,,,,,,,,3431.3759,3441.6175,0.0,1.0,1.0,1.0,1.0,SoundStimuli/CrazyInLove_BeyonceFtJayZ_Cover5S.wav,,,,,,,,,,,,,,,,,,,,,,,,,,,,,,,,,,,,,,,,,,,,,,,,,,,,,,,,,,
,,,,,335991,1,2024-06-17_10h52.47.712,experiment,2024.1.5,MacIntel,60.24096386,667045947eb812cbdacbf325,66704aaaf5f945d019245d3f,,,,,,,,,,,,,,,,,,,,,,,,,,,,,,,,,,,,,,,,,,,,3441.6177,3442.9485,1.010499286,1.3094,0.0,15.0,15.0,3.0,1.0,song_indices/CrazyInLove_BeyonceFtJayZ.csv,,,,,,,,,,,,,,,,,,,,,,,,,,,,,,,,,,,,,,,,,,,,,,,,
,,,,,335991,1,2024-06-17_10h52.47.712,experiment,2024.1.5,MacIntel,60.24096386,667045947eb812cbdacbf325,66704aaaf5f945d019245d3f,,,,,,,,,,,,,,,,,,,,,,,,,,,,,,,,,,,,3442.9496,3449.0316,0.0,0.0,0.0,0.0,1.0,SoundStimuli/GetUrFreakOn_MissyElliot_Original5S.wav,,,,,,,,,,,,,,,,,,,,,,,,,,,,,,,,,,,,,,,,,,,,,,,,,,,,,,,,,,
,,,,,335991,1,2024-06-17_10h52.47.712,experiment,2024.1.5,MacIntel,60.24096386,667045947eb812cbdacbf325,66704aaaf5f945d019245d3f,,,,,,,,,,,,,,,,,,,,,,,,,,,,,,,,,,,,3449.0394,3455.6156,0.0,1.0,1.0,1.0,1.0,SoundStimuli/GetUrFreakOn_MissyElliot_Cover5S.wav,,,,,,,,,,,,,,,,,,,,,,,,,,,,,,,,,,,,,,,,,,,,,,,,,,,,,,,,,,
,,,,,335991,1,2024-06-17_10h52.47.712,experiment,2024.1.5,MacIntel,60.24096386,667045947eb812cbdacbf325,66704aaaf5f945d019245d3f,,,,,,,,,,,,,,,,,,,,,,,,,,,,,,,,,,,,,,,,,,,,3455.6158,3457.3639,2.027532122,1.7279,0.0,16.0,16.0,18.0,1.0,song_indices/GetUrFreakOn_MissyElliot.csv,,,,,,,,,,,,,,,,,,,,,,,,,,,,,,,,,,,,,,,,,,,,,,,,
,,,,,335991,1,2024-06-17_10h52.47.712,experiment,2024.1.5,MacIntel,60.24096386,667045947eb812cbdacbf325,66704aaaf5f945d019245d3f,,,,,,,,,,,,,,,,,,,,,,,,,,,,,,,,,,,,3457.3652,3465.0817,0.0,0.0,0.0,0.0,1.0,SoundStimuli/NoOne_AliciaKeys_Original5S.wav,,,,,,,,,,,,,,,,,,,,,,,,,,,,,,,,,,,,,,,,,,,,,,,,,,,,,,,,,,
,,,,,335991,1,2024-06-17_10h52.47.712,experiment,2024.1.5,MacIntel,60.24096386,667045947eb812cbdacbf325,66704aaaf5f945d019245d3f,,,,,,,,,,,,,,,,,,,,,,,,,,,,,,,,,,,,3465.0919,3471.2978,0.0,1.0,1.0,1.0,1.0,SoundStimuli/NoOne_AliciaKeys_Cover5S.wav,,,,,,,,,,,,,,,,,,,,,,,,,,,,,,,,,,,,,,,,,,,,,,,,,,,,,,,,,,
,,,,,335991,1,2024-06-17_10h52.47.712,experiment,2024.1.5,MacIntel,60.24096386,667045947eb812cbdacbf325,66704aaaf5f945d019245d3f,,,,,,,,,,,,,,,,,,,,,,,,,,,,,,,,,,,,,,,,,,,,3471.2982,3473.8147,1.004491196,2.4959,0.0,17.0,17.0,19.0,1.0,song_indices/NoOne_AliciaKeys.csv,,,,,,,,,,,,,,,,,,,,,,,,,,,,,,,,,,,,,,,,,,,,,,,,
,,,,,335991,1,2024-06-17_10h52.47.712,experiment,2024.1.5,MacIntel,60.24096386,667045947eb812cbdacbf325,66704aaaf5f945d019245d3f,,,,,,,,,,,,,,,,,,,,,,,,,,,,,,,,,,,,3473.8151,3479.8641,0.0,0.0,0.0,1.0,1.0,SoundStimuli/RockWithYou_MichaelJackson_Cover5S.wav,,,,,,,,,,,,,,,,,,,,,,,,,,,,,,,,,,,,,,,,,,,,,,,,,,,,,,,,,,
,,,,,335991,1,2024-06-17_10h52.47.712,experiment,2024.1.5,MacIntel,60.24096386,667045947eb812cbdacbf325,66704aaaf5f945d019245d3f,,,,,,,,,,,,,,,,,,,,,,,,,,,,,,,,,,,,3479.8737,3486.1983,0.0,1.0,1.0,0.0,1.0,SoundStimuli/RockWithYou_MichaelJackson_Original5S.wav,,,,,,,,,,,,,,,,,,,,,,,,,,,,,,,,,,,,,,,,,,,,,,,,,,,,,,,,,,
,,,,,335991,1,2024-06-17_10h52.47.712,experiment,2024.1.5,MacIntel,60.24096386,667045947eb812cbdacbf325,66704aaaf5f945d019245d3f,,,,,,,,,,,,,,,,,,,,,,,,,,,,,,,,,,,,,,,,,,,,3486.1985,3489.4489,5.969523319,3.2291,0.0,18.0,18.0,16.0,1.0,song_indices/RockWithYou_MichaelJackson.csv,,,,,,,,,,,,,,,,,,,,,,,,,,,,,,,,,,,,,,,,,,,,,,,,
,,,,,335991,1,2024-06-17_10h52.47.712,experiment,2024.1.5,MacIntel,60.24096386,667045947eb812cbdacbf325,66704aaaf5f945d019245d3f,,,,,,,,,,,,,,,,,,,,,,,,,,,,,,,,,,,,3489.45,3495.3981,0.0,0.0,0.0,1.0,1.0,SoundStimuli/TheBoyIsMine_BrandyMonica_Cover5S.wav,,,,,,,,,,,,,,,,,,,,,,,,,,,,,,,,,,,,,,,,,,,,,,,,,,,,,,,,,,
,,,,,335991,1,2024-06-17_10h52.47.712,experiment,2024.1.5,MacIntel,60.24096386,667045947eb812cbdacbf325,66704aaaf5f945d019245d3f,,,,,,,,,,,,,,,,,,,,,,,,,,,,,,,,,,,,3495.4076,3501.6149,0.0,1.0,1.0,0.0,1.0,SoundStimuli/TheBoyIsMine_BrandyMonica_Original5S.wav,,,,,,,,,,,,,,,,,,,,,,,,,,,,,,,,,,,,,,,,,,,,,,,,,,,,,,,,,,
,,,,,335991,1,2024-06-17_10h52.47.712,experiment,2024.1.5,MacIntel,60.24096386,667045947eb812cbdacbf325,66704aaaf5f945d019245d3f,,,,,,,,,,,,,,,,,,,,,,,,,,,,,,,,,,,,,,,,,,,,3501.6152,3503.5643,6.962256107,1.9306,0.0,19.0,19.0,6.0,1.0,song_indices/TheBoyIsMine_BrandyMonica.csv,,,,,,,,,,,,,,,,,,,,,,,,,,,,,,,,,,,,,,,,,,,,,,,,
,,,,,335991,1,2024-06-17_10h52.47.712,experiment,2024.1.5,MacIntel,60.24096386,667045947eb812cbdacbf325,66704aaaf5f945d019245d3f,,,,,,,,,,,,,,,,,,,,,,,,,,,,,,,,,,,,3503.5661,3509.7632,0.0,0.0,0.0,0.0,1.0,SoundStimuli/NoScrubs_TLC_Original5S.wav,,,,,,,,,,,,,,,,,,,,,,,,,,,,,,,,,,,,,,,,,,,,,,,,,,,,,,,,,,
,,,,,335991,1,2024-06-17_10h52.47.712,experiment,2024.1.5,MacIntel,60.24096386,667045947eb812cbdacbf325,66704aaaf5f945d019245d3f,,,,,,,,,,,,,,,,,,,,,,,,,,,,,,,,,,,,3509.7737,3515.8975,0.0,1.0,1.0,1.0,1.0,SoundStimuli/NoScrubs_TLC_Cover5S.wav,,,,,,,,,,,,,,,,,,,,,,,,,,,,,,,,,,,,,,,,,,,,,,,,,,,,,,,,,,
,,,,,335991,1,2024-06-17_10h52.47.712,experiment,2024.1.5,MacIntel,60.24096386,667045947eb812cbdacbf325,66704aaaf5f945d019245d3f,,,,,,,,,,,,,,,,,,,,,,,,,,,,,,,,,,,,,,,,,,,,3515.8978,3517.2802,5.969106916,1.3641,0.0,20.0,20.0,14.0,1.0,song_indices/NoScrubs_TLC.csv,,,,,,,,,,,,,,,,,,,,,,,,,,,,,,,,,,,,,,,,,,,,,,,,
,,,,,335991,1,2024-06-17_10h52.47.712,experiment,2024.1.5,MacIntel,60.24096386,667045947eb812cbdacbf325,66704aaaf5f945d019245d3f,,,,,,,,,,,,,,,,,,,,,,,,,,,,,,,,,,,,3517.2816,3523.4959,0.0,0.0,0.0,0.0,1.0,SoundStimuli/BetteDavisEyes_KimCarnes_Original5S.wav,,,,,,,,,,,,,,,,,,,,,,,,,,,,,,,,,,,,,,,,,,,,,,,,,,,,,,,,,,
,,,,,335991,1,2024-06-17_10h52.47.712,experiment,2024.1.5,MacIntel,60.24096386,667045947eb812cbdacbf325,66704aaaf5f945d019245d3f,,,,,,,,,,,,,,,,,,,,,,,,,,,,,,,,,,,,3523.5059,3529.1968,0.0,1.0,1.0,1.0,1.0,SoundStimuli/BetteDavisEyes_KimCarnes_Cover5S.wav,,,,,,,,,,,,,,,,,,,,,,,,,,,,,,,,,,,,,,,,,,,,,,,,,,,,,,,,,,
,,,,,335991,1,2024-06-17_10h52.47.712,experiment,2024.1.5,MacIntel,60.24096386,667045947eb812cbdacbf325,66704aaaf5f945d019245d3f,,,,,,,,,,,,,,,,,,,,,,,,,,,,,,,,,,,,,,,,,,,,3529.1971,3531.3116,3.025975571,2.1035,0.0,21.0,21.0,5.0,1.0,song_indices/BetteDavisEyes_KimCarnes.csv,,,,,,,,,,,,,,,,,,,,,,,,,,,,,,,,,,,,,,,,,,,,,,,,
,,,,,335991,1,2024-06-17_10h52.47.712,experiment,2024.1.5,MacIntel,60.24096386,667045947eb812cbdacbf325,66704aaaf5f945d019245d3f,,,,,,,,,,,,,,,,,,,,,,,,,,,,,,,,,,,,3531.3128,3537.7127,0.0,0.0,0.0,0.0,1.0,SoundStimuli/IWillAlwaysLoveYou_WhitneyHouston_Original5S.wav,,,,,,,,,,,,,,,,,,,,,,,,,,,,,,,,,,,,,,,,,,,,,,,,,,,,,,,,,,
,,,,,335991,1,2024-06-17_10h52.47.712,experiment,2024.1.5,MacIntel,60.24096386,667045947eb812cbdacbf325,66704aaaf5f945d019245d3f,,,,,,,,,,,,,,,,,,,,,,,,,,,,,,,,,,,,3537.7228,3543.5615,0.0,1.0,1.0,1.0,1.0,SoundStimuli/IWillAlwaysLoveYou_WhitneyHouston_Cover5S.wav,,,,,,,,,,,,,,,,,,,,,,,,,,,,,,,,,,,,,,,,,,,,,,,,,,,,,,,,,,
,,,,,335991,1,2024-06-17_10h52.47.712,experiment,2024.1.5,MacIntel,60.24096386,667045947eb812cbdacbf325,66704aaaf5f945d019245d3f,,,,,,,,,,,,,,,,,,,,,,,,,,,,,,,,,,,,,,,,,,,,3543.5618,3546.4612,6.99714467,2.8842,0.0,22.0,22.0,10.0,1.0,song_indices/IWillAlwaysLoveYou_WhitneyHouston.csv,,,,,,,,,,,,,,,,,,,,,,,,,,,,,,,,,,,,,,,,,,,,,,,,
,,,,,335991,1,2024-06-17_10h52.47.712,experiment,2024.1.5,MacIntel,60.24096386,667045947eb812cbdacbf325,66704aaaf5f945d019245d3f,,,,,,,,,,,,,,,,,,,,,,,,,,,,,,,,,,,,,,,,,,,,,,,,,,,,,,3546.4613,3556.1779,space,9.7094,,0.0,1.0,1.0,1.0,1.0,choose_song_b2.csv,,,,,,,,,,,,,,,,,,,,,,,,,,,,,,,,,,,,,
,,,,,335991,1,2024-06-17_10h52.47.712,experiment,2024.1.5,MacIntel,60.24096386,667045947eb812cbdacbf325,66704aaaf5f945d019245d3f,,,,,,,,,,,,,,,,,,,,,,,,,,,,,,,,,,,,3556.1792,3562.045,0.0,0.0,0.0,0.0,1.0,SoundStimuli/Irreplaceable_Beyonce_Original5S.wav,,,,,,,,,,,,,,,,,,,,,,,,,,,,,,,,,,,,,,,,,,,,,,,,,,,,,,,,,,
,,,,,335991,1,2024-06-17_10h52.47.712,experiment,2024.1.5,MacIntel,60.24096386,667045947eb812cbdacbf325,66704aaaf5f945d019245d3f,,,,,,,,,,,,,,,,,,,,,,,,,,,,,,,,,,,,3562.054,3567.9607,0.0,1.0,1.0,1.0,1.0,SoundStimuli/Irreplaceable_Beyonce_Cover5S.wav,,,,,,,,,,,,,,,,,,,,,,,,,,,,,,,,,,,,,,,,,,,,,,,,,,,,,,,,,,
,,,,,335991,1,2024-06-17_10h52.47.712,experiment,2024.1.5,MacIntel,60.24096386,667045947eb812cbdacbf325,66704aaaf5f945d019245d3f,,,,,,,,,,,,,,,,,,,,,,,,,,,,,,,,,,,,,,,,,,,,3567.9609,3573.5295,2.996054093,5.5542,0.0,0.0,0.0,19.0,1.0,song_indices/Irreplaceable_Beyonce.csv,,,,,,,,,,,,,,,,,,,,,,,,,,,,,,,,,,,,,,,,,,,,,,,,
,,,,,335991,1,2024-06-17_10h52.47.712,experiment,2024.1.5,MacIntel,60.24096386,667045947eb812cbdacbf325,66704aaaf5f945d019245d3f,,,,,,,,,,,,,,,,,,,,,,,,,,,,,,,,,,,,3573.5306,3578.8279,0.0,0.0,0.0,1.0,1.0,SoundStimuli/Superstition_StevieWonder_Cover5S.wav,,,,,,,,,,,,,,,,,,,,,,,,,,,,,,,,,,,,,,,,,,,,,,,,,,,,,,,,,,
,,,,,335991,1,2024-06-17_10h52.47.712,experiment,2024.1.5,MacIntel,60.24096386,667045947eb812cbdacbf325,66704aaaf5f945d019245d3f,,,,,,,,,,,,,,,,,,,,,,,,,,,,,,,,,,,,3578.8387,3584.9778,0.0,1.0,1.0,0.0,1.0,SoundStimuli/Superstition_StevieWonder_Original5S.wav,,,,,,,,,,,,,,,,,,,,,,,,,,,,,,,,,,,,,,,,,,,,,,,,,,,,,,,,,,
,,,,,335991,1,2024-06-17_10h52.47.712,experiment,2024.1.5,MacIntel,60.24096386,667045947eb812cbdacbf325,66704aaaf5f945d019245d3f,,,,,,,,,,,,,,,,,,,,,,,,,,,,,,,,,,,,,,,,,,,,3584.9779,3588.128,3.993040133,3.126,0.0,1.0,1.0,15.0,1.0,song_indices/Superstition_StevieWonder.csv,,,,,,,,,,,,,,,,,,,,,,,,,,,,,,,,,,,,,,,,,,,,,,,,
,,,,,335991,1,2024-06-17_10h52.47.712,experiment,2024.1.5,MacIntel,60.24096386,667045947eb812cbdacbf325,66704aaaf5f945d019245d3f,,,,,,,,,,,,,,,,,,,,,,,,,,,,,,,,,,,,3588.1288,3594.6284,0.0,0.0,0.0,0.0,1.0,SoundStimuli/BlindingLights_TheWeeknd_Original5S.wav,,,,,,,,,,,,,,,,,,,,,,,,,,,,,,,,,,,,,,,,,,,,,,,,,,,,,,,,,,
,,,,,335991,1,2024-06-17_10h52.47.712,experiment,2024.1.5,MacIntel,60.24096386,667045947eb812cbdacbf325,66704aaaf5f945d019245d3f,,,,,,,,,,,,,,,,,,,,,,,,,,,,,,,,,,,,3594.6383,3601.4272,0.0,1.0,1.0,1.0,1.0,SoundStimuli/BlindingLights_TheWeeknd_Cover5S.wav,,,,,,,,,,,,,,,,,,,,,,,,,,,,,,,,,,,,,,,,,,,,,,,,,,,,,,,,,,
,,,,,335991,1,2024-06-17_10h52.47.712,experiment,2024.1.5,MacIntel,60.24096386,667045947eb812cbdacbf325,66704aaaf5f945d019245d3f,,,,,,,,,,,,,,,,,,,,,,,,,,,,,,,,,,,,,,,,,,,,3601.4274,3605.1272,3.00390625,3.6782,0.0,2.0,2.0,21.0,1.0,song_indices/BlindingLights_TheWeeknd.csv,,,,,,,,,,,,,,,,,,,,,,,,,,,,,,,,,,,,,,,,,,,,,,,,
,,,,,335991,1,2024-06-17_10h52.47.712,experiment,2024.1.5,MacIntel,60.24096386,667045947eb812cbdacbf325,66704aaaf5f945d019245d3f,,,,,,,,,,,,,,,,,,,,,,,,,,,,,,,,,,,,3605.1283,3611.9258,0.0,0.0,0.0,1.0,1.0,SoundStimuli/SomebodyThatIUsedtoKnow_Gotye_Cover5S.wav,,,,,,,,,,,,,,,,,,,,,,,,,,,,,,,,,,,,,,,,,,,,,,,,,,,,,,,,,,
,,,,,335991,1,2024-06-17_10h52.47.712,experiment,2024.1.5,MacIntel,60.24096386,667045947eb812cbdacbf325,66704aaaf5f945d019245d3f,,,,,,,,,,,,,,,,,,,,,,,,,,,,,,,,,,,,3611.9356,3619.1585,0.0,1.0,1.0,0.0,1.0,SoundStimuli/SomebodyThatIUsedtoKnow_Gotye_Original5S.wav,,,,,,,,,,,,,,,,,,,,,,,,,,,,,,,,,,,,,,,,,,,,,,,,,,,,,,,,,,
,,,,,335991,1,2024-06-17_10h52.47.712,experiment,2024.1.5,MacIntel,60.24096386,667045947eb812cbdacbf325,66704aaaf5f945d019245d3f,,,,,,,,,,,,,,,,,,,,,,,,,,,,,,,,,,,,,,,,,,,,3619.1587,3621.6256,4.995052744,2.4452,0.0,3.0,3.0,7.0,1.0,song_indices/SomebodyThatIUsedtoKnow_Gotye.csv,,,,,,,,,,,,,,,,,,,,,,,,,,,,,,,,,,,,,,,,,,,,,,,,
,,,,,335991,1,2024-06-17_10h52.47.712,experiment,2024.1.5,MacIntel,60.24096386,667045947eb812cbdacbf325,66704aaaf5f945d019245d3f,,,,,,,,,,,,,,,,,,,,,,,,,,,,,,,,,,,,3621.6268,3627.6932,0.0,0.0,0.0,1.0,1.0,SoundStimuli/Respect_ArethaFranklin_Cover5S.wav,,,,,,,,,,,,,,,,,,,,,,,,,,,,,,,,,,,,,,,,,,,,,,,,,,,,,,,,,,
,,,,,335991,1,2024-06-17_10h52.47.712,experiment,2024.1.5,MacIntel,60.24096386,667045947eb812cbdacbf325,66704aaaf5f945d019245d3f,,,,,,,,,,,,,,,,,,,,,,,,,,,,,,,,,,,,3627.7029,3633.625,0.0,1.0,1.0,0.0,1.0,SoundStimuli/Respect_ArethaFranklin_Original5S.wav,,,,,,,,,,,,,,,,,,,,,,,,,,,,,,,,,,,,,,,,,,,,,,,,,,,,,,,,,,
,,,,,335991,1,2024-06-17_10h52.47.712,experiment,2024.1.5,MacIntel,60.24096386,667045947eb812cbdacbf325,66704aaaf5f945d019245d3f,,,,,,,,,,,,,,,,,,,,,,,,,,,,,,,,,,,,,,,,,,,,3633.6252,3638.9589,1.061805996,5.3143,0.0,4.0,4.0,0.0,1.0,song_indices/Respect_ArethaFranklin.csv,,,,,,,,,,,,,,,,,,,,,,,,,,,,,,,,,,,,,,,,,,,,,,,,
,,,,,335991,1,2024-06-17_10h52.47.712,experiment,2024.1.5,MacIntel,60.24096386,667045947eb812cbdacbf325,66704aaaf5f945d019245d3f,,,,,,,,,,,,,,,,,,,,,,,,,,,,,,,,,,,,3638.9603,3645.259,0.0,0.0,0.0,0.0,1.0,SoundStimuli/LetsGetItOn_MarvinGaye_Original5S.wav,,,,,,,,,,,,,,,,,,,,,,,,,,,,,,,,,,,,,,,,,,,,,,,,,,,,,,,,,,
,,,,,335991,1,2024-06-17_10h52.47.712,experiment,2024.1.5,MacIntel,60.24096386,667045947eb812cbdacbf325,66704aaaf5f945d019245d3f,,,,,,,,,,,,,,,,,,,,,,,,,,,,,,,,,,,,3645.2688,3651.9077,0.0,1.0,1.0,1.0,1.0,SoundStimuli/LetsGetItOn_MarvinGaye_Cover5S.wav,,,,,,,,,,,,,,,,,,,,,,,,,,,,,,,,,,,,,,,,,,,,,,,,,,,,,,,,,,
,,,,,335991,1,2024-06-17_10h52.47.712,experiment,2024.1.5,MacIntel,60.24096386,667045947eb812cbdacbf325,66704aaaf5f945d019245d3f,,,,,,,,,,,,,,,,,,,,,,,,,,,,,,,,,,,,,,,,,,,,3651.9079,3653.9398,1.000446145,2.0133,0.0,5.0,5.0,20.0,1.0,song_indices/LetsGetItOn_MarvinGaye.csv,,,,,,,,,,,,,,,,,,,,,,,,,,,,,,,,,,,,,,,,,,,,,,,,
,,,,,335991,1,2024-06-17_10h52.47.712,experiment,2024.1.5,MacIntel,60.24096386,667045947eb812cbdacbf325,66704aaaf5f945d019245d3f,,,,,,,,,,,,,,,,,,,,,,,,,,,,,,,,,,,,3653.9409,3661.3578,0.0,0.0,0.0,0.0,1.0,SoundStimuli/Kiss_Prince_Original5S.wav,,,,,,,,,,,,,,,,,,,,,,,,,,,,,,,,,,,,,,,,,,,,,,,,,,,,,,,,,,
,,,,,335991,1,2024-06-17_10h52.47.712,experiment,2024.1.5,MacIntel,60.24096386,667045947eb812cbdacbf325,66704aaaf5f945d019245d3f,,,,,,,,,,,,,,,,,,,,,,,,,,,,,,,,,,,,3661.3696,3667.6401,0.0,1.0,1.0,1.0,1.0,SoundStimuli/Kiss_Prince_Cover5S.wav,,,,,,,,,,,,,,,,,,,,,,,,,,,,,,,,,,,,,,,,,,,,,,,,,,,,,,,,,,
,,,,,335991,1,2024-06-17_10h52.47.712,experiment,2024.1.5,MacIntel,60.24096386,667045947eb812cbdacbf325,66704aaaf5f945d019245d3f,,,,,,,,,,,,,,,,,,,,,,,,,,,,,,,,,,,,,,,,,,,,3667.6405,3669.1231,1.552298144,1.4647,0.0,6.0,6.0,14.0,1.0,song_indices/Kiss_Prince.csv,,,,,,,,,,,,,,,,,,,,,,,,,,,,,,,,,,,,,,,,,,,,,,,,
,,,,,335991,1,2024-06-17_10h52.47.712,experiment,2024.1.5,MacIntel,60.24096386,667045947eb812cbdacbf325,66704aaaf5f945d019245d3f,,,,,,,,,,,,,,,,,,,,,,,,,,,,,,,,,,,,3669.1244,3675.8907,0.0,0.0,0.0,0.0,1.0,SoundStimuli/BlurredLines_RobinThicke_Original5S.wav,,,,,,,,,,,,,,,,,,,,,,,,,,,,,,,,,,,,,,,,,,,,,,,,,,,,,,,,,,
,,,,,335991,1,2024-06-17_10h52.47.712,experiment,2024.1.5,MacIntel,60.24096386,667045947eb812cbdacbf325,66704aaaf5f945d019245d3f,,,,,,,,,,,,,,,,,,,,,,,,,,,,,,,,,,,,3675.901,3682.9911,0.0,1.0,1.0,1.0,1.0,SoundStimuli/BlurredLines_RobinThicke_Cover5S.wav,,,,,,,,,,,,,,,,,,,,,,,,,,,,,,,,,,,,,,,,,,,,,,,,,,,,,,,,,,
,,,,,335991,1,2024-06-17_10h52.47.712,experiment,2024.1.5,MacIntel,60.24096386,667045947eb812cbdacbf325,66704aaaf5f945d019245d3f,,,,,,,,,,,,,,,,,,,,,,,,,,,,,,,,,,,,,,,,,,,,3682.9913,3700.1397,6.017677268,17.1304,0.0,7.0,7.0,9.0,1.0,song_indices/BlurredLines_RobinThicke.csv,,,,,,,,,,,,,,,,,,,,,,,,,,,,,,,,,,,,,,,,,,,,,,,,
,,,,,335991,1,2024-06-17_10h52.47.712,experiment,2024.1.5,MacIntel,60.24096386,667045947eb812cbdacbf325,66704aaaf5f945d019245d3f,,,,,,,,,,,,,,,,,,,,,,,,,,,,,,,,,,,,3700.1411,3706.1716,0.0,0.0,0.0,0.0,1.0,SoundStimuli/LeFreak_Chic_Original5S.wav,,,,,,,,,,,,,,,,,,,,,,,,,,,,,,,,,,,,,,,,,,,,,,,,,,,,,,,,,,
,,,,,335991,1,2024-06-17_10h52.47.712,experiment,2024.1.5,MacIntel,60.24096386,667045947eb812cbdacbf325,66704aaaf5f945d019245d3f,,,,,,,,,,,,,,,,,,,,,,,,,,,,,,,,,,,,3706.1813,3711.6908,0.0,1.0,1.0,1.0,1.0,SoundStimuli/LeFreak_Chic_Cover5S.wav,,,,,,,,,,,,,,,,,,,,,,,,,,,,,,,,,,,,,,,,,,,,,,,,,,,,,,,,,,
,,,,,335991,1,2024-06-17_10h52.47.712,experiment,2024.1.5,MacIntel,60.24096386,667045947eb812cbdacbf325,66704aaaf5f945d019245d3f,,,,,,,,,,,,,,,,,,,,,,,,,,,,,,,,,,,,,,,,,,,,3711.691,3768.1374,6.987745876,56.4336,0.0,8.0,8.0,11.0,1.0,song_indices/LeFreak_Chic.csv,,,,,,,,,,,,,,,,,,,,,,,,,,,,,,,,,,,,,,,,,,,,,,,,
,,,,,335991,1,2024-06-17_10h52.47.712,experiment,2024.1.5,MacIntel,60.24096386,667045947eb812cbdacbf325,66704aaaf5f945d019245d3f,,,,,,,,,,,,,,,,,,,,,,,,,,,,,,,,,,,,3768.1381,3774.6547,0.0,0.0,0.0,0.0,1.0,SoundStimuli/Dreams_FleetwoodMac_Original5S.wav,,,,,,,,,,,,,,,,,,,,,,,,,,,,,,,,,,,,,,,,,,,,,,,,,,,,,,,,,,
,,,,,335991,1,2024-06-17_10h52.47.712,experiment,2024.1.5,MacIntel,60.24096386,667045947eb812cbdacbf325,66704aaaf5f945d019245d3f,,,,,,,,,,,,,,,,,,,,,,,,,,,,,,,,,,,,3774.6646,3782.4852,0.0,1.0,1.0,1.0,1.0,SoundStimuli/Dreams_FleetwoodMac_Cover5S.wav,,,,,,,,,,,,,,,,,,,,,,,,,,,,,,,,,,,,,,,,,,,,,,,,,,,,,,,,,,
,,,,,335991,1,2024-06-17_10h52.47.712,experiment,2024.1.5,MacIntel,60.24096386,667045947eb812cbdacbf325,66704aaaf5f945d019245d3f,,,,,,,,,,,,,,,,,,,,,,,,,,,,,,,,,,,,,,,,,,,,3782.4854,3785.9701,2.028305441,3.462,0.0,9.0,9.0,1.0,1.0,song_indices/Dreams_FleetwoodMac.csv,,,,,,,,,,,,,,,,,,,,,,,,,,,,,,,,,,,,,,,,,,,,,,,,
,,,,,335991,1,2024-06-17_10h52.47.712,experiment,2024.1.5,MacIntel,60.24096386,667045947eb812cbdacbf325,66704aaaf5f945d019245d3f,,,,,,,,,,,,,,,,,,,,,,,,,,,,,,,,,,,,3785.9708,3793.0361,0.0,0.0,0.0,1.0,1.0,SoundStimuli/ComeAndGetYourLove_Redbone_Cover5S.wav,,,,,,,,,,,,,,,,,,,,,,,,,,,,,,,,,,,,,,,,,,,,,,,,,,,,,,,,,,
,,,,,335991,1,2024-06-17_10h52.47.712,experiment,2024.1.5,MacIntel,60.24096386,667045947eb812cbdacbf325,66704aaaf5f945d019245d3f,,,,,,,,,,,,,,,,,,,,,,,,,,,,,,,,,,,,3793.0457,3799.151,0.0,1.0,1.0,0.0,1.0,SoundStimuli/ComeAndGetYourLove_Redbone_Original5S.wav,,,,,,,,,,,,,,,,,,,,,,,,,,,,,,,,,,,,,,,,,,,,,,,,,,,,,,,,,,
,,,,,335991,1,2024-06-17_10h52.47.712,experiment,2024.1.5,MacIntel,60.24096386,667045947eb812cbdacbf325,66704aaaf5f945d019245d3f,,,,,,,,,,,,,,,,,,,,,,,,,,,,,,,,,,,,,,,,,,,,3799.1514,3801.2679,4.563392291,2.0953,0.0,10.0,10.0,22.0,1.0,song_indices/ComeAndGetYourLove_Redbone.csv,,,,,,,,,,,,,,,,,,,,,,,,,,,,,,,,,,,,,,,,,,,,,,,,
,,,,,335991,1,2024-06-17_10h52.47.712,experiment,2024.1.5,MacIntel,60.24096386,667045947eb812cbdacbf325,66704aaaf5f945d019245d3f,,,,,,,,,,,,,,,,,,,,,,,,,,,,,,,,,,,,3801.2692,3807.2856,0.0,0.0,0.0,0.0,1.0,SoundStimuli/Levitating_DuaLipa_Original5S.wav,,,,,,,,,,,,,,,,,,,,,,,,,,,,,,,,,,,,,,,,,,,,,,,,,,,,,,,,,,
,,,,,335991,1,2024-06-17_10h52.47.712,experiment,2024.1.5,MacIntel,60.24096386,667045947eb812cbdacbf325,66704aaaf5f945d019245d3f,,,,,,,,,,,,,,,,,,,,,,,,,,,,,,,,,,,,3807.2954,3813.0022,0.0,1.0,1.0,1.0,1.0,SoundStimuli/Levitating_DuaLipa_Cover5S.wav,,,,,,,,,,,,,,,,,,,,,,,,,,,,,,,,,,,,,,,,,,,,,,,,,,,,,,,,,,
,,,,,335991,1,2024-06-17_10h52.47.712,experiment,2024.1.5,MacIntel,60.24096386,667045947eb812cbdacbf325,66704aaaf5f945d019245d3f,,,,,,,,,,,,,,,,,,,,,,,,,,,,,,,,,,,,,,,,,,,,3813.0025,3814.0855,5.034670447,1.0626,0.0,11.0,11.0,10.0,1.0,song_indices/Levitating_DuaLipa.csv,,,,,,,,,,,,,,,,,,,,,,,,,,,,,,,,,,,,,,,,,,,,,,,,
,,,,,335991,1,2024-06-17_10h52.47.712,experiment,2024.1.5,MacIntel,60.24096386,667045947eb812cbdacbf325,66704aaaf5f945d019245d3f,,,,,,,,,,,,,,,,,,,,,,,,,,,,,,,,,,,,3814.0867,3820.2839,0.0,0.0,0.0,0.0,1.0,SoundStimuli/Dilemma_NellyKellyRowland_Original5S.wav,,,,,,,,,,,,,,,,,,,,,,,,,,,,,,,,,,,,,,,,,,,,,,,,,,,,,,,,,,
,,,,,335991,1,2024-06-17_10h52.47.712,experiment,2024.1.5,MacIntel,60.24096386,667045947eb812cbdacbf325,66704aaaf5f945d019245d3f,,,,,,,,,,,,,,,,,,,,,,,,,,,,,,,,,,,,3820.2936,3827.2847,0.0,1.0,1.0,1.0,1.0,SoundStimuli/Dilemma_NellyKellyRowland_Cover5S.wav,,,,,,,,,,,,,,,,,,,,,,,,,,,,,,,,,,,,,,,,,,,,,,,,,,,,,,,,,,
,,,,,335991,1,2024-06-17_10h52.47.712,experiment,2024.1.5,MacIntel,60.24096386,667045947eb812cbdacbf325,66704aaaf5f945d019245d3f,,,,,,,,,,,,,,,,,,,,,,,,,,,,,,,,,,,,,,,,,,,,3827.285,3828.217,1.032211691,0.9117,0.0,12.0,12.0,2.0,1.0,song_indices/Dilemma_NellyKellyRowland.csv,,,,,,,,,,,,,,,,,,,,,,,,,,,,,,,,,,,,,,,,,,,,,,,,
,,,,,335991,1,2024-06-17_10h52.47.712,experiment,2024.1.5,MacIntel,60.24096386,667045947eb812cbdacbf325,66704aaaf5f945d019245d3f,,,,,,,,,,,,,,,,,,,,,,,,,,,,,,,,,,,,3828.218,3833.3504,0.0,0.0,0.0,1.0,1.0,SoundStimuli/JoyToTheWorld_ThreeDogNight_Cover5S.wav,,,,,,,,,,,,,,,,,,,,,,,,,,,,,,,,,,,,,,,,,,,,,,,,,,,,,,,,,,
,,,,,335991,1,2024-06-17_10h52.47.712,experiment,2024.1.5,MacIntel,60.24096386,667045947eb812cbdacbf325,66704aaaf5f945d019245d3f,,,,,,,,,,,,,,,,,,,,,,,,,,,,,,,,,,,,3833.3608,3839.4653,0.0,1.0,1.0,0.0,1.0,SoundStimuli/JoyToTheWorld_ThreeDogNight_Original5S.wav,,,,,,,,,,,,,,,,,,,,,,,,,,,,,,,,,,,,,,,,,,,,,,,,,,,,,,,,,,
,,,,,335991,1,2024-06-17_10h52.47.712,experiment,2024.1.5,MacIntel,60.24096386,667045947eb812cbdacbf325,66704aaaf5f945d019245d3f,,,,,,,,,,,,,,,,,,,,,,,,,,,,,,,,,,,,,,,,,,,,3839.4656,3841.7648,6.994438055,2.2826,0.0,13.0,13.0,8.0,1.0,song_indices/JoyToTheWorld_ThreeDogNight.csv,,,,,,,,,,,,,,,,,,,,,,,,,,,,,,,,,,,,,,,,,,,,,,,,
,,,,,335991,1,2024-06-17_10h52.47.712,experiment,2024.1.5,MacIntel,60.24096386,667045947eb812cbdacbf325,66704aaaf5f945d019245d3f,,,,,,,,,,,,,,,,,,,,,,,,,,,,,,,,,,,,3841.7659,3848.2337,0.0,0.0,0.0,1.0,1.0,SoundStimuli/Weak_SWV_Cover5S.wav,,,,,,,,,,,,,,,,,,,,,,,,,,,,,,,,,,,,,,,,,,,,,,,,,,,,,,,,,,
,,,,,335991,1,2024-06-17_10h52.47.712,experiment,2024.1.5,MacIntel,60.24096386,667045947eb812cbdacbf325,66704aaaf5f945d019245d3f,,,,,,,,,,,,,,,,,,,,,,,,,,,,,,,,,,,,3848.2443,3854.316,0.0,1.0,1.0,0.0,1.0,SoundStimuli/Weak_SWV_Original5S.wav,,,,,,,,,,,,,,,,,,,,,,,,,,,,,,,,,,,,,,,,,,,,,,,,,,,,,,,,,,
,,,,,335991,1,2024-06-17_10h52.47.712,experiment,2024.1.5,MacIntel,60.24096386,667045947eb812cbdacbf325,66704aaaf5f945d019245d3f,,,,,,,,,,,,,,,,,,,,,,,,,,,,,,,,,,,,,,,,,,,,3854.3162,3855.4834,2.029852078,1.1477,0.0,14.0,14.0,6.0,1.0,song_indices/Weak_SWV.csv,,,,,,,,,,,,,,,,,,,,,,,,,,,,,,,,,,,,,,,,,,,,,,,,
,,,,,335991,1,2024-06-17_10h52.47.712,experiment,2024.1.5,MacIntel,60.24096386,667045947eb812cbdacbf325,66704aaaf5f945d019245d3f,,,,,,,,,,,,,,,,,,,,,,,,,,,,,,,,,,,,3855.4848,3862.3327,0.0,0.0,0.0,1.0,1.0,SoundStimuli/PokerFace_LadyGaga_Cover5S.wav,,,,,,,,,,,,,,,,,,,,,,,,,,,,,,,,,,,,,,,,,,,,,,,,,,,,,,,,,,
,,,,,335991,1,2024-06-17_10h52.47.712,experiment,2024.1.5,MacIntel,60.24096386,667045947eb812cbdacbf325,66704aaaf5f945d019245d3f,,,,,,,,,,,,,,,,,,,,,,,,,,,,,,,,,,,,3862.3436,3869.3497,0.0,1.0,1.0,0.0,1.0,SoundStimuli/PokerFace_LadyGaga_Original5S.wav,,,,,,,,,,,,,,,,,,,,,,,,,,,,,,,,,,,,,,,,,,,,,,,,,,,,,,,,,,
,,,,,335991,1,2024-06-17_10h52.47.712,experiment,2024.1.5,MacIntel,60.24096386,667045947eb812cbdacbf325,66704aaaf5f945d019245d3f,,,,,,,,,,,,,,,,,,,,,,,,,,,,,,,,,,,,,,,,,,,,3869.3498,3871.8654,4.00226047,2.4946,0.0,15.0,15.0,23.0,1.0,song_indices/PokerFace_LadyGaga.csv,,,,,,,,,,,,,,,,,,,,,,,,,,,,,,,,,,,,,,,,,,,,,,,,
,,,,,335991,1,2024-06-17_10h52.47.712,experiment,2024.1.5,MacIntel,60.24096386,667045947eb812cbdacbf325,66704aaaf5f945d019245d3f,,,,,,,,,,,,,,,,,,,,,,,,,,,,,,,,,,,,3871.8663,3877.9638,0.0,0.0,0.0,1.0,1.0,SoundStimuli/TossinAndTurnin_BobbyLewis_Cover5S.wav,,,,,,,,,,,,,,,,,,,,,,,,,,,,,,,,,,,,,,,,,,,,,,,,,,,,,,,,,,
,,,,,335991,1,2024-06-17_10h52.47.712,experiment,2024.1.5,MacIntel,60.24096386,667045947eb812cbdacbf325,66704aaaf5f945d019245d3f,,,,,,,,,,,,,,,,,,,,,,,,,,,,,,,,,,,,3877.9752,3884.0337,0.0,1.0,1.0,0.0,1.0,SoundStimuli/TossinAndTurnin_BobbyLewis_Original5S.wav,,,,,,,,,,,,,,,,,,,,,,,,,,,,,,,,,,,,,,,,,,,,,,,,,,,,,,,,,,
,,,,,335991,1,2024-06-17_10h52.47.712,experiment,2024.1.5,MacIntel,60.24096386,667045947eb812cbdacbf325,66704aaaf5f945d019245d3f,,,,,,,,,,,,,,,,,,,,,,,,,,,,,,,,,,,,,,,,,,,,3884.0339,3885.6987,4.596823445,1.6463,0.0,16.0,16.0,13.0,1.0,song_indices/TossinAndTurnin_BobbyLewis.csv,,,,,,,,,,,,,,,,,,,,,,,,,,,,,,,,,,,,,,,,,,,,,,,,
,,,,,335991,1,2024-06-17_10h52.47.712,experiment,2024.1.5,MacIntel,60.24096386,667045947eb812cbdacbf325,66704aaaf5f945d019245d3f,,,,,,,,,,,,,,,,,,,,,,,,,,,,,,,,,,,,3885.6999,3891.7166,0.0,0.0,0.0,1.0,1.0,SoundStimuli/TheSign_AceOfBase_Cover5S.wav,,,,,,,,,,,,,,,,,,,,,,,,,,,,,,,,,,,,,,,,,,,,,,,,,,,,,,,,,,
,,,,,335991,1,2024-06-17_10h52.47.712,experiment,2024.1.5,MacIntel,60.24096386,667045947eb812cbdacbf325,66704aaaf5f945d019245d3f,,,,,,,,,,,,,,,,,,,,,,,,,,,,,,,,,,,,3891.7267,3897.8821,0.0,1.0,1.0,0.0,1.0,SoundStimuli/TheSign_AceOfBase_Original5S.wav,,,,,,,,,,,,,,,,,,,,,,,,,,,,,,,,,,,,,,,,,,,,,,,,,,,,,,,,,,
,,,,,335991,1,2024-06-17_10h52.47.712,experiment,2024.1.5,MacIntel,60.24096386,667045947eb812cbdacbf325,66704aaaf5f945d019245d3f,,,,,,,,,,,,,,,,,,,,,,,,,,,,,,,,,,,,,,,,,,,,3897.8822,3898.8298,4.698752776,0.9365,0.0,17.0,17.0,5.0,1.0,song_indices/TheSign_AceOfBase.csv,,,,,,,,,,,,,,,,,,,,,,,,,,,,,,,,,,,,,,,,,,,,,,,,
,,,,,335991,1,2024-06-17_10h52.47.712,experiment,2024.1.5,MacIntel,60.24096386,667045947eb812cbdacbf325,66704aaaf5f945d019245d3f,,,,,,,,,,,,,,,,,,,,,,,,,,,,,,,,,,,,3898.8308,3905.2974,0.0,0.0,0.0,1.0,1.0,SoundStimuli/YouLightUpMyLife_DebbyBoone_Cover5S.wav,,,,,,,,,,,,,,,,,,,,,,,,,,,,,,,,,,,,,,,,,,,,,,,,,,,,,,,,,,
,,,,,335991,1,2024-06-17_10h52.47.712,experiment,2024.1.5,MacIntel,60.24096386,667045947eb812cbdacbf325,66704aaaf5f945d019245d3f,,,,,,,,,,,,,,,,,,,,,,,,,,,,,,,,,,,,3905.3073,3915.4482,0.0,1.0,1.0,0.0,1.0,SoundStimuli/YouLightUpMyLife_DebbyBoone_Original5S.wav,,,,,,,,,,,,,,,,,,,,,,,,,,,,,,,,,,,,,,,,,,,,,,,,,,,,,,,,,,
,,,,,335991,1,2024-06-17_10h52.47.712,experiment,2024.1.5,MacIntel,60.24096386,667045947eb812cbdacbf325,66704aaaf5f945d019245d3f,,,,,,,,,,,,,,,,,,,,,,,,,,,,,,,,,,,,,,,,,,,,3915.4485,3917.4969,5.991087008,2.0351,0.0,18.0,18.0,4.0,1.0,song_indices/YouLightUpMyLife_DebbyBoone.csv,,,,,,,,,,,,,,,,,,,,,,,,,,,,,,,,,,,,,,,,,,,,,,,,
,,,,,335991,1,2024-06-17_10h52.47.712,experiment,2024.1.5,MacIntel,60.24096386,667045947eb812cbdacbf325,66704aaaf5f945d019245d3f,,,,,,,,,,,,,,,,,,,,,,,,,,,,,,,,,,,,3917.4982,3923.3989,0.0,0.0,0.0,1.0,1.0,SoundStimuli/SaveYourTears_TheWeekndArianaGrande_Cover5S.wav,,,,,,,,,,,,,,,,,,,,,,,,,,,,,,,,,,,,,,,,,,,,,,,,,,,,,,,,,,
,,,,,335991,1,2024-06-17_10h52.47.712,experiment,2024.1.5,MacIntel,60.24096386,667045947eb812cbdacbf325,66704aaaf5f945d019245d3f,,,,,,,,,,,,,,,,,,,,,,,,,,,,,,,,,,,,3923.409,3929.598,0.0,1.0,1.0,0.0,1.0,SoundStimuli/SaveYourTears_TheWeekndArianaGrande_Original5S.wav,,,,,,,,,,,,,,,,,,,,,,,,,,,,,,,,,,,,,,,,,,,,,,,,,,,,,,,,,,
,,,,,335991,1,2024-06-17_10h52.47.712,experiment,2024.1.5,MacIntel,60.24096386,667045947eb812cbdacbf325,66704aaaf5f945d019245d3f,,,,,,,,,,,,,,,,,,,,,,,,,,,,,,,,,,,,,,,,,,,,3929.5983,3931.0477,3.520483027,1.4343,0.0,19.0,19.0,12.0,1.0,song_indices/SaveYourTears_TheWeekndArianaGrande.csv,,,,,,,,,,,,,,,,,,,,,,,,,,,,,,,,,,,,,,,,,,,,,,,,
,,,,,335991,1,2024-06-17_10h52.47.712,experiment,2024.1.5,MacIntel,60.24096386,667045947eb812cbdacbf325,66704aaaf5f945d019245d3f,,,,,,,,,,,,,,,,,,,,,,,,,,,,,,,,,,,,3931.0491,3937.264,0.0,0.0,0.0,0.0,1.0,SoundStimuli/TikTok_Kesha_Original5S.wav,,,,,,,,,,,,,,,,,,,,,,,,,,,,,,,,,,,,,,,,,,,,,,,,,,,,,,,,,,
,,,,,335991,1,2024-06-17_10h52.47.712,experiment,2024.1.5,MacIntel,60.24096386,667045947eb812cbdacbf325,66704aaaf5f945d019245d3f,,,,,,,,,,,,,,,,,,,,,,,,,,,,,,,,,,,,3937.2746,3944.7966,0.0,1.0,1.0,1.0,1.0,SoundStimuli/TikTok_Kesha_Cover5S.wav,,,,,,,,,,,,,,,,,,,,,,,,,,,,,,,,,,,,,,,,,,,,,,,,,,,,,,,,,,
,,,,,335991,1,2024-06-17_10h52.47.712,experiment,2024.1.5,MacIntel,60.24096386,667045947eb812cbdacbf325,66704aaaf5f945d019245d3f,,,,,,,,,,,,,,,,,,,,,,,,,,,,,,,,,,,,,,,,,,,,3944.7969,3946.7774,1.006127062,1.969,0.0,20.0,20.0,3.0,1.0,song_indices/TikTok_Kesha.csv,,,,,,,,,,,,,,,,,,,,,,,,,,,,,,,,,,,,,,,,,,,,,,,,
,,,,,335991,1,2024-06-17_10h52.47.712,experiment,2024.1.5,MacIntel,60.24096386,667045947eb812cbdacbf325,66704aaaf5f945d019245d3f,,,,,,,,,,,,,,,,,,,,,,,,,,,,,,,,,,,,3946.7779,3954.0435,0.0,0.0,0.0,1.0,1.0,SoundStimuli/FlashdanceWhatAFeeling_IreneCara_Cover5S.wav,,,,,,,,,,,,,,,,,,,,,,,,,,,,,,,,,,,,,,,,,,,,,,,,,,,,,,,,,,
,,,,,335991,1,2024-06-17_10h52.47.712,experiment,2024.1.5,MacIntel,60.24096386,667045947eb812cbdacbf325,66704aaaf5f945d019245d3f,,,,,,,,,,,,,,,,,,,,,,,,,,,,,,,,,,,,3954.0526,3960.4449,0.0,1.0,1.0,0.0,1.0,SoundStimuli/FlashdanceWhatAFeeling_IreneCara_Original5S.wav,,,,,,,,,,,,,,,,,,,,,,,,,,,,,,,,,,,,,,,,,,,,,,,,,,,,,,,,,,
,,,,,335991,1,2024-06-17_10h52.47.712,experiment,2024.1.5,MacIntel,60.24096386,667045947eb812cbdacbf325,66704aaaf5f945d019245d3f,,,,,,,,,,,,,,,,,,,,,,,,,,,,,,,,,,,,,,,,,,,,3960.445,3961.8282,6.98257059,1.3717,0.0,21.0,21.0,18.0,1.0,song_indices/FlashdanceWhatAFeeling_IreneCara.csv,,,,,,,,,,,,,,,,,,,,,,,,,,,,,,,,,,,,,,,,,,,,,,,,
,,,,,335991,1,2024-06-17_10h52.47.712,experiment,2024.1.5,MacIntel,60.24096386,667045947eb812cbdacbf325,66704aaaf5f945d019245d3f,,,,,,,,,,,,,,,,,,,,,,,,,,,,,,,,,,,,3961.829,3967.9289,0.0,0.0,0.0,0.0,1.0,SoundStimuli/UnbreakMyHeart_ToniBraxton_Original5S.wav,,,,,,,,,,,,,,,,,,,,,,,,,,,,,,,,,,,,,,,,,,,,,,,,,,,,,,,,,,
,,,,,335991,1,2024-06-17_10h52.47.712,experiment,2024.1.5,MacIntel,60.24096386,667045947eb812cbdacbf325,66704aaaf5f945d019245d3f,,,,,,,,,,,,,,,,,,,,,,,,,,,,,,,,,,,,3967.938,3971.9125,0.0,1.0,1.0,1.0,1.0,SoundStimuli/UnbreakMyHeart_ToniBraxton_Cover5S.wav,,,,,,,,,,,,,,,,,,,,,,,,,,,,,,,,,,,,,,,,,,,,,,,,,,,,,,,,,,
,,,,,335991,1,2024-06-17_10h52.47.712,experiment,2024.1.5,MacIntel,60.24096386,667045947eb812cbdacbf325,66704aaaf5f945d019245d3f,,,,,,,,,,,,,,,,,,,,,,,,,,,,,,,,,,,,,,,,,,,,3971.9126,3974.4952,1.900113023,2.5713,0.0,22.0,22.0,16.0,1.0,song_indices/UnbreakMyHeart_ToniBraxton.csv,,,,,,,,,,,,,,,,,,,,,,,,,,,,,,,,,,,,,,,,,,,,,,,,
,,,,,335991,1,2024-06-17_10h52.47.712,experiment,2024.1.5,MacIntel,60.24096386,667045947eb812cbdacbf325,66704aaaf5f945d019245d3f,,,,,,,,,,,,,,,,,,,,,,,,,,,,,,,,,,,,3974.4956,3980.5093,0.0,0.0,0.0,0.0,1.0,SoundStimuli/HowDoILive_LeAnnRimes_Original5S.wav,,,,,,,,,,,,,,,,,,,,,,,,,,,,,,,,,,,,,,,,,,,,,,,,,,,,,,,,,,
,,,,,335991,1,2024-06-17_10h52.47.712,experiment,2024.1.5,MacIntel,60.24096386,667045947eb812cbdacbf325,66704aaaf5f945d019245d3f,,,,,,,,,,,,,,,,,,,,,,,,,,,,,,,,,,,,3980.5186,3985.9967,0.0,1.0,1.0,1.0,1.0,SoundStimuli/HowDoILive_LeAnnRimes_Cover5S.wav,,,,,,,,,,,,,,,,,,,,,,,,,,,,,,,,,,,,,,,,,,,,,,,,,,,,,,,,,,
,,,,,335991,1,2024-06-17_10h52.47.712,experiment,2024.1.5,MacIntel,60.24096386,667045947eb812cbdacbf325,66704aaaf5f945d019245d3f,,,,,,,,,,,,,,,,,,,,,,,,,,,,,,,,,,,,,,,,,,,,3985.9969,3987.2288,6.486962643,1.2111,0.0,23.0,23.0,17.0,1.0,song_indices/HowDoILive_LeAnnRimes.csv,,,,,,,,,,,,,,,,,,,,,,,,,,,,,,,,,,,,,,,,,,,,,,,,
,,,,,335991,1,2024-06-17_10h52.47.712,experiment,2024.1.5,MacIntel,60.24096386,667045947eb812cbdacbf325,66704aaaf5f945d019245d3f,,,,,,,,,,,,,,,,,,,,,,,,,,,,,,,,,,,,,,,,,,,,,,,,,,,,,,3987.2289,3987.229,,,,0.0,2.0,2.0,2.0,1.0,choose_song_b3.csv,,,,,,,,,,,,,,,,,,,,,,,,,,,,,,,,,,,,,
,,,,,335991,1,2024-06-17_10h52.47.712,experiment,2024.1.5,MacIntel,60.24096386,667045947eb812cbdacbf325,66704aaaf5f945d019245d3f,,,,,,,,,,,,,,,,,,,,,,,,,,,,,,,,,,,,,,,,,,,,,,,,,,,,,,,,,,,,,,,,,25.0,Item 5,"Classically trained pianist playing from age 4-13, violinist from age 9-21, Conservatory trained (keyboard studies, music theory, ear training, etc.) from age 17-21",Item 5,"Pandora, Spotify",5.0,4.0,"Administrative tasks, driving, cleaning dishes, completing chores",Sometimes,Often,Sometimes,Always,Rarely,Rarely,Often,Rarely,Sometimes,Rarely,Often,Rarely,Never,Rarely,Never,Rarely,"Singer/songwriter, modern folk",Modern folk/indie,Alternative rock/pop,Pop,"My musical tastes have evolved as I've gotten older and have been exposed to different things in life. For example, when I realized I was queer, I began really connecting more with LGBTQ+ artists and representation in music.","My spouse and I create a new Pandora station for ourselves each year. We start by populating it with our newest and latest favorite songs and/or artists, let the station get to know our tastes, and then use it to introduce new music to ourselves.",0.0,0.0,0.0,0.0,1.0,,
,,,,,335991,1,2024-06-17_10h52.47.712,experiment,2024.1.5,MacIntel,60.24096386,667045947eb812cbdacbf325,66704aaaf5f945d019245d3f,,,,,,,,,,,,,,,,,,,,,,,,,,,,,,,,,,,,,,,,,,,,,,,,,,,,,,,,,,,,,,,,,,,,,,,,,,,,,,,,,,,,,,,,,,,,,,,,,,,,4467.7107,4470.0262
