welcome.started,welcome.stopped,space_to_continue.keys,space_to_continue.rt,space_to_continue.duration,participant,session,date,expName,psychopyVersion,OS,frameRate,STUDY_ID,SESSION_ID,consent.consent,consent.consent_recontact,consent_check.started,consent_check.stopped,calibration_ready.started,calibration_ready.stopped,cal_ready.keys,cal_ready.rt,cal_ready.duration,calibration.started,calibration.stopped,mouse.x,mouse.y,mouse.leftButton,mouse.midButton,mouse.rightButton,mouse.time,mouse.clicked_name,move_on.keys,move_on.rt,move_on.duration,instructions.started,instructions.stopped,next.keys,next.rt,next.duration,practice_trial.started,practice_trial.stopped,practice_slider.response,practice_slider.rt,ready.started,ready.stopped,key_resp.keys,key_resp.rt,key_resp.duration,play_sound.started,play_sound.stopped,trials.thisRepN,trials.thisTrialN,trials.thisN,trials.thisIndex,trials.ran,orig_or_cover,rating.started,rating.stopped,slider.response,slider.rt,songs.thisRepN,songs.thisTrialN,songs.thisN,songs.thisIndex,songs.ran,song_id,short_break.started,short_break.stopped,space_to_move_on.keys,space_to_move_on.rt,space_to_move_on.duration,blocks.thisRepN,blocks.thisTrialN,blocks.thisN,blocks.thisIndex,blocks.ran,block,survey.age,survey.musician,survey.music_making,survey.listen_time,survey.medium,survey.music_seeking,survey.music_choice,survey.activities,survey.question1.Country,survey.question1.A cappella,survey.question1.Jazz,survey.question1.Folk/indie,survey.question1.Latin,survey.question1.Disco,survey.question1.Ambient,survey.question1.Reggae,survey.question1.Hip hop,survey.question1.Metal,survey.question1.Classic rock,survey.question1.Pop,survey.question1.Classical,survey.question1.Electronic (EDM),survey.question1.R&B,survey.question1.Alternative rock,survey.genres_ranked.text1,survey.genres_ranked.text2,survey.genres_ranked.text3,survey.habit_change,experiment.thisRepN,experiment.thisTrialN,experiment.thisN,experiment.thisIndex,experiment.ran,goodbye.started,goodbye.stopped
0.0003,135.6287,space,135.6137,,355342,1,2024-06-17_10h49.40.236,experiment,2024.1.5,Win32,142.8571429,667045947eb812cbdacbf325,66704d68388d10a9927acc48,,,,,,,,,,,,,,,,,,,,,,,,,,,,,,,,,,,,,,,,,,,,,,,,,,,,,,,,,,,,,,,,,,,,,,,,,,,,,,,,,,,,,,,,,,,,,,,,,,,
,,,,,355342,1,2024-06-17_10h49.40.236,experiment,2024.1.5,Win32,142.8571429,667045947eb812cbdacbf325,66704d68388d10a9927acc48,yes,yes,,,,,,,,,,,,,,,,,,,,,,,,,,,,,,,,,,,,,,,,,,,,,,,,,,,,,,,,,,,,,,,,,,,,,,,,,,,,,,,,,,,,,,,,,,,,,,,,,
,,,,,355342,1,2024-06-17_10h49.40.236,experiment,2024.1.5,Win32,142.8571429,667045947eb812cbdacbf325,66704d68388d10a9927acc48,,,169.3872,169.3874,,,,,,,,,,,,,,,,,,,,,,,,,,,,,,,,,,,,,,,,,,,,,,,,,,,,,,,,,,,,,,,,,,,,,,,,,,,,,,,,,,,,,,,,,,,,,,,
,,,,,355342,1,2024-06-17_10h49.40.236,experiment,2024.1.5,Win32,142.8571429,667045947eb812cbdacbf325,66704d68388d10a9927acc48,,,,,169.3888,178.0328,space,8.6343,,178.033,203.4979,"[0,0.014690451206715634,-0.007345225603357817,-0.033578174186778595,-0.011542497376705142]","[-0.40451206715634835,-0.40766002098635884,-0.44438614900314793,-0.43809024134312696,-0.4223504721930745]","[1,1,1,1,1]","[0,0,0,0,0]","[0,0,0,0,0]","[1.7869000000357858,20.884300000011933,21.751200000047703,23.03,24.480400000035786]","[""play_button"",""play_button"",""play_button""]",right,15.4464,,203.498,247.6315,space,44.1251,,247.6318,263.3593,3.949632739,15.7065,263.3595,266.5258,space,3.1587,,266.5583,271.8385,0.0,0.0,0.0,1.0,1.0,SoundStimuli/Superstition_StevieWonder_Cover5S.wav,,,,,,,,,,,,,,,,,,,,,,,,,,,,,,,,,,,,,,,,,,,,,,,,,,,,,,,,
,,,,,355342,1,2024-06-17_10h49.40.236,experiment,2024.1.5,Win32,142.8571429,667045947eb812cbdacbf325,66704d68388d10a9927acc48,,,,,,,,,,,,,,,,,,,,,,,,,,,,,,,,,,,,271.8476,277.9636,0.0,1.0,1.0,0.0,1.0,SoundStimuli/Superstition_StevieWonder_Original5S.wav,,,,,,,,,,,,,,,,,,,,,,,,,,,,,,,,,,,,,,,,,,,,,,,,,,,,,,,,
,,,,,355342,1,2024-06-17_10h49.40.236,experiment,2024.1.5,Win32,142.8571429,667045947eb812cbdacbf325,66704d68388d10a9927acc48,,,,,,,,,,,,,,,,,,,,,,,,,,,,,,,,,,,,,,,,,,,,277.9727,279.6438,3.445960126,1.665,0.0,0.0,0.0,15.0,1.0,song_indices/Superstition_StevieWonder.csv,,,,,,,,,,,,,,,,,,,,,,,,,,,,,,,,,,,,,,,,,,,,,,
,,,,,355342,1,2024-06-17_10h49.40.236,experiment,2024.1.5,Win32,142.8571429,667045947eb812cbdacbf325,66704d68388d10a9927acc48,,,,,,,,,,,,,,,,,,,,,,,,,,,,,,,,,,,,279.6446,287.1578,0.0,0.0,0.0,1.0,1.0,SoundStimuli/TikTok_Kesha_Cover5S.wav,,,,,,,,,,,,,,,,,,,,,,,,,,,,,,,,,,,,,,,,,,,,,,,,,,,,,,,,
,,,,,355342,1,2024-06-17_10h49.40.236,experiment,2024.1.5,Win32,142.8571429,667045947eb812cbdacbf325,66704d68388d10a9927acc48,,,,,,,,,,,,,,,,,,,,,,,,,,,,,,,,,,,,287.1645,293.3522,0.0,1.0,1.0,0.0,1.0,SoundStimuli/TikTok_Kesha_Original5S.wav,,,,,,,,,,,,,,,,,,,,,,,,,,,,,,,,,,,,,,,,,,,,,,,,,,,,,,,,
,,,,,355342,1,2024-06-17_10h49.40.236,experiment,2024.1.5,Win32,142.8571429,667045947eb812cbdacbf325,66704d68388d10a9927acc48,,,,,,,,,,,,,,,,,,,,,,,,,,,,,,,,,,,,,,,,,,,,293.3524,297.9772,3.068205666,4.6141,0.0,1.0,1.0,3.0,1.0,song_indices/TikTok_Kesha.csv,,,,,,,,,,,,,,,,,,,,,,,,,,,,,,,,,,,,,,,,,,,,,,
,,,,,355342,1,2024-06-17_10h49.40.236,experiment,2024.1.5,Win32,142.8571429,667045947eb812cbdacbf325,66704d68388d10a9927acc48,,,,,,,,,,,,,,,,,,,,,,,,,,,,,,,,,,,,297.9783,303.8454,0.0,0.0,0.0,1.0,1.0,SoundStimuli/SaveYourTears_TheWeekndArianaGrande_Cover5S.wav,,,,,,,,,,,,,,,,,,,,,,,,,,,,,,,,,,,,,,,,,,,,,,,,,,,,,,,,
,,,,,355342,1,2024-06-17_10h49.40.236,experiment,2024.1.5,Win32,142.8571429,667045947eb812cbdacbf325,66704d68388d10a9927acc48,,,,,,,,,,,,,,,,,,,,,,,,,,,,,,,,,,,,303.8537,310.0331,0.0,1.0,1.0,0.0,1.0,SoundStimuli/SaveYourTears_TheWeekndArianaGrande_Original5S.wav,,,,,,,,,,,,,,,,,,,,,,,,,,,,,,,,,,,,,,,,,,,,,,,,,,,,,,,,
,,,,,355342,1,2024-06-17_10h49.40.236,experiment,2024.1.5,Win32,142.8571429,667045947eb812cbdacbf325,66704d68388d10a9927acc48,,,,,,,,,,,,,,,,,,,,,,,,,,,,,,,,,,,,,,,,,,,,310.0333,311.3454,3.993704092,1.2998,0.0,2.0,2.0,12.0,1.0,song_indices/SaveYourTears_TheWeekndArianaGrande.csv,,,,,,,,,,,,,,,,,,,,,,,,,,,,,,,,,,,,,,,,,,,,,,
,,,,,355342,1,2024-06-17_10h49.40.236,experiment,2024.1.5,Win32,142.8571429,667045947eb812cbdacbf325,66704d68388d10a9927acc48,,,,,,,,,,,,,,,,,,,,,,,,,,,,,,,,,,,,311.3462,318.3385,0.0,0.0,0.0,0.0,1.0,SoundStimuli/PokerFace_LadyGaga_Original5S.wav,,,,,,,,,,,,,,,,,,,,,,,,,,,,,,,,,,,,,,,,,,,,,,,,,,,,,,,,
,,,,,355342,1,2024-06-17_10h49.40.236,experiment,2024.1.5,Win32,142.8571429,667045947eb812cbdacbf325,66704d68388d10a9927acc48,,,,,,,,,,,,,,,,,,,,,,,,,,,,,,,,,,,,318.3451,325.1649,0.0,1.0,1.0,1.0,1.0,SoundStimuli/PokerFace_LadyGaga_Cover5S.wav,,,,,,,,,,,,,,,,,,,,,,,,,,,,,,,,,,,,,,,,,,,,,,,,,,,,,,,,
,,,,,355342,1,2024-06-17_10h49.40.236,experiment,2024.1.5,Win32,142.8571429,667045947eb812cbdacbf325,66704d68388d10a9927acc48,,,,,,,,,,,,,,,,,,,,,,,,,,,,,,,,,,,,,,,,,,,,325.165,326.0271,4.409233998,0.8551,0.0,3.0,3.0,23.0,1.0,song_indices/PokerFace_LadyGaga.csv,,,,,,,,,,,,,,,,,,,,,,,,,,,,,,,,,,,,,,,,,,,,,,
,,,,,355342,1,2024-06-17_10h49.40.236,experiment,2024.1.5,Win32,142.8571429,667045947eb812cbdacbf325,66704d68388d10a9927acc48,,,,,,,,,,,,,,,,,,,,,,,,,,,,,,,,,,,,326.0276,332.2074,0.0,0.0,0.0,0.0,1.0,SoundStimuli/Dilemma_NellyKellyRowland_Original5S.wav,,,,,,,,,,,,,,,,,,,,,,,,,,,,,,,,,,,,,,,,,,,,,,,,,,,,,,,,
,,,,,355342,1,2024-06-17_10h49.40.236,experiment,2024.1.5,Win32,142.8571429,667045947eb812cbdacbf325,66704d68388d10a9927acc48,,,,,,,,,,,,,,,,,,,,,,,,,,,,,,,,,,,,332.2139,339.1865,0.0,1.0,1.0,1.0,1.0,SoundStimuli/Dilemma_NellyKellyRowland_Cover5S.wav,,,,,,,,,,,,,,,,,,,,,,,,,,,,,,,,,,,,,,,,,,,,,,,,,,,,,,,,
,,,,,355342,1,2024-06-17_10h49.40.236,experiment,2024.1.5,Win32,142.8571429,667045947eb812cbdacbf325,66704d68388d10a9927acc48,,,,,,,,,,,,,,,,,,,,,,,,,,,,,,,,,,,,,,,,,,,,339.1867,340.3745,4.415529906,1.1813,0.0,4.0,4.0,2.0,1.0,song_indices/Dilemma_NellyKellyRowland.csv,,,,,,,,,,,,,,,,,,,,,,,,,,,,,,,,,,,,,,,,,,,,,,
,,,,,355342,1,2024-06-17_10h49.40.236,experiment,2024.1.5,Win32,142.8571429,667045947eb812cbdacbf325,66704d68388d10a9927acc48,,,,,,,,,,,,,,,,,,,,,,,,,,,,,,,,,,,,340.375,346.2834,0.0,0.0,0.0,0.0,1.0,SoundStimuli/Respect_ArethaFranklin_Original5S.wav,,,,,,,,,,,,,,,,,,,,,,,,,,,,,,,,,,,,,,,,,,,,,,,,,,,,,,,,
,,,,,355342,1,2024-06-17_10h49.40.236,experiment,2024.1.5,Win32,142.8571429,667045947eb812cbdacbf325,66704d68388d10a9927acc48,,,,,,,,,,,,,,,,,,,,,,,,,,,,,,,,,,,,346.2897,352.3259,0.0,1.0,1.0,1.0,1.0,SoundStimuli/Respect_ArethaFranklin_Cover5S.wav,,,,,,,,,,,,,,,,,,,,,,,,,,,,,,,,,,,,,,,,,,,,,,,,,,,,,,,,
,,,,,355342,1,2024-06-17_10h49.40.236,experiment,2024.1.5,Win32,142.8571429,667045947eb812cbdacbf325,66704d68388d10a9927acc48,,,,,,,,,,,,,,,,,,,,,,,,,,,,,,,,,,,,,,,,,,,,352.3259,353.943,2.004197272,1.6091,0.0,5.0,5.0,0.0,1.0,song_indices/Respect_ArethaFranklin.csv,,,,,,,,,,,,,,,,,,,,,,,,,,,,,,,,,,,,,,,,,,,,,,
,,,,,355342,1,2024-06-17_10h49.40.236,experiment,2024.1.5,Win32,142.8571429,667045947eb812cbdacbf325,66704d68388d10a9927acc48,,,,,,,,,,,,,,,,,,,,,,,,,,,,,,,,,,,,353.9437,359.9985,0.0,0.0,0.0,0.0,1.0,SoundStimuli/Weak_SWV_Original5S.wav,,,,,,,,,,,,,,,,,,,,,,,,,,,,,,,,,,,,,,,,,,,,,,,,,,,,,,,,
,,,,,355342,1,2024-06-17_10h49.40.236,experiment,2024.1.5,Win32,142.8571429,667045947eb812cbdacbf325,66704d68388d10a9927acc48,,,,,,,,,,,,,,,,,,,,,,,,,,,,,,,,,,,,360.0047,366.4571,0.0,1.0,1.0,1.0,1.0,SoundStimuli/Weak_SWV_Cover5S.wav,,,,,,,,,,,,,,,,,,,,,,,,,,,,,,,,,,,,,,,,,,,,,,,,,,,,,,,,
,,,,,355342,1,2024-06-17_10h49.40.236,experiment,2024.1.5,Win32,142.8571429,667045947eb812cbdacbf325,66704d68388d10a9927acc48,,,,,,,,,,,,,,,,,,,,,,,,,,,,,,,,,,,,,,,,,,,,366.4573,369.7833,4.006295908,3.3111,0.0,6.0,6.0,6.0,1.0,song_indices/Weak_SWV.csv,,,,,,,,,,,,,,,,,,,,,,,,,,,,,,,,,,,,,,,,,,,,,,
,,,,,355342,1,2024-06-17_10h49.40.236,experiment,2024.1.5,Win32,142.8571429,667045947eb812cbdacbf325,66704d68388d10a9927acc48,,,,,,,,,,,,,,,,,,,,,,,,,,,,,,,,,,,,369.784,375.2419,0.0,0.0,0.0,1.0,1.0,SoundStimuli/HowDoILive_LeAnnRimes_Cover5S.wav,,,,,,,,,,,,,,,,,,,,,,,,,,,,,,,,,,,,,,,,,,,,,,,,,,,,,,,,
,,,,,355342,1,2024-06-17_10h49.40.236,experiment,2024.1.5,Win32,142.8571429,667045947eb812cbdacbf325,66704d68388d10a9927acc48,,,,,,,,,,,,,,,,,,,,,,,,,,,,,,,,,,,,375.2522,381.2636,0.0,1.0,1.0,0.0,1.0,SoundStimuli/HowDoILive_LeAnnRimes_Original5S.wav,,,,,,,,,,,,,,,,,,,,,,,,,,,,,,,,,,,,,,,,,,,,,,,,,,,,,,,,
,,,,,355342,1,2024-06-17_10h49.40.236,experiment,2024.1.5,Win32,142.8571429,667045947eb812cbdacbf325,66704d68388d10a9927acc48,,,,,,,,,,,,,,,,,,,,,,,,,,,,,,,,,,,,,,,,,,,,381.2636,382.5057,5.378803778,1.2309,0.0,7.0,7.0,17.0,1.0,song_indices/HowDoILive_LeAnnRimes.csv,,,,,,,,,,,,,,,,,,,,,,,,,,,,,,,,,,,,,,,,,,,,,,
,,,,,355342,1,2024-06-17_10h49.40.236,experiment,2024.1.5,Win32,142.8571429,667045947eb812cbdacbf325,66704d68388d10a9927acc48,,,,,,,,,,,,,,,,,,,,,,,,,,,,,,,,,,,,382.5064,388.9857,0.0,0.0,0.0,0.0,1.0,SoundStimuli/Dreams_FleetwoodMac_Original5S.wav,,,,,,,,,,,,,,,,,,,,,,,,,,,,,,,,,,,,,,,,,,,,,,,,,,,,,,,,
,,,,,355342,1,2024-06-17_10h49.40.236,experiment,2024.1.5,Win32,142.8571429,667045947eb812cbdacbf325,66704d68388d10a9927acc48,,,,,,,,,,,,,,,,,,,,,,,,,,,,,,,,,,,,388.992,396.8113,0.0,1.0,1.0,1.0,1.0,SoundStimuli/Dreams_FleetwoodMac_Cover5S.wav,,,,,,,,,,,,,,,,,,,,,,,,,,,,,,,,,,,,,,,,,,,,,,,,,,,,,,,,
,,,,,355342,1,2024-06-17_10h49.40.236,experiment,2024.1.5,Win32,142.8571429,667045947eb812cbdacbf325,66704d68388d10a9927acc48,,,,,,,,,,,,,,,,,,,,,,,,,,,,,,,,,,,,,,,,,,,,396.8114,400.0058,2.149003148,3.1874,0.0,8.0,8.0,1.0,1.0,song_indices/Dreams_FleetwoodMac.csv,,,,,,,,,,,,,,,,,,,,,,,,,,,,,,,,,,,,,,,,,,,,,,
,,,,,355342,1,2024-06-17_10h49.40.236,experiment,2024.1.5,Win32,142.8571429,667045947eb812cbdacbf325,66704d68388d10a9927acc48,,,,,,,,,,,,,,,,,,,,,,,,,,,,,,,,,,,,400.0065,406.0127,0.0,0.0,0.0,0.0,1.0,SoundStimuli/LeFreak_Chic_Original5S.wav,,,,,,,,,,,,,,,,,,,,,,,,,,,,,,,,,,,,,,,,,,,,,,,,,,,,,,,,
,,,,,355342,1,2024-06-17_10h49.40.236,experiment,2024.1.5,Win32,142.8571429,667045947eb812cbdacbf325,66704d68388d10a9927acc48,,,,,,,,,,,,,,,,,,,,,,,,,,,,,,,,,,,,406.0188,411.5128,0.0,1.0,1.0,1.0,1.0,SoundStimuli/LeFreak_Chic_Cover5S.wav,,,,,,,,,,,,,,,,,,,,,,,,,,,,,,,,,,,,,,,,,,,,,,,,,,,,,,,,
,,,,,355342,1,2024-06-17_10h49.40.236,experiment,2024.1.5,Win32,142.8571429,667045947eb812cbdacbf325,66704d68388d10a9927acc48,,,,,,,,,,,,,,,,,,,,,,,,,,,,,,,,,,,,,,,,,,,,411.5128,414.0268,3.338929696,2.5021,0.0,9.0,9.0,11.0,1.0,song_indices/LeFreak_Chic.csv,,,,,,,,,,,,,,,,,,,,,,,,,,,,,,,,,,,,,,,,,,,,,,
,,,,,355342,1,2024-06-17_10h49.40.236,experiment,2024.1.5,Win32,142.8571429,667045947eb812cbdacbf325,66704d68388d10a9927acc48,,,,,,,,,,,,,,,,,,,,,,,,,,,,,,,,,,,,414.0275,421.2424,0.0,0.0,0.0,0.0,1.0,SoundStimuli/SomebodyThatIUsedtoKnow_Gotye_Original5S.wav,,,,,,,,,,,,,,,,,,,,,,,,,,,,,,,,,,,,,,,,,,,,,,,,,,,,,,,,
,,,,,355342,1,2024-06-17_10h49.40.236,experiment,2024.1.5,Win32,142.8571429,667045947eb812cbdacbf325,66704d68388d10a9927acc48,,,,,,,,,,,,,,,,,,,,,,,,,,,,,,,,,,,,421.2641,428.0478,0.0,1.0,1.0,1.0,1.0,SoundStimuli/SomebodyThatIUsedtoKnow_Gotye_Cover5S.wav,,,,,,,,,,,,,,,,,,,,,,,,,,,,,,,,,,,,,,,,,,,,,,,,,,,,,,,,
,,,,,355342,1,2024-06-17_10h49.40.236,experiment,2024.1.5,Win32,142.8571429,667045947eb812cbdacbf325,66704d68388d10a9927acc48,,,,,,,,,,,,,,,,,,,,,,,,,,,,,,,,,,,,,,,,,,,,428.0479,428.6519,4.056663169,0.5867,0.0,10.0,10.0,7.0,1.0,song_indices/SomebodyThatIUsedtoKnow_Gotye.csv,,,,,,,,,,,,,,,,,,,,,,,,,,,,,,,,,,,,,,,,,,,,,,
,,,,,355342,1,2024-06-17_10h49.40.236,experiment,2024.1.5,Win32,142.8571429,667045947eb812cbdacbf325,66704d68388d10a9927acc48,,,,,,,,,,,,,,,,,,,,,,,,,,,,,,,,,,,,428.6524,434.6451,0.0,0.0,0.0,1.0,1.0,SoundStimuli/TheSign_AceOfBase_Cover5S.wav,,,,,,,,,,,,,,,,,,,,,,,,,,,,,,,,,,,,,,,,,,,,,,,,,,,,,,,,
,,,,,355342,1,2024-06-17_10h49.40.236,experiment,2024.1.5,Win32,142.8571429,667045947eb812cbdacbf325,66704d68388d10a9927acc48,,,,,,,,,,,,,,,,,,,,,,,,,,,,,,,,,,,,434.6517,440.7908,0.0,1.0,1.0,0.0,1.0,SoundStimuli/TheSign_AceOfBase_Original5S.wav,,,,,,,,,,,,,,,,,,,,,,,,,,,,,,,,,,,,,,,,,,,,,,,,,,,,,,,,
,,,,,355342,1,2024-06-17_10h49.40.236,experiment,2024.1.5,Win32,142.8571429,667045947eb812cbdacbf325,66704d68388d10a9927acc48,,,,,,,,,,,,,,,,,,,,,,,,,,,,,,,,,,,,,,,,,,,,440.7909,442.5895,4.925498426,1.7917,0.0,11.0,11.0,5.0,1.0,song_indices/TheSign_AceOfBase.csv,,,,,,,,,,,,,,,,,,,,,,,,,,,,,,,,,,,,,,,,,,,,,,
,,,,,355342,1,2024-06-17_10h49.40.236,experiment,2024.1.5,Win32,142.8571429,667045947eb812cbdacbf325,66704d68388d10a9927acc48,,,,,,,,,,,,,,,,,,,,,,,,,,,,,,,,,,,,442.5902,446.5548,0.0,0.0,0.0,1.0,1.0,SoundStimuli/UnbreakMyHeart_ToniBraxton_Cover5S.wav,,,,,,,,,,,,,,,,,,,,,,,,,,,,,,,,,,,,,,,,,,,,,,,,,,,,,,,,
,,,,,355342,1,2024-06-17_10h49.40.236,experiment,2024.1.5,Win32,142.8571429,667045947eb812cbdacbf325,66704d68388d10a9927acc48,,,,,,,,,,,,,,,,,,,,,,,,,,,,,,,,,,,,446.5611,452.6381,0.0,1.0,1.0,0.0,1.0,SoundStimuli/UnbreakMyHeart_ToniBraxton_Original5S.wav,,,,,,,,,,,,,,,,,,,,,,,,,,,,,,,,,,,,,,,,,,,,,,,,,,,,,,,,
,,,,,355342,1,2024-06-17_10h49.40.236,experiment,2024.1.5,Win32,142.8571429,667045947eb812cbdacbf325,66704d68388d10a9927acc48,,,,,,,,,,,,,,,,,,,,,,,,,,,,,,,,,,,,,,,,,,,,452.6382,454.1589,3.162644281,1.5129,0.0,12.0,12.0,16.0,1.0,song_indices/UnbreakMyHeart_ToniBraxton.csv,,,,,,,,,,,,,,,,,,,,,,,,,,,,,,,,,,,,,,,,,,,,,,
,,,,,355342,1,2024-06-17_10h49.40.236,experiment,2024.1.5,Win32,142.8571429,667045947eb812cbdacbf325,66704d68388d10a9927acc48,,,,,,,,,,,,,,,,,,,,,,,,,,,,,,,,,,,,454.1596,459.2702,0.0,0.0,0.0,1.0,1.0,SoundStimuli/JoyToTheWorld_ThreeDogNight_Cover5S.wav,,,,,,,,,,,,,,,,,,,,,,,,,,,,,,,,,,,,,,,,,,,,,,,,,,,,,,,,
,,,,,355342,1,2024-06-17_10h49.40.236,experiment,2024.1.5,Win32,142.8571429,667045947eb812cbdacbf325,66704d68388d10a9927acc48,,,,,,,,,,,,,,,,,,,,,,,,,,,,,,,,,,,,459.2764,465.3606,0.0,1.0,1.0,0.0,1.0,SoundStimuli/JoyToTheWorld_ThreeDogNight_Original5S.wav,,,,,,,,,,,,,,,,,,,,,,,,,,,,,,,,,,,,,,,,,,,,,,,,,,,,,,,,
,,,,,355342,1,2024-06-17_10h49.40.236,experiment,2024.1.5,Win32,142.8571429,667045947eb812cbdacbf325,66704d68388d10a9927acc48,,,,,,,,,,,,,,,,,,,,,,,,,,,,,,,,,,,,,,,,,,,,465.3607,467.68,3.842602308,2.3098,0.0,13.0,13.0,8.0,1.0,song_indices/JoyToTheWorld_ThreeDogNight.csv,,,,,,,,,,,,,,,,,,,,,,,,,,,,,,,,,,,,,,,,,,,,,,
,,,,,355342,1,2024-06-17_10h49.40.236,experiment,2024.1.5,Win32,142.8571429,667045947eb812cbdacbf325,66704d68388d10a9927acc48,,,,,,,,,,,,,,,,,,,,,,,,,,,,,,,,,,,,467.6807,473.6661,0.0,0.0,0.0,0.0,1.0,SoundStimuli/Levitating_DuaLipa_Original5S.wav,,,,,,,,,,,,,,,,,,,,,,,,,,,,,,,,,,,,,,,,,,,,,,,,,,,,,,,,
,,,,,355342,1,2024-06-17_10h49.40.236,experiment,2024.1.5,Win32,142.8571429,667045947eb812cbdacbf325,66704d68388d10a9927acc48,,,,,,,,,,,,,,,,,,,,,,,,,,,,,,,,,,,,473.6729,479.3606,0.0,1.0,1.0,1.0,1.0,SoundStimuli/Levitating_DuaLipa_Cover5S.wav,,,,,,,,,,,,,,,,,,,,,,,,,,,,,,,,,,,,,,,,,,,,,,,,,,,,,,,,
,,,,,355342,1,2024-06-17_10h49.40.236,experiment,2024.1.5,Win32,142.8571429,667045947eb812cbdacbf325,66704d68388d10a9927acc48,,,,,,,,,,,,,,,,,,,,,,,,,,,,,,,,,,,,,,,,,,,,479.3607,480.7494,4.031479538,1.3821,0.0,14.0,14.0,10.0,1.0,song_indices/Levitating_DuaLipa.csv,,,,,,,,,,,,,,,,,,,,,,,,,,,,,,,,,,,,,,,,,,,,,,
,,,,,355342,1,2024-06-17_10h49.40.236,experiment,2024.1.5,Win32,142.8571429,667045947eb812cbdacbf325,66704d68388d10a9927acc48,,,,,,,,,,,,,,,,,,,,,,,,,,,,,,,,,,,,480.7501,488.0065,0.0,0.0,0.0,1.0,1.0,SoundStimuli/FlashdanceWhatAFeeling_IreneCara_Cover5S.wav,,,,,,,,,,,,,,,,,,,,,,,,,,,,,,,,,,,,,,,,,,,,,,,,,,,,,,,,
,,,,,355342,1,2024-06-17_10h49.40.236,experiment,2024.1.5,Win32,142.8571429,667045947eb812cbdacbf325,66704d68388d10a9927acc48,,,,,,,,,,,,,,,,,,,,,,,,,,,,,,,,,,,,488.0128,494.3746,0.0,1.0,1.0,0.0,1.0,SoundStimuli/FlashdanceWhatAFeeling_IreneCara_Original5S.wav,,,,,,,,,,,,,,,,,,,,,,,,,,,,,,,,,,,,,,,,,,,,,,,,,,,,,,,,
,,,,,355342,1,2024-06-17_10h49.40.236,experiment,2024.1.5,Win32,142.8571429,667045947eb812cbdacbf325,66704d68388d10a9927acc48,,,,,,,,,,,,,,,,,,,,,,,,,,,,,,,,,,,,,,,,,,,,494.3746,497.7218,3.962224554,3.3361,0.0,15.0,15.0,18.0,1.0,song_indices/FlashdanceWhatAFeeling_IreneCara.csv,,,,,,,,,,,,,,,,,,,,,,,,,,,,,,,,,,,,,,,,,,,,,,
,,,,,355342,1,2024-06-17_10h49.40.236,experiment,2024.1.5,Win32,142.8571429,667045947eb812cbdacbf325,66704d68388d10a9927acc48,,,,,,,,,,,,,,,,,,,,,,,,,,,,,,,,,,,,497.7225,503.7844,0.0,0.0,0.0,0.0,1.0,SoundStimuli/YouLightUpMyLife_DebbyBoone_Original5S.wav,,,,,,,,,,,,,,,,,,,,,,,,,,,,,,,,,,,,,,,,,,,,,,,,,,,,,,,,
,,,,,355342,1,2024-06-17_10h49.40.236,experiment,2024.1.5,Win32,142.8571429,667045947eb812cbdacbf325,66704d68388d10a9927acc48,,,,,,,,,,,,,,,,,,,,,,,,,,,,,,,,,,,,503.7909,510.2151,0.0,1.0,1.0,1.0,1.0,SoundStimuli/YouLightUpMyLife_DebbyBoone_Cover5S.wav,,,,,,,,,,,,,,,,,,,,,,,,,,,,,,,,,,,,,,,,,,,,,,,,,,,,,,,,
,,,,,355342,1,2024-06-17_10h49.40.236,experiment,2024.1.5,Win32,142.8571429,667045947eb812cbdacbf325,66704d68388d10a9927acc48,,,,,,,,,,,,,,,,,,,,,,,,,,,,,,,,,,,,,,,,,,,,510.2151,519.2775,3.760755509,9.0555,0.0,16.0,16.0,4.0,1.0,song_indices/YouLightUpMyLife_DebbyBoone.csv,,,,,,,,,,,,,,,,,,,,,,,,,,,,,,,,,,,,,,,,,,,,,,
,,,,,355342,1,2024-06-17_10h49.40.236,experiment,2024.1.5,Win32,142.8571429,667045947eb812cbdacbf325,66704d68388d10a9927acc48,,,,,,,,,,,,,,,,,,,,,,,,,,,,,,,,,,,,519.278,525.5345,0.0,0.0,0.0,1.0,1.0,SoundStimuli/Kiss_Prince_Cover5S.wav,,,,,,,,,,,,,,,,,,,,,,,,,,,,,,,,,,,,,,,,,,,,,,,,,,,,,,,,
,,,,,355342,1,2024-06-17_10h49.40.236,experiment,2024.1.5,Win32,142.8571429,667045947eb812cbdacbf325,66704d68388d10a9927acc48,,,,,,,,,,,,,,,,,,,,,,,,,,,,,,,,,,,,525.5412,532.9443,0.0,1.0,1.0,0.0,1.0,SoundStimuli/Kiss_Prince_Original5S.wav,,,,,,,,,,,,,,,,,,,,,,,,,,,,,,,,,,,,,,,,,,,,,,,,,,,,,,,,
,,,,,355342,1,2024-06-17_10h49.40.236,experiment,2024.1.5,Win32,142.8571429,667045947eb812cbdacbf325,66704d68388d10a9927acc48,,,,,,,,,,,,,,,,,,,,,,,,,,,,,,,,,,,,,,,,,,,,532.9444,534.4028,3.911857293,1.4464,0.0,17.0,17.0,14.0,1.0,song_indices/Kiss_Prince.csv,,,,,,,,,,,,,,,,,,,,,,,,,,,,,,,,,,,,,,,,,,,,,,
,,,,,355342,1,2024-06-17_10h49.40.236,experiment,2024.1.5,Win32,142.8571429,667045947eb812cbdacbf325,66704d68388d10a9927acc48,,,,,,,,,,,,,,,,,,,,,,,,,,,,,,,,,,,,534.4035,540.4444,0.0,0.0,0.0,0.0,1.0,SoundStimuli/TossinAndTurnin_BobbyLewis_Original5S.wav,,,,,,,,,,,,,,,,,,,,,,,,,,,,,,,,,,,,,,,,,,,,,,,,,,,,,,,,
,,,,,355342,1,2024-06-17_10h49.40.236,experiment,2024.1.5,Win32,142.8571429,667045947eb812cbdacbf325,66704d68388d10a9927acc48,,,,,,,,,,,,,,,,,,,,,,,,,,,,,,,,,,,,540.4509,546.5416,0.0,1.0,1.0,1.0,1.0,SoundStimuli/TossinAndTurnin_BobbyLewis_Cover5S.wav,,,,,,,,,,,,,,,,,,,,,,,,,,,,,,,,,,,,,,,,,,,,,,,,,,,,,,,,
,,,,,355342,1,2024-06-17_10h49.40.236,experiment,2024.1.5,Win32,142.8571429,667045947eb812cbdacbf325,66704d68388d10a9927acc48,,,,,,,,,,,,,,,,,,,,,,,,,,,,,,,,,,,,,,,,,,,,546.5417,548.0695,3.962224554,1.521,0.0,18.0,18.0,13.0,1.0,song_indices/TossinAndTurnin_BobbyLewis.csv,,,,,,,,,,,,,,,,,,,,,,,,,,,,,,,,,,,,,,,,,,,,,,
,,,,,355342,1,2024-06-17_10h49.40.236,experiment,2024.1.5,Win32,142.8571429,667045947eb812cbdacbf325,66704d68388d10a9927acc48,,,,,,,,,,,,,,,,,,,,,,,,,,,,,,,,,,,,548.0703,554.3473,0.0,0.0,0.0,0.0,1.0,SoundStimuli/LetsGetItOn_MarvinGaye_Original5S.wav,,,,,,,,,,,,,,,,,,,,,,,,,,,,,,,,,,,,,,,,,,,,,,,,,,,,,,,,
,,,,,355342,1,2024-06-17_10h49.40.236,experiment,2024.1.5,Win32,142.8571429,667045947eb812cbdacbf325,66704d68388d10a9927acc48,,,,,,,,,,,,,,,,,,,,,,,,,,,,,,,,,,,,554.3537,560.9794,0.0,1.0,1.0,1.0,1.0,SoundStimuli/LetsGetItOn_MarvinGaye_Cover5S.wav,,,,,,,,,,,,,,,,,,,,,,,,,,,,,,,,,,,,,,,,,,,,,,,,,,,,,,,,
,,,,,355342,1,2024-06-17_10h49.40.236,experiment,2024.1.5,Win32,142.8571429,667045947eb812cbdacbf325,66704d68388d10a9927acc48,,,,,,,,,,,,,,,,,,,,,,,,,,,,,,,,,,,,,,,,,,,,560.9795,584.931,3.974816369,23.924,0.0,19.0,19.0,20.0,1.0,song_indices/LetsGetItOn_MarvinGaye.csv,,,,,,,,,,,,,,,,,,,,,,,,,,,,,,,,,,,,,,,,,,,,,,
,,,,,355342,1,2024-06-17_10h49.40.236,experiment,2024.1.5,Win32,142.8571429,667045947eb812cbdacbf325,66704d68388d10a9927acc48,,,,,,,,,,,,,,,,,,,,,,,,,,,,,,,,,,,,584.9315,591.667,0.0,0.0,0.0,0.0,1.0,SoundStimuli/BlurredLines_RobinThicke_Original5S.wav,,,,,,,,,,,,,,,,,,,,,,,,,,,,,,,,,,,,,,,,,,,,,,,,,,,,,,,,
,,,,,355342,1,2024-06-17_10h49.40.236,experiment,2024.1.5,Win32,142.8571429,667045947eb812cbdacbf325,66704d68388d10a9927acc48,,,,,,,,,,,,,,,,,,,,,,,,,,,,,,,,,,,,591.6731,598.7434,0.0,1.0,1.0,1.0,1.0,SoundStimuli/BlurredLines_RobinThicke_Cover5S.wav,,,,,,,,,,,,,,,,,,,,,,,,,,,,,,,,,,,,,,,,,,,,,,,,,,,,,,,,
,,,,,355342,1,2024-06-17_10h49.40.236,experiment,2024.1.5,Win32,142.8571429,667045947eb812cbdacbf325,66704d68388d10a9927acc48,,,,,,,,,,,,,,,,,,,,,,,,,,,,,,,,,,,,,,,,,,,,598.7435,601.1184,4.566631689,2.3679,0.0,20.0,20.0,9.0,1.0,song_indices/BlurredLines_RobinThicke.csv,,,,,,,,,,,,,,,,,,,,,,,,,,,,,,,,,,,,,,,,,,,,,,
,,,,,355342,1,2024-06-17_10h49.40.236,experiment,2024.1.5,Win32,142.8571429,667045947eb812cbdacbf325,66704d68388d10a9927acc48,,,,,,,,,,,,,,,,,,,,,,,,,,,,,,,,,,,,601.1191,606.9726,0.0,0.0,0.0,0.0,1.0,SoundStimuli/Irreplaceable_Beyonce_Original5S.wav,,,,,,,,,,,,,,,,,,,,,,,,,,,,,,,,,,,,,,,,,,,,,,,,,,,,,,,,
,,,,,355342,1,2024-06-17_10h49.40.236,experiment,2024.1.5,Win32,142.8571429,667045947eb812cbdacbf325,66704d68388d10a9927acc48,,,,,,,,,,,,,,,,,,,,,,,,,,,,,,,,,,,,606.9788,612.8685,0.0,1.0,1.0,1.0,1.0,SoundStimuli/Irreplaceable_Beyonce_Cover5S.wav,,,,,,,,,,,,,,,,,,,,,,,,,,,,,,,,,,,,,,,,,,,,,,,,,,,,,,,,
,,,,,355342,1,2024-06-17_10h49.40.236,experiment,2024.1.5,Win32,142.8571429,667045947eb812cbdacbf325,66704d68388d10a9927acc48,,,,,,,,,,,,,,,,,,,,,,,,,,,,,,,,,,,,,,,,,,,,612.8687,614.9518,4.635886674,2.0741,0.0,21.0,21.0,19.0,1.0,song_indices/Irreplaceable_Beyonce.csv,,,,,,,,,,,,,,,,,,,,,,,,,,,,,,,,,,,,,,,,,,,,,,
,,,,,355342,1,2024-06-17_10h49.40.236,experiment,2024.1.5,Win32,142.8571429,667045947eb812cbdacbf325,66704d68388d10a9927acc48,,,,,,,,,,,,,,,,,,,,,,,,,,,,,,,,,,,,614.9523,621.0351,0.0,0.0,0.0,0.0,1.0,SoundStimuli/ComeAndGetYourLove_Redbone_Original5S.wav,,,,,,,,,,,,,,,,,,,,,,,,,,,,,,,,,,,,,,,,,,,,,,,,,,,,,,,,
,,,,,355342,1,2024-06-17_10h49.40.236,experiment,2024.1.5,Win32,142.8571429,667045947eb812cbdacbf325,66704d68388d10a9927acc48,,,,,,,,,,,,,,,,,,,,,,,,,,,,,,,,,,,,621.0413,628.0769,0.0,1.0,1.0,1.0,1.0,SoundStimuli/ComeAndGetYourLove_Redbone_Cover5S.wav,,,,,,,,,,,,,,,,,,,,,,,,,,,,,,,,,,,,,,,,,,,,,,,,,,,,,,,,
,,,,,355342,1,2024-06-17_10h49.40.236,experiment,2024.1.5,Win32,142.8571429,667045947eb812cbdacbf325,66704d68388d10a9927acc48,,,,,,,,,,,,,,,,,,,,,,,,,,,,,,,,,,,,,,,,,,,,628.077,629.1117,3.376705142,1.0257,0.0,22.0,22.0,22.0,1.0,song_indices/ComeAndGetYourLove_Redbone.csv,,,,,,,,,,,,,,,,,,,,,,,,,,,,,,,,,,,,,,,,,,,,,,
,,,,,355342,1,2024-06-17_10h49.40.236,experiment,2024.1.5,Win32,142.8571429,667045947eb812cbdacbf325,66704d68388d10a9927acc48,,,,,,,,,,,,,,,,,,,,,,,,,,,,,,,,,,,,629.1124,635.5771,0.0,0.0,0.0,0.0,1.0,SoundStimuli/BlindingLights_TheWeeknd_Original5S.wav,,,,,,,,,,,,,,,,,,,,,,,,,,,,,,,,,,,,,,,,,,,,,,,,,,,,,,,,
,,,,,355342,1,2024-06-17_10h49.40.236,experiment,2024.1.5,Win32,142.8571429,667045947eb812cbdacbf325,66704d68388d10a9927acc48,,,,,,,,,,,,,,,,,,,,,,,,,,,,,,,,,,,,635.5836,642.3549,0.0,1.0,1.0,1.0,1.0,SoundStimuli/BlindingLights_TheWeeknd_Cover5S.wav,,,,,,,,,,,,,,,,,,,,,,,,,,,,,,,,,,,,,,,,,,,,,,,,,,,,,,,,
,,,,,355342,1,2024-06-17_10h49.40.236,experiment,2024.1.5,Win32,142.8571429,667045947eb812cbdacbf325,66704d68388d10a9927acc48,,,,,,,,,,,,,,,,,,,,,,,,,,,,,,,,,,,,,,,,,,,,642.3551,643.5353,3.357817419,1.1719,0.0,23.0,23.0,21.0,1.0,song_indices/BlindingLights_TheWeeknd.csv,,,,,,,,,,,,,,,,,,,,,,,,,,,,,,,,,,,,,,,,,,,,,,
,,,,,355342,1,2024-06-17_10h49.40.236,experiment,2024.1.5,Win32,142.8571429,667045947eb812cbdacbf325,66704d68388d10a9927acc48,,,,,,,,,,,,,,,,,,,,,,,,,,,,,,,,,,,,,,,,,,,,,,,,,,,,,,643.5359,666.1664,space,22.6271,,0.0,0.0,0.0,2.0,1.0,choose_song_b3.csv,,,,,,,,,,,,,,,,,,,,,,,,,,,,,,,,,,,
,,,,,355342,1,2024-06-17_10h49.40.236,experiment,2024.1.5,Win32,142.8571429,667045947eb812cbdacbf325,66704d68388d10a9927acc48,,,,,,,,,,,,,,,,,,,,,,,,,,,,,,,,,,,,666.168,672.3551,0.0,0.0,0.0,1.0,1.0,SoundStimuli/LikeAPrayer_Madonna_Cover5S.wav,,,,,,,,,,,,,,,,,,,,,,,,,,,,,,,,,,,,,,,,,,,,,,,,,,,,,,,,
,,,,,355342,1,2024-06-17_10h49.40.236,experiment,2024.1.5,Win32,142.8571429,667045947eb812cbdacbf325,66704d68388d10a9927acc48,,,,,,,,,,,,,,,,,,,,,,,,,,,,,,,,,,,,672.3632,678.5358,0.0,1.0,1.0,0.0,1.0,SoundStimuli/LikeAPrayer_Madonna_Original5S.wav,,,,,,,,,,,,,,,,,,,,,,,,,,,,,,,,,,,,,,,,,,,,,,,,,,,,,,,,
,,,,,355342,1,2024-06-17_10h49.40.236,experiment,2024.1.5,Win32,142.8571429,667045947eb812cbdacbf325,66704d68388d10a9927acc48,,,,,,,,,,,,,,,,,,,,,,,,,,,,,,,,,,,,,,,,,,,,678.5361,684.2024,3.401888772,5.6464,0.0,0.0,0.0,7.0,1.0,song_indices/LikeAPrayer_Madonna.csv,,,,,,,,,,,,,,,,,,,,,,,,,,,,,,,,,,,,,,,,,,,,,,
,,,,,355342,1,2024-06-17_10h49.40.236,experiment,2024.1.5,Win32,142.8571429,667045947eb812cbdacbf325,66704d68388d10a9927acc48,,,,,,,,,,,,,,,,,,,,,,,,,,,,,,,,,,,,684.203,690.876,0.0,0.0,0.0,1.0,1.0,SoundStimuli/BridgeOverTroubledWater_SimonAndGarfunkel_Cover5S.wav,,,,,,,,,,,,,,,,,,,,,,,,,,,,,,,,,,,,,,,,,,,,,,,,,,,,,,,,
,,,,,355342,1,2024-06-17_10h49.40.236,experiment,2024.1.5,Win32,142.8571429,667045947eb812cbdacbf325,66704d68388d10a9927acc48,,,,,,,,,,,,,,,,,,,,,,,,,,,,,,,,,,,,690.8826,697.1677,0.0,1.0,1.0,0.0,1.0,SoundStimuli/BridgeOverTroubledWater_SimonAndGarfunkel_Original5S.wav,,,,,,,,,,,,,,,,,,,,,,,,,,,,,,,,,,,,,,,,,,,,,,,,,,,,,,,,
,,,,,355342,1,2024-06-17_10h49.40.236,experiment,2024.1.5,Win32,142.8571429,667045947eb812cbdacbf325,66704d68388d10a9927acc48,,,,,,,,,,,,,,,,,,,,,,,,,,,,,,,,,,,,,,,,,,,,697.1679,702.3275,4.18887723,5.1507,0.0,1.0,1.0,1.0,1.0,song_indices/BridgeOverTroubledWater_SimonAndGarfunkel.csv,,,,,,,,,,,,,,,,,,,,,,,,,,,,,,,,,,,,,,,,,,,,,,
,,,,,355342,1,2024-06-17_10h49.40.236,experiment,2024.1.5,Win32,142.8571429,667045947eb812cbdacbf325,66704d68388d10a9927acc48,,,,,,,,,,,,,,,,,,,,,,,,,,,,,,,,,,,,702.3282,708.0984,0.0,0.0,0.0,0.0,1.0,SoundStimuli/IWantToHoldYourHand_TheBeatles_Original5S.wav,,,,,,,,,,,,,,,,,,,,,,,,,,,,,,,,,,,,,,,,,,,,,,,,,,,,,,,,
,,,,,355342,1,2024-06-17_10h49.40.236,experiment,2024.1.5,Win32,142.8571429,667045947eb812cbdacbf325,66704d68388d10a9927acc48,,,,,,,,,,,,,,,,,,,,,,,,,,,,,,,,,,,,708.105,714.1125,0.0,1.0,1.0,1.0,1.0,SoundStimuli/IWantToHoldYourHand_TheBeatles_Cover5S.wav,,,,,,,,,,,,,,,,,,,,,,,,,,,,,,,,,,,,,,,,,,,,,,,,,,,,,,,,
,,,,,355342,1,2024-06-17_10h49.40.236,experiment,2024.1.5,Win32,142.8571429,667045947eb812cbdacbf325,66704d68388d10a9927acc48,,,,,,,,,,,,,,,,,,,,,,,,,,,,,,,,,,,,,,,,,,,,714.1125,715.1193,3.603357817,0.9978,0.0,2.0,2.0,19.0,1.0,song_indices/IWantToHoldYourHand_TheBeatles.csv,,,,,,,,,,,,,,,,,,,,,,,,,,,,,,,,,,,,,,,,,,,,,,
,,,,,355342,1,2024-06-17_10h49.40.236,experiment,2024.1.5,Win32,142.8571429,667045947eb812cbdacbf325,66704d68388d10a9927acc48,,,,,,,,,,,,,,,,,,,,,,,,,,,,,,,,,,,,715.1201,721.4387,0.0,0.0,0.0,0.0,1.0,SoundStimuli/EndlessLove_DianaRossLionelRichie_Original5S.wav,,,,,,,,,,,,,,,,,,,,,,,,,,,,,,,,,,,,,,,,,,,,,,,,,,,,,,,,
,,,,,355342,1,2024-06-17_10h49.40.236,experiment,2024.1.5,Win32,142.8571429,667045947eb812cbdacbf325,66704d68388d10a9927acc48,,,,,,,,,,,,,,,,,,,,,,,,,,,,,,,,,,,,721.4453,728.9251,0.0,1.0,1.0,1.0,1.0,SoundStimuli/EndlessLove_DianaRossLionelRichie_Cover5S.wav,,,,,,,,,,,,,,,,,,,,,,,,,,,,,,,,,,,,,,,,,,,,,,,,,,,,,,,,
,,,,,355342,1,2024-06-17_10h49.40.236,experiment,2024.1.5,Win32,142.8571429,667045947eb812cbdacbf325,66704d68388d10a9927acc48,,,,,,,,,,,,,,,,,,,,,,,,,,,,,,,,,,,,,,,,,,,,728.9253,730.1819,4.251836306,1.2408,0.0,3.0,3.0,3.0,1.0,song_indices/EndlessLove_DianaRossLionelRichie.csv,,,,,,,,,,,,,,,,,,,,,,,,,,,,,,,,,,,,,,,,,,,,,,
,,,,,355342,1,2024-06-17_10h49.40.236,experiment,2024.1.5,Win32,142.8571429,667045947eb812cbdacbf325,66704d68388d10a9927acc48,,,,,,,,,,,,,,,,,,,,,,,,,,,,,,,,,,,,730.1825,735.7584,0.0,0.0,0.0,0.0,1.0,SoundStimuli/IWannaDanceWithSomebody_WhitneyHouston_Original5S.wav,,,,,,,,,,,,,,,,,,,,,,,,,,,,,,,,,,,,,,,,,,,,,,,,,,,,,,,,
,,,,,355342,1,2024-06-17_10h49.40.236,experiment,2024.1.5,Win32,142.8571429,667045947eb812cbdacbf325,66704d68388d10a9927acc48,,,,,,,,,,,,,,,,,,,,,,,,,,,,,,,,,,,,735.7649,742.5781,0.0,1.0,1.0,1.0,1.0,SoundStimuli/IWannaDanceWithSomebody_WhitneyHouston_Cover5S.wav,,,,,,,,,,,,,,,,,,,,,,,,,,,,,,,,,,,,,,,,,,,,,,,,,,,,,,,,
,,,,,355342,1,2024-06-17_10h49.40.236,experiment,2024.1.5,Win32,142.8571429,667045947eb812cbdacbf325,66704d68388d10a9927acc48,,,,,,,,,,,,,,,,,,,,,,,,,,,,,,,,,,,,,,,,,,,,742.5783,744.2862,3.11227702,1.6938,0.0,4.0,4.0,13.0,1.0,song_indices/IWannaDanceWithSomebody_WhitneyHouston.csv,,,,,,,,,,,,,,,,,,,,,,,,,,,,,,,,,,,,,,,,,,,,,,
,,,,,355342,1,2024-06-17_10h49.40.236,experiment,2024.1.5,Win32,142.8571429,667045947eb812cbdacbf325,66704d68388d10a9927acc48,,,,,,,,,,,,,,,,,,,,,,,,,,,,,,,,,,,,744.287,751.1344,0.0,0.0,0.0,1.0,1.0,SoundStimuli/GodOnlyKnows_TheBeachBoys_Cover5S.wav,,,,,,,,,,,,,,,,,,,,,,,,,,,,,,,,,,,,,,,,,,,,,,,,,,,,,,,,
,,,,,355342,1,2024-06-17_10h49.40.236,experiment,2024.1.5,Win32,142.8571429,667045947eb812cbdacbf325,66704d68388d10a9927acc48,,,,,,,,,,,,,,,,,,,,,,,,,,,,,,,,,,,,751.141,757.3557,0.0,1.0,1.0,0.0,1.0,SoundStimuli/GodOnlyKnows_TheBeachBoys_Original5S.wav,,,,,,,,,,,,,,,,,,,,,,,,,,,,,,,,,,,,,,,,,,,,,,,,,,,,,,,,
,,,,,355342,1,2024-06-17_10h49.40.236,experiment,2024.1.5,Win32,142.8571429,667045947eb812cbdacbf325,66704d68388d10a9927acc48,,,,,,,,,,,,,,,,,,,,,,,,,,,,,,,,,,,,,,,,,,,,757.3558,759.578,3.401888772,2.2109,0.0,5.0,5.0,8.0,1.0,song_indices/GodOnlyKnows_TheBeachBoys.csv,,,,,,,,,,,,,,,,,,,,,,,,,,,,,,,,,,,,,,,,,,,,,,
,,,,,355342,1,2024-06-17_10h49.40.236,experiment,2024.1.5,Win32,142.8571429,667045947eb812cbdacbf325,66704d68388d10a9927acc48,,,,,,,,,,,,,,,,,,,,,,,,,,,,,,,,,,,,759.5788,765.6898,0.0,0.0,0.0,0.0,1.0,SoundStimuli/StrawberryFieldsForever_TheBeatles_Original5S.wav,,,,,,,,,,,,,,,,,,,,,,,,,,,,,,,,,,,,,,,,,,,,,,,,,,,,,,,,
,,,,,355342,1,2024-06-17_10h49.40.236,experiment,2024.1.5,Win32,142.8571429,667045947eb812cbdacbf325,66704d68388d10a9927acc48,,,,,,,,,,,,,,,,,,,,,,,,,,,,,,,,,,,,765.6966,772.6961,0.0,1.0,1.0,1.0,1.0,SoundStimuli/StrawberryFieldsForever_TheBeatles_Cover5S.wav,,,,,,,,,,,,,,,,,,,,,,,,,,,,,,,,,,,,,,,,,,,,,,,,,,,,,,,,
,,,,,355342,1,2024-06-17_10h49.40.236,experiment,2024.1.5,Win32,142.8571429,667045947eb812cbdacbf325,66704d68388d10a9927acc48,,,,,,,,,,,,,,,,,,,,,,,,,,,,,,,,,,,,,,,,,,,,772.6961,777.3158,3.955928646,4.6127,0.0,6.0,6.0,14.0,1.0,song_indices/StrawberryFieldsForever_TheBeatles.csv,,,,,,,,,,,,,,,,,,,,,,,,,,,,,,,,,,,,,,,,,,,,,,
,,,,,355342,1,2024-06-17_10h49.40.236,experiment,2024.1.5,Win32,142.8571429,667045947eb812cbdacbf325,66704d68388d10a9927acc48,,,,,,,,,,,,,,,,,,,,,,,,,,,,,,,,,,,,777.3166,783.328,0.0,0.0,0.0,0.0,1.0,SoundStimuli/AChangeIsGonnaCome_SamCooke_Original5S.wav,,,,,,,,,,,,,,,,,,,,,,,,,,,,,,,,,,,,,,,,,,,,,,,,,,,,,,,,
,,,,,355342,1,2024-06-17_10h49.40.236,experiment,2024.1.5,Win32,142.8571429,667045947eb812cbdacbf325,66704d68388d10a9927acc48,,,,,,,,,,,,,,,,,,,,,,,,,,,,,,,,,,,,783.3346,788.0163,0.0,1.0,1.0,1.0,1.0,SoundStimuli/AChangeIsGonnaCome_SamCooke_Cover5S.wav,,,,,,,,,,,,,,,,,,,,,,,,,,,,,,,,,,,,,,,,,,,,,,,,,,,,,,,,
,,,,,355342,1,2024-06-17_10h49.40.236,experiment,2024.1.5,Win32,142.8571429,667045947eb812cbdacbf325,66704d68388d10a9927acc48,,,,,,,,,,,,,,,,,,,,,,,,,,,,,,,,,,,,,,,,,,,,788.0164,789.357,2.847848898,1.3338,0.0,7.0,7.0,17.0,1.0,song_indices/AChangeIsGonnaCome_SamCooke.csv,,,,,,,,,,,,,,,,,,,,,,,,,,,,,,,,,,,,,,,,,,,,,,
,,,,,355342,1,2024-06-17_10h49.40.236,experiment,2024.1.5,Win32,142.8571429,667045947eb812cbdacbf325,66704d68388d10a9927acc48,,,,,,,,,,,,,,,,,,,,,,,,,,,,,,,,,,,,789.3576,795.3629,0.0,0.0,0.0,0.0,1.0,SoundStimuli/StayinAlive_BeeGees_Original5S.wav,,,,,,,,,,,,,,,,,,,,,,,,,,,,,,,,,,,,,,,,,,,,,,,,,,,,,,,,
,,,,,355342,1,2024-06-17_10h49.40.236,experiment,2024.1.5,Win32,142.8571429,667045947eb812cbdacbf325,66704d68388d10a9927acc48,,,,,,,,,,,,,,,,,,,,,,,,,,,,,,,,,,,,795.3695,801.1835,0.0,1.0,1.0,1.0,1.0,SoundStimuli/StayinAlive_BeeGees_Cover5S.wav,,,,,,,,,,,,,,,,,,,,,,,,,,,,,,,,,,,,,,,,,,,,,,,,,,,,,,,,
,,,,,355342,1,2024-06-17_10h49.40.236,experiment,2024.1.5,Win32,142.8571429,667045947eb812cbdacbf325,66704d68388d10a9927acc48,,,,,,,,,,,,,,,,,,,,,,,,,,,,,,,,,,,,,,,,,,,,801.1836,804.1685,3.483735572,2.9753,0.0,8.0,8.0,2.0,1.0,song_indices/StayinAlive_BeeGees.csv,,,,,,,,,,,,,,,,,,,,,,,,,,,,,,,,,,,,,,,,,,,,,,
,,,,,355342,1,2024-06-17_10h49.40.236,experiment,2024.1.5,Win32,142.8571429,667045947eb812cbdacbf325,66704d68388d10a9927acc48,,,,,,,,,,,,,,,,,,,,,,,,,,,,,,,,,,,,804.1691,810.6616,0.0,0.0,0.0,1.0,1.0,SoundStimuli/OldTownRoad_LilNasX_Cover5S.wav,,,,,,,,,,,,,,,,,,,,,,,,,,,,,,,,,,,,,,,,,,,,,,,,,,,,,,,,
,,,,,355342,1,2024-06-17_10h49.40.236,experiment,2024.1.5,Win32,142.8571429,667045947eb812cbdacbf325,66704d68388d10a9927acc48,,,,,,,,,,,,,,,,,,,,,,,,,,,,,,,,,,,,810.668,818.016,0.0,1.0,1.0,0.0,1.0,SoundStimuli/OldTownRoad_LilNasX_Original5S.wav,,,,,,,,,,,,,,,,,,,,,,,,,,,,,,,,,,,,,,,,,,,,,,,,,,,,,,,,
,,,,,355342,1,2024-06-17_10h49.40.236,experiment,2024.1.5,Win32,142.8571429,667045947eb812cbdacbf325,66704d68388d10a9927acc48,,,,,,,,,,,,,,,,,,,,,,,,,,,,,,,,,,,,,,,,,,,,818.0161,823.627,4.919202518,5.599,0.0,9.0,9.0,20.0,1.0,song_indices/OldTownRoad_LilNasX.csv,,,,,,,,,,,,,,,,,,,,,,,,,,,,,,,,,,,,,,,,,,,,,,
,,,,,355342,1,2024-06-17_10h49.40.236,experiment,2024.1.5,Win32,142.8571429,667045947eb812cbdacbf325,66704d68388d10a9927acc48,,,,,,,,,,,,,,,,,,,,,,,,,,,,,,,,,,,,823.6279,828.0022,0.0,0.0,0.0,1.0,1.0,SoundStimuli/LikeARollingStone_BobDylan_Cover5S.wav,,,,,,,,,,,,,,,,,,,,,,,,,,,,,,,,,,,,,,,,,,,,,,,,,,,,,,,,
,,,,,355342,1,2024-06-17_10h49.40.236,experiment,2024.1.5,Win32,142.8571429,667045947eb812cbdacbf325,66704d68388d10a9927acc48,,,,,,,,,,,,,,,,,,,,,,,,,,,,,,,,,,,,828.0086,834.1342,0.0,1.0,1.0,0.0,1.0,SoundStimuli/LikeARollingStone_BobDylan_Original5S.wav,,,,,,,,,,,,,,,,,,,,,,,,,,,,,,,,,,,,,,,,,,,,,,,,,,,,,,,,
,,,,,355342,1,2024-06-17_10h49.40.236,experiment,2024.1.5,Win32,142.8571429,667045947eb812cbdacbf325,66704d68388d10a9927acc48,,,,,,,,,,,,,,,,,,,,,,,,,,,,,,,,,,,,,,,,,,,,834.1343,838.5095,4.037775446,4.3683,0.0,10.0,10.0,12.0,1.0,song_indices/LikeARollingStone_BobDylan.csv,,,,,,,,,,,,,,,,,,,,,,,,,,,,,,,,,,,,,,,,,,,,,,
,,,,,355342,1,2024-06-17_10h49.40.236,experiment,2024.1.5,Win32,142.8571429,667045947eb812cbdacbf325,66704d68388d10a9927acc48,,,,,,,,,,,,,,,,,,,,,,,,,,,,,,,,,,,,838.5101,845.0509,0.0,0.0,0.0,0.0,1.0,SoundStimuli/Despacito_LuisFonsiDaddyYankee_Original5S.wav,,,,,,,,,,,,,,,,,,,,,,,,,,,,,,,,,,,,,,,,,,,,,,,,,,,,,,,,
,,,,,355342,1,2024-06-17_10h49.40.236,experiment,2024.1.5,Win32,142.8571429,667045947eb812cbdacbf325,66704d68388d10a9927acc48,,,,,,,,,,,,,,,,,,,,,,,,,,,,,,,,,,,,845.0575,851.6134,0.0,1.0,1.0,1.0,1.0,SoundStimuli/Despacito_LuisFonsiDaddyYankee_Cover5S.wav,,,,,,,,,,,,,,,,,,,,,,,,,,,,,,,,,,,,,,,,,,,,,,,,,,,,,,,,
,,,,,355342,1,2024-06-17_10h49.40.236,experiment,2024.1.5,Win32,142.8571429,667045947eb812cbdacbf325,66704d68388d10a9927acc48,,,,,,,,,,,,,,,,,,,,,,,,,,,,,,,,,,,,,,,,,,,,851.6135,860.3425,4.491080797,8.7211,0.0,11.0,11.0,11.0,1.0,song_indices/Despacito_LuisFonsiDaddyYankee.csv,,,,,,,,,,,,,,,,,,,,,,,,,,,,,,,,,,,,,,,,,,,,,,
,,,,,355342,1,2024-06-17_10h49.40.236,experiment,2024.1.5,Win32,142.8571429,667045947eb812cbdacbf325,66704d68388d10a9927acc48,,,,,,,,,,,,,,,,,,,,,,,,,,,,,,,,,,,,860.3432,866.7731,0.0,0.0,0.0,0.0,1.0,SoundStimuli/BadDay_DanielPowter_Original5S.wav,,,,,,,,,,,,,,,,,,,,,,,,,,,,,,,,,,,,,,,,,,,,,,,,,,,,,,,,
,,,,,355342,1,2024-06-17_10h49.40.236,experiment,2024.1.5,Win32,142.8571429,667045947eb812cbdacbf325,66704d68388d10a9927acc48,,,,,,,,,,,,,,,,,,,,,,,,,,,,,,,,,,,,866.7793,874.2593,0.0,1.0,1.0,1.0,1.0,SoundStimuli/BadDay_DanielPowter_Cover5S.wav,,,,,,,,,,,,,,,,,,,,,,,,,,,,,,,,,,,,,,,,,,,,,,,,,,,,,,,,
,,,,,355342,1,2024-06-17_10h49.40.236,experiment,2024.1.5,Win32,142.8571429,667045947eb812cbdacbf325,66704d68388d10a9927acc48,,,,,,,,,,,,,,,,,,,,,,,,,,,,,,,,,,,,,,,,,,,,874.2594,875.6342,3.955928646,1.3632,0.0,12.0,12.0,22.0,1.0,song_indices/BadDay_DanielPowter.csv,,,,,,,,,,,,,,,,,,,,,,,,,,,,,,,,,,,,,,,,,,,,,,
,,,,,355342,1,2024-06-17_10h49.40.236,experiment,2024.1.5,Win32,142.8571429,667045947eb812cbdacbf325,66704d68388d10a9927acc48,,,,,,,,,,,,,,,,,,,,,,,,,,,,,,,,,,,,875.635,883.9053,0.0,0.0,0.0,1.0,1.0,SoundStimuli/Mood_24kGoldnianndior_Cover5S.wav,,,,,,,,,,,,,,,,,,,,,,,,,,,,,,,,,,,,,,,,,,,,,,,,,,,,,,,,
,,,,,355342,1,2024-06-17_10h49.40.236,experiment,2024.1.5,Win32,142.8571429,667045947eb812cbdacbf325,66704d68388d10a9927acc48,,,,,,,,,,,,,,,,,,,,,,,,,,,,,,,,,,,,883.9055,893.5859,0.0,1.0,1.0,0.0,1.0,SoundStimuli/Mood_24kGoldnianndior_Original5S.wav,,,,,,,,,,,,,,,,,,,,,,,,,,,,,,,,,,,,,,,,,,,,,,,,,,,,,,,,
,,,,,355342,1,2024-06-17_10h49.40.236,experiment,2024.1.5,Win32,142.8571429,667045947eb812cbdacbf325,66704d68388d10a9927acc48,,,,,,,,,,,,,,,,,,,,,,,,,,,,,,,,,,,,,,,,,,,,893.5861,895.7109,4.818467996,2.1146,0.0,13.0,13.0,5.0,1.0,song_indices/Mood_24kGoldnianndior.csv,,,,,,,,,,,,,,,,,,,,,,,,,,,,,,,,,,,,,,,,,,,,,,
,,,,,355342,1,2024-06-17_10h49.40.236,experiment,2024.1.5,Win32,142.8571429,667045947eb812cbdacbf325,66704d68388d10a9927acc48,,,,,,,,,,,,,,,,,,,,,,,,,,,,,,,,,,,,895.7115,910.954,0.0,0.0,0.0,1.0,1.0,SoundStimuli/IllMakeLoveToYou_BoyzIIMen_Cover5S.wav,,,,,,,,,,,,,,,,,,,,,,,,,,,,,,,,,,,,,,,,,,,,,,,,,,,,,,,,
,,,,,355342,1,2024-06-17_10h49.40.236,experiment,2024.1.5,Win32,142.8571429,667045947eb812cbdacbf325,66704d68388d10a9927acc48,,,,,,,,,,,,,,,,,,,,,,,,,,,,,,,,,,,,910.9623,917.0235,0.0,1.0,1.0,0.0,1.0,SoundStimuli/IllMakeLoveToYou_BoyzIIMen_Original5S.wav,,,,,,,,,,,,,,,,,,,,,,,,,,,,,,,,,,,,,,,,,,,,,,,,,,,,,,,,
,,,,,355342,1,2024-06-17_10h49.40.236,experiment,2024.1.5,Win32,142.8571429,667045947eb812cbdacbf325,66704d68388d10a9927acc48,,,,,,,,,,,,,,,,,,,,,,,,,,,,,,,,,,,,,,,,,,,,917.0235,918.9679,3.949632739,1.9352,0.0,14.0,14.0,6.0,1.0,song_indices/IllMakeLoveToYou_BoyzIIMen.csv,,,,,,,,,,,,,,,,,,,,,,,,,,,,,,,,,,,,,,,,,,,,,,
,,,,,355342,1,2024-06-17_10h49.40.236,experiment,2024.1.5,Win32,142.8571429,667045947eb812cbdacbf325,66704d68388d10a9927acc48,,,,,,,,,,,,,,,,,,,,,,,,,,,,,,,,,,,,918.9684,926.1217,0.0,0.0,0.0,0.0,1.0,SoundStimuli/LivinOnAPrayer_BonJovi_Original5S.wav,,,,,,,,,,,,,,,,,,,,,,,,,,,,,,,,,,,,,,,,,,,,,,,,,,,,,,,,
,,,,,355342,1,2024-06-17_10h49.40.236,experiment,2024.1.5,Win32,142.8571429,667045947eb812cbdacbf325,66704d68388d10a9927acc48,,,,,,,,,,,,,,,,,,,,,,,,,,,,,,,,,,,,926.1313,933.7885,0.0,1.0,1.0,1.0,1.0,SoundStimuli/LivinOnAPrayer_BonJovi_Cover5S.wav,,,,,,,,,,,,,,,,,,,,,,,,,,,,,,,,,,,,,,,,,,,,,,,,,,,,,,,,
,,,,,355342,1,2024-06-17_10h49.40.236,experiment,2024.1.5,Win32,142.8571429,667045947eb812cbdacbf325,66704d68388d10a9927acc48,,,,,,,,,,,,,,,,,,,,,,,,,,,,,,,,,,,,,,,,,,,,933.7886,935.7816,4.226652676,1.9864,0.0,15.0,15.0,16.0,1.0,song_indices/LivinOnAPrayer_BonJovi.csv,,,,,,,,,,,,,,,,,,,,,,,,,,,,,,,,,,,,,,,,,,,,,,
,,,,,355342,1,2024-06-17_10h49.40.236,experiment,2024.1.5,Win32,142.8571429,667045947eb812cbdacbf325,66704d68388d10a9927acc48,,,,,,,,,,,,,,,,,,,,,,,,,,,,,,,,,,,,935.7823,944.3579,0.0,0.0,0.0,1.0,1.0,SoundStimuli/HeatWaves_GlassAnimals_Cover5S.wav,,,,,,,,,,,,,,,,,,,,,,,,,,,,,,,,,,,,,,,,,,,,,,,,,,,,,,,,
,,,,,355342,1,2024-06-17_10h49.40.236,experiment,2024.1.5,Win32,142.8571429,667045947eb812cbdacbf325,66704d68388d10a9927acc48,,,,,,,,,,,,,,,,,,,,,,,,,,,,,,,,,,,,944.3639,950.4404,0.0,1.0,1.0,0.0,1.0,SoundStimuli/HeatWaves_GlassAnimals_Original5S.wav,,,,,,,,,,,,,,,,,,,,,,,,,,,,,,,,,,,,,,,,,,,,,,,,,,,,,,,,
,,,,,355342,1,2024-06-17_10h49.40.236,experiment,2024.1.5,Win32,142.8571429,667045947eb812cbdacbf325,66704d68388d10a9927acc48,,,,,,,,,,,,,,,,,,,,,,,,,,,,,,,,,,,,,,,,,,,,950.4404,954.8154,4.447009444,4.3664,0.0,16.0,16.0,10.0,1.0,song_indices/HeatWaves_GlassAnimals.csv,,,,,,,,,,,,,,,,,,,,,,,,,,,,,,,,,,,,,,,,,,,,,,
,,,,,355342,1,2024-06-17_10h49.40.236,experiment,2024.1.5,Win32,142.8571429,667045947eb812cbdacbf325,66704d68388d10a9927acc48,,,,,,,,,,,,,,,,,,,,,,,,,,,,,,,,,,,,954.8161,960.831,0.0,0.0,0.0,0.0,1.0,SoundStimuli/AnotherOneBitesTheDust_Queen_Original5S.wav,,,,,,,,,,,,,,,,,,,,,,,,,,,,,,,,,,,,,,,,,,,,,,,,,,,,,,,,
,,,,,355342,1,2024-06-17_10h49.40.236,experiment,2024.1.5,Win32,142.8571429,667045947eb812cbdacbf325,66704d68388d10a9927acc48,,,,,,,,,,,,,,,,,,,,,,,,,,,,,,,,,,,,960.8494,968.9474,0.0,1.0,1.0,1.0,1.0,SoundStimuli/AnotherOneBitesTheDust_Queen_Cover5S.wav,,,,,,,,,,,,,,,,,,,,,,,,,,,,,,,,,,,,,,,,,,,,,,,,,,,,,,,,
,,,,,355342,1,2024-06-17_10h49.40.236,experiment,2024.1.5,Win32,142.8571429,667045947eb812cbdacbf325,66704d68388d10a9927acc48,,,,,,,,,,,,,,,,,,,,,,,,,,,,,,,,,,,,,,,,,,,,968.9475,970.017,4.616998951,1.0589,0.0,17.0,17.0,9.0,1.0,song_indices/AnotherOneBitesTheDust_Queen.csv,,,,,,,,,,,,,,,,,,,,,,,,,,,,,,,,,,,,,,,,,,,,,,
,,,,,355342,1,2024-06-17_10h49.40.236,experiment,2024.1.5,Win32,142.8571429,667045947eb812cbdacbf325,66704d68388d10a9927acc48,,,,,,,,,,,,,,,,,,,,,,,,,,,,,,,,,,,,970.0176,976.1351,0.0,0.0,0.0,0.0,1.0,SoundStimuli/MackTheKnife_BobbyDarin_Original5S.wav,,,,,,,,,,,,,,,,,,,,,,,,,,,,,,,,,,,,,,,,,,,,,,,,,,,,,,,,
,,,,,355342,1,2024-06-17_10h49.40.236,experiment,2024.1.5,Win32,142.8571429,667045947eb812cbdacbf325,66704d68388d10a9927acc48,,,,,,,,,,,,,,,,,,,,,,,,,,,,,,,,,,,,976.1481,982.3852,0.0,1.0,1.0,1.0,1.0,SoundStimuli/MackTheKnife_BobbyDarin_Cover5S.wav,,,,,,,,,,,,,,,,,,,,,,,,,,,,,,,,,,,,,,,,,,,,,,,,,,,,,,,,
,,,,,355342,1,2024-06-17_10h49.40.236,experiment,2024.1.5,Win32,142.8571429,667045947eb812cbdacbf325,66704d68388d10a9927acc48,,,,,,,,,,,,,,,,,,,,,,,,,,,,,,,,,,,,,,,,,,,,982.3853,983.6628,3.244491081,1.2674,0.0,18.0,18.0,21.0,1.0,song_indices/MackTheKnife_BobbyDarin.csv,,,,,,,,,,,,,,,,,,,,,,,,,,,,,,,,,,,,,,,,,,,,,,
,,,,,355342,1,2024-06-17_10h49.40.236,experiment,2024.1.5,Win32,142.8571429,667045947eb812cbdacbf325,66704d68388d10a9927acc48,,,,,,,,,,,,,,,,,,,,,,,,,,,,,,,,,,,,983.6634,991.3087,0.0,0.0,0.0,1.0,1.0,SoundStimuli/MyGirl_TheTemptations_Cover5S.wav,,,,,,,,,,,,,,,,,,,,,,,,,,,,,,,,,,,,,,,,,,,,,,,,,,,,,,,,
,,,,,355342,1,2024-06-17_10h49.40.236,experiment,2024.1.5,Win32,142.8571429,667045947eb812cbdacbf325,66704d68388d10a9927acc48,,,,,,,,,,,,,,,,,,,,,,,,,,,,,,,,,,,,991.3176,997.6847,0.0,1.0,1.0,0.0,1.0,SoundStimuli/MyGirl_TheTemptations_Original5S.wav,,,,,,,,,,,,,,,,,,,,,,,,,,,,,,,,,,,,,,,,,,,,,,,,,,,,,,,,
,,,,,355342,1,2024-06-17_10h49.40.236,experiment,2024.1.5,Win32,142.8571429,667045947eb812cbdacbf325,66704d68388d10a9927acc48,,,,,,,,,,,,,,,,,,,,,,,,,,,,,,,,,,,,,,,,,,,,997.6848,1000.3295,4.686253935,2.6314,0.0,19.0,19.0,15.0,1.0,song_indices/MyGirl_TheTemptations.csv,,,,,,,,,,,,,,,,,,,,,,,,,,,,,,,,,,,,,,,,,,,,,,
,,,,,355342,1,2024-06-17_10h49.40.236,experiment,2024.1.5,Win32,142.8571429,667045947eb812cbdacbf325,66704d68388d10a9927acc48,,,,,,,,,,,,,,,,,,,,,,,,,,,,,,,,,,,,1000.3301,1004.3782,0.0,0.0,0.0,1.0,1.0,SoundStimuli/BohemianRhapsody_Queen_Cover5S.wav,,,,,,,,,,,,,,,,,,,,,,,,,,,,,,,,,,,,,,,,,,,,,,,,,,,,,,,,
,,,,,355342,1,2024-06-17_10h49.40.236,experiment,2024.1.5,Win32,142.8571429,667045947eb812cbdacbf325,66704d68388d10a9927acc48,,,,,,,,,,,,,,,,,,,,,,,,,,,,,,,,,,,,1004.3847,1010.3157,0.0,1.0,1.0,0.0,1.0,SoundStimuli/BohemianRhapsody_Queen_Original5S.wav,,,,,,,,,,,,,,,,,,,,,,,,,,,,,,,,,,,,,,,,,,,,,,,,,,,,,,,,
,,,,,355342,1,2024-06-17_10h49.40.236,experiment,2024.1.5,Win32,142.8571429,667045947eb812cbdacbf325,66704d68388d10a9927acc48,,,,,,,,,,,,,,,,,,,,,,,,,,,,,,,,,,,,,,,,,,,,1010.3159,1012.7814,3.974816369,2.4584,0.0,20.0,20.0,18.0,1.0,song_indices/BohemianRhapsody_Queen.csv,,,,,,,,,,,,,,,,,,,,,,,,,,,,,,,,,,,,,,,,,,,,,,
,,,,,355342,1,2024-06-17_10h49.40.236,experiment,2024.1.5,Win32,142.8571429,667045947eb812cbdacbf325,66704d68388d10a9927acc48,,,,,,,,,,,,,,,,,,,,,,,,,,,,,,,,,,,,1012.782,1018.9826,0.0,0.0,0.0,0.0,1.0,SoundStimuli/Smooth_SantanaRobThomas_Original5S.wav,,,,,,,,,,,,,,,,,,,,,,,,,,,,,,,,,,,,,,,,,,,,,,,,,,,,,,,,
,,,,,355342,1,2024-06-17_10h49.40.236,experiment,2024.1.5,Win32,142.8571429,667045947eb812cbdacbf325,66704d68388d10a9927acc48,,,,,,,,,,,,,,,,,,,,,,,,,,,,,,,,,,,,1018.9893,1025.0936,0.0,1.0,1.0,1.0,1.0,SoundStimuli/Smooth_SantanaRobThomas_Cover5S.wav,,,,,,,,,,,,,,,,,,,,,,,,,,,,,,,,,,,,,,,,,,,,,,,,,,,,,,,,
,,,,,355342,1,2024-06-17_10h49.40.236,experiment,2024.1.5,Win32,142.8571429,667045947eb812cbdacbf325,66704d68388d10a9927acc48,,,,,,,,,,,,,,,,,,,,,,,,,,,,,,,,,,,,,,,,,,,,1025.0937,1026.3019,4.950682057,1.2007,0.0,21.0,21.0,4.0,1.0,song_indices/Smooth_SantanaRobThomas.csv,,,,,,,,,,,,,,,,,,,,,,,,,,,,,,,,,,,,,,,,,,,,,,
,,,,,355342,1,2024-06-17_10h49.40.236,experiment,2024.1.5,Win32,142.8571429,667045947eb812cbdacbf325,66704d68388d10a9927acc48,,,,,,,,,,,,,,,,,,,,,,,,,,,,,,,,,,,,1026.3024,1034.5381,0.0,0.0,0.0,1.0,1.0,SoundStimuli/Perfect_EdSheeran_Cover5S.wav,,,,,,,,,,,,,,,,,,,,,,,,,,,,,,,,,,,,,,,,,,,,,,,,,,,,,,,,
,,,,,355342,1,2024-06-17_10h49.40.236,experiment,2024.1.5,Win32,142.8571429,667045947eb812cbdacbf325,66704d68388d10a9927acc48,,,,,,,,,,,,,,,,,,,,,,,,,,,,,,,,,,,,1034.5448,1043.3715,0.0,1.0,1.0,0.0,1.0,SoundStimuli/Perfect_EdSheeran_Original5S.wav,,,,,,,,,,,,,,,,,,,,,,,,,,,,,,,,,,,,,,,,,,,,,,,,,,,,,,,,
,,,,,355342,1,2024-06-17_10h49.40.236,experiment,2024.1.5,Win32,142.8571429,667045947eb812cbdacbf325,66704d68388d10a9927acc48,,,,,,,,,,,,,,,,,,,,,,,,,,,,,,,,,,,,,,,,,,,,1043.3716,1045.7604,6.002098636,2.3775,0.0,22.0,22.0,0.0,1.0,song_indices/Perfect_EdSheeran.csv,,,,,,,,,,,,,,,,,,,,,,,,,,,,,,,,,,,,,,,,,,,,,,
,,,,,355342,1,2024-06-17_10h49.40.236,experiment,2024.1.5,Win32,142.8571429,667045947eb812cbdacbf325,66704d68388d10a9927acc48,,,,,,,,,,,,,,,,,,,,,,,,,,,,,,,,,,,,,,,,,,,,,,,,,,,,,,1045.7605,1077.3441,space,31.5788,,0.0,1.0,1.0,0.0,1.0,choose_song_b1.csv,,,,,,,,,,,,,,,,,,,,,,,,,,,,,,,,,,,
,,,,,355342,1,2024-06-17_10h49.40.236,experiment,2024.1.5,Win32,142.8571429,667045947eb812cbdacbf325,66704d68388d10a9927acc48,,,,,,,,,,,,,,,,,,,,,,,,,,,,,,,,,,,,1077.3454,1084.0739,0.0,0.0,0.0,0.0,1.0,SoundStimuli/PartyRockAnthem_LMFAO_Original5S.wav,,,,,,,,,,,,,,,,,,,,,,,,,,,,,,,,,,,,,,,,,,,,,,,,,,,,,,,,
,,,,,355342,1,2024-06-17_10h49.40.236,experiment,2024.1.5,Win32,142.8571429,667045947eb812cbdacbf325,66704d68388d10a9927acc48,,,,,,,,,,,,,,,,,,,,,,,,,,,,,,,,,,,,1084.0803,1090.838,0.0,1.0,1.0,1.0,1.0,SoundStimuli/PartyRockAnthem_LMFAO_Cover5S.wav,,,,,,,,,,,,,,,,,,,,,,,,,,,,,,,,,,,,,,,,,,,,,,,,,,,,,,,,
,,,,,355342,1,2024-06-17_10h49.40.236,experiment,2024.1.5,Win32,142.8571429,667045947eb812cbdacbf325,66704d68388d10a9927acc48,,,,,,,,,,,,,,,,,,,,,,,,,,,,,,,,,,,,,,,,,,,,1090.8381,1094.3371,4.258132214,3.4885,0.0,0.0,0.0,2.0,1.0,song_indices/PartyRockAnthem_LMFAO.csv,,,,,,,,,,,,,,,,,,,,,,,,,,,,,,,,,,,,,,,,,,,,,,
,,,,,355342,1,2024-06-17_10h49.40.236,experiment,2024.1.5,Win32,142.8571429,667045947eb812cbdacbf325,66704d68388d10a9927acc48,,,,,,,,,,,,,,,,,,,,,,,,,,,,,,,,,,,,1094.3377,1101.3301,0.0,0.0,0.0,1.0,1.0,SoundStimuli/UptownFunk_MarkRonson_Cover5S.wav,,,,,,,,,,,,,,,,,,,,,,,,,,,,,,,,,,,,,,,,,,,,,,,,,,,,,,,,
,,,,,355342,1,2024-06-17_10h49.40.236,experiment,2024.1.5,Win32,142.8571429,667045947eb812cbdacbf325,66704d68388d10a9927acc48,,,,,,,,,,,,,,,,,,,,,,,,,,,,,,,,,,,,1101.3363,1108.5396,0.0,1.0,1.0,0.0,1.0,SoundStimuli/UptownFunk_MarkRonson_Original5S.wav,,,,,,,,,,,,,,,,,,,,,,,,,,,,,,,,,,,,,,,,,,,,,,,,,,,,,,,,
,,,,,355342,1,2024-06-17_10h49.40.236,experiment,2024.1.5,Win32,142.8571429,667045947eb812cbdacbf325,66704d68388d10a9927acc48,,,,,,,,,,,,,,,,,,,,,,,,,,,,,,,,,,,,,,,,,,,,1108.5397,1109.352,4.812172088,0.8056,0.0,1.0,1.0,15.0,1.0,song_indices/UptownFunk_MarkRonson.csv,,,,,,,,,,,,,,,,,,,,,,,,,,,,,,,,,,,,,,,,,,,,,,
,,,,,355342,1,2024-06-17_10h49.40.236,experiment,2024.1.5,Win32,142.8571429,667045947eb812cbdacbf325,66704d68388d10a9927acc48,,,,,,,,,,,,,,,,,,,,,,,,,,,,,,,,,,,,1109.3527,1115.5457,0.0,0.0,0.0,0.0,1.0,SoundStimuli/TheBoyIsMine_BrandyMonica_Original5S.wav,,,,,,,,,,,,,,,,,,,,,,,,,,,,,,,,,,,,,,,,,,,,,,,,,,,,,,,,
,,,,,355342,1,2024-06-17_10h49.40.236,experiment,2024.1.5,Win32,142.8571429,667045947eb812cbdacbf325,66704d68388d10a9927acc48,,,,,,,,,,,,,,,,,,,,,,,,,,,,,,,,,,,,1115.5588,1121.4762,0.0,1.0,1.0,1.0,1.0,SoundStimuli/TheBoyIsMine_BrandyMonica_Cover5S.wav,,,,,,,,,,,,,,,,,,,,,,,,,,,,,,,,,,,,,,,,,,,,,,,,,,,,,,,,
,,,,,355342,1,2024-06-17_10h49.40.236,experiment,2024.1.5,Win32,142.8571429,667045947eb812cbdacbf325,66704d68388d10a9927acc48,,,,,,,,,,,,,,,,,,,,,,,,,,,,,,,,,,,,,,,,,,,,1121.4764,1122.4901,4.982161595,0.996,0.0,2.0,2.0,6.0,1.0,song_indices/TheBoyIsMine_BrandyMonica.csv,,,,,,,,,,,,,,,,,,,,,,,,,,,,,,,,,,,,,,,,,,,,,,
,,,,,355342,1,2024-06-17_10h49.40.236,experiment,2024.1.5,Win32,142.8571429,667045947eb812cbdacbf325,66704d68388d10a9927acc48,,,,,,,,,,,,,,,,,,,,,,,,,,,,,,,,,,,,1122.4906,1128.2332,0.0,0.0,0.0,1.0,1.0,SoundStimuli/SmellsLikeTeenSpirit_Nirvana_Cover5S.wav,,,,,,,,,,,,,,,,,,,,,,,,,,,,,,,,,,,,,,,,,,,,,,,,,,,,,,,,
,,,,,355342,1,2024-06-17_10h49.40.236,experiment,2024.1.5,Win32,142.8571429,667045947eb812cbdacbf325,66704d68388d10a9927acc48,,,,,,,,,,,,,,,,,,,,,,,,,,,,,,,,,,,,1128.2399,1134.4209,0.0,1.0,1.0,0.0,1.0,SoundStimuli/SmellsLikeTeenSpirit_Nirvana_Original5S.wav,,,,,,,,,,,,,,,,,,,,,,,,,,,,,,,,,,,,,,,,,,,,,,,,,,,,,,,,
,,,,,355342,1,2024-06-17_10h49.40.236,experiment,2024.1.5,Win32,142.8571429,667045947eb812cbdacbf325,66704d68388d10a9927acc48,,,,,,,,,,,,,,,,,,,,,,,,,,,,,,,,,,,,,,,,,,,,1134.4209,1136.1302,6.027282267,1.7025,0.0,3.0,3.0,8.0,1.0,song_indices/SmellsLikeTeenSpirit_Nirvana.csv,,,,,,,,,,,,,,,,,,,,,,,,,,,,,,,,,,,,,,,,,,,,,,
,,,,,355342,1,2024-06-17_10h49.40.236,experiment,2024.1.5,Win32,142.8571429,667045947eb812cbdacbf325,66704d68388d10a9927acc48,,,,,,,,,,,,,,,,,,,,,,,,,,,,,,,,,,,,1136.1307,1143.8376,0.0,0.0,0.0,0.0,1.0,SoundStimuli/NoOne_AliciaKeys_Original5S.wav,,,,,,,,,,,,,,,,,,,,,,,,,,,,,,,,,,,,,,,,,,,,,,,,,,,,,,,,
,,,,,355342,1,2024-06-17_10h49.40.236,experiment,2024.1.5,Win32,142.8571429,667045947eb812cbdacbf325,66704d68388d10a9927acc48,,,,,,,,,,,,,,,,,,,,,,,,,,,,,,,,,,,,1143.8525,1150.0527,0.0,1.0,1.0,1.0,1.0,SoundStimuli/NoOne_AliciaKeys_Cover5S.wav,,,,,,,,,,,,,,,,,,,,,,,,,,,,,,,,,,,,,,,,,,,,,,,,,,,,,,,,
,,,,,355342,1,2024-06-17_10h49.40.236,experiment,2024.1.5,Win32,142.8571429,667045947eb812cbdacbf325,66704d68388d10a9927acc48,,,,,,,,,,,,,,,,,,,,,,,,,,,,,,,,,,,,,,,,,,,,1150.0528,1153.8038,2.998950682,3.7419,0.0,4.0,4.0,19.0,1.0,song_indices/NoOne_AliciaKeys.csv,,,,,,,,,,,,,,,,,,,,,,,,,,,,,,,,,,,,,,,,,,,,,,
,,,,,355342,1,2024-06-17_10h49.40.236,experiment,2024.1.5,Win32,142.8571429,667045947eb812cbdacbf325,66704d68388d10a9927acc48,,,,,,,,,,,,,,,,,,,,,,,,,,,,,,,,,,,,1153.8042,1159.9913,0.0,0.0,0.0,0.0,1.0,SoundStimuli/BetteDavisEyes_KimCarnes_Original5S.wav,,,,,,,,,,,,,,,,,,,,,,,,,,,,,,,,,,,,,,,,,,,,,,,,,,,,,,,,
,,,,,355342,1,2024-06-17_10h49.40.236,experiment,2024.1.5,Win32,142.8571429,667045947eb812cbdacbf325,66704d68388d10a9927acc48,,,,,,,,,,,,,,,,,,,,,,,,,,,,,,,,,,,,1159.9978,1165.6787,0.0,1.0,1.0,1.0,1.0,SoundStimuli/BetteDavisEyes_KimCarnes_Cover5S.wav,,,,,,,,,,,,,,,,,,,,,,,,,,,,,,,,,,,,,,,,,,,,,,,,,,,,,,,,
,,,,,355342,1,2024-06-17_10h49.40.236,experiment,2024.1.5,Win32,142.8571429,667045947eb812cbdacbf325,66704d68388d10a9927acc48,,,,,,,,,,,,,,,,,,,,,,,,,,,,,,,,,,,,,,,,,,,,1165.6789,1166.4555,5.045120672,0.7675,0.0,5.0,5.0,5.0,1.0,song_indices/BetteDavisEyes_KimCarnes.csv,,,,,,,,,,,,,,,,,,,,,,,,,,,,,,,,,,,,,,,,,,,,,,
,,,,,355342,1,2024-06-17_10h49.40.236,experiment,2024.1.5,Win32,142.8571429,667045947eb812cbdacbf325,66704d68388d10a9927acc48,,,,,,,,,,,,,,,,,,,,,,,,,,,,,,,,,,,,1166.4563,1172.6084,0.0,0.0,0.0,0.0,1.0,SoundStimuli/Fallin_AliciaKeys_Original5S.wav,,,,,,,,,,,,,,,,,,,,,,,,,,,,,,,,,,,,,,,,,,,,,,,,,,,,,,,,
,,,,,355342,1,2024-06-17_10h49.40.236,experiment,2024.1.5,Win32,142.8571429,667045947eb812cbdacbf325,66704d68388d10a9927acc48,,,,,,,,,,,,,,,,,,,,,,,,,,,,,,,,,,,,1172.6189,1179.0322,0.0,1.0,1.0,1.0,1.0,SoundStimuli/Fallin_AliciaKeys_Cover5S.wav,,,,,,,,,,,,,,,,,,,,,,,,,,,,,,,,,,,,,,,,,,,,,,,,,,,,,,,,
,,,,,355342,1,2024-06-17_10h49.40.236,experiment,2024.1.5,Win32,142.8571429,667045947eb812cbdacbf325,66704d68388d10a9927acc48,,,,,,,,,,,,,,,,,,,,,,,,,,,,,,,,,,,,,,,,,,,,1179.0323,1181.1362,4.862539349,2.0903,0.0,6.0,6.0,12.0,1.0,song_indices/Fallin_AliciaKeys.csv,,,,,,,,,,,,,,,,,,,,,,,,,,,,,,,,,,,,,,,,,,,,,,
,,,,,355342,1,2024-06-17_10h49.40.236,experiment,2024.1.5,Win32,142.8571429,667045947eb812cbdacbf325,66704d68388d10a9927acc48,,,,,,,,,,,,,,,,,,,,,,,,,,,,,,,,,,,,1181.1367,1187.3307,0.0,0.0,0.0,1.0,1.0,SoundStimuli/GimmeShelter_RollingStones_Cover5S.wav,,,,,,,,,,,,,,,,,,,,,,,,,,,,,,,,,,,,,,,,,,,,,,,,,,,,,,,,
,,,,,355342,1,2024-06-17_10h49.40.236,experiment,2024.1.5,Win32,142.8571429,667045947eb812cbdacbf325,66704d68388d10a9927acc48,,,,,,,,,,,,,,,,,,,,,,,,,,,,,,,,,,,,1187.3372,1193.4073,0.0,1.0,1.0,0.0,1.0,SoundStimuli/GimmeShelter_RollingStones_Original5S.wav,,,,,,,,,,,,,,,,,,,,,,,,,,,,,,,,,,,,,,,,,,,,,,,,,,,,,,,,
,,,,,355342,1,2024-06-17_10h49.40.236,experiment,2024.1.5,Win32,142.8571429,667045947eb812cbdacbf325,66704d68388d10a9927acc48,,,,,,,,,,,,,,,,,,,,,,,,,,,,,,,,,,,,,,,,,,,,1193.4074,1194.7335,4.635886674,1.3191,0.0,7.0,7.0,20.0,1.0,song_indices/GimmeShelter_RollingStones.csv,,,,,,,,,,,,,,,,,,,,,,,,,,,,,,,,,,,,,,,,,,,,,,
,,,,,355342,1,2024-06-17_10h49.40.236,experiment,2024.1.5,Win32,142.8571429,667045947eb812cbdacbf325,66704d68388d10a9927acc48,,,,,,,,,,,,,,,,,,,,,,,,,,,,,,,,,,,,1194.7341,1202.0668,0.0,0.0,0.0,1.0,1.0,SoundStimuli/Happy_PharellWilliams_Cover5S.wav,,,,,,,,,,,,,,,,,,,,,,,,,,,,,,,,,,,,,,,,,,,,,,,,,,,,,,,,
,,,,,355342,1,2024-06-17_10h49.40.236,experiment,2024.1.5,Win32,142.8571429,667045947eb812cbdacbf325,66704d68388d10a9927acc48,,,,,,,,,,,,,,,,,,,,,,,,,,,,,,,,,,,,1202.0735,1209.4003,0.0,1.0,1.0,0.0,1.0,SoundStimuli/Happy_PharellWilliams_Original5S.wav,,,,,,,,,,,,,,,,,,,,,,,,,,,,,,,,,,,,,,,,,,,,,,,,,,,,,,,,
,,,,,355342,1,2024-06-17_10h49.40.236,experiment,2024.1.5,Win32,142.8571429,667045947eb812cbdacbf325,66704d68388d10a9927acc48,,,,,,,,,,,,,,,,,,,,,,,,,,,,,,,,,,,,,,,,,,,,1209.4004,1214.8308,5.051416579,5.422,0.0,8.0,8.0,7.0,1.0,song_indices/Happy_PharellWilliams.csv,,,,,,,,,,,,,,,,,,,,,,,,,,,,,,,,,,,,,,,,,,,,,,
,,,,,355342,1,2024-06-17_10h49.40.236,experiment,2024.1.5,Win32,142.8571429,667045947eb812cbdacbf325,66704d68388d10a9927acc48,,,,,,,,,,,,,,,,,,,,,,,,,,,,,,,,,,,,1214.8314,1223.7267,0.0,0.0,0.0,1.0,1.0,SoundStimuli/HeyYa_Outkast_Cover5S.wav,,,,,,,,,,,,,,,,,,,,,,,,,,,,,,,,,,,,,,,,,,,,,,,,,,,,,,,,
,,,,,355342,1,2024-06-17_10h49.40.236,experiment,2024.1.5,Win32,142.8571429,667045947eb812cbdacbf325,66704d68388d10a9927acc48,,,,,,,,,,,,,,,,,,,,,,,,,,,,,,,,,,,,1223.7333,1229.9978,0.0,1.0,1.0,0.0,1.0,SoundStimuli/HeyYa_Outkast_Original5S.wav,,,,,,,,,,,,,,,,,,,,,,,,,,,,,,,,,,,,,,,,,,,,,,,,,,,,,,,,
,,,,,355342,1,2024-06-17_10h49.40.236,experiment,2024.1.5,Win32,142.8571429,667045947eb812cbdacbf325,66704d68388d10a9927acc48,,,,,,,,,,,,,,,,,,,,,,,,,,,,,,,,,,,,,,,,,,,,1229.9979,1233.5948,4.648478489,3.5855,0.0,9.0,9.0,22.0,1.0,song_indices/HeyYa_Outkast.csv,,,,,,,,,,,,,,,,,,,,,,,,,,,,,,,,,,,,,,,,,,,,,,
,,,,,355342,1,2024-06-17_10h49.40.236,experiment,2024.1.5,Win32,142.8571429,667045947eb812cbdacbf325,66704d68388d10a9927acc48,,,,,,,,,,,,,,,,,,,,,,,,,,,,,,,,,,,,1233.5957,1239.7894,0.0,0.0,0.0,0.0,1.0,SoundStimuli/TheBattleOfNewOrleans_JohnnyHorton_Original5S.wav,,,,,,,,,,,,,,,,,,,,,,,,,,,,,,,,,,,,,,,,,,,,,,,,,,,,,,,,
,,,,,355342,1,2024-06-17_10h49.40.236,experiment,2024.1.5,Win32,142.8571429,667045947eb812cbdacbf325,66704d68388d10a9927acc48,,,,,,,,,,,,,,,,,,,,,,,,,,,,,,,,,,,,1239.7955,1247.7546,0.0,1.0,1.0,1.0,1.0,SoundStimuli/TheBattleOfNewOrleans_JohnnyHorton_Cover5S.wav,,,,,,,,,,,,,,,,,,,,,,,,,,,,,,,,,,,,,,,,,,,,,,,,,,,,,,,,
,,,,,355342,1,2024-06-17_10h49.40.236,experiment,2024.1.5,Win32,142.8571429,667045947eb812cbdacbf325,66704d68388d10a9927acc48,,,,,,,,,,,,,,,,,,,,,,,,,,,,,,,,,,,,,,,,,,,,1247.7547,1248.5394,4.453305352,0.7729,0.0,10.0,10.0,4.0,1.0,song_indices/TheBattleOfNewOrleans_JohnnyHorton.csv,,,,,,,,,,,,,,,,,,,,,,,,,,,,,,,,,,,,,,,,,,,,,,
,,,,,355342,1,2024-06-17_10h49.40.236,experiment,2024.1.5,Win32,142.8571429,667045947eb812cbdacbf325,66704d68388d10a9927acc48,,,,,,,,,,,,,,,,,,,,,,,,,,,,,,,,,,,,1248.5402,1254.9075,0.0,0.0,0.0,0.0,1.0,SoundStimuli/IWillAlwaysLoveYou_WhitneyHouston_Original5S.wav,,,,,,,,,,,,,,,,,,,,,,,,,,,,,,,,,,,,,,,,,,,,,,,,,,,,,,,,
,,,,,355342,1,2024-06-17_10h49.40.236,experiment,2024.1.5,Win32,142.8571429,667045947eb812cbdacbf325,66704d68388d10a9927acc48,,,,,,,,,,,,,,,,,,,,,,,,,,,,,,,,,,,,1254.9136,1260.7411,0.0,1.0,1.0,1.0,1.0,SoundStimuli/IWillAlwaysLoveYou_WhitneyHouston_Cover5S.wav,,,,,,,,,,,,,,,,,,,,,,,,,,,,,,,,,,,,,,,,,,,,,,,,,,,,,,,,
,,,,,355342,1,2024-06-17_10h49.40.236,experiment,2024.1.5,Win32,142.8571429,667045947eb812cbdacbf325,66704d68388d10a9927acc48,,,,,,,,,,,,,,,,,,,,,,,,,,,,,,,,,,,,,,,,,,,,1260.7412,1261.5117,6.077649528,0.7531,0.0,11.0,11.0,10.0,1.0,song_indices/IWillAlwaysLoveYou_WhitneyHouston.csv,,,,,,,,,,,,,,,,,,,,,,,,,,,,,,,,,,,,,,,,,,,,,,
,,,,,355342,1,2024-06-17_10h49.40.236,experiment,2024.1.5,Win32,142.8571429,667045947eb812cbdacbf325,66704d68388d10a9927acc48,,,,,,,,,,,,,,,,,,,,,,,,,,,,,,,,,,,,1261.5122,1268.0327,0.0,0.0,0.0,0.0,1.0,SoundStimuli/CrazyInLove_BeyonceFtJayZ_Original5S.wav,,,,,,,,,,,,,,,,,,,,,,,,,,,,,,,,,,,,,,,,,,,,,,,,,,,,,,,,
,,,,,355342,1,2024-06-17_10h49.40.236,experiment,2024.1.5,Win32,142.8571429,667045947eb812cbdacbf325,66704d68388d10a9927acc48,,,,,,,,,,,,,,,,,,,,,,,,,,,,,,,,,,,,1268.0395,1278.262,0.0,1.0,1.0,1.0,1.0,SoundStimuli/CrazyInLove_BeyonceFtJayZ_Cover5S.wav,,,,,,,,,,,,,,,,,,,,,,,,,,,,,,,,,,,,,,,,,,,,,,,,,,,,,,,,
,,,,,355342,1,2024-06-17_10h49.40.236,experiment,2024.1.5,Win32,142.8571429,667045947eb812cbdacbf325,66704d68388d10a9927acc48,,,,,,,,,,,,,,,,,,,,,,,,,,,,,,,,,,,,,,,,,,,,1278.2622,1279.0256,2.633788038,0.7434,0.0,12.0,12.0,3.0,1.0,song_indices/CrazyInLove_BeyonceFtJayZ.csv,,,,,,,,,,,,,,,,,,,,,,,,,,,,,,,,,,,,,,,,,,,,,,
,,,,,355342,1,2024-06-17_10h49.40.236,experiment,2024.1.5,Win32,142.8571429,667045947eb812cbdacbf325,66704d68388d10a9927acc48,,,,,,,,,,,,,,,,,,,,,,,,,,,,,,,,,,,,1279.0264,1285.3104,0.0,0.0,0.0,1.0,1.0,SoundStimuli/ShapeofYou_EdSheeran_Cover5S.wav,,,,,,,,,,,,,,,,,,,,,,,,,,,,,,,,,,,,,,,,,,,,,,,,,,,,,,,,
,,,,,355342,1,2024-06-17_10h49.40.236,experiment,2024.1.5,Win32,142.8571429,667045947eb812cbdacbf325,66704d68388d10a9927acc48,,,,,,,,,,,,,,,,,,,,,,,,,,,,,,,,,,,,1285.3165,1291.7563,0.0,1.0,1.0,0.0,1.0,SoundStimuli/ShapeofYou_EdSheeran_Original5S.wav,,,,,,,,,,,,,,,,,,,,,,,,,,,,,,,,,,,,,,,,,,,,,,,,,,,,,,,,
,,,,,355342,1,2024-06-17_10h49.40.236,experiment,2024.1.5,Win32,142.8571429,667045947eb812cbdacbf325,66704d68388d10a9927acc48,,,,,,,,,,,,,,,,,,,,,,,,,,,,,,,,,,,,,,,,,,,,1291.7563,1294.0327,4.409233998,2.2614,0.0,13.0,13.0,21.0,1.0,song_indices/ShapeofYou_EdSheeran.csv,,,,,,,,,,,,,,,,,,,,,,,,,,,,,,,,,,,,,,,,,,,,,,
,,,,,355342,1,2024-06-17_10h49.40.236,experiment,2024.1.5,Win32,142.8571429,667045947eb812cbdacbf325,66704d68388d10a9927acc48,,,,,,,,,,,,,,,,,,,,,,,,,,,,,,,,,,,,1294.0333,1300.1376,0.0,0.0,0.0,1.0,1.0,SoundStimuli/EyeOfTheTiger_Survivor_Cover5S.wav,,,,,,,,,,,,,,,,,,,,,,,,,,,,,,,,,,,,,,,,,,,,,,,,,,,,,,,,
,,,,,355342,1,2024-06-17_10h49.40.236,experiment,2024.1.5,Win32,142.8571429,667045947eb812cbdacbf325,66704d68388d10a9927acc48,,,,,,,,,,,,,,,,,,,,,,,,,,,,,,,,,,,,1300.1442,1306.0198,0.0,1.0,1.0,0.0,1.0,SoundStimuli/EyeOfTheTiger_Survivor_Original5S.wav,,,,,,,,,,,,,,,,,,,,,,,,,,,,,,,,,,,,,,,,,,,,,,,,,,,,,,,,
,,,,,355342,1,2024-06-17_10h49.40.236,experiment,2024.1.5,Win32,142.8571429,667045947eb812cbdacbf325,66704d68388d10a9927acc48,,,,,,,,,,,,,,,,,,,,,,,,,,,,,,,,,,,,,,,,,,,,1306.0199,1310.3454,4.447009444,4.3149,0.0,14.0,14.0,11.0,1.0,song_indices/EyeOfTheTiger_Survivor.csv,,,,,,,,,,,,,,,,,,,,,,,,,,,,,,,,,,,,,,,,,,,,,,
,,,,,355342,1,2024-06-17_10h49.40.236,experiment,2024.1.5,Win32,142.8571429,667045947eb812cbdacbf325,66704d68388d10a9927acc48,,,,,,,,,,,,,,,,,,,,,,,,,,,,,,,,,,,,1310.3461,1316.5885,0.0,0.0,0.0,0.0,1.0,SoundStimuli/ItsAllInTheGame_TommyEdwards_Original5S.wav,,,,,,,,,,,,,,,,,,,,,,,,,,,,,,,,,,,,,,,,,,,,,,,,,,,,,,,,
,,,,,355342,1,2024-06-17_10h49.40.236,experiment,2024.1.5,Win32,142.8571429,667045947eb812cbdacbf325,66704d68388d10a9927acc48,,,,,,,,,,,,,,,,,,,,,,,,,,,,,,,,,,,,1316.5946,1322.8039,0.0,1.0,1.0,1.0,1.0,SoundStimuli/ItsAllInTheGame_TommyEdwards_Cover5S.wav,,,,,,,,,,,,,,,,,,,,,,,,,,,,,,,,,,,,,,,,,,,,,,,,,,,,,,,,
,,,,,355342,1,2024-06-17_10h49.40.236,experiment,2024.1.5,Win32,142.8571429,667045947eb812cbdacbf325,66704d68388d10a9927acc48,,,,,,,,,,,,,,,,,,,,,,,,,,,,,,,,,,,,,,,,,,,,1322.804,1324.8176,3.9181532,2.0028,0.0,15.0,15.0,13.0,1.0,song_indices/ItsAllInTheGame_TommyEdwards.csv,,,,,,,,,,,,,,,,,,,,,,,,,,,,,,,,,,,,,,,,,,,,,,
,,,,,355342,1,2024-06-17_10h49.40.236,experiment,2024.1.5,Win32,142.8571429,667045947eb812cbdacbf325,66704d68388d10a9927acc48,,,,,,,,,,,,,,,,,,,,,,,,,,,,,,,,,,,,1324.8183,1330.7206,0.0,0.0,0.0,0.0,1.0,SoundStimuli/StandByMe_BenEKing_Original5S.wav,,,,,,,,,,,,,,,,,,,,,,,,,,,,,,,,,,,,,,,,,,,,,,,,,,,,,,,,
,,,,,355342,1,2024-06-17_10h49.40.236,experiment,2024.1.5,Win32,142.8571429,667045947eb812cbdacbf325,66704d68388d10a9927acc48,,,,,,,,,,,,,,,,,,,,,,,,,,,,,,,,,,,,1330.7269,1336.7275,0.0,1.0,1.0,1.0,1.0,SoundStimuli/StandByMe_BenEKing_Cover5S.wav,,,,,,,,,,,,,,,,,,,,,,,,,,,,,,,,,,,,,,,,,,,,,,,,,,,,,,,,
,,,,,355342,1,2024-06-17_10h49.40.236,experiment,2024.1.5,Win32,142.8571429,667045947eb812cbdacbf325,66704d68388d10a9927acc48,,,,,,,,,,,,,,,,,,,,,,,,,,,,,,,,,,,,,,,,,,,,1336.7277,1377.8249,4.988457503,41.0869,0.0,16.0,16.0,1.0,1.0,song_indices/StandByMe_BenEKing.csv,,,,,,,,,,,,,,,,,,,,,,,,,,,,,,,,,,,,,,,,,,,,,,
,,,,,355342,1,2024-06-17_10h49.40.236,experiment,2024.1.5,Win32,142.8571429,667045947eb812cbdacbf325,66704d68388d10a9927acc48,,,,,,,,,,,,,,,,,,,,,,,,,,,,,,,,,,,,1377.8257,1383.8666,0.0,0.0,0.0,1.0,1.0,SoundStimuli/RockWithYou_MichaelJackson_Cover5S.wav,,,,,,,,,,,,,,,,,,,,,,,,,,,,,,,,,,,,,,,,,,,,,,,,,,,,,,,,
,,,,,355342,1,2024-06-17_10h49.40.236,experiment,2024.1.5,Win32,142.8571429,667045947eb812cbdacbf325,66704d68388d10a9927acc48,,,,,,,,,,,,,,,,,,,,,,,,,,,,,,,,,,,,1383.8728,1390.1722,0.0,1.0,1.0,0.0,1.0,SoundStimuli/RockWithYou_MichaelJackson_Original5S.wav,,,,,,,,,,,,,,,,,,,,,,,,,,,,,,,,,,,,,,,,,,,,,,,,,,,,,,,,
,,,,,355342,1,2024-06-17_10h49.40.236,experiment,2024.1.5,Win32,142.8571429,667045947eb812cbdacbf325,66704d68388d10a9927acc48,,,,,,,,,,,,,,,,,,,,,,,,,,,,,,,,,,,,,,,,,,,,1390.1723,1391.6027,4.050367261,1.4184,0.0,17.0,17.0,16.0,1.0,song_indices/RockWithYou_MichaelJackson.csv,,,,,,,,,,,,,,,,,,,,,,,,,,,,,,,,,,,,,,,,,,,,,,
,,,,,355342,1,2024-06-17_10h49.40.236,experiment,2024.1.5,Win32,142.8571429,667045947eb812cbdacbf325,66704d68388d10a9927acc48,,,,,,,,,,,,,,,,,,,,,,,,,,,,,,,,,,,,1391.6033,1398.7281,0.0,0.0,0.0,1.0,1.0,SoundStimuli/IWalkTheLine_JohnnyCash_Cover5S.wav,,,,,,,,,,,,,,,,,,,,,,,,,,,,,,,,,,,,,,,,,,,,,,,,,,,,,,,,
,,,,,355342,1,2024-06-17_10h49.40.236,experiment,2024.1.5,Win32,142.8571429,667045947eb812cbdacbf325,66704d68388d10a9927acc48,,,,,,,,,,,,,,,,,,,,,,,,,,,,,,,,,,,,1398.7439,1404.707,0.0,1.0,1.0,0.0,1.0,SoundStimuli/IWalkTheLine_JohnnyCash_Original5S.wav,,,,,,,,,,,,,,,,,,,,,,,,,,,,,,,,,,,,,,,,,,,,,,,,,,,,,,,,
,,,,,355342,1,2024-06-17_10h49.40.236,experiment,2024.1.5,Win32,142.8571429,667045947eb812cbdacbf325,66704d68388d10a9927acc48,,,,,,,,,,,,,,,,,,,,,,,,,,,,,,,,,,,,,,,,,,,,1404.7071,1406.6583,3.534102833,1.9364,0.0,18.0,18.0,17.0,1.0,song_indices/IWalkTheLine_JohnnyCash.csv,,,,,,,,,,,,,,,,,,,,,,,,,,,,,,,,,,,,,,,,,,,,,,
,,,,,355342,1,2024-06-17_10h49.40.236,experiment,2024.1.5,Win32,142.8571429,667045947eb812cbdacbf325,66704d68388d10a9927acc48,,,,,,,,,,,,,,,,,,,,,,,,,,,,,,,,,,,,1406.6589,1412.7001,0.0,0.0,0.0,0.0,1.0,SoundStimuli/GoodGollyMissMolly_LittleRichard_Original5S.wav,,,,,,,,,,,,,,,,,,,,,,,,,,,,,,,,,,,,,,,,,,,,,,,,,,,,,,,,
,,,,,355342,1,2024-06-17_10h49.40.236,experiment,2024.1.5,Win32,142.8571429,667045947eb812cbdacbf325,66704d68388d10a9927acc48,,,,,,,,,,,,,,,,,,,,,,,,,,,,,,,,,,,,1412.7065,1419.0405,0.0,1.0,1.0,1.0,1.0,SoundStimuli/GoodGollyMissMolly_LittleRichard_Cover5S.wav,,,,,,,,,,,,,,,,,,,,,,,,,,,,,,,,,,,,,,,,,,,,,,,,,,,,,,,,
,,,,,355342,1,2024-06-17_10h49.40.236,experiment,2024.1.5,Win32,142.8571429,667045947eb812cbdacbf325,66704d68388d10a9927acc48,,,,,,,,,,,,,,,,,,,,,,,,,,,,,,,,,,,,,,,,,,,,1419.0406,1420.8114,3.603357817,1.7649,0.0,19.0,19.0,0.0,1.0,song_indices/GoodGollyMissMolly_LittleRichard.csv,,,,,,,,,,,,,,,,,,,,,,,,,,,,,,,,,,,,,,,,,,,,,,
,,,,,355342,1,2024-06-17_10h49.40.236,experiment,2024.1.5,Win32,142.8571429,667045947eb812cbdacbf325,66704d68388d10a9927acc48,,,,,,,,,,,,,,,,,,,,,,,,,,,,,,,,,,,,1420.8122,1426.8529,0.0,0.0,0.0,0.0,1.0,SoundStimuli/Stronger_KanyeWest_Original5S.wav,,,,,,,,,,,,,,,,,,,,,,,,,,,,,,,,,,,,,,,,,,,,,,,,,,,,,,,,
,,,,,355342,1,2024-06-17_10h49.40.236,experiment,2024.1.5,Win32,142.8571429,667045947eb812cbdacbf325,66704d68388d10a9927acc48,,,,,,,,,,,,,,,,,,,,,,,,,,,,,,,,,,,,1426.8591,1433.1656,0.0,1.0,1.0,1.0,1.0,SoundStimuli/Stronger_KanyeWest_Cover5S.wav,,,,,,,,,,,,,,,,,,,,,,,,,,,,,,,,,,,,,,,,,,,,,,,,,,,,,,,,
,,,,,355342,1,2024-06-17_10h49.40.236,experiment,2024.1.5,Win32,142.8571429,667045947eb812cbdacbf325,66704d68388d10a9927acc48,,,,,,,,,,,,,,,,,,,,,,,,,,,,,,,,,,,,,,,,,,,,1433.1657,1434.5127,2.646379853,1.337,0.0,20.0,20.0,9.0,1.0,song_indices/Stronger_KanyeWest.csv,,,,,,,,,,,,,,,,,,,,,,,,,,,,,,,,,,,,,,,,,,,,,,
,,,,,355342,1,2024-06-17_10h49.40.236,experiment,2024.1.5,Win32,142.8571429,667045947eb812cbdacbf325,66704d68388d10a9927acc48,,,,,,,,,,,,,,,,,,,,,,,,,,,,,,,,,,,,1434.5133,1440.5683,0.0,0.0,0.0,0.0,1.0,SoundStimuli/GetUrFreakOn_MissyElliot_Original5S.wav,,,,,,,,,,,,,,,,,,,,,,,,,,,,,,,,,,,,,,,,,,,,,,,,,,,,,,,,
,,,,,355342,1,2024-06-17_10h49.40.236,experiment,2024.1.5,Win32,142.8571429,667045947eb812cbdacbf325,66704d68388d10a9927acc48,,,,,,,,,,,,,,,,,,,,,,,,,,,,,,,,,,,,1440.5744,1447.1312,0.0,1.0,1.0,1.0,1.0,SoundStimuli/GetUrFreakOn_MissyElliot_Cover5S.wav,,,,,,,,,,,,,,,,,,,,,,,,,,,,,,,,,,,,,,,,,,,,,,,,,,,,,,,,
,,,,,355342,1,2024-06-17_10h49.40.236,experiment,2024.1.5,Win32,142.8571429,667045947eb812cbdacbf325,66704d68388d10a9927acc48,,,,,,,,,,,,,,,,,,,,,,,,,,,,,,,,,,,,,,,,,,,,1447.1313,1449.1308,4.522560336,1.9807,0.0,21.0,21.0,18.0,1.0,song_indices/GetUrFreakOn_MissyElliot.csv,,,,,,,,,,,,,,,,,,,,,,,,,,,,,,,,,,,,,,,,,,,,,,
,,,,,355342,1,2024-06-17_10h49.40.236,experiment,2024.1.5,Win32,142.8571429,667045947eb812cbdacbf325,66704d68388d10a9927acc48,,,,,,,,,,,,,,,,,,,,,,,,,,,,,,,,,,,,1449.1315,1455.2983,0.0,0.0,0.0,0.0,1.0,SoundStimuli/NoScrubs_TLC_Original5S.wav,,,,,,,,,,,,,,,,,,,,,,,,,,,,,,,,,,,,,,,,,,,,,,,,,,,,,,,,
,,,,,355342,1,2024-06-17_10h49.40.236,experiment,2024.1.5,Win32,142.8571429,667045947eb812cbdacbf325,66704d68388d10a9927acc48,,,,,,,,,,,,,,,,,,,,,,,,,,,,,,,,,,,,1455.3047,1461.4164,0.0,1.0,1.0,1.0,1.0,SoundStimuli/NoScrubs_TLC_Cover5S.wav,,,,,,,,,,,,,,,,,,,,,,,,,,,,,,,,,,,,,,,,,,,,,,,,,,,,,,,,
,,,,,355342,1,2024-06-17_10h49.40.236,experiment,2024.1.5,Win32,142.8571429,667045947eb812cbdacbf325,66704d68388d10a9927acc48,,,,,,,,,,,,,,,,,,,,,,,,,,,,,,,,,,,,,,,,,,,,1461.4165,1470.4089,4.667366212,8.9818,0.0,22.0,22.0,14.0,1.0,song_indices/NoScrubs_TLC.csv,,,,,,,,,,,,,,,,,,,,,,,,,,,,,,,,,,,,,,,,,,,,,,
,,,,,355342,1,2024-06-17_10h49.40.236,experiment,2024.1.5,Win32,142.8571429,667045947eb812cbdacbf325,66704d68388d10a9927acc48,,,,,,,,,,,,,,,,,,,,,,,,,,,,,,,,,,,,,,,,,,,,,,,,,,,,,,1470.4091,1470.4091,,,,0.0,2.0,2.0,1.0,1.0,choose_song_b2.csv,,,,,,,,,,,,,,,,,,,,,,,,,,,,,,,,,,,
,,,,,355342,1,2024-06-17_10h49.40.236,experiment,2024.1.5,Win32,142.8571429,667045947eb812cbdacbf325,66704d68388d10a9927acc48,,,,,,,,,,,,,,,,,,,,,,,,,,,,,,,,,,,,,,,,,,,,,,,,,,,,,,,,,,,,,,,,,41.0,Item 2,not a musician,Item 3,apple music,5.0,4.0,driving,Sometimes,Never,Rarely,Never,Never,Never,Never,Never,Often,Never,Never,Always,Never,Never,Always,Never,pop,r&b,rap,Not much,0.0,0.0,0.0,0.0,1.0,,
,,,,,355342,1,2024-06-17_10h49.40.236,experiment,2024.1.5,Win32,142.8571429,667045947eb812cbdacbf325,66704d68388d10a9927acc48,,,,,,,,,,,,,,,,,,,,,,,,,,,,,,,,,,,,,,,,,,,,,,,,,,,,,,,,,,,,,,,,,,,,,,,,,,,,,,,,,,,,,,,,,,,,,,,,,,1571.628,1574.0692
