welcome.started,welcome.stopped,space_to_continue.keys,space_to_continue.rt,space_to_continue.duration,participant,session,date,expName,psychopyVersion,OS,frameRate,STUDY_ID,SESSION_ID,consent.consent,consent.consent_recontact,consent_check.started,consent_check.stopped,calibration_ready.started,calibration_ready.stopped,cal_ready.keys,cal_ready.rt,cal_ready.duration,calibration.started,calibration.stopped,mouse.x,mouse.y,mouse.leftButton,mouse.midButton,mouse.rightButton,mouse.time,mouse.clicked_name,move_on.keys,move_on.rt,move_on.duration,instructions.started,instructions.stopped,next.keys,next.rt,next.duration,practice_trial.started,practice_trial.stopped,practice_slider.response,practice_slider.rt,ready.started,ready.stopped,key_resp.keys,key_resp.rt,key_resp.duration,play_sound.started,play_sound.stopped,trials.thisRepN,trials.thisTrialN,trials.thisN,trials.thisIndex,trials.ran,orig_or_cover,rating.started,rating.stopped,slider.response,slider.rt,songs.thisRepN,songs.thisTrialN,songs.thisN,songs.thisIndex,songs.ran,song_id,short_break.started,short_break.stopped,space_to_move_on.keys,space_to_move_on.rt,space_to_move_on.duration,blocks.thisRepN,blocks.thisTrialN,blocks.thisN,blocks.thisIndex,blocks.ran,block,survey.age,survey.musician,survey.music_making,survey.listen_time,survey.medium,survey.music_seeking,survey.music_choice,survey.activities,survey.question1.Hip hop,survey.question1.Disco,survey.question1.Jazz,survey.question1.Classical,survey.question1.Alternative rock,survey.question1.Metal,survey.question1.Latin,survey.question1.Reggae,survey.question1.Pop,survey.question1.Folk/indie,survey.question1.R&B,survey.question1.Electronic (EDM),survey.question1.Classic rock,survey.question1.Country,survey.question1.Ambient,survey.question1.A cappella,survey.other_genres,survey.genres_ranked.text1,survey.genres_ranked.text2,survey.genres_ranked.text3,survey.habit_change,survey.habits,experiment.thisRepN,experiment.thisTrialN,experiment.thisN,experiment.thisIndex,experiment.ran,goodbye.started,goodbye.stopped
0.0003,6.2228,space,6.2086,,361318,1,2024-06-17_09h43.48.883,experiment,2024.1.5,Win32,59.88023952,667045947eb812cbdacbf325,66704b7f7d8090ae79602e4a,,,,,,,,,,,,,,,,,,,,,,,,,,,,,,,,,,,,,,,,,,,,,,,,,,,,,,,,,,,,,,,,,,,,,,,,,,,,,,,,,,,,,,,,,,,,,,,,,,,,,
,,,,,361318,1,2024-06-17_09h43.48.883,experiment,2024.1.5,Win32,59.88023952,667045947eb812cbdacbf325,66704b7f7d8090ae79602e4a,yes,yes,,,,,,,,,,,,,,,,,,,,,,,,,,,,,,,,,,,,,,,,,,,,,,,,,,,,,,,,,,,,,,,,,,,,,,,,,,,,,,,,,,,,,,,,,,,,,,,,,,,
,,,,,361318,1,2024-06-17_09h43.48.883,experiment,2024.1.5,Win32,59.88023952,667045947eb812cbdacbf325,66704b7f7d8090ae79602e4a,,,20.7562,20.7563,,,,,,,,,,,,,,,,,,,,,,,,,,,,,,,,,,,,,,,,,,,,,,,,,,,,,,,,,,,,,,,,,,,,,,,,,,,,,,,,,,,,,,,,,,,,,,,,,
,,,,,361318,1,2024-06-17_09h43.48.883,experiment,2024.1.5,Win32,59.88023952,667045947eb812cbdacbf325,66704b7f7d8090ae79602e4a,,,,,20.7573,23.2726,space,2.4895,,23.2727,36.706,"[-0.002777777777777778,0.04259259259259259,-0.002777777777777778,-0.019444444444444445,-0.019444444444444445,-0.05185185185185185,-0.010185185185185186,-0.003703703703703704,-0.026851851851851852]","[-0.42592592592592593,-0.40555555555555556,-0.4203703703703704,-0.4351851851851852,-0.4351851851851852,-0.4287037037037037,-0.4222222222222222,-0.4185185185185185,-0.4305555555555556]","[1,1,1,1,1,1,1,0,1]","[0,0,0,0,0,0,0,0,0]","[0,0,0,0,0,0,0,1,0]","[1.564800000011921,6.081300000011922,6.431400000035765,7.381300000011926,8.748000000000005,9.414600000023846,10.431300000011923,11.614600000023842,12.514800000011924]","[""play_button"",""play_button"",""play_button"",""play_button"",""play_button"",""play_button""]",right,3.4139,,36.7061,43.8061,space,7.0808,,43.8062,59.9227,4.977777778,16.1085,59.9229,61.4892,space,1.548,,61.5011,67.7567,0.0,0.0,0.0,1.0,1.0,SoundStimuli/MackTheKnife_BobbyDarin_Cover5S.wav,,,,,,,,,,,,,,,,,,,,,,,,,,,,,,,,,,,,,,,,,,,,,,,,,,,,,,,,,,
,,,,,361318,1,2024-06-17_09h43.48.883,experiment,2024.1.5,Win32,59.88023952,667045947eb812cbdacbf325,66704b7f7d8090ae79602e4a,,,,,,,,,,,,,,,,,,,,,,,,,,,,,,,,,,,,67.7571,73.9057,0.0,1.0,1.0,0.0,1.0,SoundStimuli/MackTheKnife_BobbyDarin_Original5S.wav,,,,,,,,,,,,,,,,,,,,,,,,,,,,,,,,,,,,,,,,,,,,,,,,,,,,,,,,,,
,,,,,361318,1,2024-06-17_09h43.48.883,experiment,2024.1.5,Win32,59.88023952,667045947eb812cbdacbf325,66704b7f7d8090ae79602e4a,,,,,,,,,,,,,,,,,,,,,,,,,,,,,,,,,,,,,,,,,,,,73.9108,76.7559,2.766666667,2.8366,0.0,0.0,0.0,21.0,1.0,song_indices/MackTheKnife_BobbyDarin.csv,,,,,,,,,,,,,,,,,,,,,,,,,,,,,,,,,,,,,,,,,,,,,,,,
,,,,,361318,1,2024-06-17_09h43.48.883,experiment,2024.1.5,Win32,59.88023952,667045947eb812cbdacbf325,66704b7f7d8090ae79602e4a,,,,,,,,,,,,,,,,,,,,,,,,,,,,,,,,,,,,76.7567,83.2724,0.0,0.0,0.0,1.0,1.0,SoundStimuli/OldTownRoad_LilNasX_Cover5S.wav,,,,,,,,,,,,,,,,,,,,,,,,,,,,,,,,,,,,,,,,,,,,,,,,,,,,,,,,,,
,,,,,361318,1,2024-06-17_09h43.48.883,experiment,2024.1.5,Win32,59.88023952,667045947eb812cbdacbf325,66704b7f7d8090ae79602e4a,,,,,,,,,,,,,,,,,,,,,,,,,,,,,,,,,,,,83.2774,90.6567,0.0,1.0,1.0,0.0,1.0,SoundStimuli/OldTownRoad_LilNasX_Original5S.wav,,,,,,,,,,,,,,,,,,,,,,,,,,,,,,,,,,,,,,,,,,,,,,,,,,,,,,,,,,
,,,,,361318,1,2024-06-17_09h43.48.883,experiment,2024.1.5,Win32,59.88023952,667045947eb812cbdacbf325,66704b7f7d8090ae79602e4a,,,,,,,,,,,,,,,,,,,,,,,,,,,,,,,,,,,,,,,,,,,,90.6568,91.6891,4.988888889,1.0168,0.0,1.0,1.0,20.0,1.0,song_indices/OldTownRoad_LilNasX.csv,,,,,,,,,,,,,,,,,,,,,,,,,,,,,,,,,,,,,,,,,,,,,,,,
,,,,,361318,1,2024-06-17_09h43.48.883,experiment,2024.1.5,Win32,59.88023952,667045947eb812cbdacbf325,66704b7f7d8090ae79602e4a,,,,,,,,,,,,,,,,,,,,,,,,,,,,,,,,,,,,91.6896,99.3557,0.0,0.0,0.0,1.0,1.0,SoundStimuli/MyGirl_TheTemptations_Cover5S.wav,,,,,,,,,,,,,,,,,,,,,,,,,,,,,,,,,,,,,,,,,,,,,,,,,,,,,,,,,,
,,,,,361318,1,2024-06-17_09h43.48.883,experiment,2024.1.5,Win32,59.88023952,667045947eb812cbdacbf325,66704b7f7d8090ae79602e4a,,,,,,,,,,,,,,,,,,,,,,,,,,,,,,,,,,,,99.3607,105.7557,0.0,1.0,1.0,0.0,1.0,SoundStimuli/MyGirl_TheTemptations_Original5S.wav,,,,,,,,,,,,,,,,,,,,,,,,,,,,,,,,,,,,,,,,,,,,,,,,,,,,,,,,,,
,,,,,361318,1,2024-06-17_09h43.48.883,experiment,2024.1.5,Win32,59.88023952,667045947eb812cbdacbf325,66704b7f7d8090ae79602e4a,,,,,,,,,,,,,,,,,,,,,,,,,,,,,,,,,,,,,,,,,,,,105.7557,106.9733,4.555555556,1.2124,0.0,2.0,2.0,15.0,1.0,song_indices/MyGirl_TheTemptations.csv,,,,,,,,,,,,,,,,,,,,,,,,,,,,,,,,,,,,,,,,,,,,,,,,
,,,,,361318,1,2024-06-17_09h43.48.883,experiment,2024.1.5,Win32,59.88023952,667045947eb812cbdacbf325,66704b7f7d8090ae79602e4a,,,,,,,,,,,,,,,,,,,,,,,,,,,,,,,,,,,,106.9739,111.689,0.0,0.0,0.0,1.0,1.0,SoundStimuli/AChangeIsGonnaCome_SamCooke_Cover5S.wav,,,,,,,,,,,,,,,,,,,,,,,,,,,,,,,,,,,,,,,,,,,,,,,,,,,,,,,,,,
,,,,,361318,1,2024-06-17_09h43.48.883,experiment,2024.1.5,Win32,59.88023952,667045947eb812cbdacbf325,66704b7f7d8090ae79602e4a,,,,,,,,,,,,,,,,,,,,,,,,,,,,,,,,,,,,111.6939,117.7223,0.0,1.0,1.0,0.0,1.0,SoundStimuli/AChangeIsGonnaCome_SamCooke_Original5S.wav,,,,,,,,,,,,,,,,,,,,,,,,,,,,,,,,,,,,,,,,,,,,,,,,,,,,,,,,,,
,,,,,361318,1,2024-06-17_09h43.48.883,experiment,2024.1.5,Win32,59.88023952,667045947eb812cbdacbf325,66704b7f7d8090ae79602e4a,,,,,,,,,,,,,,,,,,,,,,,,,,,,,,,,,,,,,,,,,,,,117.7225,120.9057,3.861111111,3.168,0.0,3.0,3.0,17.0,1.0,song_indices/AChangeIsGonnaCome_SamCooke.csv,,,,,,,,,,,,,,,,,,,,,,,,,,,,,,,,,,,,,,,,,,,,,,,,
,,,,,361318,1,2024-06-17_09h43.48.883,experiment,2024.1.5,Win32,59.88023952,667045947eb812cbdacbf325,66704b7f7d8090ae79602e4a,,,,,,,,,,,,,,,,,,,,,,,,,,,,,,,,,,,,120.9065,129.1723,0.0,0.0,0.0,1.0,1.0,SoundStimuli/Perfect_EdSheeran_Cover5S.wav,,,,,,,,,,,,,,,,,,,,,,,,,,,,,,,,,,,,,,,,,,,,,,,,,,,,,,,,,,
,,,,,361318,1,2024-06-17_09h43.48.883,experiment,2024.1.5,Win32,59.88023952,667045947eb812cbdacbf325,66704b7f7d8090ae79602e4a,,,,,,,,,,,,,,,,,,,,,,,,,,,,,,,,,,,,129.1773,138.039,0.0,1.0,1.0,0.0,1.0,SoundStimuli/Perfect_EdSheeran_Original5S.wav,,,,,,,,,,,,,,,,,,,,,,,,,,,,,,,,,,,,,,,,,,,,,,,,,,,,,,,,,,
,,,,,361318,1,2024-06-17_09h43.48.883,experiment,2024.1.5,Win32,59.88023952,667045947eb812cbdacbf325,66704b7f7d8090ae79602e4a,,,,,,,,,,,,,,,,,,,,,,,,,,,,,,,,,,,,,,,,,,,,138.039,139.0223,5.511111111,0.9731,0.0,4.0,4.0,0.0,1.0,song_indices/Perfect_EdSheeran.csv,,,,,,,,,,,,,,,,,,,,,,,,,,,,,,,,,,,,,,,,,,,,,,,,
,,,,,361318,1,2024-06-17_09h43.48.883,experiment,2024.1.5,Win32,59.88023952,667045947eb812cbdacbf325,66704b7f7d8090ae79602e4a,,,,,,,,,,,,,,,,,,,,,,,,,,,,,,,,,,,,139.0229,145.0556,0.0,0.0,0.0,1.0,1.0,SoundStimuli/IWantToHoldYourHand_TheBeatles_Cover5S.wav,,,,,,,,,,,,,,,,,,,,,,,,,,,,,,,,,,,,,,,,,,,,,,,,,,,,,,,,,,
,,,,,361318,1,2024-06-17_09h43.48.883,experiment,2024.1.5,Win32,59.88023952,667045947eb812cbdacbf325,66704b7f7d8090ae79602e4a,,,,,,,,,,,,,,,,,,,,,,,,,,,,,,,,,,,,145.0605,150.8556,0.0,1.0,1.0,0.0,1.0,SoundStimuli/IWantToHoldYourHand_TheBeatles_Original5S.wav,,,,,,,,,,,,,,,,,,,,,,,,,,,,,,,,,,,,,,,,,,,,,,,,,,,,,,,,,,
,,,,,361318,1,2024-06-17_09h43.48.883,experiment,2024.1.5,Win32,59.88023952,667045947eb812cbdacbf325,66704b7f7d8090ae79602e4a,,,,,,,,,,,,,,,,,,,,,,,,,,,,,,,,,,,,,,,,,,,,150.8557,152.0069,3.144444444,1.146,0.0,5.0,5.0,19.0,1.0,song_indices/IWantToHoldYourHand_TheBeatles.csv,,,,,,,,,,,,,,,,,,,,,,,,,,,,,,,,,,,,,,,,,,,,,,,,
,,,,,361318,1,2024-06-17_09h43.48.883,experiment,2024.1.5,Win32,59.88023952,667045947eb812cbdacbf325,66704b7f7d8090ae79602e4a,,,,,,,,,,,,,,,,,,,,,,,,,,,,,,,,,,,,152.0074,158.2222,0.0,0.0,0.0,1.0,1.0,SoundStimuli/LikeAPrayer_Madonna_Cover5S.wav,,,,,,,,,,,,,,,,,,,,,,,,,,,,,,,,,,,,,,,,,,,,,,,,,,,,,,,,,,
,,,,,361318,1,2024-06-17_09h43.48.883,experiment,2024.1.5,Win32,59.88023952,667045947eb812cbdacbf325,66704b7f7d8090ae79602e4a,,,,,,,,,,,,,,,,,,,,,,,,,,,,,,,,,,,,158.2272,164.4222,0.0,1.0,1.0,0.0,1.0,SoundStimuli/LikeAPrayer_Madonna_Original5S.wav,,,,,,,,,,,,,,,,,,,,,,,,,,,,,,,,,,,,,,,,,,,,,,,,,,,,,,,,,,
,,,,,361318,1,2024-06-17_09h43.48.883,experiment,2024.1.5,Win32,59.88023952,667045947eb812cbdacbf325,66704b7f7d8090ae79602e4a,,,,,,,,,,,,,,,,,,,,,,,,,,,,,,,,,,,,,,,,,,,,164.4223,165.9557,5.727777778,1.5239,0.0,6.0,6.0,7.0,1.0,song_indices/LikeAPrayer_Madonna.csv,,,,,,,,,,,,,,,,,,,,,,,,,,,,,,,,,,,,,,,,,,,,,,,,
,,,,,361318,1,2024-06-17_09h43.48.883,experiment,2024.1.5,Win32,59.88023952,667045947eb812cbdacbf325,66704b7f7d8090ae79602e4a,,,,,,,,,,,,,,,,,,,,,,,,,,,,,,,,,,,,165.9563,172.2731,0.0,0.0,0.0,0.0,1.0,SoundStimuli/BridgeOverTroubledWater_SimonAndGarfunkel_Original5S.wav,,,,,,,,,,,,,,,,,,,,,,,,,,,,,,,,,,,,,,,,,,,,,,,,,,,,,,,,,,
,,,,,361318,1,2024-06-17_09h43.48.883,experiment,2024.1.5,Win32,59.88023952,667045947eb812cbdacbf325,66704b7f7d8090ae79602e4a,,,,,,,,,,,,,,,,,,,,,,,,,,,,,,,,,,,,172.278,178.9727,0.0,1.0,1.0,1.0,1.0,SoundStimuli/BridgeOverTroubledWater_SimonAndGarfunkel_Cover5S.wav,,,,,,,,,,,,,,,,,,,,,,,,,,,,,,,,,,,,,,,,,,,,,,,,,,,,,,,,,,
,,,,,361318,1,2024-06-17_09h43.48.883,experiment,2024.1.5,Win32,59.88023952,667045947eb812cbdacbf325,66704b7f7d8090ae79602e4a,,,,,,,,,,,,,,,,,,,,,,,,,,,,,,,,,,,,,,,,,,,,178.9728,180.5723,2.988888889,1.5864,0.0,7.0,7.0,1.0,1.0,song_indices/BridgeOverTroubledWater_SimonAndGarfunkel.csv,,,,,,,,,,,,,,,,,,,,,,,,,,,,,,,,,,,,,,,,,,,,,,,,
,,,,,361318,1,2024-06-17_09h43.48.883,experiment,2024.1.5,Win32,59.88023952,667045947eb812cbdacbf325,66704b7f7d8090ae79602e4a,,,,,,,,,,,,,,,,,,,,,,,,,,,,,,,,,,,,180.5729,186.6055,0.0,0.0,0.0,0.0,1.0,SoundStimuli/AnotherOneBitesTheDust_Queen_Original5S.wav,,,,,,,,,,,,,,,,,,,,,,,,,,,,,,,,,,,,,,,,,,,,,,,,,,,,,,,,,,
,,,,,361318,1,2024-06-17_09h43.48.883,experiment,2024.1.5,Win32,59.88023952,667045947eb812cbdacbf325,66704b7f7d8090ae79602e4a,,,,,,,,,,,,,,,,,,,,,,,,,,,,,,,,,,,,186.6105,194.7388,0.0,1.0,1.0,1.0,1.0,SoundStimuli/AnotherOneBitesTheDust_Queen_Cover5S.wav,,,,,,,,,,,,,,,,,,,,,,,,,,,,,,,,,,,,,,,,,,,,,,,,,,,,,,,,,,
,,,,,361318,1,2024-06-17_09h43.48.883,experiment,2024.1.5,Win32,59.88023952,667045947eb812cbdacbf325,66704b7f7d8090ae79602e4a,,,,,,,,,,,,,,,,,,,,,,,,,,,,,,,,,,,,,,,,,,,,194.7389,196.189,2.55,1.4349,0.0,8.0,8.0,9.0,1.0,song_indices/AnotherOneBitesTheDust_Queen.csv,,,,,,,,,,,,,,,,,,,,,,,,,,,,,,,,,,,,,,,,,,,,,,,,
,,,,,361318,1,2024-06-17_09h43.48.883,experiment,2024.1.5,Win32,59.88023952,667045947eb812cbdacbf325,66704b7f7d8090ae79602e4a,,,,,,,,,,,,,,,,,,,,,,,,,,,,,,,,,,,,196.1897,202.5389,0.0,0.0,0.0,0.0,1.0,SoundStimuli/EndlessLove_DianaRossLionelRichie_Original5S.wav,,,,,,,,,,,,,,,,,,,,,,,,,,,,,,,,,,,,,,,,,,,,,,,,,,,,,,,,,,
,,,,,361318,1,2024-06-17_09h43.48.883,experiment,2024.1.5,Win32,59.88023952,667045947eb812cbdacbf325,66704b7f7d8090ae79602e4a,,,,,,,,,,,,,,,,,,,,,,,,,,,,,,,,,,,,202.5439,210.0563,0.0,1.0,1.0,1.0,1.0,SoundStimuli/EndlessLove_DianaRossLionelRichie_Cover5S.wav,,,,,,,,,,,,,,,,,,,,,,,,,,,,,,,,,,,,,,,,,,,,,,,,,,,,,,,,,,
,,,,,361318,1,2024-06-17_09h43.48.883,experiment,2024.1.5,Win32,59.88023952,667045947eb812cbdacbf325,66704b7f7d8090ae79602e4a,,,,,,,,,,,,,,,,,,,,,,,,,,,,,,,,,,,,,,,,,,,,210.0564,211.2235,4.966666667,1.162,0.0,9.0,9.0,3.0,1.0,song_indices/EndlessLove_DianaRossLionelRichie.csv,,,,,,,,,,,,,,,,,,,,,,,,,,,,,,,,,,,,,,,,,,,,,,,,
,,,,,361318,1,2024-06-17_09h43.48.883,experiment,2024.1.5,Win32,59.88023952,667045947eb812cbdacbf325,66704b7f7d8090ae79602e4a,,,,,,,,,,,,,,,,,,,,,,,,,,,,,,,,,,,,211.224,217.3056,0.0,0.0,0.0,0.0,1.0,SoundStimuli/IllMakeLoveToYou_BoyzIIMen_Original5S.wav,,,,,,,,,,,,,,,,,,,,,,,,,,,,,,,,,,,,,,,,,,,,,,,,,,,,,,,,,,
,,,,,361318,1,2024-06-17_09h43.48.883,experiment,2024.1.5,Win32,59.88023952,667045947eb812cbdacbf325,66704b7f7d8090ae79602e4a,,,,,,,,,,,,,,,,,,,,,,,,,,,,,,,,,,,,217.3104,223.2563,0.0,1.0,1.0,1.0,1.0,SoundStimuli/IllMakeLoveToYou_BoyzIIMen_Cover5S.wav,,,,,,,,,,,,,,,,,,,,,,,,,,,,,,,,,,,,,,,,,,,,,,,,,,,,,,,,,,
,,,,,361318,1,2024-06-17_09h43.48.883,experiment,2024.1.5,Win32,59.88023952,667045947eb812cbdacbf325,66704b7f7d8090ae79602e4a,,,,,,,,,,,,,,,,,,,,,,,,,,,,,,,,,,,,,,,,,,,,223.2564,224.3055,4.0,1.0416,0.0,10.0,10.0,6.0,1.0,song_indices/IllMakeLoveToYou_BoyzIIMen.csv,,,,,,,,,,,,,,,,,,,,,,,,,,,,,,,,,,,,,,,,,,,,,,,,
,,,,,361318,1,2024-06-17_09h43.48.883,experiment,2024.1.5,Win32,59.88023952,667045947eb812cbdacbf325,66704b7f7d8090ae79602e4a,,,,,,,,,,,,,,,,,,,,,,,,,,,,,,,,,,,,224.306,229.9064,0.0,0.0,0.0,0.0,1.0,SoundStimuli/IWannaDanceWithSomebody_WhitneyHouston_Original5S.wav,,,,,,,,,,,,,,,,,,,,,,,,,,,,,,,,,,,,,,,,,,,,,,,,,,,,,,,,,,
,,,,,361318,1,2024-06-17_09h43.48.883,experiment,2024.1.5,Win32,59.88023952,667045947eb812cbdacbf325,66704b7f7d8090ae79602e4a,,,,,,,,,,,,,,,,,,,,,,,,,,,,,,,,,,,,229.9111,236.7555,0.0,1.0,1.0,1.0,1.0,SoundStimuli/IWannaDanceWithSomebody_WhitneyHouston_Cover5S.wav,,,,,,,,,,,,,,,,,,,,,,,,,,,,,,,,,,,,,,,,,,,,,,,,,,,,,,,,,,
,,,,,361318,1,2024-06-17_09h43.48.883,experiment,2024.1.5,Win32,59.88023952,667045947eb812cbdacbf325,66704b7f7d8090ae79602e4a,,,,,,,,,,,,,,,,,,,,,,,,,,,,,,,,,,,,,,,,,,,,236.7555,237.7899,2.061111111,1.0289,0.0,11.0,11.0,13.0,1.0,song_indices/IWannaDanceWithSomebody_WhitneyHouston.csv,,,,,,,,,,,,,,,,,,,,,,,,,,,,,,,,,,,,,,,,,,,,,,,,
,,,,,361318,1,2024-06-17_09h43.48.883,experiment,2024.1.5,Win32,59.88023952,667045947eb812cbdacbf325,66704b7f7d8090ae79602e4a,,,,,,,,,,,,,,,,,,,,,,,,,,,,,,,,,,,,237.7901,244.0055,0.0,0.0,0.0,0.0,1.0,SoundStimuli/Smooth_SantanaRobThomas_Original5S.wav,,,,,,,,,,,,,,,,,,,,,,,,,,,,,,,,,,,,,,,,,,,,,,,,,,,,,,,,,,
,,,,,361318,1,2024-06-17_09h43.48.883,experiment,2024.1.5,Win32,59.88023952,667045947eb812cbdacbf325,66704b7f7d8090ae79602e4a,,,,,,,,,,,,,,,,,,,,,,,,,,,,,,,,,,,,244.0105,250.1387,0.0,1.0,1.0,1.0,1.0,SoundStimuli/Smooth_SantanaRobThomas_Cover5S.wav,,,,,,,,,,,,,,,,,,,,,,,,,,,,,,,,,,,,,,,,,,,,,,,,,,,,,,,,,,
,,,,,361318,1,2024-06-17_09h43.48.883,experiment,2024.1.5,Win32,59.88023952,667045947eb812cbdacbf325,66704b7f7d8090ae79602e4a,,,,,,,,,,,,,,,,,,,,,,,,,,,,,,,,,,,,,,,,,,,,250.1388,251.1888,6.05,1.0296,0.0,12.0,12.0,4.0,1.0,song_indices/Smooth_SantanaRobThomas.csv,,,,,,,,,,,,,,,,,,,,,,,,,,,,,,,,,,,,,,,,,,,,,,,,
,,,,,361318,1,2024-06-17_09h43.48.883,experiment,2024.1.5,Win32,59.88023952,667045947eb812cbdacbf325,66704b7f7d8090ae79602e4a,,,,,,,,,,,,,,,,,,,,,,,,,,,,,,,,,,,,251.1894,257.2888,0.0,0.0,0.0,0.0,1.0,SoundStimuli/HeatWaves_GlassAnimals_Original5S.wav,,,,,,,,,,,,,,,,,,,,,,,,,,,,,,,,,,,,,,,,,,,,,,,,,,,,,,,,,,
,,,,,361318,1,2024-06-17_09h43.48.883,experiment,2024.1.5,Win32,59.88023952,667045947eb812cbdacbf325,66704b7f7d8090ae79602e4a,,,,,,,,,,,,,,,,,,,,,,,,,,,,,,,,,,,,257.2937,265.8896,0.0,1.0,1.0,1.0,1.0,SoundStimuli/HeatWaves_GlassAnimals_Cover5S.wav,,,,,,,,,,,,,,,,,,,,,,,,,,,,,,,,,,,,,,,,,,,,,,,,,,,,,,,,,,
,,,,,361318,1,2024-06-17_09h43.48.883,experiment,2024.1.5,Win32,59.88023952,667045947eb812cbdacbf325,66704b7f7d8090ae79602e4a,,,,,,,,,,,,,,,,,,,,,,,,,,,,,,,,,,,,,,,,,,,,265.8896,267.0388,4.688888889,1.137,0.0,13.0,13.0,10.0,1.0,song_indices/HeatWaves_GlassAnimals.csv,,,,,,,,,,,,,,,,,,,,,,,,,,,,,,,,,,,,,,,,,,,,,,,,
,,,,,361318,1,2024-06-17_09h43.48.883,experiment,2024.1.5,Win32,59.88023952,667045947eb812cbdacbf325,66704b7f7d8090ae79602e4a,,,,,,,,,,,,,,,,,,,,,,,,,,,,,,,,,,,,267.0394,273.1727,0.0,0.0,0.0,0.0,1.0,SoundStimuli/StrawberryFieldsForever_TheBeatles_Original5S.wav,,,,,,,,,,,,,,,,,,,,,,,,,,,,,,,,,,,,,,,,,,,,,,,,,,,,,,,,,,
,,,,,361318,1,2024-06-17_09h43.48.883,experiment,2024.1.5,Win32,59.88023952,667045947eb812cbdacbf325,66704b7f7d8090ae79602e4a,,,,,,,,,,,,,,,,,,,,,,,,,,,,,,,,,,,,273.1774,280.2054,0.0,1.0,1.0,1.0,1.0,SoundStimuli/StrawberryFieldsForever_TheBeatles_Cover5S.wav,,,,,,,,,,,,,,,,,,,,,,,,,,,,,,,,,,,,,,,,,,,,,,,,,,,,,,,,,,
,,,,,361318,1,2024-06-17_09h43.48.883,experiment,2024.1.5,Win32,59.88023952,667045947eb812cbdacbf325,66704b7f7d8090ae79602e4a,,,,,,,,,,,,,,,,,,,,,,,,,,,,,,,,,,,,,,,,,,,,280.2054,281.2721,2.988888889,1.0602,0.0,14.0,14.0,14.0,1.0,song_indices/StrawberryFieldsForever_TheBeatles.csv,,,,,,,,,,,,,,,,,,,,,,,,,,,,,,,,,,,,,,,,,,,,,,,,
,,,,,361318,1,2024-06-17_09h43.48.883,experiment,2024.1.5,Win32,59.88023952,667045947eb812cbdacbf325,66704b7f7d8090ae79602e4a,,,,,,,,,,,,,,,,,,,,,,,,,,,,,,,,,,,,281.2726,289.5729,0.0,0.0,0.0,1.0,1.0,SoundStimuli/Mood_24kGoldnianndior_Cover5S.wav,,,,,,,,,,,,,,,,,,,,,,,,,,,,,,,,,,,,,,,,,,,,,,,,,,,,,,,,,,
,,,,,361318,1,2024-06-17_09h43.48.883,experiment,2024.1.5,Win32,59.88023952,667045947eb812cbdacbf325,66704b7f7d8090ae79602e4a,,,,,,,,,,,,,,,,,,,,,,,,,,,,,,,,,,,,289.5778,295.8721,0.0,1.0,1.0,0.0,1.0,SoundStimuli/Mood_24kGoldnianndior_Original5S.wav,,,,,,,,,,,,,,,,,,,,,,,,,,,,,,,,,,,,,,,,,,,,,,,,,,,,,,,,,,
,,,,,361318,1,2024-06-17_09h43.48.883,experiment,2024.1.5,Win32,59.88023952,667045947eb812cbdacbf325,66704b7f7d8090ae79602e4a,,,,,,,,,,,,,,,,,,,,,,,,,,,,,,,,,,,,,,,,,,,,295.8721,297.4721,3.022222222,1.5802,0.0,15.0,15.0,5.0,1.0,song_indices/Mood_24kGoldnianndior.csv,,,,,,,,,,,,,,,,,,,,,,,,,,,,,,,,,,,,,,,,,,,,,,,,
,,,,,361318,1,2024-06-17_09h43.48.883,experiment,2024.1.5,Win32,59.88023952,667045947eb812cbdacbf325,66704b7f7d8090ae79602e4a,,,,,,,,,,,,,,,,,,,,,,,,,,,,,,,,,,,,297.4726,303.3229,0.0,0.0,0.0,1.0,1.0,SoundStimuli/StayinAlive_BeeGees_Cover5S.wav,,,,,,,,,,,,,,,,,,,,,,,,,,,,,,,,,,,,,,,,,,,,,,,,,,,,,,,,,,
,,,,,361318,1,2024-06-17_09h43.48.883,experiment,2024.1.5,Win32,59.88023952,667045947eb812cbdacbf325,66704b7f7d8090ae79602e4a,,,,,,,,,,,,,,,,,,,,,,,,,,,,,,,,,,,,303.3277,309.3553,0.0,1.0,1.0,0.0,1.0,SoundStimuli/StayinAlive_BeeGees_Original5S.wav,,,,,,,,,,,,,,,,,,,,,,,,,,,,,,,,,,,,,,,,,,,,,,,,,,,,,,,,,,
,,,,,361318,1,2024-06-17_09h43.48.883,experiment,2024.1.5,Win32,59.88023952,667045947eb812cbdacbf325,66704b7f7d8090ae79602e4a,,,,,,,,,,,,,,,,,,,,,,,,,,,,,,,,,,,,,,,,,,,,309.3555,311.2899,3.577777778,1.9294,0.0,16.0,16.0,2.0,1.0,song_indices/StayinAlive_BeeGees.csv,,,,,,,,,,,,,,,,,,,,,,,,,,,,,,,,,,,,,,,,,,,,,,,,
,,,,,361318,1,2024-06-17_09h43.48.883,experiment,2024.1.5,Win32,59.88023952,667045947eb812cbdacbf325,66704b7f7d8090ae79602e4a,,,,,,,,,,,,,,,,,,,,,,,,,,,,,,,,,,,,311.2903,315.6895,0.0,0.0,0.0,1.0,1.0,SoundStimuli/LikeARollingStone_BobDylan_Cover5S.wav,,,,,,,,,,,,,,,,,,,,,,,,,,,,,,,,,,,,,,,,,,,,,,,,,,,,,,,,,,
,,,,,361318,1,2024-06-17_09h43.48.883,experiment,2024.1.5,Win32,59.88023952,667045947eb812cbdacbf325,66704b7f7d8090ae79602e4a,,,,,,,,,,,,,,,,,,,,,,,,,,,,,,,,,,,,315.6942,321.8395,0.0,1.0,1.0,0.0,1.0,SoundStimuli/LikeARollingStone_BobDylan_Original5S.wav,,,,,,,,,,,,,,,,,,,,,,,,,,,,,,,,,,,,,,,,,,,,,,,,,,,,,,,,,,
,,,,,361318,1,2024-06-17_09h43.48.883,experiment,2024.1.5,Win32,59.88023952,667045947eb812cbdacbf325,66704b7f7d8090ae79602e4a,,,,,,,,,,,,,,,,,,,,,,,,,,,,,,,,,,,,,,,,,,,,321.8396,322.7887,2.377777778,0.9379,0.0,17.0,17.0,12.0,1.0,song_indices/LikeARollingStone_BobDylan.csv,,,,,,,,,,,,,,,,,,,,,,,,,,,,,,,,,,,,,,,,,,,,,,,,
,,,,,361318,1,2024-06-17_09h43.48.883,experiment,2024.1.5,Win32,59.88023952,667045947eb812cbdacbf325,66704b7f7d8090ae79602e4a,,,,,,,,,,,,,,,,,,,,,,,,,,,,,,,,,,,,322.7892,329.0388,0.0,0.0,0.0,0.0,1.0,SoundStimuli/GodOnlyKnows_TheBeachBoys_Original5S.wav,,,,,,,,,,,,,,,,,,,,,,,,,,,,,,,,,,,,,,,,,,,,,,,,,,,,,,,,,,
,,,,,361318,1,2024-06-17_09h43.48.883,experiment,2024.1.5,Win32,59.88023952,667045947eb812cbdacbf325,66704b7f7d8090ae79602e4a,,,,,,,,,,,,,,,,,,,,,,,,,,,,,,,,,,,,329.0436,335.9062,0.0,1.0,1.0,1.0,1.0,SoundStimuli/GodOnlyKnows_TheBeachBoys_Cover5S.wav,,,,,,,,,,,,,,,,,,,,,,,,,,,,,,,,,,,,,,,,,,,,,,,,,,,,,,,,,,
,,,,,361318,1,2024-06-17_09h43.48.883,experiment,2024.1.5,Win32,59.88023952,667045947eb812cbdacbf325,66704b7f7d8090ae79602e4a,,,,,,,,,,,,,,,,,,,,,,,,,,,,,,,,,,,,,,,,,,,,335.9062,337.1565,3.5,1.2453,0.0,18.0,18.0,8.0,1.0,song_indices/GodOnlyKnows_TheBeachBoys.csv,,,,,,,,,,,,,,,,,,,,,,,,,,,,,,,,,,,,,,,,,,,,,,,,
,,,,,361318,1,2024-06-17_09h43.48.883,experiment,2024.1.5,Win32,59.88023952,667045947eb812cbdacbf325,66704b7f7d8090ae79602e4a,,,,,,,,,,,,,,,,,,,,,,,,,,,,,,,,,,,,337.157,343.7394,0.0,0.0,0.0,1.0,1.0,SoundStimuli/Despacito_LuisFonsiDaddyYankee_Cover5S.wav,,,,,,,,,,,,,,,,,,,,,,,,,,,,,,,,,,,,,,,,,,,,,,,,,,,,,,,,,,
,,,,,361318,1,2024-06-17_09h43.48.883,experiment,2024.1.5,Win32,59.88023952,667045947eb812cbdacbf325,66704b7f7d8090ae79602e4a,,,,,,,,,,,,,,,,,,,,,,,,,,,,,,,,,,,,343.7442,350.3053,0.0,1.0,1.0,0.0,1.0,SoundStimuli/Despacito_LuisFonsiDaddyYankee_Original5S.wav,,,,,,,,,,,,,,,,,,,,,,,,,,,,,,,,,,,,,,,,,,,,,,,,,,,,,,,,,,
,,,,,361318,1,2024-06-17_09h43.48.883,experiment,2024.1.5,Win32,59.88023952,667045947eb812cbdacbf325,66704b7f7d8090ae79602e4a,,,,,,,,,,,,,,,,,,,,,,,,,,,,,,,,,,,,,,,,,,,,350.3054,351.323,5.422222222,1.0124,0.0,19.0,19.0,11.0,1.0,song_indices/Despacito_LuisFonsiDaddyYankee.csv,,,,,,,,,,,,,,,,,,,,,,,,,,,,,,,,,,,,,,,,,,,,,,,,
,,,,,361318,1,2024-06-17_09h43.48.883,experiment,2024.1.5,Win32,59.88023952,667045947eb812cbdacbf325,66704b7f7d8090ae79602e4a,,,,,,,,,,,,,,,,,,,,,,,,,,,,,,,,,,,,351.3233,359.0053,0.0,0.0,0.0,1.0,1.0,SoundStimuli/LivinOnAPrayer_BonJovi_Cover5S.wav,,,,,,,,,,,,,,,,,,,,,,,,,,,,,,,,,,,,,,,,,,,,,,,,,,,,,,,,,,
,,,,,361318,1,2024-06-17_09h43.48.883,experiment,2024.1.5,Win32,59.88023952,667045947eb812cbdacbf325,66704b7f7d8090ae79602e4a,,,,,,,,,,,,,,,,,,,,,,,,,,,,,,,,,,,,359.0103,365.2553,0.0,1.0,1.0,0.0,1.0,SoundStimuli/LivinOnAPrayer_BonJovi_Original5S.wav,,,,,,,,,,,,,,,,,,,,,,,,,,,,,,,,,,,,,,,,,,,,,,,,,,,,,,,,,,
,,,,,361318,1,2024-06-17_09h43.48.883,experiment,2024.1.5,Win32,59.88023952,667045947eb812cbdacbf325,66704b7f7d8090ae79602e4a,,,,,,,,,,,,,,,,,,,,,,,,,,,,,,,,,,,,,,,,,,,,365.2554,366.572,3.561111111,1.3098,0.0,20.0,20.0,16.0,1.0,song_indices/LivinOnAPrayer_BonJovi.csv,,,,,,,,,,,,,,,,,,,,,,,,,,,,,,,,,,,,,,,,,,,,,,,,
,,,,,361318,1,2024-06-17_09h43.48.883,experiment,2024.1.5,Win32,59.88023952,667045947eb812cbdacbf325,66704b7f7d8090ae79602e4a,,,,,,,,,,,,,,,,,,,,,,,,,,,,,,,,,,,,366.5725,372.5393,0.0,0.0,0.0,0.0,1.0,SoundStimuli/BohemianRhapsody_Queen_Original5S.wav,,,,,,,,,,,,,,,,,,,,,,,,,,,,,,,,,,,,,,,,,,,,,,,,,,,,,,,,,,
,,,,,361318,1,2024-06-17_09h43.48.883,experiment,2024.1.5,Win32,59.88023952,667045947eb812cbdacbf325,66704b7f7d8090ae79602e4a,,,,,,,,,,,,,,,,,,,,,,,,,,,,,,,,,,,,372.5441,376.6219,0.0,1.0,1.0,1.0,1.0,SoundStimuli/BohemianRhapsody_Queen_Cover5S.wav,,,,,,,,,,,,,,,,,,,,,,,,,,,,,,,,,,,,,,,,,,,,,,,,,,,,,,,,,,
,,,,,361318,1,2024-06-17_09h43.48.883,experiment,2024.1.5,Win32,59.88023952,667045947eb812cbdacbf325,66704b7f7d8090ae79602e4a,,,,,,,,,,,,,,,,,,,,,,,,,,,,,,,,,,,,,,,,,,,,376.622,377.7886,1.888888889,1.1569,0.0,21.0,21.0,18.0,1.0,song_indices/BohemianRhapsody_Queen.csv,,,,,,,,,,,,,,,,,,,,,,,,,,,,,,,,,,,,,,,,,,,,,,,,
,,,,,361318,1,2024-06-17_09h43.48.883,experiment,2024.1.5,Win32,59.88023952,667045947eb812cbdacbf325,66704b7f7d8090ae79602e4a,,,,,,,,,,,,,,,,,,,,,,,,,,,,,,,,,,,,377.7892,385.2887,0.0,0.0,0.0,1.0,1.0,SoundStimuli/BadDay_DanielPowter_Cover5S.wav,,,,,,,,,,,,,,,,,,,,,,,,,,,,,,,,,,,,,,,,,,,,,,,,,,,,,,,,,,
,,,,,361318,1,2024-06-17_09h43.48.883,experiment,2024.1.5,Win32,59.88023952,667045947eb812cbdacbf325,66704b7f7d8090ae79602e4a,,,,,,,,,,,,,,,,,,,,,,,,,,,,,,,,,,,,385.2935,391.7386,0.0,1.0,1.0,0.0,1.0,SoundStimuli/BadDay_DanielPowter_Original5S.wav,,,,,,,,,,,,,,,,,,,,,,,,,,,,,,,,,,,,,,,,,,,,,,,,,,,,,,,,,,
,,,,,361318,1,2024-06-17_09h43.48.883,experiment,2024.1.5,Win32,59.88023952,667045947eb812cbdacbf325,66704b7f7d8090ae79602e4a,,,,,,,,,,,,,,,,,,,,,,,,,,,,,,,,,,,,,,,,,,,,391.7386,392.8886,3.205555556,1.1422,0.0,22.0,22.0,22.0,1.0,song_indices/BadDay_DanielPowter.csv,,,,,,,,,,,,,,,,,,,,,,,,,,,,,,,,,,,,,,,,,,,,,,,,
,,,,,361318,1,2024-06-17_09h43.48.883,experiment,2024.1.5,Win32,59.88023952,667045947eb812cbdacbf325,66704b7f7d8090ae79602e4a,,,,,,,,,,,,,,,,,,,,,,,,,,,,,,,,,,,,,,,,,,,,,,,,,,,,,,392.889,394.8888,space,1.9802,,0.0,0.0,0.0,0.0,1.0,choose_song_b1.csv,,,,,,,,,,,,,,,,,,,,,,,,,,,,,,,,,,,,,
,,,,,361318,1,2024-06-17_09h43.48.883,experiment,2024.1.5,Win32,59.88023952,667045947eb812cbdacbf325,66704b7f7d8090ae79602e4a,,,,,,,,,,,,,,,,,,,,,,,,,,,,,,,,,,,,394.8898,400.6053,0.0,0.0,0.0,1.0,1.0,SoundStimuli/Levitating_DuaLipa_Cover5S.wav,,,,,,,,,,,,,,,,,,,,,,,,,,,,,,,,,,,,,,,,,,,,,,,,,,,,,,,,,,
,,,,,361318,1,2024-06-17_09h43.48.883,experiment,2024.1.5,Win32,59.88023952,667045947eb812cbdacbf325,66704b7f7d8090ae79602e4a,,,,,,,,,,,,,,,,,,,,,,,,,,,,,,,,,,,,400.6102,406.6219,0.0,1.0,1.0,0.0,1.0,SoundStimuli/Levitating_DuaLipa_Original5S.wav,,,,,,,,,,,,,,,,,,,,,,,,,,,,,,,,,,,,,,,,,,,,,,,,,,,,,,,,,,
,,,,,361318,1,2024-06-17_09h43.48.883,experiment,2024.1.5,Win32,59.88023952,667045947eb812cbdacbf325,66704b7f7d8090ae79602e4a,,,,,,,,,,,,,,,,,,,,,,,,,,,,,,,,,,,,,,,,,,,,406.622,407.7885,2.044444444,1.1526,0.0,0.0,0.0,10.0,1.0,song_indices/Levitating_DuaLipa.csv,,,,,,,,,,,,,,,,,,,,,,,,,,,,,,,,,,,,,,,,,,,,,,,,
,,,,,361318,1,2024-06-17_09h43.48.883,experiment,2024.1.5,Win32,59.88023952,667045947eb812cbdacbf325,66704b7f7d8090ae79602e4a,,,,,,,,,,,,,,,,,,,,,,,,,,,,,,,,,,,,407.789,413.8052,0.0,0.0,0.0,1.0,1.0,SoundStimuli/TheSign_AceOfBase_Cover5S.wav,,,,,,,,,,,,,,,,,,,,,,,,,,,,,,,,,,,,,,,,,,,,,,,,,,,,,,,,,,
,,,,,361318,1,2024-06-17_09h43.48.883,experiment,2024.1.5,Win32,59.88023952,667045947eb812cbdacbf325,66704b7f7d8090ae79602e4a,,,,,,,,,,,,,,,,,,,,,,,,,,,,,,,,,,,,413.8101,419.9719,0.0,1.0,1.0,0.0,1.0,SoundStimuli/TheSign_AceOfBase_Original5S.wav,,,,,,,,,,,,,,,,,,,,,,,,,,,,,,,,,,,,,,,,,,,,,,,,,,,,,,,,,,
,,,,,361318,1,2024-06-17_09h43.48.883,experiment,2024.1.5,Win32,59.88023952,667045947eb812cbdacbf325,66704b7f7d8090ae79602e4a,,,,,,,,,,,,,,,,,,,,,,,,,,,,,,,,,,,,,,,,,,,,419.972,421.5053,5.027777778,1.5148,0.0,1.0,1.0,5.0,1.0,song_indices/TheSign_AceOfBase.csv,,,,,,,,,,,,,,,,,,,,,,,,,,,,,,,,,,,,,,,,,,,,,,,,
,,,,,361318,1,2024-06-17_09h43.48.883,experiment,2024.1.5,Win32,59.88023952,667045947eb812cbdacbf325,66704b7f7d8090ae79602e4a,,,,,,,,,,,,,,,,,,,,,,,,,,,,,,,,,,,,421.5059,425.4885,0.0,0.0,0.0,1.0,1.0,SoundStimuli/UnbreakMyHeart_ToniBraxton_Cover5S.wav,,,,,,,,,,,,,,,,,,,,,,,,,,,,,,,,,,,,,,,,,,,,,,,,,,,,,,,,,,
,,,,,361318,1,2024-06-17_09h43.48.883,experiment,2024.1.5,Win32,59.88023952,667045947eb812cbdacbf325,66704b7f7d8090ae79602e4a,,,,,,,,,,,,,,,,,,,,,,,,,,,,,,,,,,,,425.4935,431.5885,0.0,1.0,1.0,0.0,1.0,SoundStimuli/UnbreakMyHeart_ToniBraxton_Original5S.wav,,,,,,,,,,,,,,,,,,,,,,,,,,,,,,,,,,,,,,,,,,,,,,,,,,,,,,,,,,
,,,,,361318,1,2024-06-17_09h43.48.883,experiment,2024.1.5,Win32,59.88023952,667045947eb812cbdacbf325,66704b7f7d8090ae79602e4a,,,,,,,,,,,,,,,,,,,,,,,,,,,,,,,,,,,,,,,,,,,,431.5886,432.6898,1.388888889,1.096,0.0,2.0,2.0,16.0,1.0,song_indices/UnbreakMyHeart_ToniBraxton.csv,,,,,,,,,,,,,,,,,,,,,,,,,,,,,,,,,,,,,,,,,,,,,,,,
,,,,,361318,1,2024-06-17_09h43.48.883,experiment,2024.1.5,Win32,59.88023952,667045947eb812cbdacbf325,66704b7f7d8090ae79602e4a,,,,,,,,,,,,,,,,,,,,,,,,,,,,,,,,,,,,432.6901,438.5727,0.0,0.0,0.0,0.0,1.0,SoundStimuli/Irreplaceable_Beyonce_Original5S.wav,,,,,,,,,,,,,,,,,,,,,,,,,,,,,,,,,,,,,,,,,,,,,,,,,,,,,,,,,,
,,,,,361318,1,2024-06-17_09h43.48.883,experiment,2024.1.5,Win32,59.88023952,667045947eb812cbdacbf325,66704b7f7d8090ae79602e4a,,,,,,,,,,,,,,,,,,,,,,,,,,,,,,,,,,,,438.5776,444.4899,0.0,1.0,1.0,1.0,1.0,SoundStimuli/Irreplaceable_Beyonce_Cover5S.wav,,,,,,,,,,,,,,,,,,,,,,,,,,,,,,,,,,,,,,,,,,,,,,,,,,,,,,,,,,
,,,,,361318,1,2024-06-17_09h43.48.883,experiment,2024.1.5,Win32,59.88023952,667045947eb812cbdacbf325,66704b7f7d8090ae79602e4a,,,,,,,,,,,,,,,,,,,,,,,,,,,,,,,,,,,,,,,,,,,,444.49,445.6386,4.005555556,1.1283,0.0,3.0,3.0,19.0,1.0,song_indices/Irreplaceable_Beyonce.csv,,,,,,,,,,,,,,,,,,,,,,,,,,,,,,,,,,,,,,,,,,,,,,,,
,,,,,361318,1,2024-06-17_09h43.48.883,experiment,2024.1.5,Win32,59.88023952,667045947eb812cbdacbf325,66704b7f7d8090ae79602e4a,,,,,,,,,,,,,,,,,,,,,,,,,,,,,,,,,,,,445.6394,452.9052,0.0,0.0,0.0,1.0,1.0,SoundStimuli/FlashdanceWhatAFeeling_IreneCara_Cover5S.wav,,,,,,,,,,,,,,,,,,,,,,,,,,,,,,,,,,,,,,,,,,,,,,,,,,,,,,,,,,
,,,,,361318,1,2024-06-17_09h43.48.883,experiment,2024.1.5,Win32,59.88023952,667045947eb812cbdacbf325,66704b7f7d8090ae79602e4a,,,,,,,,,,,,,,,,,,,,,,,,,,,,,,,,,,,,452.9103,459.3052,0.0,1.0,1.0,0.0,1.0,SoundStimuli/FlashdanceWhatAFeeling_IreneCara_Original5S.wav,,,,,,,,,,,,,,,,,,,,,,,,,,,,,,,,,,,,,,,,,,,,,,,,,,,,,,,,,,
,,,,,361318,1,2024-06-17_09h43.48.883,experiment,2024.1.5,Win32,59.88023952,667045947eb812cbdacbf325,66704b7f7d8090ae79602e4a,,,,,,,,,,,,,,,,,,,,,,,,,,,,,,,,,,,,,,,,,,,,459.3053,461.322,3.305555556,2.0052,0.0,4.0,4.0,18.0,1.0,song_indices/FlashdanceWhatAFeeling_IreneCara.csv,,,,,,,,,,,,,,,,,,,,,,,,,,,,,,,,,,,,,,,,,,,,,,,,
,,,,,361318,1,2024-06-17_09h43.48.883,experiment,2024.1.5,Win32,59.88023952,667045947eb812cbdacbf325,66704b7f7d8090ae79602e4a,,,,,,,,,,,,,,,,,,,,,,,,,,,,,,,,,,,,461.3225,467.3719,0.0,0.0,0.0,0.0,1.0,SoundStimuli/TossinAndTurnin_BobbyLewis_Original5S.wav,,,,,,,,,,,,,,,,,,,,,,,,,,,,,,,,,,,,,,,,,,,,,,,,,,,,,,,,,,
,,,,,361318,1,2024-06-17_09h43.48.883,experiment,2024.1.5,Win32,59.88023952,667045947eb812cbdacbf325,66704b7f7d8090ae79602e4a,,,,,,,,,,,,,,,,,,,,,,,,,,,,,,,,,,,,467.3767,473.4886,0.0,1.0,1.0,1.0,1.0,SoundStimuli/TossinAndTurnin_BobbyLewis_Cover5S.wav,,,,,,,,,,,,,,,,,,,,,,,,,,,,,,,,,,,,,,,,,,,,,,,,,,,,,,,,,,
,,,,,361318,1,2024-06-17_09h43.48.883,experiment,2024.1.5,Win32,59.88023952,667045947eb812cbdacbf325,66704b7f7d8090ae79602e4a,,,,,,,,,,,,,,,,,,,,,,,,,,,,,,,,,,,,,,,,,,,,473.4887,474.4053,1.561111111,0.9005,0.0,5.0,5.0,13.0,1.0,song_indices/TossinAndTurnin_BobbyLewis.csv,,,,,,,,,,,,,,,,,,,,,,,,,,,,,,,,,,,,,,,,,,,,,,,,
,,,,,361318,1,2024-06-17_09h43.48.883,experiment,2024.1.5,Win32,59.88023952,667045947eb812cbdacbf325,66704b7f7d8090ae79602e4a,,,,,,,,,,,,,,,,,,,,,,,,,,,,,,,,,,,,474.4058,481.8393,0.0,0.0,0.0,0.0,1.0,SoundStimuli/Kiss_Prince_Original5S.wav,,,,,,,,,,,,,,,,,,,,,,,,,,,,,,,,,,,,,,,,,,,,,,,,,,,,,,,,,,
,,,,,361318,1,2024-06-17_09h43.48.883,experiment,2024.1.5,Win32,59.88023952,667045947eb812cbdacbf325,66704b7f7d8090ae79602e4a,,,,,,,,,,,,,,,,,,,,,,,,,,,,,,,,,,,,481.8444,488.1218,0.0,1.0,1.0,1.0,1.0,SoundStimuli/Kiss_Prince_Cover5S.wav,,,,,,,,,,,,,,,,,,,,,,,,,,,,,,,,,,,,,,,,,,,,,,,,,,,,,,,,,,
,,,,,361318,1,2024-06-17_09h43.48.883,experiment,2024.1.5,Win32,59.88023952,667045947eb812cbdacbf325,66704b7f7d8090ae79602e4a,,,,,,,,,,,,,,,,,,,,,,,,,,,,,,,,,,,,,,,,,,,,488.1218,489.9052,2.85,1.7705,0.0,6.0,6.0,14.0,1.0,song_indices/Kiss_Prince.csv,,,,,,,,,,,,,,,,,,,,,,,,,,,,,,,,,,,,,,,,,,,,,,,,
,,,,,361318,1,2024-06-17_09h43.48.883,experiment,2024.1.5,Win32,59.88023952,667045947eb812cbdacbf325,66704b7f7d8090ae79602e4a,,,,,,,,,,,,,,,,,,,,,,,,,,,,,,,,,,,,489.9057,495.0385,0.0,0.0,0.0,1.0,1.0,SoundStimuli/JoyToTheWorld_ThreeDogNight_Cover5S.wav,,,,,,,,,,,,,,,,,,,,,,,,,,,,,,,,,,,,,,,,,,,,,,,,,,,,,,,,,,
,,,,,361318,1,2024-06-17_09h43.48.883,experiment,2024.1.5,Win32,59.88023952,667045947eb812cbdacbf325,66704b7f7d8090ae79602e4a,,,,,,,,,,,,,,,,,,,,,,,,,,,,,,,,,,,,495.0435,501.1551,0.0,1.0,1.0,0.0,1.0,SoundStimuli/JoyToTheWorld_ThreeDogNight_Original5S.wav,,,,,,,,,,,,,,,,,,,,,,,,,,,,,,,,,,,,,,,,,,,,,,,,,,,,,,,,,,
,,,,,361318,1,2024-06-17_09h43.48.883,experiment,2024.1.5,Win32,59.88023952,667045947eb812cbdacbf325,66704b7f7d8090ae79602e4a,,,,,,,,,,,,,,,,,,,,,,,,,,,,,,,,,,,,,,,,,,,,501.1552,502.0064,5.227777778,0.8459,0.0,7.0,7.0,8.0,1.0,song_indices/JoyToTheWorld_ThreeDogNight.csv,,,,,,,,,,,,,,,,,,,,,,,,,,,,,,,,,,,,,,,,,,,,,,,,
,,,,,361318,1,2024-06-17_09h43.48.883,experiment,2024.1.5,Win32,59.88023952,667045947eb812cbdacbf325,66704b7f7d8090ae79602e4a,,,,,,,,,,,,,,,,,,,,,,,,,,,,,,,,,,,,502.0068,509.5385,0.0,0.0,0.0,1.0,1.0,SoundStimuli/TikTok_Kesha_Cover5S.wav,,,,,,,,,,,,,,,,,,,,,,,,,,,,,,,,,,,,,,,,,,,,,,,,,,,,,,,,,,
,,,,,361318,1,2024-06-17_09h43.48.883,experiment,2024.1.5,Win32,59.88023952,667045947eb812cbdacbf325,66704b7f7d8090ae79602e4a,,,,,,,,,,,,,,,,,,,,,,,,,,,,,,,,,,,,509.5435,515.7562,0.0,1.0,1.0,0.0,1.0,SoundStimuli/TikTok_Kesha_Original5S.wav,,,,,,,,,,,,,,,,,,,,,,,,,,,,,,,,,,,,,,,,,,,,,,,,,,,,,,,,,,
,,,,,361318,1,2024-06-17_09h43.48.883,experiment,2024.1.5,Win32,59.88023952,667045947eb812cbdacbf325,66704b7f7d8090ae79602e4a,,,,,,,,,,,,,,,,,,,,,,,,,,,,,,,,,,,,,,,,,,,,515.7562,516.6552,4.111111111,0.8901,0.0,8.0,8.0,3.0,1.0,song_indices/TikTok_Kesha.csv,,,,,,,,,,,,,,,,,,,,,,,,,,,,,,,,,,,,,,,,,,,,,,,,
,,,,,361318,1,2024-06-17_09h43.48.883,experiment,2024.1.5,Win32,59.88023952,667045947eb812cbdacbf325,66704b7f7d8090ae79602e4a,,,,,,,,,,,,,,,,,,,,,,,,,,,,,,,,,,,,516.6557,522.1218,0.0,0.0,0.0,1.0,1.0,SoundStimuli/HowDoILive_LeAnnRimes_Cover5S.wav,,,,,,,,,,,,,,,,,,,,,,,,,,,,,,,,,,,,,,,,,,,,,,,,,,,,,,,,,,
,,,,,361318,1,2024-06-17_09h43.48.883,experiment,2024.1.5,Win32,59.88023952,667045947eb812cbdacbf325,66704b7f7d8090ae79602e4a,,,,,,,,,,,,,,,,,,,,,,,,,,,,,,,,,,,,522.1267,528.156,0.0,1.0,1.0,0.0,1.0,SoundStimuli/HowDoILive_LeAnnRimes_Original5S.wav,,,,,,,,,,,,,,,,,,,,,,,,,,,,,,,,,,,,,,,,,,,,,,,,,,,,,,,,,,
,,,,,361318,1,2024-06-17_09h43.48.883,experiment,2024.1.5,Win32,59.88023952,667045947eb812cbdacbf325,66704b7f7d8090ae79602e4a,,,,,,,,,,,,,,,,,,,,,,,,,,,,,,,,,,,,,,,,,,,,528.1561,529.1228,6.544444444,0.9616,0.0,9.0,9.0,17.0,1.0,song_indices/HowDoILive_LeAnnRimes.csv,,,,,,,,,,,,,,,,,,,,,,,,,,,,,,,,,,,,,,,,,,,,,,,,
,,,,,361318,1,2024-06-17_09h43.48.883,experiment,2024.1.5,Win32,59.88023952,667045947eb812cbdacbf325,66704b7f7d8090ae79602e4a,,,,,,,,,,,,,,,,,,,,,,,,,,,,,,,,,,,,529.1232,535.6051,0.0,0.0,0.0,0.0,1.0,SoundStimuli/BlindingLights_TheWeeknd_Original5S.wav,,,,,,,,,,,,,,,,,,,,,,,,,,,,,,,,,,,,,,,,,,,,,,,,,,,,,,,,,,
,,,,,361318,1,2024-06-17_09h43.48.883,experiment,2024.1.5,Win32,59.88023952,667045947eb812cbdacbf325,66704b7f7d8090ae79602e4a,,,,,,,,,,,,,,,,,,,,,,,,,,,,,,,,,,,,535.61,542.4051,0.0,1.0,1.0,1.0,1.0,SoundStimuli/BlindingLights_TheWeeknd_Cover5S.wav,,,,,,,,,,,,,,,,,,,,,,,,,,,,,,,,,,,,,,,,,,,,,,,,,,,,,,,,,,
,,,,,361318,1,2024-06-17_09h43.48.883,experiment,2024.1.5,Win32,59.88023952,667045947eb812cbdacbf325,66704b7f7d8090ae79602e4a,,,,,,,,,,,,,,,,,,,,,,,,,,,,,,,,,,,,,,,,,,,,542.4051,543.5062,3.644444444,1.096,0.0,10.0,10.0,21.0,1.0,song_indices/BlindingLights_TheWeeknd.csv,,,,,,,,,,,,,,,,,,,,,,,,,,,,,,,,,,,,,,,,,,,,,,,,
,,,,,361318,1,2024-06-17_09h43.48.883,experiment,2024.1.5,Win32,59.88023952,667045947eb812cbdacbf325,66704b7f7d8090ae79602e4a,,,,,,,,,,,,,,,,,,,,,,,,,,,,,,,,,,,,543.5067,549.4384,0.0,0.0,0.0,0.0,1.0,SoundStimuli/Respect_ArethaFranklin_Original5S.wav,,,,,,,,,,,,,,,,,,,,,,,,,,,,,,,,,,,,,,,,,,,,,,,,,,,,,,,,,,
,,,,,361318,1,2024-06-17_09h43.48.883,experiment,2024.1.5,Win32,59.88023952,667045947eb812cbdacbf325,66704b7f7d8090ae79602e4a,,,,,,,,,,,,,,,,,,,,,,,,,,,,,,,,,,,,549.4433,555.5051,0.0,1.0,1.0,1.0,1.0,SoundStimuli/Respect_ArethaFranklin_Cover5S.wav,,,,,,,,,,,,,,,,,,,,,,,,,,,,,,,,,,,,,,,,,,,,,,,,,,,,,,,,,,
,,,,,361318,1,2024-06-17_09h43.48.883,experiment,2024.1.5,Win32,59.88023952,667045947eb812cbdacbf325,66704b7f7d8090ae79602e4a,,,,,,,,,,,,,,,,,,,,,,,,,,,,,,,,,,,,,,,,,,,,555.5051,557.3385,2.494444444,1.8128,0.0,11.0,11.0,0.0,1.0,song_indices/Respect_ArethaFranklin.csv,,,,,,,,,,,,,,,,,,,,,,,,,,,,,,,,,,,,,,,,,,,,,,,,
,,,,,361318,1,2024-06-17_09h43.48.883,experiment,2024.1.5,Win32,59.88023952,667045947eb812cbdacbf325,66704b7f7d8090ae79602e4a,,,,,,,,,,,,,,,,,,,,,,,,,,,,,,,,,,,,557.339,563.9884,0.0,0.0,0.0,1.0,1.0,SoundStimuli/LetsGetItOn_MarvinGaye_Cover5S.wav,,,,,,,,,,,,,,,,,,,,,,,,,,,,,,,,,,,,,,,,,,,,,,,,,,,,,,,,,,
,,,,,361318,1,2024-06-17_09h43.48.883,experiment,2024.1.5,Win32,59.88023952,667045947eb812cbdacbf325,66704b7f7d8090ae79602e4a,,,,,,,,,,,,,,,,,,,,,,,,,,,,,,,,,,,,563.9933,570.2884,0.0,1.0,1.0,0.0,1.0,SoundStimuli/LetsGetItOn_MarvinGaye_Original5S.wav,,,,,,,,,,,,,,,,,,,,,,,,,,,,,,,,,,,,,,,,,,,,,,,,,,,,,,,,,,
,,,,,361318,1,2024-06-17_09h43.48.883,experiment,2024.1.5,Win32,59.88023952,667045947eb812cbdacbf325,66704b7f7d8090ae79602e4a,,,,,,,,,,,,,,,,,,,,,,,,,,,,,,,,,,,,,,,,,,,,570.2884,572.6384,4.888888889,2.3437,0.0,12.0,12.0,20.0,1.0,song_indices/LetsGetItOn_MarvinGaye.csv,,,,,,,,,,,,,,,,,,,,,,,,,,,,,,,,,,,,,,,,,,,,,,,,
,,,,,361318,1,2024-06-17_09h43.48.883,experiment,2024.1.5,Win32,59.88023952,667045947eb812cbdacbf325,66704b7f7d8090ae79602e4a,,,,,,,,,,,,,,,,,,,,,,,,,,,,,,,,,,,,572.6389,579.1551,0.0,0.0,0.0,0.0,1.0,SoundStimuli/Dreams_FleetwoodMac_Original5S.wav,,,,,,,,,,,,,,,,,,,,,,,,,,,,,,,,,,,,,,,,,,,,,,,,,,,,,,,,,,
,,,,,361318,1,2024-06-17_09h43.48.883,experiment,2024.1.5,Win32,59.88023952,667045947eb812cbdacbf325,66704b7f7d8090ae79602e4a,,,,,,,,,,,,,,,,,,,,,,,,,,,,,,,,,,,,579.16,586.9884,0.0,1.0,1.0,1.0,1.0,SoundStimuli/Dreams_FleetwoodMac_Cover5S.wav,,,,,,,,,,,,,,,,,,,,,,,,,,,,,,,,,,,,,,,,,,,,,,,,,,,,,,,,,,
,,,,,361318,1,2024-06-17_09h43.48.883,experiment,2024.1.5,Win32,59.88023952,667045947eb812cbdacbf325,66704b7f7d8090ae79602e4a,,,,,,,,,,,,,,,,,,,,,,,,,,,,,,,,,,,,,,,,,,,,586.9885,587.7717,2.127777778,0.7684,0.0,13.0,13.0,1.0,1.0,song_indices/Dreams_FleetwoodMac.csv,,,,,,,,,,,,,,,,,,,,,,,,,,,,,,,,,,,,,,,,,,,,,,,,
,,,,,361318,1,2024-06-17_09h43.48.883,experiment,2024.1.5,Win32,59.88023952,667045947eb812cbdacbf325,66704b7f7d8090ae79602e4a,,,,,,,,,,,,,,,,,,,,,,,,,,,,,,,,,,,,587.7723,593.2717,0.0,0.0,0.0,1.0,1.0,SoundStimuli/LeFreak_Chic_Cover5S.wav,,,,,,,,,,,,,,,,,,,,,,,,,,,,,,,,,,,,,,,,,,,,,,,,,,,,,,,,,,
,,,,,361318,1,2024-06-17_09h43.48.883,experiment,2024.1.5,Win32,59.88023952,667045947eb812cbdacbf325,66704b7f7d8090ae79602e4a,,,,,,,,,,,,,,,,,,,,,,,,,,,,,,,,,,,,593.2766,599.305,0.0,1.0,1.0,0.0,1.0,SoundStimuli/LeFreak_Chic_Original5S.wav,,,,,,,,,,,,,,,,,,,,,,,,,,,,,,,,,,,,,,,,,,,,,,,,,,,,,,,,,,
,,,,,361318,1,2024-06-17_09h43.48.883,experiment,2024.1.5,Win32,59.88023952,667045947eb812cbdacbf325,66704b7f7d8090ae79602e4a,,,,,,,,,,,,,,,,,,,,,,,,,,,,,,,,,,,,,,,,,,,,599.3051,600.5227,4.561111111,1.2124,0.0,14.0,14.0,11.0,1.0,song_indices/LeFreak_Chic.csv,,,,,,,,,,,,,,,,,,,,,,,,,,,,,,,,,,,,,,,,,,,,,,,,
,,,,,361318,1,2024-06-17_09h43.48.883,experiment,2024.1.5,Win32,59.88023952,667045947eb812cbdacbf325,66704b7f7d8090ae79602e4a,,,,,,,,,,,,,,,,,,,,,,,,,,,,,,,,,,,,600.5231,606.4226,0.0,0.0,0.0,1.0,1.0,SoundStimuli/SaveYourTears_TheWeekndArianaGrande_Cover5S.wav,,,,,,,,,,,,,,,,,,,,,,,,,,,,,,,,,,,,,,,,,,,,,,,,,,,,,,,,,,
,,,,,361318,1,2024-06-17_09h43.48.883,experiment,2024.1.5,Win32,59.88023952,667045947eb812cbdacbf325,66704b7f7d8090ae79602e4a,,,,,,,,,,,,,,,,,,,,,,,,,,,,,,,,,,,,606.4275,612.6216,0.0,1.0,1.0,0.0,1.0,SoundStimuli/SaveYourTears_TheWeekndArianaGrande_Original5S.wav,,,,,,,,,,,,,,,,,,,,,,,,,,,,,,,,,,,,,,,,,,,,,,,,,,,,,,,,,,
,,,,,361318,1,2024-06-17_09h43.48.883,experiment,2024.1.5,Win32,59.88023952,667045947eb812cbdacbf325,66704b7f7d8090ae79602e4a,,,,,,,,,,,,,,,,,,,,,,,,,,,,,,,,,,,,,,,,,,,,612.6217,613.5383,3.388888889,0.9,0.0,15.0,15.0,12.0,1.0,song_indices/SaveYourTears_TheWeekndArianaGrande.csv,,,,,,,,,,,,,,,,,,,,,,,,,,,,,,,,,,,,,,,,,,,,,,,,
,,,,,361318,1,2024-06-17_09h43.48.883,experiment,2024.1.5,Win32,59.88023952,667045947eb812cbdacbf325,66704b7f7d8090ae79602e4a,,,,,,,,,,,,,,,,,,,,,,,,,,,,,,,,,,,,613.539,619.605,0.0,0.0,0.0,0.0,1.0,SoundStimuli/Weak_SWV_Original5S.wav,,,,,,,,,,,,,,,,,,,,,,,,,,,,,,,,,,,,,,,,,,,,,,,,,,,,,,,,,,
,,,,,361318,1,2024-06-17_09h43.48.883,experiment,2024.1.5,Win32,59.88023952,667045947eb812cbdacbf325,66704b7f7d8090ae79602e4a,,,,,,,,,,,,,,,,,,,,,,,,,,,,,,,,,,,,619.61,626.0883,0.0,1.0,1.0,1.0,1.0,SoundStimuli/Weak_SWV_Cover5S.wav,,,,,,,,,,,,,,,,,,,,,,,,,,,,,,,,,,,,,,,,,,,,,,,,,,,,,,,,,,
,,,,,361318,1,2024-06-17_09h43.48.883,experiment,2024.1.5,Win32,59.88023952,667045947eb812cbdacbf325,66704b7f7d8090ae79602e4a,,,,,,,,,,,,,,,,,,,,,,,,,,,,,,,,,,,,,,,,,,,,626.0884,627.2551,1.55,1.1583,0.0,16.0,16.0,6.0,1.0,song_indices/Weak_SWV.csv,,,,,,,,,,,,,,,,,,,,,,,,,,,,,,,,,,,,,,,,,,,,,,,,
,,,,,361318,1,2024-06-17_09h43.48.883,experiment,2024.1.5,Win32,59.88023952,667045947eb812cbdacbf325,66704b7f7d8090ae79602e4a,,,,,,,,,,,,,,,,,,,,,,,,,,,,,,,,,,,,627.2556,634.0382,0.0,0.0,0.0,1.0,1.0,SoundStimuli/SomebodyThatIUsedtoKnow_Gotye_Cover5S.wav,,,,,,,,,,,,,,,,,,,,,,,,,,,,,,,,,,,,,,,,,,,,,,,,,,,,,,,,,,
,,,,,361318,1,2024-06-17_09h43.48.883,experiment,2024.1.5,Win32,59.88023952,667045947eb812cbdacbf325,66704b7f7d8090ae79602e4a,,,,,,,,,,,,,,,,,,,,,,,,,,,,,,,,,,,,634.0431,641.2716,0.0,1.0,1.0,0.0,1.0,SoundStimuli/SomebodyThatIUsedtoKnow_Gotye_Original5S.wav,,,,,,,,,,,,,,,,,,,,,,,,,,,,,,,,,,,,,,,,,,,,,,,,,,,,,,,,,,
,,,,,361318,1,2024-06-17_09h43.48.883,experiment,2024.1.5,Win32,59.88023952,667045947eb812cbdacbf325,66704b7f7d8090ae79602e4a,,,,,,,,,,,,,,,,,,,,,,,,,,,,,,,,,,,,,,,,,,,,641.2717,642.205,5.6,0.9126,0.0,17.0,17.0,7.0,1.0,song_indices/SomebodyThatIUsedtoKnow_Gotye.csv,,,,,,,,,,,,,,,,,,,,,,,,,,,,,,,,,,,,,,,,,,,,,,,,
,,,,,361318,1,2024-06-17_09h43.48.883,experiment,2024.1.5,Win32,59.88023952,667045947eb812cbdacbf325,66704b7f7d8090ae79602e4a,,,,,,,,,,,,,,,,,,,,,,,,,,,,,,,,,,,,642.2057,648.3049,0.0,0.0,0.0,0.0,1.0,SoundStimuli/ComeAndGetYourLove_Redbone_Original5S.wav,,,,,,,,,,,,,,,,,,,,,,,,,,,,,,,,,,,,,,,,,,,,,,,,,,,,,,,,,,
,,,,,361318,1,2024-06-17_09h43.48.883,experiment,2024.1.5,Win32,59.88023952,667045947eb812cbdacbf325,66704b7f7d8090ae79602e4a,,,,,,,,,,,,,,,,,,,,,,,,,,,,,,,,,,,,648.3099,655.3723,0.0,1.0,1.0,1.0,1.0,SoundStimuli/ComeAndGetYourLove_Redbone_Cover5S.wav,,,,,,,,,,,,,,,,,,,,,,,,,,,,,,,,,,,,,,,,,,,,,,,,,,,,,,,,,,
,,,,,361318,1,2024-06-17_09h43.48.883,experiment,2024.1.5,Win32,59.88023952,667045947eb812cbdacbf325,66704b7f7d8090ae79602e4a,,,,,,,,,,,,,,,,,,,,,,,,,,,,,,,,,,,,,,,,,,,,655.3723,655.9558,1.688888889,0.5784,0.0,18.0,18.0,22.0,1.0,song_indices/ComeAndGetYourLove_Redbone.csv,,,,,,,,,,,,,,,,,,,,,,,,,,,,,,,,,,,,,,,,,,,,,,,,
,,,,,361318,1,2024-06-17_09h43.48.883,experiment,2024.1.5,Win32,59.88023952,667045947eb812cbdacbf325,66704b7f7d8090ae79602e4a,,,,,,,,,,,,,,,,,,,,,,,,,,,,,,,,,,,,655.9562,662.9722,0.0,0.0,0.0,0.0,1.0,SoundStimuli/PokerFace_LadyGaga_Original5S.wav,,,,,,,,,,,,,,,,,,,,,,,,,,,,,,,,,,,,,,,,,,,,,,,,,,,,,,,,,,
,,,,,361318,1,2024-06-17_09h43.48.883,experiment,2024.1.5,Win32,59.88023952,667045947eb812cbdacbf325,66704b7f7d8090ae79602e4a,,,,,,,,,,,,,,,,,,,,,,,,,,,,,,,,,,,,662.9771,669.8225,0.0,1.0,1.0,1.0,1.0,SoundStimuli/PokerFace_LadyGaga_Cover5S.wav,,,,,,,,,,,,,,,,,,,,,,,,,,,,,,,,,,,,,,,,,,,,,,,,,,,,,,,,,,
,,,,,361318,1,2024-06-17_09h43.48.883,experiment,2024.1.5,Win32,59.88023952,667045947eb812cbdacbf325,66704b7f7d8090ae79602e4a,,,,,,,,,,,,,,,,,,,,,,,,,,,,,,,,,,,,,,,,,,,,669.8225,670.6882,3.272222222,0.8469,0.0,19.0,19.0,23.0,1.0,song_indices/PokerFace_LadyGaga.csv,,,,,,,,,,,,,,,,,,,,,,,,,,,,,,,,,,,,,,,,,,,,,,,,
,,,,,361318,1,2024-06-17_09h43.48.883,experiment,2024.1.5,Win32,59.88023952,667045947eb812cbdacbf325,66704b7f7d8090ae79602e4a,,,,,,,,,,,,,,,,,,,,,,,,,,,,,,,,,,,,670.6889,675.9882,0.0,0.0,0.0,1.0,1.0,SoundStimuli/Superstition_StevieWonder_Cover5S.wav,,,,,,,,,,,,,,,,,,,,,,,,,,,,,,,,,,,,,,,,,,,,,,,,,,,,,,,,,,
,,,,,361318,1,2024-06-17_09h43.48.883,experiment,2024.1.5,Win32,59.88023952,667045947eb812cbdacbf325,66704b7f7d8090ae79602e4a,,,,,,,,,,,,,,,,,,,,,,,,,,,,,,,,,,,,675.9931,682.139,0.0,1.0,1.0,0.0,1.0,SoundStimuli/Superstition_StevieWonder_Original5S.wav,,,,,,,,,,,,,,,,,,,,,,,,,,,,,,,,,,,,,,,,,,,,,,,,,,,,,,,,,,
,,,,,361318,1,2024-06-17_09h43.48.883,experiment,2024.1.5,Win32,59.88023952,667045947eb812cbdacbf325,66704b7f7d8090ae79602e4a,,,,,,,,,,,,,,,,,,,,,,,,,,,,,,,,,,,,,,,,,,,,682.1391,683.4727,3.522222222,1.3286,0.0,20.0,20.0,15.0,1.0,song_indices/Superstition_StevieWonder.csv,,,,,,,,,,,,,,,,,,,,,,,,,,,,,,,,,,,,,,,,,,,,,,,,
,,,,,361318,1,2024-06-17_09h43.48.883,experiment,2024.1.5,Win32,59.88023952,667045947eb812cbdacbf325,66704b7f7d8090ae79602e4a,,,,,,,,,,,,,,,,,,,,,,,,,,,,,,,,,,,,683.4731,689.6721,0.0,0.0,0.0,0.0,1.0,SoundStimuli/Dilemma_NellyKellyRowland_Original5S.wav,,,,,,,,,,,,,,,,,,,,,,,,,,,,,,,,,,,,,,,,,,,,,,,,,,,,,,,,,,
,,,,,361318,1,2024-06-17_09h43.48.883,experiment,2024.1.5,Win32,59.88023952,667045947eb812cbdacbf325,66704b7f7d8090ae79602e4a,,,,,,,,,,,,,,,,,,,,,,,,,,,,,,,,,,,,689.6769,696.6715,0.0,1.0,1.0,1.0,1.0,SoundStimuli/Dilemma_NellyKellyRowland_Cover5S.wav,,,,,,,,,,,,,,,,,,,,,,,,,,,,,,,,,,,,,,,,,,,,,,,,,,,,,,,,,,
,,,,,361318,1,2024-06-17_09h43.48.883,experiment,2024.1.5,Win32,59.88023952,667045947eb812cbdacbf325,66704b7f7d8090ae79602e4a,,,,,,,,,,,,,,,,,,,,,,,,,,,,,,,,,,,,,,,,,,,,696.6716,697.8715,3.316666667,1.1855,0.0,21.0,21.0,2.0,1.0,song_indices/Dilemma_NellyKellyRowland.csv,,,,,,,,,,,,,,,,,,,,,,,,,,,,,,,,,,,,,,,,,,,,,,,,
,,,,,361318,1,2024-06-17_09h43.48.883,experiment,2024.1.5,Win32,59.88023952,667045947eb812cbdacbf325,66704b7f7d8090ae79602e4a,,,,,,,,,,,,,,,,,,,,,,,,,,,,,,,,,,,,697.872,704.3216,0.0,0.0,0.0,1.0,1.0,SoundStimuli/YouLightUpMyLife_DebbyBoone_Cover5S.wav,,,,,,,,,,,,,,,,,,,,,,,,,,,,,,,,,,,,,,,,,,,,,,,,,,,,,,,,,,
,,,,,361318,1,2024-06-17_09h43.48.883,experiment,2024.1.5,Win32,59.88023952,667045947eb812cbdacbf325,66704b7f7d8090ae79602e4a,,,,,,,,,,,,,,,,,,,,,,,,,,,,,,,,,,,,704.3265,710.4056,0.0,1.0,1.0,0.0,1.0,SoundStimuli/YouLightUpMyLife_DebbyBoone_Original5S.wav,,,,,,,,,,,,,,,,,,,,,,,,,,,,,,,,,,,,,,,,,,,,,,,,,,,,,,,,,,
,,,,,361318,1,2024-06-17_09h43.48.883,experiment,2024.1.5,Win32,59.88023952,667045947eb812cbdacbf325,66704b7f7d8090ae79602e4a,,,,,,,,,,,,,,,,,,,,,,,,,,,,,,,,,,,,,,,,,,,,710.4057,711.3892,6.55,0.9784,0.0,22.0,22.0,4.0,1.0,song_indices/YouLightUpMyLife_DebbyBoone.csv,,,,,,,,,,,,,,,,,,,,,,,,,,,,,,,,,,,,,,,,,,,,,,,,
,,,,,361318,1,2024-06-17_09h43.48.883,experiment,2024.1.5,Win32,59.88023952,667045947eb812cbdacbf325,66704b7f7d8090ae79602e4a,,,,,,,,,,,,,,,,,,,,,,,,,,,,,,,,,,,,711.3896,718.1548,0.0,0.0,0.0,0.0,1.0,SoundStimuli/BlurredLines_RobinThicke_Original5S.wav,,,,,,,,,,,,,,,,,,,,,,,,,,,,,,,,,,,,,,,,,,,,,,,,,,,,,,,,,,
,,,,,361318,1,2024-06-17_09h43.48.883,experiment,2024.1.5,Win32,59.88023952,667045947eb812cbdacbf325,66704b7f7d8090ae79602e4a,,,,,,,,,,,,,,,,,,,,,,,,,,,,,,,,,,,,718.1597,725.2549,0.0,1.0,1.0,1.0,1.0,SoundStimuli/BlurredLines_RobinThicke_Cover5S.wav,,,,,,,,,,,,,,,,,,,,,,,,,,,,,,,,,,,,,,,,,,,,,,,,,,,,,,,,,,
,,,,,361318,1,2024-06-17_09h43.48.883,experiment,2024.1.5,Win32,59.88023952,667045947eb812cbdacbf325,66704b7f7d8090ae79602e4a,,,,,,,,,,,,,,,,,,,,,,,,,,,,,,,,,,,,,,,,,,,,725.255,726.3882,4.233333333,1.1192,0.0,23.0,23.0,9.0,1.0,song_indices/BlurredLines_RobinThicke.csv,,,,,,,,,,,,,,,,,,,,,,,,,,,,,,,,,,,,,,,,,,,,,,,,
,,,,,361318,1,2024-06-17_09h43.48.883,experiment,2024.1.5,Win32,59.88023952,667045947eb812cbdacbf325,66704b7f7d8090ae79602e4a,,,,,,,,,,,,,,,,,,,,,,,,,,,,,,,,,,,,,,,,,,,,,,,,,,,,,,726.3883,728.2895,space,1.8836,,0.0,1.0,1.0,2.0,1.0,choose_song_b3.csv,,,,,,,,,,,,,,,,,,,,,,,,,,,,,,,,,,,,,
,,,,,361318,1,2024-06-17_09h43.48.883,experiment,2024.1.5,Win32,59.88023952,667045947eb812cbdacbf325,66704b7f7d8090ae79602e4a,,,,,,,,,,,,,,,,,,,,,,,,,,,,,,,,,,,,728.2905,735.3215,0.0,0.0,0.0,1.0,1.0,SoundStimuli/UptownFunk_MarkRonson_Cover5S.wav,,,,,,,,,,,,,,,,,,,,,,,,,,,,,,,,,,,,,,,,,,,,,,,,,,,,,,,,,,
,,,,,361318,1,2024-06-17_09h43.48.883,experiment,2024.1.5,Win32,59.88023952,667045947eb812cbdacbf325,66704b7f7d8090ae79602e4a,,,,,,,,,,,,,,,,,,,,,,,,,,,,,,,,,,,,735.3266,742.5548,0.0,1.0,1.0,0.0,1.0,SoundStimuli/UptownFunk_MarkRonson_Original5S.wav,,,,,,,,,,,,,,,,,,,,,,,,,,,,,,,,,,,,,,,,,,,,,,,,,,,,,,,,,,
,,,,,361318,1,2024-06-17_09h43.48.883,experiment,2024.1.5,Win32,59.88023952,667045947eb812cbdacbf325,66704b7f7d8090ae79602e4a,,,,,,,,,,,,,,,,,,,,,,,,,,,,,,,,,,,,,,,,,,,,742.5548,743.7048,6.566666667,1.1343,0.0,0.0,0.0,15.0,1.0,song_indices/UptownFunk_MarkRonson.csv,,,,,,,,,,,,,,,,,,,,,,,,,,,,,,,,,,,,,,,,,,,,,,,,
,,,,,361318,1,2024-06-17_09h43.48.883,experiment,2024.1.5,Win32,59.88023952,667045947eb812cbdacbf325,66704b7f7d8090ae79602e4a,,,,,,,,,,,,,,,,,,,,,,,,,,,,,,,,,,,,743.7053,749.6389,0.0,0.0,0.0,1.0,1.0,SoundStimuli/TheBoyIsMine_BrandyMonica_Cover5S.wav,,,,,,,,,,,,,,,,,,,,,,,,,,,,,,,,,,,,,,,,,,,,,,,,,,,,,,,,,,
,,,,,361318,1,2024-06-17_09h43.48.883,experiment,2024.1.5,Win32,59.88023952,667045947eb812cbdacbf325,66704b7f7d8090ae79602e4a,,,,,,,,,,,,,,,,,,,,,,,,,,,,,,,,,,,,749.6438,755.8548,0.0,1.0,1.0,0.0,1.0,SoundStimuli/TheBoyIsMine_BrandyMonica_Original5S.wav,,,,,,,,,,,,,,,,,,,,,,,,,,,,,,,,,,,,,,,,,,,,,,,,,,,,,,,,,,
,,,,,361318,1,2024-06-17_09h43.48.883,experiment,2024.1.5,Win32,59.88023952,667045947eb812cbdacbf325,66704b7f7d8090ae79602e4a,,,,,,,,,,,,,,,,,,,,,,,,,,,,,,,,,,,,,,,,,,,,755.8548,756.9894,4.405555556,1.1295,0.0,1.0,1.0,6.0,1.0,song_indices/TheBoyIsMine_BrandyMonica.csv,,,,,,,,,,,,,,,,,,,,,,,,,,,,,,,,,,,,,,,,,,,,,,,,
,,,,,361318,1,2024-06-17_09h43.48.883,experiment,2024.1.5,Win32,59.88023952,667045947eb812cbdacbf325,66704b7f7d8090ae79602e4a,,,,,,,,,,,,,,,,,,,,,,,,,,,,,,,,,,,,756.9898,763.3048,0.0,0.0,0.0,1.0,1.0,SoundStimuli/ShapeofYou_EdSheeran_Cover5S.wav,,,,,,,,,,,,,,,,,,,,,,,,,,,,,,,,,,,,,,,,,,,,,,,,,,,,,,,,,,
,,,,,361318,1,2024-06-17_09h43.48.883,experiment,2024.1.5,Win32,59.88023952,667045947eb812cbdacbf325,66704b7f7d8090ae79602e4a,,,,,,,,,,,,,,,,,,,,,,,,,,,,,,,,,,,,763.3097,769.7716,0.0,1.0,1.0,0.0,1.0,SoundStimuli/ShapeofYou_EdSheeran_Original5S.wav,,,,,,,,,,,,,,,,,,,,,,,,,,,,,,,,,,,,,,,,,,,,,,,,,,,,,,,,,,
,,,,,361318,1,2024-06-17_09h43.48.883,experiment,2024.1.5,Win32,59.88023952,667045947eb812cbdacbf325,66704b7f7d8090ae79602e4a,,,,,,,,,,,,,,,,,,,,,,,,,,,,,,,,,,,,,,,,,,,,769.7716,770.8715,4.016666667,1.0843,0.0,2.0,2.0,21.0,1.0,song_indices/ShapeofYou_EdSheeran.csv,,,,,,,,,,,,,,,,,,,,,,,,,,,,,,,,,,,,,,,,,,,,,,,,
,,,,,361318,1,2024-06-17_09h43.48.883,experiment,2024.1.5,Win32,59.88023952,667045947eb812cbdacbf325,66704b7f7d8090ae79602e4a,,,,,,,,,,,,,,,,,,,,,,,,,,,,,,,,,,,,770.872,777.0047,0.0,0.0,0.0,1.0,1.0,SoundStimuli/NoScrubs_TLC_Cover5S.wav,,,,,,,,,,,,,,,,,,,,,,,,,,,,,,,,,,,,,,,,,,,,,,,,,,,,,,,,,,
,,,,,361318,1,2024-06-17_09h43.48.883,experiment,2024.1.5,Win32,59.88023952,667045947eb812cbdacbf325,66704b7f7d8090ae79602e4a,,,,,,,,,,,,,,,,,,,,,,,,,,,,,,,,,,,,777.0096,783.2048,0.0,1.0,1.0,0.0,1.0,SoundStimuli/NoScrubs_TLC_Original5S.wav,,,,,,,,,,,,,,,,,,,,,,,,,,,,,,,,,,,,,,,,,,,,,,,,,,,,,,,,,,
,,,,,361318,1,2024-06-17_09h43.48.883,experiment,2024.1.5,Win32,59.88023952,667045947eb812cbdacbf325,66704b7f7d8090ae79602e4a,,,,,,,,,,,,,,,,,,,,,,,,,,,,,,,,,,,,,,,,,,,,783.2048,784.3547,6.0,1.1399,0.0,3.0,3.0,14.0,1.0,song_indices/NoScrubs_TLC.csv,,,,,,,,,,,,,,,,,,,,,,,,,,,,,,,,,,,,,,,,,,,,,,,,
,,,,,361318,1,2024-06-17_09h43.48.883,experiment,2024.1.5,Win32,59.88023952,667045947eb812cbdacbf325,66704b7f7d8090ae79602e4a,,,,,,,,,,,,,,,,,,,,,,,,,,,,,,,,,,,,784.3553,790.4048,0.0,0.0,0.0,0.0,1.0,SoundStimuli/Stronger_KanyeWest_Original5S.wav,,,,,,,,,,,,,,,,,,,,,,,,,,,,,,,,,,,,,,,,,,,,,,,,,,,,,,,,,,
,,,,,361318,1,2024-06-17_09h43.48.883,experiment,2024.1.5,Win32,59.88023952,667045947eb812cbdacbf325,66704b7f7d8090ae79602e4a,,,,,,,,,,,,,,,,,,,,,,,,,,,,,,,,,,,,790.4096,796.7381,0.0,1.0,1.0,1.0,1.0,SoundStimuli/Stronger_KanyeWest_Cover5S.wav,,,,,,,,,,,,,,,,,,,,,,,,,,,,,,,,,,,,,,,,,,,,,,,,,,,,,,,,,,
,,,,,361318,1,2024-06-17_09h43.48.883,experiment,2024.1.5,Win32,59.88023952,667045947eb812cbdacbf325,66704b7f7d8090ae79602e4a,,,,,,,,,,,,,,,,,,,,,,,,,,,,,,,,,,,,,,,,,,,,796.7382,797.9547,1.194444444,1.2076,0.0,4.0,4.0,9.0,1.0,song_indices/Stronger_KanyeWest.csv,,,,,,,,,,,,,,,,,,,,,,,,,,,,,,,,,,,,,,,,,,,,,,,,
,,,,,361318,1,2024-06-17_09h43.48.883,experiment,2024.1.5,Win32,59.88023952,667045947eb812cbdacbf325,66704b7f7d8090ae79602e4a,,,,,,,,,,,,,,,,,,,,,,,,,,,,,,,,,,,,797.9552,803.6388,0.0,0.0,0.0,1.0,1.0,SoundStimuli/BetteDavisEyes_KimCarnes_Cover5S.wav,,,,,,,,,,,,,,,,,,,,,,,,,,,,,,,,,,,,,,,,,,,,,,,,,,,,,,,,,,
,,,,,361318,1,2024-06-17_09h43.48.883,experiment,2024.1.5,Win32,59.88023952,667045947eb812cbdacbf325,66704b7f7d8090ae79602e4a,,,,,,,,,,,,,,,,,,,,,,,,,,,,,,,,,,,,803.6437,809.8547,0.0,1.0,1.0,0.0,1.0,SoundStimuli/BetteDavisEyes_KimCarnes_Original5S.wav,,,,,,,,,,,,,,,,,,,,,,,,,,,,,,,,,,,,,,,,,,,,,,,,,,,,,,,,,,
,,,,,361318,1,2024-06-17_09h43.48.883,experiment,2024.1.5,Win32,59.88023952,667045947eb812cbdacbf325,66704b7f7d8090ae79602e4a,,,,,,,,,,,,,,,,,,,,,,,,,,,,,,,,,,,,,,,,,,,,809.8548,811.288,4.766666667,1.4279,0.0,5.0,5.0,5.0,1.0,song_indices/BetteDavisEyes_KimCarnes.csv,,,,,,,,,,,,,,,,,,,,,,,,,,,,,,,,,,,,,,,,,,,,,,,,
,,,,,361318,1,2024-06-17_09h43.48.883,experiment,2024.1.5,Win32,59.88023952,667045947eb812cbdacbf325,66704b7f7d8090ae79602e4a,,,,,,,,,,,,,,,,,,,,,,,,,,,,,,,,,,,,811.2885,817.5047,0.0,0.0,0.0,0.0,1.0,SoundStimuli/SmellsLikeTeenSpirit_Nirvana_Original5S.wav,,,,,,,,,,,,,,,,,,,,,,,,,,,,,,,,,,,,,,,,,,,,,,,,,,,,,,,,,,
,,,,,361318,1,2024-06-17_09h43.48.883,experiment,2024.1.5,Win32,59.88023952,667045947eb812cbdacbf325,66704b7f7d8090ae79602e4a,,,,,,,,,,,,,,,,,,,,,,,,,,,,,,,,,,,,817.5096,823.288,0.0,1.0,1.0,1.0,1.0,SoundStimuli/SmellsLikeTeenSpirit_Nirvana_Cover5S.wav,,,,,,,,,,,,,,,,,,,,,,,,,,,,,,,,,,,,,,,,,,,,,,,,,,,,,,,,,,
,,,,,361318,1,2024-06-17_09h43.48.883,experiment,2024.1.5,Win32,59.88023952,667045947eb812cbdacbf325,66704b7f7d8090ae79602e4a,,,,,,,,,,,,,,,,,,,,,,,,,,,,,,,,,,,,,,,,,,,,823.2881,824.7058,6.588888889,1.4126,0.0,6.0,6.0,8.0,1.0,song_indices/SmellsLikeTeenSpirit_Nirvana.csv,,,,,,,,,,,,,,,,,,,,,,,,,,,,,,,,,,,,,,,,,,,,,,,,
,,,,,361318,1,2024-06-17_09h43.48.883,experiment,2024.1.5,Win32,59.88023952,667045947eb812cbdacbf325,66704b7f7d8090ae79602e4a,,,,,,,,,,,,,,,,,,,,,,,,,,,,,,,,,,,,824.7062,831.138,0.0,0.0,0.0,1.0,1.0,SoundStimuli/Fallin_AliciaKeys_Cover5S.wav,,,,,,,,,,,,,,,,,,,,,,,,,,,,,,,,,,,,,,,,,,,,,,,,,,,,,,,,,,
,,,,,361318,1,2024-06-17_09h43.48.883,experiment,2024.1.5,Win32,59.88023952,667045947eb812cbdacbf325,66704b7f7d8090ae79602e4a,,,,,,,,,,,,,,,,,,,,,,,,,,,,,,,,,,,,831.1429,837.3215,0.0,1.0,1.0,0.0,1.0,SoundStimuli/Fallin_AliciaKeys_Original5S.wav,,,,,,,,,,,,,,,,,,,,,,,,,,,,,,,,,,,,,,,,,,,,,,,,,,,,,,,,,,
,,,,,361318,1,2024-06-17_09h43.48.883,experiment,2024.1.5,Win32,59.88023952,667045947eb812cbdacbf325,66704b7f7d8090ae79602e4a,,,,,,,,,,,,,,,,,,,,,,,,,,,,,,,,,,,,,,,,,,,,837.3215,838.488,5.394444444,1.1571,0.0,7.0,7.0,12.0,1.0,song_indices/Fallin_AliciaKeys.csv,,,,,,,,,,,,,,,,,,,,,,,,,,,,,,,,,,,,,,,,,,,,,,,,
,,,,,361318,1,2024-06-17_09h43.48.883,experiment,2024.1.5,Win32,59.88023952,667045947eb812cbdacbf325,66704b7f7d8090ae79602e4a,,,,,,,,,,,,,,,,,,,,,,,,,,,,,,,,,,,,838.4887,844.8555,0.0,0.0,0.0,1.0,1.0,SoundStimuli/GoodGollyMissMolly_LittleRichard_Cover5S.wav,,,,,,,,,,,,,,,,,,,,,,,,,,,,,,,,,,,,,,,,,,,,,,,,,,,,,,,,,,
,,,,,361318,1,2024-06-17_09h43.48.883,experiment,2024.1.5,Win32,59.88023952,667045947eb812cbdacbf325,66704b7f7d8090ae79602e4a,,,,,,,,,,,,,,,,,,,,,,,,,,,,,,,,,,,,844.8603,850.9213,0.0,1.0,1.0,0.0,1.0,SoundStimuli/GoodGollyMissMolly_LittleRichard_Original5S.wav,,,,,,,,,,,,,,,,,,,,,,,,,,,,,,,,,,,,,,,,,,,,,,,,,,,,,,,,,,
,,,,,361318,1,2024-06-17_09h43.48.883,experiment,2024.1.5,Win32,59.88023952,667045947eb812cbdacbf325,66704b7f7d8090ae79602e4a,,,,,,,,,,,,,,,,,,,,,,,,,,,,,,,,,,,,,,,,,,,,850.9213,851.9046,2.1,0.966,0.0,8.0,8.0,0.0,1.0,song_indices/GoodGollyMissMolly_LittleRichard.csv,,,,,,,,,,,,,,,,,,,,,,,,,,,,,,,,,,,,,,,,,,,,,,,,
,,,,,361318,1,2024-06-17_09h43.48.883,experiment,2024.1.5,Win32,59.88023952,667045947eb812cbdacbf325,66704b7f7d8090ae79602e4a,,,,,,,,,,,,,,,,,,,,,,,,,,,,,,,,,,,,851.9052,858.4379,0.0,0.0,0.0,0.0,1.0,SoundStimuli/CrazyInLove_BeyonceFtJayZ_Original5S.wav,,,,,,,,,,,,,,,,,,,,,,,,,,,,,,,,,,,,,,,,,,,,,,,,,,,,,,,,,,
,,,,,361318,1,2024-06-17_09h43.48.883,experiment,2024.1.5,Win32,59.88023952,667045947eb812cbdacbf325,66704b7f7d8090ae79602e4a,,,,,,,,,,,,,,,,,,,,,,,,,,,,,,,,,,,,858.4428,868.688,0.0,1.0,1.0,1.0,1.0,SoundStimuli/CrazyInLove_BeyonceFtJayZ_Cover5S.wav,,,,,,,,,,,,,,,,,,,,,,,,,,,,,,,,,,,,,,,,,,,,,,,,,,,,,,,,,,
,,,,,361318,1,2024-06-17_09h43.48.883,experiment,2024.1.5,Win32,59.88023952,667045947eb812cbdacbf325,66704b7f7d8090ae79602e4a,,,,,,,,,,,,,,,,,,,,,,,,,,,,,,,,,,,,,,,,,,,,868.6881,869.7213,3.477777778,1.0152,0.0,9.0,9.0,3.0,1.0,song_indices/CrazyInLove_BeyonceFtJayZ.csv,,,,,,,,,,,,,,,,,,,,,,,,,,,,,,,,,,,,,,,,,,,,,,,,
,,,,,361318,1,2024-06-17_09h43.48.883,experiment,2024.1.5,Win32,59.88023952,667045947eb812cbdacbf325,66704b7f7d8090ae79602e4a,,,,,,,,,,,,,,,,,,,,,,,,,,,,,,,,,,,,869.7218,875.5713,0.0,0.0,0.0,1.0,1.0,SoundStimuli/IWillAlwaysLoveYou_WhitneyHouston_Cover5S.wav,,,,,,,,,,,,,,,,,,,,,,,,,,,,,,,,,,,,,,,,,,,,,,,,,,,,,,,,,,
,,,,,361318,1,2024-06-17_09h43.48.883,experiment,2024.1.5,Win32,59.88023952,667045947eb812cbdacbf325,66704b7f7d8090ae79602e4a,,,,,,,,,,,,,,,,,,,,,,,,,,,,,,,,,,,,875.5762,881.9556,0.0,1.0,1.0,0.0,1.0,SoundStimuli/IWillAlwaysLoveYou_WhitneyHouston_Original5S.wav,,,,,,,,,,,,,,,,,,,,,,,,,,,,,,,,,,,,,,,,,,,,,,,,,,,,,,,,,,
,,,,,361318,1,2024-06-17_09h43.48.883,experiment,2024.1.5,Win32,59.88023952,667045947eb812cbdacbf325,66704b7f7d8090ae79602e4a,,,,,,,,,,,,,,,,,,,,,,,,,,,,,,,,,,,,,,,,,,,,881.9558,883.1713,6.944444444,1.2006,0.0,10.0,10.0,10.0,1.0,song_indices/IWillAlwaysLoveYou_WhitneyHouston.csv,,,,,,,,,,,,,,,,,,,,,,,,,,,,,,,,,,,,,,,,,,,,,,,,
,,,,,361318,1,2024-06-17_09h43.48.883,experiment,2024.1.5,Win32,59.88023952,667045947eb812cbdacbf325,66704b7f7d8090ae79602e4a,,,,,,,,,,,,,,,,,,,,,,,,,,,,,,,,,,,,883.1719,889.0888,0.0,0.0,0.0,0.0,1.0,SoundStimuli/StandByMe_BenEKing_Original5S.wav,,,,,,,,,,,,,,,,,,,,,,,,,,,,,,,,,,,,,,,,,,,,,,,,,,,,,,,,,,
,,,,,361318,1,2024-06-17_09h43.48.883,experiment,2024.1.5,Win32,59.88023952,667045947eb812cbdacbf325,66704b7f7d8090ae79602e4a,,,,,,,,,,,,,,,,,,,,,,,,,,,,,,,,,,,,889.0937,895.1213,0.0,1.0,1.0,1.0,1.0,SoundStimuli/StandByMe_BenEKing_Cover5S.wav,,,,,,,,,,,,,,,,,,,,,,,,,,,,,,,,,,,,,,,,,,,,,,,,,,,,,,,,,,
,,,,,361318,1,2024-06-17_09h43.48.883,experiment,2024.1.5,Win32,59.88023952,667045947eb812cbdacbf325,66704b7f7d8090ae79602e4a,,,,,,,,,,,,,,,,,,,,,,,,,,,,,,,,,,,,,,,,,,,,895.1214,896.338,1.527777778,1.1978,0.0,11.0,11.0,1.0,1.0,song_indices/StandByMe_BenEKing.csv,,,,,,,,,,,,,,,,,,,,,,,,,,,,,,,,,,,,,,,,,,,,,,,,
,,,,,361318,1,2024-06-17_09h43.48.883,experiment,2024.1.5,Win32,59.88023952,667045947eb812cbdacbf325,66704b7f7d8090ae79602e4a,,,,,,,,,,,,,,,,,,,,,,,,,,,,,,,,,,,,896.3386,902.4046,0.0,0.0,0.0,1.0,1.0,SoundStimuli/RockWithYou_MichaelJackson_Cover5S.wav,,,,,,,,,,,,,,,,,,,,,,,,,,,,,,,,,,,,,,,,,,,,,,,,,,,,,,,,,,
,,,,,361318,1,2024-06-17_09h43.48.883,experiment,2024.1.5,Win32,59.88023952,667045947eb812cbdacbf325,66704b7f7d8090ae79602e4a,,,,,,,,,,,,,,,,,,,,,,,,,,,,,,,,,,,,902.4094,908.7387,0.0,1.0,1.0,0.0,1.0,SoundStimuli/RockWithYou_MichaelJackson_Original5S.wav,,,,,,,,,,,,,,,,,,,,,,,,,,,,,,,,,,,,,,,,,,,,,,,,,,,,,,,,,,
,,,,,361318,1,2024-06-17_09h43.48.883,experiment,2024.1.5,Win32,59.88023952,667045947eb812cbdacbf325,66704b7f7d8090ae79602e4a,,,,,,,,,,,,,,,,,,,,,,,,,,,,,,,,,,,,,,,,,,,,908.7387,909.7558,2.95,1.0118,0.0,12.0,12.0,16.0,1.0,song_indices/RockWithYou_MichaelJackson.csv,,,,,,,,,,,,,,,,,,,,,,,,,,,,,,,,,,,,,,,,,,,,,,,,
,,,,,361318,1,2024-06-17_09h43.48.883,experiment,2024.1.5,Win32,59.88023952,667045947eb812cbdacbf325,66704b7f7d8090ae79602e4a,,,,,,,,,,,,,,,,,,,,,,,,,,,,,,,,,,,,909.7561,915.8379,0.0,0.0,0.0,0.0,1.0,SoundStimuli/GetUrFreakOn_MissyElliot_Original5S.wav,,,,,,,,,,,,,,,,,,,,,,,,,,,,,,,,,,,,,,,,,,,,,,,,,,,,,,,,,,
,,,,,361318,1,2024-06-17_09h43.48.883,experiment,2024.1.5,Win32,59.88023952,667045947eb812cbdacbf325,66704b7f7d8090ae79602e4a,,,,,,,,,,,,,,,,,,,,,,,,,,,,,,,,,,,,915.8428,922.4221,0.0,1.0,1.0,1.0,1.0,SoundStimuli/GetUrFreakOn_MissyElliot_Cover5S.wav,,,,,,,,,,,,,,,,,,,,,,,,,,,,,,,,,,,,,,,,,,,,,,,,,,,,,,,,,,
,,,,,361318,1,2024-06-17_09h43.48.883,experiment,2024.1.5,Win32,59.88023952,667045947eb812cbdacbf325,66704b7f7d8090ae79602e4a,,,,,,,,,,,,,,,,,,,,,,,,,,,,,,,,,,,,,,,,,,,,922.4221,923.589,3.188888889,1.1617,0.0,13.0,13.0,18.0,1.0,song_indices/GetUrFreakOn_MissyElliot.csv,,,,,,,,,,,,,,,,,,,,,,,,,,,,,,,,,,,,,,,,,,,,,,,,
,,,,,361318,1,2024-06-17_09h43.48.883,experiment,2024.1.5,Win32,59.88023952,667045947eb812cbdacbf325,66704b7f7d8090ae79602e4a,,,,,,,,,,,,,,,,,,,,,,,,,,,,,,,,,,,,923.5894,930.3378,0.0,0.0,0.0,0.0,1.0,SoundStimuli/PartyRockAnthem_LMFAO_Original5S.wav,,,,,,,,,,,,,,,,,,,,,,,,,,,,,,,,,,,,,,,,,,,,,,,,,,,,,,,,,,
,,,,,361318,1,2024-06-17_09h43.48.883,experiment,2024.1.5,Win32,59.88023952,667045947eb812cbdacbf325,66704b7f7d8090ae79602e4a,,,,,,,,,,,,,,,,,,,,,,,,,,,,,,,,,,,,930.3428,937.1212,0.0,1.0,1.0,1.0,1.0,SoundStimuli/PartyRockAnthem_LMFAO_Cover5S.wav,,,,,,,,,,,,,,,,,,,,,,,,,,,,,,,,,,,,,,,,,,,,,,,,,,,,,,,,,,
,,,,,361318,1,2024-06-17_09h43.48.883,experiment,2024.1.5,Win32,59.88023952,667045947eb812cbdacbf325,66704b7f7d8090ae79602e4a,,,,,,,,,,,,,,,,,,,,,,,,,,,,,,,,,,,,,,,,,,,,937.1212,938.2213,3.022222222,1.0937,0.0,14.0,14.0,2.0,1.0,song_indices/PartyRockAnthem_LMFAO.csv,,,,,,,,,,,,,,,,,,,,,,,,,,,,,,,,,,,,,,,,,,,,,,,,
,,,,,361318,1,2024-06-17_09h43.48.883,experiment,2024.1.5,Win32,59.88023952,667045947eb812cbdacbf325,66704b7f7d8090ae79602e4a,,,,,,,,,,,,,,,,,,,,,,,,,,,,,,,,,,,,938.2219,944.4212,0.0,0.0,0.0,0.0,1.0,SoundStimuli/TheBattleOfNewOrleans_JohnnyHorton_Original5S.wav,,,,,,,,,,,,,,,,,,,,,,,,,,,,,,,,,,,,,,,,,,,,,,,,,,,,,,,,,,
,,,,,361318,1,2024-06-17_09h43.48.883,experiment,2024.1.5,Win32,59.88023952,667045947eb812cbdacbf325,66704b7f7d8090ae79602e4a,,,,,,,,,,,,,,,,,,,,,,,,,,,,,,,,,,,,944.4262,952.4053,0.0,1.0,1.0,1.0,1.0,SoundStimuli/TheBattleOfNewOrleans_JohnnyHorton_Cover5S.wav,,,,,,,,,,,,,,,,,,,,,,,,,,,,,,,,,,,,,,,,,,,,,,,,,,,,,,,,,,
,,,,,361318,1,2024-06-17_09h43.48.883,experiment,2024.1.5,Win32,59.88023952,667045947eb812cbdacbf325,66704b7f7d8090ae79602e4a,,,,,,,,,,,,,,,,,,,,,,,,,,,,,,,,,,,,,,,,,,,,952.4054,954.1388,1.227777778,1.7283,0.0,15.0,15.0,4.0,1.0,song_indices/TheBattleOfNewOrleans_JohnnyHorton.csv,,,,,,,,,,,,,,,,,,,,,,,,,,,,,,,,,,,,,,,,,,,,,,,,
,,,,,361318,1,2024-06-17_09h43.48.883,experiment,2024.1.5,Win32,59.88023952,667045947eb812cbdacbf325,66704b7f7d8090ae79602e4a,,,,,,,,,,,,,,,,,,,,,,,,,,,,,,,,,,,,954.1392,960.1212,0.0,0.0,0.0,0.0,1.0,SoundStimuli/IWalkTheLine_JohnnyCash_Original5S.wav,,,,,,,,,,,,,,,,,,,,,,,,,,,,,,,,,,,,,,,,,,,,,,,,,,,,,,,,,,
,,,,,361318,1,2024-06-17_09h43.48.883,experiment,2024.1.5,Win32,59.88023952,667045947eb812cbdacbf325,66704b7f7d8090ae79602e4a,,,,,,,,,,,,,,,,,,,,,,,,,,,,,,,,,,,,960.1261,967.2722,0.0,1.0,1.0,1.0,1.0,SoundStimuli/IWalkTheLine_JohnnyCash_Cover5S.wav,,,,,,,,,,,,,,,,,,,,,,,,,,,,,,,,,,,,,,,,,,,,,,,,,,,,,,,,,,
,,,,,361318,1,2024-06-17_09h43.48.883,experiment,2024.1.5,Win32,59.88023952,667045947eb812cbdacbf325,66704b7f7d8090ae79602e4a,,,,,,,,,,,,,,,,,,,,,,,,,,,,,,,,,,,,,,,,,,,,967.2724,968.7223,1.477777778,1.4447,0.0,16.0,16.0,17.0,1.0,song_indices/IWalkTheLine_JohnnyCash.csv,,,,,,,,,,,,,,,,,,,,,,,,,,,,,,,,,,,,,,,,,,,,,,,,
,,,,,361318,1,2024-06-17_09h43.48.883,experiment,2024.1.5,Win32,59.88023952,667045947eb812cbdacbf325,66704b7f7d8090ae79602e4a,,,,,,,,,,,,,,,,,,,,,,,,,,,,,,,,,,,,968.7226,974.9878,0.0,0.0,0.0,0.0,1.0,SoundStimuli/ItsAllInTheGame_TommyEdwards_Original5S.wav,,,,,,,,,,,,,,,,,,,,,,,,,,,,,,,,,,,,,,,,,,,,,,,,,,,,,,,,,,
,,,,,361318,1,2024-06-17_09h43.48.883,experiment,2024.1.5,Win32,59.88023952,667045947eb812cbdacbf325,66704b7f7d8090ae79602e4a,,,,,,,,,,,,,,,,,,,,,,,,,,,,,,,,,,,,974.9928,981.2211,0.0,1.0,1.0,1.0,1.0,SoundStimuli/ItsAllInTheGame_TommyEdwards_Cover5S.wav,,,,,,,,,,,,,,,,,,,,,,,,,,,,,,,,,,,,,,,,,,,,,,,,,,,,,,,,,,
,,,,,361318,1,2024-06-17_09h43.48.883,experiment,2024.1.5,Win32,59.88023952,667045947eb812cbdacbf325,66704b7f7d8090ae79602e4a,,,,,,,,,,,,,,,,,,,,,,,,,,,,,,,,,,,,,,,,,,,,981.2211,983.3211,3.194444444,2.0914,0.0,17.0,17.0,13.0,1.0,song_indices/ItsAllInTheGame_TommyEdwards.csv,,,,,,,,,,,,,,,,,,,,,,,,,,,,,,,,,,,,,,,,,,,,,,,,
,,,,,361318,1,2024-06-17_09h43.48.883,experiment,2024.1.5,Win32,59.88023952,667045947eb812cbdacbf325,66704b7f7d8090ae79602e4a,,,,,,,,,,,,,,,,,,,,,,,,,,,,,,,,,,,,983.3218,989.5378,0.0,0.0,0.0,1.0,1.0,SoundStimuli/NoOne_AliciaKeys_Cover5S.wav,,,,,,,,,,,,,,,,,,,,,,,,,,,,,,,,,,,,,,,,,,,,,,,,,,,,,,,,,,
,,,,,361318,1,2024-06-17_09h43.48.883,experiment,2024.1.5,Win32,59.88023952,667045947eb812cbdacbf325,66704b7f7d8090ae79602e4a,,,,,,,,,,,,,,,,,,,,,,,,,,,,,,,,,,,,989.5427,997.2718,0.0,1.0,1.0,0.0,1.0,SoundStimuli/NoOne_AliciaKeys_Original5S.wav,,,,,,,,,,,,,,,,,,,,,,,,,,,,,,,,,,,,,,,,,,,,,,,,,,,,,,,,,,
,,,,,361318,1,2024-06-17_09h43.48.883,experiment,2024.1.5,Win32,59.88023952,667045947eb812cbdacbf325,66704b7f7d8090ae79602e4a,,,,,,,,,,,,,,,,,,,,,,,,,,,,,,,,,,,,,,,,,,,,997.2719,998.0888,3.838888889,0.8118,0.0,18.0,18.0,19.0,1.0,song_indices/NoOne_AliciaKeys.csv,,,,,,,,,,,,,,,,,,,,,,,,,,,,,,,,,,,,,,,,,,,,,,,,
,,,,,361318,1,2024-06-17_09h43.48.883,experiment,2024.1.5,Win32,59.88023952,667045947eb812cbdacbf325,66704b7f7d8090ae79602e4a,,,,,,,,,,,,,,,,,,,,,,,,,,,,,,,,,,,,998.0892,1007.0052,0.0,0.0,0.0,1.0,1.0,SoundStimuli/HeyYa_Outkast_Cover5S.wav,,,,,,,,,,,,,,,,,,,,,,,,,,,,,,,,,,,,,,,,,,,,,,,,,,,,,,,,,,
,,,,,361318,1,2024-06-17_09h43.48.883,experiment,2024.1.5,Win32,59.88023952,667045947eb812cbdacbf325,66704b7f7d8090ae79602e4a,,,,,,,,,,,,,,,,,,,,,,,,,,,,,,,,,,,,1007.0102,1013.3044,0.0,1.0,1.0,0.0,1.0,SoundStimuli/HeyYa_Outkast_Original5S.wav,,,,,,,,,,,,,,,,,,,,,,,,,,,,,,,,,,,,,,,,,,,,,,,,,,,,,,,,,,
,,,,,361318,1,2024-06-17_09h43.48.883,experiment,2024.1.5,Win32,59.88023952,667045947eb812cbdacbf325,66704b7f7d8090ae79602e4a,,,,,,,,,,,,,,,,,,,,,,,,,,,,,,,,,,,,,,,,,,,,1013.3045,1015.0386,2.683333333,1.729,0.0,19.0,19.0,22.0,1.0,song_indices/HeyYa_Outkast.csv,,,,,,,,,,,,,,,,,,,,,,,,,,,,,,,,,,,,,,,,,,,,,,,,
,,,,,361318,1,2024-06-17_09h43.48.883,experiment,2024.1.5,Win32,59.88023952,667045947eb812cbdacbf325,66704b7f7d8090ae79602e4a,,,,,,,,,,,,,,,,,,,,,,,,,,,,,,,,,,,,1015.039,1020.9377,0.0,0.0,0.0,0.0,1.0,SoundStimuli/EyeOfTheTiger_Survivor_Original5S.wav,,,,,,,,,,,,,,,,,,,,,,,,,,,,,,,,,,,,,,,,,,,,,,,,,,,,,,,,,,
,,,,,361318,1,2024-06-17_09h43.48.883,experiment,2024.1.5,Win32,59.88023952,667045947eb812cbdacbf325,66704b7f7d8090ae79602e4a,,,,,,,,,,,,,,,,,,,,,,,,,,,,,,,,,,,,1020.9426,1027.0719,0.0,1.0,1.0,1.0,1.0,SoundStimuli/EyeOfTheTiger_Survivor_Cover5S.wav,,,,,,,,,,,,,,,,,,,,,,,,,,,,,,,,,,,,,,,,,,,,,,,,,,,,,,,,,,
,,,,,361318,1,2024-06-17_09h43.48.883,experiment,2024.1.5,Win32,59.88023952,667045947eb812cbdacbf325,66704b7f7d8090ae79602e4a,,,,,,,,,,,,,,,,,,,,,,,,,,,,,,,,,,,,,,,,,,,,1027.072,1027.9044,4.977777778,0.8174,0.0,20.0,20.0,11.0,1.0,song_indices/EyeOfTheTiger_Survivor.csv,,,,,,,,,,,,,,,,,,,,,,,,,,,,,,,,,,,,,,,,,,,,,,,,
,,,,,361318,1,2024-06-17_09h43.48.883,experiment,2024.1.5,Win32,59.88023952,667045947eb812cbdacbf325,66704b7f7d8090ae79602e4a,,,,,,,,,,,,,,,,,,,,,,,,,,,,,,,,,,,,1027.9049,1033.9877,0.0,0.0,0.0,0.0,1.0,SoundStimuli/GimmeShelter_RollingStones_Original5S.wav,,,,,,,,,,,,,,,,,,,,,,,,,,,,,,,,,,,,,,,,,,,,,,,,,,,,,,,,,,
,,,,,361318,1,2024-06-17_09h43.48.883,experiment,2024.1.5,Win32,59.88023952,667045947eb812cbdacbf325,66704b7f7d8090ae79602e4a,,,,,,,,,,,,,,,,,,,,,,,,,,,,,,,,,,,,1033.9928,1040.2044,0.0,1.0,1.0,1.0,1.0,SoundStimuli/GimmeShelter_RollingStones_Cover5S.wav,,,,,,,,,,,,,,,,,,,,,,,,,,,,,,,,,,,,,,,,,,,,,,,,,,,,,,,,,,
,,,,,361318,1,2024-06-17_09h43.48.883,experiment,2024.1.5,Win32,59.88023952,667045947eb812cbdacbf325,66704b7f7d8090ae79602e4a,,,,,,,,,,,,,,,,,,,,,,,,,,,,,,,,,,,,,,,,,,,,1040.2044,1041.3889,1.772222222,1.1791,0.0,21.0,21.0,20.0,1.0,song_indices/GimmeShelter_RollingStones.csv,,,,,,,,,,,,,,,,,,,,,,,,,,,,,,,,,,,,,,,,,,,,,,,,
,,,,,361318,1,2024-06-17_09h43.48.883,experiment,2024.1.5,Win32,59.88023952,667045947eb812cbdacbf325,66704b7f7d8090ae79602e4a,,,,,,,,,,,,,,,,,,,,,,,,,,,,,,,,,,,,1041.3893,1048.7543,0.0,0.0,0.0,0.0,1.0,SoundStimuli/Happy_PharellWilliams_Original5S.wav,,,,,,,,,,,,,,,,,,,,,,,,,,,,,,,,,,,,,,,,,,,,,,,,,,,,,,,,,,
,,,,,361318,1,2024-06-17_09h43.48.883,experiment,2024.1.5,Win32,59.88023952,667045947eb812cbdacbf325,66704b7f7d8090ae79602e4a,,,,,,,,,,,,,,,,,,,,,,,,,,,,,,,,,,,,1048.7593,1056.121,0.0,1.0,1.0,1.0,1.0,SoundStimuli/Happy_PharellWilliams_Cover5S.wav,,,,,,,,,,,,,,,,,,,,,,,,,,,,,,,,,,,,,,,,,,,,,,,,,,,,,,,,,,
,,,,,361318,1,2024-06-17_09h43.48.883,experiment,2024.1.5,Win32,59.88023952,667045947eb812cbdacbf325,66704b7f7d8090ae79602e4a,,,,,,,,,,,,,,,,,,,,,,,,,,,,,,,,,,,,,,,,,,,,1056.1211,1057.0543,3.983333333,0.9191,0.0,22.0,22.0,7.0,1.0,song_indices/Happy_PharellWilliams.csv,,,,,,,,,,,,,,,,,,,,,,,,,,,,,,,,,,,,,,,,,,,,,,,,
,,,,,361318,1,2024-06-17_09h43.48.883,experiment,2024.1.5,Win32,59.88023952,667045947eb812cbdacbf325,66704b7f7d8090ae79602e4a,,,,,,,,,,,,,,,,,,,,,,,,,,,,,,,,,,,,,,,,,,,,,,,,,,,,,,1057.0544,1057.0544,,,,0.0,2.0,2.0,1.0,1.0,choose_song_b2.csv,,,,,,,,,,,,,,,,,,,,,,,,,,,,,,,,,,,,,
,,,,,361318,1,2024-06-17_09h43.48.883,experiment,2024.1.5,Win32,59.88023952,667045947eb812cbdacbf325,66704b7f7d8090ae79602e4a,,,,,,,,,,,,,,,,,,,,,,,,,,,,,,,,,,,,,,,,,,,,,,,,,,,,,,,,,,,,,,,,,53.0,Item 2,Self taught guitarist as a young person. Writing music at a young age. ,Item 4,"Spotify, Youtube",4.0,5.0,"driving, playing games online",Always,Never,Never,Never,Sometimes,Sometimes,Never,Never,Always,Rarely,Always,Rarely,Never,Rarely,Never,Never,,Pop,R&B,Hip Hop,Depends on the songs. It seems to be going downhill.,,0.0,0.0,0.0,0.0,1.0,,
,,,,,361318,1,2024-06-17_09h43.48.883,experiment,2024.1.5,Win32,59.88023952,667045947eb812cbdacbf325,66704b7f7d8090ae79602e4a,,,,,,,,,,,,,,,,,,,,,,,,,,,,,,,,,,,,,,,,,,,,,,,,,,,,,,,,,,,,,,,,,,,,,,,,,,,,,,,,,,,,,,,,,,,,,,,,,,,,1209.6444,1211.9542
