welcome.started,welcome.stopped,space_to_continue.keys,space_to_continue.rt,space_to_continue.duration,participant,session,date,expName,psychopyVersion,OS,frameRate,STUDY_ID,SESSION_ID,consent.consent,consent.consent_recontact,consent_check.started,consent_check.stopped,calibration_ready.started,calibration_ready.stopped,cal_ready.keys,cal_ready.rt,cal_ready.duration,calibration.started,calibration.stopped,mouse.x,mouse.y,mouse.leftButton,mouse.midButton,mouse.rightButton,mouse.time,mouse.clicked_name,move_on.keys,move_on.rt,move_on.duration,instructions.started,instructions.stopped,next.keys,next.rt,next.duration,practice_trial.started,practice_trial.stopped,practice_slider.response,practice_slider.rt,ready.started,ready.stopped,key_resp.keys,key_resp.rt,key_resp.duration,play_sound.started,play_sound.stopped,trials.thisRepN,trials.thisTrialN,trials.thisN,trials.thisIndex,trials.ran,orig_or_cover,rating.started,rating.stopped,slider.response,slider.rt,songs.thisRepN,songs.thisTrialN,songs.thisN,songs.thisIndex,songs.ran,song_id,short_break.started,short_break.stopped,space_to_move_on.keys,space_to_move_on.rt,space_to_move_on.duration,blocks.thisRepN,blocks.thisTrialN,blocks.thisN,blocks.thisIndex,blocks.ran,block,survey.age,survey.musician,survey.music_making,survey.listen_time,survey.medium,survey.music_seeking,survey.music_choice,survey.activities,survey.question1.R&B,survey.question1.Country,survey.question1.Hip hop,survey.question1.Classic rock,survey.question1.Reggae,survey.question1.Jazz,survey.question1.Ambient,survey.question1.Classical,survey.question1.A cappella,survey.question1.Pop,survey.question1.Metal,survey.question1.Alternative rock,survey.question1.Electronic (EDM),survey.question1.Folk/indie,survey.question1.Latin,survey.question1.Disco,survey.other_genres,survey.genres_ranked.text1,survey.genres_ranked.text2,survey.genres_ranked.text3,survey.habit_change,survey.habits,experiment.thisRepN,experiment.thisTrialN,experiment.thisN,experiment.thisIndex,experiment.ran,goodbye.started,goodbye.stopped
0.0,3.584,space,3.561,,416998,1,2024-06-17_10h52.45.874,experiment,2024.1.5,Win32,60.09615385,667045947eb812cbdacbf325,66704acf6c1f215d8d485521,,,,,,,,,,,,,,,,,,,,,,,,,,,,,,,,,,,,,,,,,,,,,,,,,,,,,,,,,,,,,,,,,,,,,,,,,,,,,,,,,,,,,,,,,,,,,,,,,,,,,
,,,,,416998,1,2024-06-17_10h52.45.874,experiment,2024.1.5,Win32,60.09615385,667045947eb812cbdacbf325,66704acf6c1f215d8d485521,yes,yes,,,,,,,,,,,,,,,,,,,,,,,,,,,,,,,,,,,,,,,,,,,,,,,,,,,,,,,,,,,,,,,,,,,,,,,,,,,,,,,,,,,,,,,,,,,,,,,,,,,
,,,,,416998,1,2024-06-17_10h52.45.874,experiment,2024.1.5,Win32,60.09615385,667045947eb812cbdacbf325,66704acf6c1f215d8d485521,,,27.66,27.66,,,,,,,,,,,,,,,,,,,,,,,,,,,,,,,,,,,,,,,,,,,,,,,,,,,,,,,,,,,,,,,,,,,,,,,,,,,,,,,,,,,,,,,,,,,,,,,,,
,,,,,416998,1,2024-06-17_10h52.45.874,experiment,2024.1.5,Win32,60.09615385,667045947eb812cbdacbf325,66704acf6c1f215d8d485521,,,,,27.662,36.736,space,9.048,,36.736,93.272,"[0.41333333333333333,0.5533333333333333,0.5533333333333333,0.5533333333333333,0.47333333333333333,0.47333333333333333,-0.016666666666666666,-0.016666666666666666,0.0044444444444444444,0.0044444444444444444,0.0044444444444444444,0.0044444444444444444,-0.013333333333333334,-0.013333333333333334,-0.058833333333333335,-0.028833333333333332]","[-0.41333333333333333,-0.43222222222222223,-0.43222222222222223,-0.43222222222222223,-0.45666666666666667,-0.45666666666666667,-0.42333333333333334,-0.42333333333333334,-0.4488888888888889,-0.4488888888888889,-0.4488888888888889,-0.45,-0.43666666666666665,-0.43666666666666665,-0.449,-0.441]","[1,1,1,1,1,1,1,1,1,1,1,1,1,1,1,1]","[0,0,0,0,0,0,0,0,0,0,0,0,0,0,0,0]","[0,0,0,0,0,0,0,0,0,0,0,0,0,0,0,0]","[20.376999999999995,21.935000000000016,22.086,22.90400000000001,26.974000000000004,27.14399999999999,41.35200000000002,42.394999999999996,43.479,44.138999999999996,44.61399999999999,44.813,45.60200000000002,45.78099999999999,55.43799999999999,56.031000000000006]","[""play_button"",""play_button"",""play_button"",""play_button"",""play_button"",""play_button"",""play_button"",""play_button""]",right,46.482,,93.274,108.773,space,15.125,0.003,108.774,127.237,4.981,18.433,127.239,129.813,space,2.425,,129.858,136.109,0.0,0.0,0.0,1.0,1.0,SoundStimuli/TheSign_AceOfBase_Cover5S.wav,,,,,,,,,,,,,,,,,,,,,,,,,,,,,,,,,,,,,,,,,,,,,,,,,,,,,,,,,,
,,,,,416998,1,2024-06-17_10h52.45.874,experiment,2024.1.5,Win32,60.09615385,667045947eb812cbdacbf325,66704acf6c1f215d8d485521,,,,,,,,,,,,,,,,,,,,,,,,,,,,,,,,,,,,136.112,142.462,0.0,1.0,1.0,0.0,1.0,SoundStimuli/TheSign_AceOfBase_Original5S.wav,,,,,,,,,,,,,,,,,,,,,,,,,,,,,,,,,,,,,,,,,,,,,,,,,,,,,,,,,,
,,,,,416998,1,2024-06-17_10h52.45.874,experiment,2024.1.5,Win32,60.09615385,667045947eb812cbdacbf325,66704acf6c1f215d8d485521,,,,,,,,,,,,,,,,,,,,,,,,,,,,,,,,,,,,,,,,,,,,142.464,144.554,6.993,2.083,0.0,0.0,0.0,5.0,1.0,song_indices/TheSign_AceOfBase.csv,,,,,,,,,,,,,,,,,,,,,,,,,,,,,,,,,,,,,,,,,,,,,,,,
,,,,,416998,1,2024-06-17_10h52.45.874,experiment,2024.1.5,Win32,60.09615385,667045947eb812cbdacbf325,66704acf6c1f215d8d485521,,,,,,,,,,,,,,,,,,,,,,,,,,,,,,,,,,,,144.569,150.045,0.0,0.0,0.0,1.0,1.0,SoundStimuli/Superstition_StevieWonder_Cover5S.wav,,,,,,,,,,,,,,,,,,,,,,,,,,,,,,,,,,,,,,,,,,,,,,,,,,,,,,,,,,
,,,,,416998,1,2024-06-17_10h52.45.874,experiment,2024.1.5,Win32,60.09615385,667045947eb812cbdacbf325,66704acf6c1f215d8d485521,,,,,,,,,,,,,,,,,,,,,,,,,,,,,,,,,,,,150.045,156.328,0.0,1.0,1.0,0.0,1.0,SoundStimuli/Superstition_StevieWonder_Original5S.wav,,,,,,,,,,,,,,,,,,,,,,,,,,,,,,,,,,,,,,,,,,,,,,,,,,,,,,,,,,
,,,,,416998,1,2024-06-17_10h52.45.874,experiment,2024.1.5,Win32,60.09615385,667045947eb812cbdacbf325,66704acf6c1f215d8d485521,,,,,,,,,,,,,,,,,,,,,,,,,,,,,,,,,,,,,,,,,,,,156.331,158.575,3.001,2.23,0.0,1.0,1.0,15.0,1.0,song_indices/Superstition_StevieWonder.csv,,,,,,,,,,,,,,,,,,,,,,,,,,,,,,,,,,,,,,,,,,,,,,,,
,,,,,416998,1,2024-06-17_10h52.45.874,experiment,2024.1.5,Win32,60.09615385,667045947eb812cbdacbf325,66704acf6c1f215d8d485521,,,,,,,,,,,,,,,,,,,,,,,,,,,,,,,,,,,,158.599,164.756,0.0,0.0,0.0,0.0,1.0,SoundStimuli/Respect_ArethaFranklin_Original5S.wav,,,,,,,,,,,,,,,,,,,,,,,,,,,,,,,,,,,,,,,,,,,,,,,,,,,,,,,,,,
,,,,,416998,1,2024-06-17_10h52.45.874,experiment,2024.1.5,Win32,60.09615385,667045947eb812cbdacbf325,66704acf6c1f215d8d485521,,,,,,,,,,,,,,,,,,,,,,,,,,,,,,,,,,,,164.761,170.968,0.0,1.0,1.0,1.0,1.0,SoundStimuli/Respect_ArethaFranklin_Cover5S.wav,,,,,,,,,,,,,,,,,,,,,,,,,,,,,,,,,,,,,,,,,,,,,,,,,,,,,,,,,,
,,,,,416998,1,2024-06-17_10h52.45.874,experiment,2024.1.5,Win32,60.09615385,667045947eb812cbdacbf325,66704acf6c1f215d8d485521,,,,,,,,,,,,,,,,,,,,,,,,,,,,,,,,,,,,,,,,,,,,170.97,177.741,1.0,6.739,0.0,2.0,2.0,0.0,1.0,song_indices/Respect_ArethaFranklin.csv,,,,,,,,,,,,,,,,,,,,,,,,,,,,,,,,,,,,,,,,,,,,,,,,
,,,,,416998,1,2024-06-17_10h52.45.874,experiment,2024.1.5,Win32,60.09615385,667045947eb812cbdacbf325,66704acf6c1f215d8d485521,,,,,,,,,,,,,,,,,,,,,,,,,,,,,,,,,,,,177.746,184.824,0.0,0.0,0.0,1.0,1.0,SoundStimuli/SomebodyThatIUsedtoKnow_Gotye_Cover5S.wav,,,,,,,,,,,,,,,,,,,,,,,,,,,,,,,,,,,,,,,,,,,,,,,,,,,,,,,,,,
,,,,,416998,1,2024-06-17_10h52.45.874,experiment,2024.1.5,Win32,60.09615385,667045947eb812cbdacbf325,66704acf6c1f215d8d485521,,,,,,,,,,,,,,,,,,,,,,,,,,,,,,,,,,,,184.829,192.393,0.0,1.0,1.0,0.0,1.0,SoundStimuli/SomebodyThatIUsedtoKnow_Gotye_Original5S.wav,,,,,,,,,,,,,,,,,,,,,,,,,,,,,,,,,,,,,,,,,,,,,,,,,,,,,,,,,,
,,,,,416998,1,2024-06-17_10h52.45.874,experiment,2024.1.5,Win32,60.09615385,667045947eb812cbdacbf325,66704acf6c1f215d8d485521,,,,,,,,,,,,,,,,,,,,,,,,,,,,,,,,,,,,,,,,,,,,192.394,194.261,6.981,1.851,0.0,3.0,3.0,7.0,1.0,song_indices/SomebodyThatIUsedtoKnow_Gotye.csv,,,,,,,,,,,,,,,,,,,,,,,,,,,,,,,,,,,,,,,,,,,,,,,,
,,,,,416998,1,2024-06-17_10h52.45.874,experiment,2024.1.5,Win32,60.09615385,667045947eb812cbdacbf325,66704acf6c1f215d8d485521,,,,,,,,,,,,,,,,,,,,,,,,,,,,,,,,,,,,194.267,200.386,0.0,0.0,0.0,0.0,1.0,SoundStimuli/HowDoILive_LeAnnRimes_Original5S.wav,,,,,,,,,,,,,,,,,,,,,,,,,,,,,,,,,,,,,,,,,,,,,,,,,,,,,,,,,,
,,,,,416998,1,2024-06-17_10h52.45.874,experiment,2024.1.5,Win32,60.09615385,667045947eb812cbdacbf325,66704acf6c1f215d8d485521,,,,,,,,,,,,,,,,,,,,,,,,,,,,,,,,,,,,200.387,206.091,0.0,1.0,1.0,1.0,1.0,SoundStimuli/HowDoILive_LeAnnRimes_Cover5S.wav,,,,,,,,,,,,,,,,,,,,,,,,,,,,,,,,,,,,,,,,,,,,,,,,,,,,,,,,,,
,,,,,416998,1,2024-06-17_10h52.45.874,experiment,2024.1.5,Win32,60.09615385,667045947eb812cbdacbf325,66704acf6c1f215d8d485521,,,,,,,,,,,,,,,,,,,,,,,,,,,,,,,,,,,,,,,,,,,,206.093,208.325,6.967,2.202,0.0,4.0,4.0,17.0,1.0,song_indices/HowDoILive_LeAnnRimes.csv,,,,,,,,,,,,,,,,,,,,,,,,,,,,,,,,,,,,,,,,,,,,,,,,
,,,,,416998,1,2024-06-17_10h52.45.874,experiment,2024.1.5,Win32,60.09615385,667045947eb812cbdacbf325,66704acf6c1f215d8d485521,,,,,,,,,,,,,,,,,,,,,,,,,,,,,,,,,,,,208.33,214.459,0.0,0.0,0.0,0.0,1.0,SoundStimuli/Irreplaceable_Beyonce_Original5S.wav,,,,,,,,,,,,,,,,,,,,,,,,,,,,,,,,,,,,,,,,,,,,,,,,,,,,,,,,,,
,,,,,416998,1,2024-06-17_10h52.45.874,experiment,2024.1.5,Win32,60.09615385,667045947eb812cbdacbf325,66704acf6c1f215d8d485521,,,,,,,,,,,,,,,,,,,,,,,,,,,,,,,,,,,,214.461,220.58,0.0,1.0,1.0,1.0,1.0,SoundStimuli/Irreplaceable_Beyonce_Cover5S.wav,,,,,,,,,,,,,,,,,,,,,,,,,,,,,,,,,,,,,,,,,,,,,,,,,,,,,,,,,,
,,,,,416998,1,2024-06-17_10h52.45.874,experiment,2024.1.5,Win32,60.09615385,667045947eb812cbdacbf325,66704acf6c1f215d8d485521,,,,,,,,,,,,,,,,,,,,,,,,,,,,,,,,,,,,,,,,,,,,220.58,223.149,6.973,2.553,0.0,5.0,5.0,19.0,1.0,song_indices/Irreplaceable_Beyonce.csv,,,,,,,,,,,,,,,,,,,,,,,,,,,,,,,,,,,,,,,,,,,,,,,,
,,,,,416998,1,2024-06-17_10h52.45.874,experiment,2024.1.5,Win32,60.09615385,667045947eb812cbdacbf325,66704acf6c1f215d8d485521,,,,,,,,,,,,,,,,,,,,,,,,,,,,,,,,,,,,223.162,230.21,0.0,0.0,0.0,1.0,1.0,SoundStimuli/PokerFace_LadyGaga_Cover5S.wav,,,,,,,,,,,,,,,,,,,,,,,,,,,,,,,,,,,,,,,,,,,,,,,,,,,,,,,,,,
,,,,,416998,1,2024-06-17_10h52.45.874,experiment,2024.1.5,Win32,60.09615385,667045947eb812cbdacbf325,66704acf6c1f215d8d485521,,,,,,,,,,,,,,,,,,,,,,,,,,,,,,,,,,,,230.216,237.436,0.0,1.0,1.0,0.0,1.0,SoundStimuli/PokerFace_LadyGaga_Original5S.wav,,,,,,,,,,,,,,,,,,,,,,,,,,,,,,,,,,,,,,,,,,,,,,,,,,,,,,,,,,
,,,,,416998,1,2024-06-17_10h52.45.874,experiment,2024.1.5,Win32,60.09615385,667045947eb812cbdacbf325,66704acf6c1f215d8d485521,,,,,,,,,,,,,,,,,,,,,,,,,,,,,,,,,,,,,,,,,,,,237.437,241.476,1.961,4.035,0.0,6.0,6.0,23.0,1.0,song_indices/PokerFace_LadyGaga.csv,,,,,,,,,,,,,,,,,,,,,,,,,,,,,,,,,,,,,,,,,,,,,,,,
,,,,,416998,1,2024-06-17_10h52.45.874,experiment,2024.1.5,Win32,60.09615385,667045947eb812cbdacbf325,66704acf6c1f215d8d485521,,,,,,,,,,,,,,,,,,,,,,,,,,,,,,,,,,,,241.488,248.175,0.0,0.0,0.0,0.0,1.0,SoundStimuli/BlindingLights_TheWeeknd_Original5S.wav,,,,,,,,,,,,,,,,,,,,,,,,,,,,,,,,,,,,,,,,,,,,,,,,,,,,,,,,,,
,,,,,416998,1,2024-06-17_10h52.45.874,experiment,2024.1.5,Win32,60.09615385,667045947eb812cbdacbf325,66704acf6c1f215d8d485521,,,,,,,,,,,,,,,,,,,,,,,,,,,,,,,,,,,,248.175,255.14,0.0,1.0,1.0,1.0,1.0,SoundStimuli/BlindingLights_TheWeeknd_Cover5S.wav,,,,,,,,,,,,,,,,,,,,,,,,,,,,,,,,,,,,,,,,,,,,,,,,,,,,,,,,,,
,,,,,416998,1,2024-06-17_10h52.45.874,experiment,2024.1.5,Win32,60.09615385,667045947eb812cbdacbf325,66704acf6c1f215d8d485521,,,,,,,,,,,,,,,,,,,,,,,,,,,,,,,,,,,,,,,,,,,,255.144,257.285,3.027,2.108,0.0,7.0,7.0,21.0,1.0,song_indices/BlindingLights_TheWeeknd.csv,,,,,,,,,,,,,,,,,,,,,,,,,,,,,,,,,,,,,,,,,,,,,,,,
,,,,,416998,1,2024-06-17_10h52.45.874,experiment,2024.1.5,Win32,60.09615385,667045947eb812cbdacbf325,66704acf6c1f215d8d485521,,,,,,,,,,,,,,,,,,,,,,,,,,,,,,,,,,,,257.29,265.121,0.0,0.0,0.0,1.0,1.0,SoundStimuli/TikTok_Kesha_Cover5S.wav,,,,,,,,,,,,,,,,,,,,,,,,,,,,,,,,,,,,,,,,,,,,,,,,,,,,,,,,,,
,,,,,416998,1,2024-06-17_10h52.45.874,experiment,2024.1.5,Win32,60.09615385,667045947eb812cbdacbf325,66704acf6c1f215d8d485521,,,,,,,,,,,,,,,,,,,,,,,,,,,,,,,,,,,,265.124,271.539,0.0,1.0,1.0,0.0,1.0,SoundStimuli/TikTok_Kesha_Original5S.wav,,,,,,,,,,,,,,,,,,,,,,,,,,,,,,,,,,,,,,,,,,,,,,,,,,,,,,,,,,
,,,,,416998,1,2024-06-17_10h52.45.874,experiment,2024.1.5,Win32,60.09615385,667045947eb812cbdacbf325,66704acf6c1f215d8d485521,,,,,,,,,,,,,,,,,,,,,,,,,,,,,,,,,,,,,,,,,,,,271.54,278.68,1.007,7.12,0.0,8.0,8.0,3.0,1.0,song_indices/TikTok_Kesha.csv,,,,,,,,,,,,,,,,,,,,,,,,,,,,,,,,,,,,,,,,,,,,,,,,
,,,,,416998,1,2024-06-17_10h52.45.874,experiment,2024.1.5,Win32,60.09615385,667045947eb812cbdacbf325,66704acf6c1f215d8d485521,,,,,,,,,,,,,,,,,,,,,,,,,,,,,,,,,,,,278.691,284.985,0.0,0.0,0.0,0.0,1.0,SoundStimuli/LeFreak_Chic_Original5S.wav,,,,,,,,,,,,,,,,,,,,,,,,,,,,,,,,,,,,,,,,,,,,,,,,,,,,,,,,,,
,,,,,416998,1,2024-06-17_10h52.45.874,experiment,2024.1.5,Win32,60.09615385,667045947eb812cbdacbf325,66704acf6c1f215d8d485521,,,,,,,,,,,,,,,,,,,,,,,,,,,,,,,,,,,,284.986,290.745,0.0,1.0,1.0,1.0,1.0,SoundStimuli/LeFreak_Chic_Cover5S.wav,,,,,,,,,,,,,,,,,,,,,,,,,,,,,,,,,,,,,,,,,,,,,,,,,,,,,,,,,,
,,,,,416998,1,2024-06-17_10h52.45.874,experiment,2024.1.5,Win32,60.09615385,667045947eb812cbdacbf325,66704acf6c1f215d8d485521,,,,,,,,,,,,,,,,,,,,,,,,,,,,,,,,,,,,,,,,,,,,290.749,294.105,1.013,3.329,0.0,9.0,9.0,11.0,1.0,song_indices/LeFreak_Chic.csv,,,,,,,,,,,,,,,,,,,,,,,,,,,,,,,,,,,,,,,,,,,,,,,,
,,,,,416998,1,2024-06-17_10h52.45.874,experiment,2024.1.5,Win32,60.09615385,667045947eb812cbdacbf325,66704acf6c1f215d8d485521,,,,,,,,,,,,,,,,,,,,,,,,,,,,,,,,,,,,294.121,301.097,0.0,0.0,0.0,0.0,1.0,SoundStimuli/BlurredLines_RobinThicke_Original5S.wav,,,,,,,,,,,,,,,,,,,,,,,,,,,,,,,,,,,,,,,,,,,,,,,,,,,,,,,,,,
,,,,,416998,1,2024-06-17_10h52.45.874,experiment,2024.1.5,Win32,60.09615385,667045947eb812cbdacbf325,66704acf6c1f215d8d485521,,,,,,,,,,,,,,,,,,,,,,,,,,,,,,,,,,,,301.1,308.452,0.0,1.0,1.0,1.0,1.0,SoundStimuli/BlurredLines_RobinThicke_Cover5S.wav,,,,,,,,,,,,,,,,,,,,,,,,,,,,,,,,,,,,,,,,,,,,,,,,,,,,,,,,,,
,,,,,416998,1,2024-06-17_10h52.45.874,experiment,2024.1.5,Win32,60.09615385,667045947eb812cbdacbf325,66704acf6c1f215d8d485521,,,,,,,,,,,,,,,,,,,,,,,,,,,,,,,,,,,,,,,,,,,,308.453,310.617,5.987,2.15,0.0,10.0,10.0,9.0,1.0,song_indices/BlurredLines_RobinThicke.csv,,,,,,,,,,,,,,,,,,,,,,,,,,,,,,,,,,,,,,,,,,,,,,,,
,,,,,416998,1,2024-06-17_10h52.45.874,experiment,2024.1.5,Win32,60.09615385,667045947eb812cbdacbf325,66704acf6c1f215d8d485521,,,,,,,,,,,,,,,,,,,,,,,,,,,,,,,,,,,,310.628,317.747,0.0,0.0,0.0,1.0,1.0,SoundStimuli/Dilemma_NellyKellyRowland_Cover5S.wav,,,,,,,,,,,,,,,,,,,,,,,,,,,,,,,,,,,,,,,,,,,,,,,,,,,,,,,,,,
,,,,,416998,1,2024-06-17_10h52.45.874,experiment,2024.1.5,Win32,60.09615385,667045947eb812cbdacbf325,66704acf6c1f215d8d485521,,,,,,,,,,,,,,,,,,,,,,,,,,,,,,,,,,,,317.75,324.11,0.0,1.0,1.0,0.0,1.0,SoundStimuli/Dilemma_NellyKellyRowland_Original5S.wav,,,,,,,,,,,,,,,,,,,,,,,,,,,,,,,,,,,,,,,,,,,,,,,,,,,,,,,,,,
,,,,,416998,1,2024-06-17_10h52.45.874,experiment,2024.1.5,Win32,60.09615385,667045947eb812cbdacbf325,66704acf6c1f215d8d485521,,,,,,,,,,,,,,,,,,,,,,,,,,,,,,,,,,,,,,,,,,,,324.114,328.303,2.987,4.173,0.0,11.0,11.0,2.0,1.0,song_indices/Dilemma_NellyKellyRowland.csv,,,,,,,,,,,,,,,,,,,,,,,,,,,,,,,,,,,,,,,,,,,,,,,,
,,,,,416998,1,2024-06-17_10h52.45.874,experiment,2024.1.5,Win32,60.09615385,667045947eb812cbdacbf325,66704acf6c1f215d8d485521,,,,,,,,,,,,,,,,,,,,,,,,,,,,,,,,,,,,328.308,334.838,0.0,0.0,0.0,0.0,1.0,SoundStimuli/LetsGetItOn_MarvinGaye_Original5S.wav,,,,,,,,,,,,,,,,,,,,,,,,,,,,,,,,,,,,,,,,,,,,,,,,,,,,,,,,,,
,,,,,416998,1,2024-06-17_10h52.45.874,experiment,2024.1.5,Win32,60.09615385,667045947eb812cbdacbf325,66704acf6c1f215d8d485521,,,,,,,,,,,,,,,,,,,,,,,,,,,,,,,,,,,,334.843,341.632,0.0,1.0,1.0,1.0,1.0,SoundStimuli/LetsGetItOn_MarvinGaye_Cover5S.wav,,,,,,,,,,,,,,,,,,,,,,,,,,,,,,,,,,,,,,,,,,,,,,,,,,,,,,,,,,
,,,,,416998,1,2024-06-17_10h52.45.874,experiment,2024.1.5,Win32,60.09615385,667045947eb812cbdacbf325,66704acf6c1f215d8d485521,,,,,,,,,,,,,,,,,,,,,,,,,,,,,,,,,,,,,,,,,,,,341.634,349.309,1.001,7.63,0.0,12.0,12.0,20.0,1.0,song_indices/LetsGetItOn_MarvinGaye.csv,,,,,,,,,,,,,,,,,,,,,,,,,,,,,,,,,,,,,,,,,,,,,,,,
,,,,,416998,1,2024-06-17_10h52.45.874,experiment,2024.1.5,Win32,60.09615385,667045947eb812cbdacbf325,66704acf6c1f215d8d485521,,,,,,,,,,,,,,,,,,,,,,,,,,,,,,,,,,,,349.323,355.591,0.0,0.0,0.0,0.0,1.0,SoundStimuli/JoyToTheWorld_ThreeDogNight_Original5S.wav,,,,,,,,,,,,,,,,,,,,,,,,,,,,,,,,,,,,,,,,,,,,,,,,,,,,,,,,,,
,,,,,416998,1,2024-06-17_10h52.45.874,experiment,2024.1.5,Win32,60.09615385,667045947eb812cbdacbf325,66704acf6c1f215d8d485521,,,,,,,,,,,,,,,,,,,,,,,,,,,,,,,,,,,,355.602,360.906,0.0,1.0,1.0,1.0,1.0,SoundStimuli/JoyToTheWorld_ThreeDogNight_Cover5S.wav,,,,,,,,,,,,,,,,,,,,,,,,,,,,,,,,,,,,,,,,,,,,,,,,,,,,,,,,,,
,,,,,416998,1,2024-06-17_10h52.45.874,experiment,2024.1.5,Win32,60.09615385,667045947eb812cbdacbf325,66704acf6c1f215d8d485521,,,,,,,,,,,,,,,,,,,,,,,,,,,,,,,,,,,,,,,,,,,,360.907,362.574,6.987,1.661,0.0,13.0,13.0,8.0,1.0,song_indices/JoyToTheWorld_ThreeDogNight.csv,,,,,,,,,,,,,,,,,,,,,,,,,,,,,,,,,,,,,,,,,,,,,,,,
,,,,,416998,1,2024-06-17_10h52.45.874,experiment,2024.1.5,Win32,60.09615385,667045947eb812cbdacbf325,66704acf6c1f215d8d485521,,,,,,,,,,,,,,,,,,,,,,,,,,,,,,,,,,,,362.595,366.75,0.0,0.0,0.0,1.0,1.0,SoundStimuli/UnbreakMyHeart_ToniBraxton_Cover5S.wav,,,,,,,,,,,,,,,,,,,,,,,,,,,,,,,,,,,,,,,,,,,,,,,,,,,,,,,,,,
,,,,,416998,1,2024-06-17_10h52.45.874,experiment,2024.1.5,Win32,60.09615385,667045947eb812cbdacbf325,66704acf6c1f215d8d485521,,,,,,,,,,,,,,,,,,,,,,,,,,,,,,,,,,,,366.754,373.036,0.0,1.0,1.0,0.0,1.0,SoundStimuli/UnbreakMyHeart_ToniBraxton_Original5S.wav,,,,,,,,,,,,,,,,,,,,,,,,,,,,,,,,,,,,,,,,,,,,,,,,,,,,,,,,,,
,,,,,416998,1,2024-06-17_10h52.45.874,experiment,2024.1.5,Win32,60.09615385,667045947eb812cbdacbf325,66704acf6c1f215d8d485521,,,,,,,,,,,,,,,,,,,,,,,,,,,,,,,,,,,,,,,,,,,,373.037,379.392,4.987,6.333,0.0,14.0,14.0,16.0,1.0,song_indices/UnbreakMyHeart_ToniBraxton.csv,,,,,,,,,,,,,,,,,,,,,,,,,,,,,,,,,,,,,,,,,,,,,,,,
,,,,,416998,1,2024-06-17_10h52.45.874,experiment,2024.1.5,Win32,60.09615385,667045947eb812cbdacbf325,66704acf6c1f215d8d485521,,,,,,,,,,,,,,,,,,,,,,,,,,,,,,,,,,,,379.407,385.726,0.0,0.0,0.0,0.0,1.0,SoundStimuli/ComeAndGetYourLove_Redbone_Original5S.wav,,,,,,,,,,,,,,,,,,,,,,,,,,,,,,,,,,,,,,,,,,,,,,,,,,,,,,,,,,
,,,,,416998,1,2024-06-17_10h52.45.874,experiment,2024.1.5,Win32,60.09615385,667045947eb812cbdacbf325,66704acf6c1f215d8d485521,,,,,,,,,,,,,,,,,,,,,,,,,,,,,,,,,,,,385.733,392.933,0.0,1.0,1.0,1.0,1.0,SoundStimuli/ComeAndGetYourLove_Redbone_Cover5S.wav,,,,,,,,,,,,,,,,,,,,,,,,,,,,,,,,,,,,,,,,,,,,,,,,,,,,,,,,,,
,,,,,416998,1,2024-06-17_10h52.45.874,experiment,2024.1.5,Win32,60.09615385,667045947eb812cbdacbf325,66704acf6c1f215d8d485521,,,,,,,,,,,,,,,,,,,,,,,,,,,,,,,,,,,,,,,,,,,,392.94,396.527,5.967,3.565,0.0,15.0,15.0,22.0,1.0,song_indices/ComeAndGetYourLove_Redbone.csv,,,,,,,,,,,,,,,,,,,,,,,,,,,,,,,,,,,,,,,,,,,,,,,,
,,,,,416998,1,2024-06-17_10h52.45.874,experiment,2024.1.5,Win32,60.09615385,667045947eb812cbdacbf325,66704acf6c1f215d8d485521,,,,,,,,,,,,,,,,,,,,,,,,,,,,,,,,,,,,396.543,402.792,0.0,0.0,0.0,0.0,1.0,SoundStimuli/Weak_SWV_Original5S.wav,,,,,,,,,,,,,,,,,,,,,,,,,,,,,,,,,,,,,,,,,,,,,,,,,,,,,,,,,,
,,,,,416998,1,2024-06-17_10h52.45.874,experiment,2024.1.5,Win32,60.09615385,667045947eb812cbdacbf325,66704acf6c1f215d8d485521,,,,,,,,,,,,,,,,,,,,,,,,,,,,,,,,,,,,402.797,409.436,0.0,1.0,1.0,1.0,1.0,SoundStimuli/Weak_SWV_Cover5S.wav,,,,,,,,,,,,,,,,,,,,,,,,,,,,,,,,,,,,,,,,,,,,,,,,,,,,,,,,,,
,,,,,416998,1,2024-06-17_10h52.45.874,experiment,2024.1.5,Win32,60.09615385,667045947eb812cbdacbf325,66704acf6c1f215d8d485521,,,,,,,,,,,,,,,,,,,,,,,,,,,,,,,,,,,,,,,,,,,,409.439,412.006,6.007,2.552,0.0,16.0,16.0,6.0,1.0,song_indices/Weak_SWV.csv,,,,,,,,,,,,,,,,,,,,,,,,,,,,,,,,,,,,,,,,,,,,,,,,
,,,,,416998,1,2024-06-17_10h52.45.874,experiment,2024.1.5,Win32,60.09615385,667045947eb812cbdacbf325,66704acf6c1f215d8d485521,,,,,,,,,,,,,,,,,,,,,,,,,,,,,,,,,,,,412.024,418.026,0.0,0.0,0.0,1.0,1.0,SoundStimuli/Levitating_DuaLipa_Cover5S.wav,,,,,,,,,,,,,,,,,,,,,,,,,,,,,,,,,,,,,,,,,,,,,,,,,,,,,,,,,,
,,,,,416998,1,2024-06-17_10h52.45.874,experiment,2024.1.5,Win32,60.09615385,667045947eb812cbdacbf325,66704acf6c1f215d8d485521,,,,,,,,,,,,,,,,,,,,,,,,,,,,,,,,,,,,418.03,424.228,0.0,1.0,1.0,0.0,1.0,SoundStimuli/Levitating_DuaLipa_Original5S.wav,,,,,,,,,,,,,,,,,,,,,,,,,,,,,,,,,,,,,,,,,,,,,,,,,,,,,,,,,,
,,,,,416998,1,2024-06-17_10h52.45.874,experiment,2024.1.5,Win32,60.09615385,667045947eb812cbdacbf325,66704acf6c1f215d8d485521,,,,,,,,,,,,,,,,,,,,,,,,,,,,,,,,,,,,,,,,,,,,424.231,426.361,6.007,2.11,0.0,17.0,17.0,10.0,1.0,song_indices/Levitating_DuaLipa.csv,,,,,,,,,,,,,,,,,,,,,,,,,,,,,,,,,,,,,,,,,,,,,,,,
,,,,,416998,1,2024-06-17_10h52.45.874,experiment,2024.1.5,Win32,60.09615385,667045947eb812cbdacbf325,66704acf6c1f215d8d485521,,,,,,,,,,,,,,,,,,,,,,,,,,,,,,,,,,,,426.379,432.596,0.0,0.0,0.0,0.0,1.0,SoundStimuli/YouLightUpMyLife_DebbyBoone_Original5S.wav,,,,,,,,,,,,,,,,,,,,,,,,,,,,,,,,,,,,,,,,,,,,,,,,,,,,,,,,,,
,,,,,416998,1,2024-06-17_10h52.45.874,experiment,2024.1.5,Win32,60.09615385,667045947eb812cbdacbf325,66704acf6c1f215d8d485521,,,,,,,,,,,,,,,,,,,,,,,,,,,,,,,,,,,,432.6,439.231,0.0,1.0,1.0,1.0,1.0,SoundStimuli/YouLightUpMyLife_DebbyBoone_Cover5S.wav,,,,,,,,,,,,,,,,,,,,,,,,,,,,,,,,,,,,,,,,,,,,,,,,,,,,,,,,,,
,,,,,416998,1,2024-06-17_10h52.45.874,experiment,2024.1.5,Win32,60.09615385,667045947eb812cbdacbf325,66704acf6c1f215d8d485521,,,,,,,,,,,,,,,,,,,,,,,,,,,,,,,,,,,,,,,,,,,,439.232,441.952,6.987,2.702,0.0,18.0,18.0,4.0,1.0,song_indices/YouLightUpMyLife_DebbyBoone.csv,,,,,,,,,,,,,,,,,,,,,,,,,,,,,,,,,,,,,,,,,,,,,,,,
,,,,,416998,1,2024-06-17_10h52.45.874,experiment,2024.1.5,Win32,60.09615385,667045947eb812cbdacbf325,66704acf6c1f215d8d485521,,,,,,,,,,,,,,,,,,,,,,,,,,,,,,,,,,,,441.965,448.016,0.0,0.0,0.0,1.0,1.0,SoundStimuli/SaveYourTears_TheWeekndArianaGrande_Cover5S.wav,,,,,,,,,,,,,,,,,,,,,,,,,,,,,,,,,,,,,,,,,,,,,,,,,,,,,,,,,,
,,,,,416998,1,2024-06-17_10h52.45.874,experiment,2024.1.5,Win32,60.09615385,667045947eb812cbdacbf325,66704acf6c1f215d8d485521,,,,,,,,,,,,,,,,,,,,,,,,,,,,,,,,,,,,448.019,454.502,0.0,1.0,1.0,0.0,1.0,SoundStimuli/SaveYourTears_TheWeekndArianaGrande_Original5S.wav,,,,,,,,,,,,,,,,,,,,,,,,,,,,,,,,,,,,,,,,,,,,,,,,,,,,,,,,,,
,,,,,416998,1,2024-06-17_10h52.45.874,experiment,2024.1.5,Win32,60.09615385,667045947eb812cbdacbf325,66704acf6c1f215d8d485521,,,,,,,,,,,,,,,,,,,,,,,,,,,,,,,,,,,,,,,,,,,,454.51,456.717,1.027,2.196,0.0,19.0,19.0,12.0,1.0,song_indices/SaveYourTears_TheWeekndArianaGrande.csv,,,,,,,,,,,,,,,,,,,,,,,,,,,,,,,,,,,,,,,,,,,,,,,,
,,,,,416998,1,2024-06-17_10h52.45.874,experiment,2024.1.5,Win32,60.09615385,667045947eb812cbdacbf325,66704acf6c1f215d8d485521,,,,,,,,,,,,,,,,,,,,,,,,,,,,,,,,,,,,456.737,462.96,0.0,0.0,0.0,1.0,1.0,SoundStimuli/TossinAndTurnin_BobbyLewis_Cover5S.wav,,,,,,,,,,,,,,,,,,,,,,,,,,,,,,,,,,,,,,,,,,,,,,,,,,,,,,,,,,
,,,,,416998,1,2024-06-17_10h52.45.874,experiment,2024.1.5,Win32,60.09615385,667045947eb812cbdacbf325,66704acf6c1f215d8d485521,,,,,,,,,,,,,,,,,,,,,,,,,,,,,,,,,,,,462.965,469.187,0.0,1.0,1.0,0.0,1.0,SoundStimuli/TossinAndTurnin_BobbyLewis_Original5S.wav,,,,,,,,,,,,,,,,,,,,,,,,,,,,,,,,,,,,,,,,,,,,,,,,,,,,,,,,,,
,,,,,416998,1,2024-06-17_10h52.45.874,experiment,2024.1.5,Win32,60.09615385,667045947eb812cbdacbf325,66704acf6c1f215d8d485521,,,,,,,,,,,,,,,,,,,,,,,,,,,,,,,,,,,,,,,,,,,,469.189,471.446,2.001,2.25,0.0,20.0,20.0,13.0,1.0,song_indices/TossinAndTurnin_BobbyLewis.csv,,,,,,,,,,,,,,,,,,,,,,,,,,,,,,,,,,,,,,,,,,,,,,,,
,,,,,416998,1,2024-06-17_10h52.45.874,experiment,2024.1.5,Win32,60.09615385,667045947eb812cbdacbf325,66704acf6c1f215d8d485521,,,,,,,,,,,,,,,,,,,,,,,,,,,,,,,,,,,,471.453,479.112,0.0,0.0,0.0,0.0,1.0,SoundStimuli/Kiss_Prince_Original5S.wav,,,,,,,,,,,,,,,,,,,,,,,,,,,,,,,,,,,,,,,,,,,,,,,,,,,,,,,,,,
,,,,,416998,1,2024-06-17_10h52.45.874,experiment,2024.1.5,Win32,60.09615385,667045947eb812cbdacbf325,66704acf6c1f215d8d485521,,,,,,,,,,,,,,,,,,,,,,,,,,,,,,,,,,,,479.115,485.583,0.0,1.0,1.0,1.0,1.0,SoundStimuli/Kiss_Prince_Cover5S.wav,,,,,,,,,,,,,,,,,,,,,,,,,,,,,,,,,,,,,,,,,,,,,,,,,,,,,,,,,,
,,,,,416998,1,2024-06-17_10h52.45.874,experiment,2024.1.5,Win32,60.09615385,667045947eb812cbdacbf325,66704acf6c1f215d8d485521,,,,,,,,,,,,,,,,,,,,,,,,,,,,,,,,,,,,,,,,,,,,485.586,487.102,2.001,1.499,0.0,21.0,21.0,14.0,1.0,song_indices/Kiss_Prince.csv,,,,,,,,,,,,,,,,,,,,,,,,,,,,,,,,,,,,,,,,,,,,,,,,
,,,,,416998,1,2024-06-17_10h52.45.874,experiment,2024.1.5,Win32,60.09615385,667045947eb812cbdacbf325,66704acf6c1f215d8d485521,,,,,,,,,,,,,,,,,,,,,,,,,,,,,,,,,,,,487.123,493.747,0.0,0.0,0.0,0.0,1.0,SoundStimuli/FlashdanceWhatAFeeling_IreneCara_Original5S.wav,,,,,,,,,,,,,,,,,,,,,,,,,,,,,,,,,,,,,,,,,,,,,,,,,,,,,,,,,,
,,,,,416998,1,2024-06-17_10h52.45.874,experiment,2024.1.5,Win32,60.09615385,667045947eb812cbdacbf325,66704acf6c1f215d8d485521,,,,,,,,,,,,,,,,,,,,,,,,,,,,,,,,,,,,493.748,501.238,0.0,1.0,1.0,1.0,1.0,SoundStimuli/FlashdanceWhatAFeeling_IreneCara_Cover5S.wav,,,,,,,,,,,,,,,,,,,,,,,,,,,,,,,,,,,,,,,,,,,,,,,,,,,,,,,,,,
,,,,,416998,1,2024-06-17_10h52.45.874,experiment,2024.1.5,Win32,60.09615385,667045947eb812cbdacbf325,66704acf6c1f215d8d485521,,,,,,,,,,,,,,,,,,,,,,,,,,,,,,,,,,,,,,,,,,,,501.24,507.676,4.973,6.419,0.0,22.0,22.0,18.0,1.0,song_indices/FlashdanceWhatAFeeling_IreneCara.csv,,,,,,,,,,,,,,,,,,,,,,,,,,,,,,,,,,,,,,,,,,,,,,,,
,,,,,416998,1,2024-06-17_10h52.45.874,experiment,2024.1.5,Win32,60.09615385,667045947eb812cbdacbf325,66704acf6c1f215d8d485521,,,,,,,,,,,,,,,,,,,,,,,,,,,,,,,,,,,,507.688,514.361,0.0,0.0,0.0,0.0,1.0,SoundStimuli/Dreams_FleetwoodMac_Original5S.wav,,,,,,,,,,,,,,,,,,,,,,,,,,,,,,,,,,,,,,,,,,,,,,,,,,,,,,,,,,
,,,,,416998,1,2024-06-17_10h52.45.874,experiment,2024.1.5,Win32,60.09615385,667045947eb812cbdacbf325,66704acf6c1f215d8d485521,,,,,,,,,,,,,,,,,,,,,,,,,,,,,,,,,,,,514.376,522.399,0.0,1.0,1.0,1.0,1.0,SoundStimuli/Dreams_FleetwoodMac_Cover5S.wav,,,,,,,,,,,,,,,,,,,,,,,,,,,,,,,,,,,,,,,,,,,,,,,,,,,,,,,,,,
,,,,,416998,1,2024-06-17_10h52.45.874,experiment,2024.1.5,Win32,60.09615385,667045947eb812cbdacbf325,66704acf6c1f215d8d485521,,,,,,,,,,,,,,,,,,,,,,,,,,,,,,,,,,,,,,,,,,,,522.401,524.414,5.993,1.998,0.0,23.0,23.0,1.0,1.0,song_indices/Dreams_FleetwoodMac.csv,,,,,,,,,,,,,,,,,,,,,,,,,,,,,,,,,,,,,,,,,,,,,,,,
,,,,,416998,1,2024-06-17_10h52.45.874,experiment,2024.1.5,Win32,60.09615385,667045947eb812cbdacbf325,66704acf6c1f215d8d485521,,,,,,,,,,,,,,,,,,,,,,,,,,,,,,,,,,,,,,,,,,,,,,,,,,,,,,524.415,526.64,space,2.063,,0.0,0.0,0.0,2.0,1.0,choose_song_b3.csv,,,,,,,,,,,,,,,,,,,,,,,,,,,,,,,,,,,,,
,,,,,416998,1,2024-06-17_10h52.45.874,experiment,2024.1.5,Win32,60.09615385,667045947eb812cbdacbf325,66704acf6c1f215d8d485521,,,,,,,,,,,,,,,,,,,,,,,,,,,,,,,,,,,,526.672,532.824,0.0,0.0,0.0,0.0,1.0,SoundStimuli/StayinAlive_BeeGees_Original5S.wav,,,,,,,,,,,,,,,,,,,,,,,,,,,,,,,,,,,,,,,,,,,,,,,,,,,,,,,,,,
,,,,,416998,1,2024-06-17_10h52.45.874,experiment,2024.1.5,Win32,60.09615385,667045947eb812cbdacbf325,66704acf6c1f215d8d485521,,,,,,,,,,,,,,,,,,,,,,,,,,,,,,,,,,,,532.826,538.785,0.0,1.0,1.0,1.0,1.0,SoundStimuli/StayinAlive_BeeGees_Cover5S.wav,,,,,,,,,,,,,,,,,,,,,,,,,,,,,,,,,,,,,,,,,,,,,,,,,,,,,,,,,,
,,,,,416998,1,2024-06-17_10h52.45.874,experiment,2024.1.5,Win32,60.09615385,667045947eb812cbdacbf325,66704acf6c1f215d8d485521,,,,,,,,,,,,,,,,,,,,,,,,,,,,,,,,,,,,,,,,,,,,538.79,543.586,6.981,4.787,0.0,0.0,0.0,2.0,1.0,song_indices/StayinAlive_BeeGees.csv,,,,,,,,,,,,,,,,,,,,,,,,,,,,,,,,,,,,,,,,,,,,,,,,
,,,,,416998,1,2024-06-17_10h52.45.874,experiment,2024.1.5,Win32,60.09615385,667045947eb812cbdacbf325,66704acf6c1f215d8d485521,,,,,,,,,,,,,,,,,,,,,,,,,,,,,,,,,,,,543.596,549.914,0.0,0.0,0.0,1.0,1.0,SoundStimuli/Smooth_SantanaRobThomas_Cover5S.wav,,,,,,,,,,,,,,,,,,,,,,,,,,,,,,,,,,,,,,,,,,,,,,,,,,,,,,,,,,
,,,,,416998,1,2024-06-17_10h52.45.874,experiment,2024.1.5,Win32,60.09615385,667045947eb812cbdacbf325,66704acf6c1f215d8d485521,,,,,,,,,,,,,,,,,,,,,,,,,,,,,,,,,,,,549.926,556.332,0.0,1.0,1.0,0.0,1.0,SoundStimuli/Smooth_SantanaRobThomas_Original5S.wav,,,,,,,,,,,,,,,,,,,,,,,,,,,,,,,,,,,,,,,,,,,,,,,,,,,,,,,,,,
,,,,,416998,1,2024-06-17_10h52.45.874,experiment,2024.1.5,Win32,60.09615385,667045947eb812cbdacbf325,66704acf6c1f215d8d485521,,,,,,,,,,,,,,,,,,,,,,,,,,,,,,,,,,,,,,,,,,,,556.334,557.794,6.973,1.44,0.0,1.0,1.0,4.0,1.0,song_indices/Smooth_SantanaRobThomas.csv,,,,,,,,,,,,,,,,,,,,,,,,,,,,,,,,,,,,,,,,,,,,,,,,
,,,,,416998,1,2024-06-17_10h52.45.874,experiment,2024.1.5,Win32,60.09615385,667045947eb812cbdacbf325,66704acf6c1f215d8d485521,,,,,,,,,,,,,,,,,,,,,,,,,,,,,,,,,,,,557.81,565.708,0.0,0.0,0.0,1.0,1.0,SoundStimuli/LivinOnAPrayer_BonJovi_Cover5S.wav,,,,,,,,,,,,,,,,,,,,,,,,,,,,,,,,,,,,,,,,,,,,,,,,,,,,,,,,,,
,,,,,416998,1,2024-06-17_10h52.45.874,experiment,2024.1.5,Win32,60.09615385,667045947eb812cbdacbf325,66704acf6c1f215d8d485521,,,,,,,,,,,,,,,,,,,,,,,,,,,,,,,,,,,,565.711,572.254,0.0,1.0,1.0,0.0,1.0,SoundStimuli/LivinOnAPrayer_BonJovi_Original5S.wav,,,,,,,,,,,,,,,,,,,,,,,,,,,,,,,,,,,,,,,,,,,,,,,,,,,,,,,,,,
,,,,,416998,1,2024-06-17_10h52.45.874,experiment,2024.1.5,Win32,60.09615385,667045947eb812cbdacbf325,66704acf6c1f215d8d485521,,,,,,,,,,,,,,,,,,,,,,,,,,,,,,,,,,,,,,,,,,,,572.255,574.675,6.987,2.411,0.0,2.0,2.0,16.0,1.0,song_indices/LivinOnAPrayer_BonJovi.csv,,,,,,,,,,,,,,,,,,,,,,,,,,,,,,,,,,,,,,,,,,,,,,,,
,,,,,416998,1,2024-06-17_10h52.45.874,experiment,2024.1.5,Win32,60.09615385,667045947eb812cbdacbf325,66704acf6c1f215d8d485521,,,,,,,,,,,,,,,,,,,,,,,,,,,,,,,,,,,,574.687,581.235,0.0,0.0,0.0,0.0,1.0,SoundStimuli/MyGirl_TheTemptations_Original5S.wav,,,,,,,,,,,,,,,,,,,,,,,,,,,,,,,,,,,,,,,,,,,,,,,,,,,,,,,,,,
,,,,,416998,1,2024-06-17_10h52.45.874,experiment,2024.1.5,Win32,60.09615385,667045947eb812cbdacbf325,66704acf6c1f215d8d485521,,,,,,,,,,,,,,,,,,,,,,,,,,,,,,,,,,,,581.238,589.046,0.0,1.0,1.0,1.0,1.0,SoundStimuli/MyGirl_TheTemptations_Cover5S.wav,,,,,,,,,,,,,,,,,,,,,,,,,,,,,,,,,,,,,,,,,,,,,,,,,,,,,,,,,,
,,,,,416998,1,2024-06-17_10h52.45.874,experiment,2024.1.5,Win32,60.09615385,667045947eb812cbdacbf325,66704acf6c1f215d8d485521,,,,,,,,,,,,,,,,,,,,,,,,,,,,,,,,,,,,,,,,,,,,589.047,591.562,1.961,2.492,0.0,3.0,3.0,15.0,1.0,song_indices/MyGirl_TheTemptations.csv,,,,,,,,,,,,,,,,,,,,,,,,,,,,,,,,,,,,,,,,,,,,,,,,
,,,,,416998,1,2024-06-17_10h52.45.874,experiment,2024.1.5,Win32,60.09615385,667045947eb812cbdacbf325,66704acf6c1f215d8d485521,,,,,,,,,,,,,,,,,,,,,,,,,,,,,,,,,,,,591.576,600.595,0.0,0.0,0.0,0.0,1.0,SoundStimuli/Perfect_EdSheeran_Original5S.wav,,,,,,,,,,,,,,,,,,,,,,,,,,,,,,,,,,,,,,,,,,,,,,,,,,,,,,,,,,
,,,,,416998,1,2024-06-17_10h52.45.874,experiment,2024.1.5,Win32,60.09615385,667045947eb812cbdacbf325,66704acf6c1f215d8d485521,,,,,,,,,,,,,,,,,,,,,,,,,,,,,,,,,,,,600.599,609.051,0.0,1.0,1.0,1.0,1.0,SoundStimuli/Perfect_EdSheeran_Cover5S.wav,,,,,,,,,,,,,,,,,,,,,,,,,,,,,,,,,,,,,,,,,,,,,,,,,,,,,,,,,,
,,,,,416998,1,2024-06-17_10h52.45.874,experiment,2024.1.5,Win32,60.09615385,667045947eb812cbdacbf325,66704acf6c1f215d8d485521,,,,,,,,,,,,,,,,,,,,,,,,,,,,,,,,,,,,,,,,,,,,609.052,611.563,5.987,2.496,0.0,4.0,4.0,0.0,1.0,song_indices/Perfect_EdSheeran.csv,,,,,,,,,,,,,,,,,,,,,,,,,,,,,,,,,,,,,,,,,,,,,,,,
,,,,,416998,1,2024-06-17_10h52.45.874,experiment,2024.1.5,Win32,60.09615385,667045947eb812cbdacbf325,66704acf6c1f215d8d485521,,,,,,,,,,,,,,,,,,,,,,,,,,,,,,,,,,,,611.571,616.181,0.0,0.0,0.0,1.0,1.0,SoundStimuli/LikeARollingStone_BobDylan_Cover5S.wav,,,,,,,,,,,,,,,,,,,,,,,,,,,,,,,,,,,,,,,,,,,,,,,,,,,,,,,,,,
,,,,,416998,1,2024-06-17_10h52.45.874,experiment,2024.1.5,Win32,60.09615385,667045947eb812cbdacbf325,66704acf6c1f215d8d485521,,,,,,,,,,,,,,,,,,,,,,,,,,,,,,,,,,,,616.193,622.497,0.0,1.0,1.0,0.0,1.0,SoundStimuli/LikeARollingStone_BobDylan_Original5S.wav,,,,,,,,,,,,,,,,,,,,,,,,,,,,,,,,,,,,,,,,,,,,,,,,,,,,,,,,,,
,,,,,416998,1,2024-06-17_10h52.45.874,experiment,2024.1.5,Win32,60.09615385,667045947eb812cbdacbf325,66704acf6c1f215d8d485521,,,,,,,,,,,,,,,,,,,,,,,,,,,,,,,,,,,,,,,,,,,,622.498,624.978,4.921,2.473,0.0,5.0,5.0,12.0,1.0,song_indices/LikeARollingStone_BobDylan.csv,,,,,,,,,,,,,,,,,,,,,,,,,,,,,,,,,,,,,,,,,,,,,,,,
,,,,,416998,1,2024-06-17_10h52.45.874,experiment,2024.1.5,Win32,60.09615385,667045947eb812cbdacbf325,66704acf6c1f215d8d485521,,,,,,,,,,,,,,,,,,,,,,,,,,,,,,,,,,,,624.998,631.473,0.0,0.0,0.0,0.0,1.0,SoundStimuli/EndlessLove_DianaRossLionelRichie_Original5S.wav,,,,,,,,,,,,,,,,,,,,,,,,,,,,,,,,,,,,,,,,,,,,,,,,,,,,,,,,,,
,,,,,416998,1,2024-06-17_10h52.45.874,experiment,2024.1.5,Win32,60.09615385,667045947eb812cbdacbf325,66704acf6c1f215d8d485521,,,,,,,,,,,,,,,,,,,,,,,,,,,,,,,,,,,,631.475,639.167,0.0,1.0,1.0,1.0,1.0,SoundStimuli/EndlessLove_DianaRossLionelRichie_Cover5S.wav,,,,,,,,,,,,,,,,,,,,,,,,,,,,,,,,,,,,,,,,,,,,,,,,,,,,,,,,,,
,,,,,416998,1,2024-06-17_10h52.45.874,experiment,2024.1.5,Win32,60.09615385,667045947eb812cbdacbf325,66704acf6c1f215d8d485521,,,,,,,,,,,,,,,,,,,,,,,,,,,,,,,,,,,,,,,,,,,,639.169,643.287,6.993,4.11,0.0,6.0,6.0,3.0,1.0,song_indices/EndlessLove_DianaRossLionelRichie.csv,,,,,,,,,,,,,,,,,,,,,,,,,,,,,,,,,,,,,,,,,,,,,,,,
,,,,,416998,1,2024-06-17_10h52.45.874,experiment,2024.1.5,Win32,60.09615385,667045947eb812cbdacbf325,66704acf6c1f215d8d485521,,,,,,,,,,,,,,,,,,,,,,,,,,,,,,,,,,,,643.296,649.468,0.0,0.0,0.0,0.0,1.0,SoundStimuli/AnotherOneBitesTheDust_Queen_Original5S.wav,,,,,,,,,,,,,,,,,,,,,,,,,,,,,,,,,,,,,,,,,,,,,,,,,,,,,,,,,,
,,,,,416998,1,2024-06-17_10h52.45.874,experiment,2024.1.5,Win32,60.09615385,667045947eb812cbdacbf325,66704acf6c1f215d8d485521,,,,,,,,,,,,,,,,,,,,,,,,,,,,,,,,,,,,649.478,657.791,0.0,1.0,1.0,1.0,1.0,SoundStimuli/AnotherOneBitesTheDust_Queen_Cover5S.wav,,,,,,,,,,,,,,,,,,,,,,,,,,,,,,,,,,,,,,,,,,,,,,,,,,,,,,,,,,
,,,,,416998,1,2024-06-17_10h52.45.874,experiment,2024.1.5,Win32,60.09615385,667045947eb812cbdacbf325,66704acf6c1f215d8d485521,,,,,,,,,,,,,,,,,,,,,,,,,,,,,,,,,,,,,,,,,,,,657.794,660.023,2.967,2.218,0.0,7.0,7.0,9.0,1.0,song_indices/AnotherOneBitesTheDust_Queen.csv,,,,,,,,,,,,,,,,,,,,,,,,,,,,,,,,,,,,,,,,,,,,,,,,
,,,,,416998,1,2024-06-17_10h52.45.874,experiment,2024.1.5,Win32,60.09615385,667045947eb812cbdacbf325,66704acf6c1f215d8d485521,,,,,,,,,,,,,,,,,,,,,,,,,,,,,,,,,,,,660.045,665.877,0.0,0.0,0.0,0.0,1.0,SoundStimuli/IWannaDanceWithSomebody_WhitneyHouston_Original5S.wav,,,,,,,,,,,,,,,,,,,,,,,,,,,,,,,,,,,,,,,,,,,,,,,,,,,,,,,,,,
,,,,,416998,1,2024-06-17_10h52.45.874,experiment,2024.1.5,Win32,60.09615385,667045947eb812cbdacbf325,66704acf6c1f215d8d485521,,,,,,,,,,,,,,,,,,,,,,,,,,,,,,,,,,,,665.879,672.913,0.0,1.0,1.0,1.0,1.0,SoundStimuli/IWannaDanceWithSomebody_WhitneyHouston_Cover5S.wav,,,,,,,,,,,,,,,,,,,,,,,,,,,,,,,,,,,,,,,,,,,,,,,,,,,,,,,,,,
,,,,,416998,1,2024-06-17_10h52.45.874,experiment,2024.1.5,Win32,60.09615385,667045947eb812cbdacbf325,66704acf6c1f215d8d485521,,,,,,,,,,,,,,,,,,,,,,,,,,,,,,,,,,,,,,,,,,,,672.917,675.511,1.027,2.583,0.0,8.0,8.0,13.0,1.0,song_indices/IWannaDanceWithSomebody_WhitneyHouston.csv,,,,,,,,,,,,,,,,,,,,,,,,,,,,,,,,,,,,,,,,,,,,,,,,
,,,,,416998,1,2024-06-17_10h52.45.874,experiment,2024.1.5,Win32,60.09615385,667045947eb812cbdacbf325,66704acf6c1f215d8d485521,,,,,,,,,,,,,,,,,,,,,,,,,,,,,,,,,,,,675.513,682.062,0.0,0.0,0.0,0.0,1.0,SoundStimuli/Mood_24kGoldnianndior_Original5S.wav,,,,,,,,,,,,,,,,,,,,,,,,,,,,,,,,,,,,,,,,,,,,,,,,,,,,,,,,,,
,,,,,416998,1,2024-06-17_10h52.45.874,experiment,2024.1.5,Win32,60.09615385,667045947eb812cbdacbf325,66704acf6c1f215d8d485521,,,,,,,,,,,,,,,,,,,,,,,,,,,,,,,,,,,,682.064,690.535,0.0,1.0,1.0,1.0,1.0,SoundStimuli/Mood_24kGoldnianndior_Cover5S.wav,,,,,,,,,,,,,,,,,,,,,,,,,,,,,,,,,,,,,,,,,,,,,,,,,,,,,,,,,,
,,,,,416998,1,2024-06-17_10h52.45.874,experiment,2024.1.5,Win32,60.09615385,667045947eb812cbdacbf325,66704acf6c1f215d8d485521,,,,,,,,,,,,,,,,,,,,,,,,,,,,,,,,,,,,,,,,,,,,690.536,697.543,4.993,6.991,0.0,9.0,9.0,5.0,1.0,song_indices/Mood_24kGoldnianndior.csv,,,,,,,,,,,,,,,,,,,,,,,,,,,,,,,,,,,,,,,,,,,,,,,,
,,,,,416998,1,2024-06-17_10h52.45.874,experiment,2024.1.5,Win32,60.09615385,667045947eb812cbdacbf325,66704acf6c1f215d8d485521,,,,,,,,,,,,,,,,,,,,,,,,,,,,,,,,,,,,697.563,702.437,0.0,0.0,0.0,1.0,1.0,SoundStimuli/AChangeIsGonnaCome_SamCooke_Cover5S.wav,,,,,,,,,,,,,,,,,,,,,,,,,,,,,,,,,,,,,,,,,,,,,,,,,,,,,,,,,,
,,,,,416998,1,2024-06-17_10h52.45.874,experiment,2024.1.5,Win32,60.09615385,667045947eb812cbdacbf325,66704acf6c1f215d8d485521,,,,,,,,,,,,,,,,,,,,,,,,,,,,,,,,,,,,702.439,708.69,0.0,1.0,1.0,0.0,1.0,SoundStimuli/AChangeIsGonnaCome_SamCooke_Original5S.wav,,,,,,,,,,,,,,,,,,,,,,,,,,,,,,,,,,,,,,,,,,,,,,,,,,,,,,,,,,
,,,,,416998,1,2024-06-17_10h52.45.874,experiment,2024.1.5,Win32,60.09615385,667045947eb812cbdacbf325,66704acf6c1f215d8d485521,,,,,,,,,,,,,,,,,,,,,,,,,,,,,,,,,,,,,,,,,,,,708.691,712.501,5.981,3.801,0.0,10.0,10.0,17.0,1.0,song_indices/AChangeIsGonnaCome_SamCooke.csv,,,,,,,,,,,,,,,,,,,,,,,,,,,,,,,,,,,,,,,,,,,,,,,,
,,,,,416998,1,2024-06-17_10h52.45.874,experiment,2024.1.5,Win32,60.09615385,667045947eb812cbdacbf325,66704acf6c1f215d8d485521,,,,,,,,,,,,,,,,,,,,,,,,,,,,,,,,,,,,712.523,718.816,0.0,0.0,0.0,0.0,1.0,SoundStimuli/IllMakeLoveToYou_BoyzIIMen_Original5S.wav,,,,,,,,,,,,,,,,,,,,,,,,,,,,,,,,,,,,,,,,,,,,,,,,,,,,,,,,,,
,,,,,416998,1,2024-06-17_10h52.45.874,experiment,2024.1.5,Win32,60.09615385,667045947eb812cbdacbf325,66704acf6c1f215d8d485521,,,,,,,,,,,,,,,,,,,,,,,,,,,,,,,,,,,,718.819,724.982,0.0,1.0,1.0,1.0,1.0,SoundStimuli/IllMakeLoveToYou_BoyzIIMen_Cover5S.wav,,,,,,,,,,,,,,,,,,,,,,,,,,,,,,,,,,,,,,,,,,,,,,,,,,,,,,,,,,
,,,,,416998,1,2024-06-17_10h52.45.874,experiment,2024.1.5,Win32,60.09615385,667045947eb812cbdacbf325,66704acf6c1f215d8d485521,,,,,,,,,,,,,,,,,,,,,,,,,,,,,,,,,,,,,,,,,,,,724.983,727.982,6.001,2.989,0.0,11.0,11.0,6.0,1.0,song_indices/IllMakeLoveToYou_BoyzIIMen.csv,,,,,,,,,,,,,,,,,,,,,,,,,,,,,,,,,,,,,,,,,,,,,,,,
,,,,,416998,1,2024-06-17_10h52.45.874,experiment,2024.1.5,Win32,60.09615385,667045947eb812cbdacbf325,66704acf6c1f215d8d485521,,,,,,,,,,,,,,,,,,,,,,,,,,,,,,,,,,,,728.004,734.346,0.0,0.0,0.0,0.0,1.0,SoundStimuli/GodOnlyKnows_TheBeachBoys_Original5S.wav,,,,,,,,,,,,,,,,,,,,,,,,,,,,,,,,,,,,,,,,,,,,,,,,,,,,,,,,,,
,,,,,416998,1,2024-06-17_10h52.45.874,experiment,2024.1.5,Win32,60.09615385,667045947eb812cbdacbf325,66704acf6c1f215d8d485521,,,,,,,,,,,,,,,,,,,,,,,,,,,,,,,,,,,,734.348,741.387,0.0,1.0,1.0,1.0,1.0,SoundStimuli/GodOnlyKnows_TheBeachBoys_Cover5S.wav,,,,,,,,,,,,,,,,,,,,,,,,,,,,,,,,,,,,,,,,,,,,,,,,,,,,,,,,,,
,,,,,416998,1,2024-06-17_10h52.45.874,experiment,2024.1.5,Win32,60.09615385,667045947eb812cbdacbf325,66704acf6c1f215d8d485521,,,,,,,,,,,,,,,,,,,,,,,,,,,,,,,,,,,,,,,,,,,,741.389,743.652,5.993,2.242,0.0,12.0,12.0,8.0,1.0,song_indices/GodOnlyKnows_TheBeachBoys.csv,,,,,,,,,,,,,,,,,,,,,,,,,,,,,,,,,,,,,,,,,,,,,,,,
,,,,,416998,1,2024-06-17_10h52.45.874,experiment,2024.1.5,Win32,60.09615385,667045947eb812cbdacbf325,66704acf6c1f215d8d485521,,,,,,,,,,,,,,,,,,,,,,,,,,,,,,,,,,,,743.674,750.143,0.0,0.0,0.0,1.0,1.0,SoundStimuli/MackTheKnife_BobbyDarin_Cover5S.wav,,,,,,,,,,,,,,,,,,,,,,,,,,,,,,,,,,,,,,,,,,,,,,,,,,,,,,,,,,
,,,,,416998,1,2024-06-17_10h52.45.874,experiment,2024.1.5,Win32,60.09615385,667045947eb812cbdacbf325,66704acf6c1f215d8d485521,,,,,,,,,,,,,,,,,,,,,,,,,,,,,,,,,,,,750.145,756.463,0.0,1.0,1.0,0.0,1.0,SoundStimuli/MackTheKnife_BobbyDarin_Original5S.wav,,,,,,,,,,,,,,,,,,,,,,,,,,,,,,,,,,,,,,,,,,,,,,,,,,,,,,,,,,
,,,,,416998,1,2024-06-17_10h52.45.874,experiment,2024.1.5,Win32,60.09615385,667045947eb812cbdacbf325,66704acf6c1f215d8d485521,,,,,,,,,,,,,,,,,,,,,,,,,,,,,,,,,,,,,,,,,,,,756.465,765.819,1.013,9.336,0.0,13.0,13.0,21.0,1.0,song_indices/MackTheKnife_BobbyDarin.csv,,,,,,,,,,,,,,,,,,,,,,,,,,,,,,,,,,,,,,,,,,,,,,,,
,,,,,416998,1,2024-06-17_10h52.45.874,experiment,2024.1.5,Win32,60.09615385,667045947eb812cbdacbf325,66704acf6c1f215d8d485521,,,,,,,,,,,,,,,,,,,,,,,,,,,,,,,,,,,,765.837,772.194,0.0,0.0,0.0,0.0,1.0,SoundStimuli/HeatWaves_GlassAnimals_Original5S.wav,,,,,,,,,,,,,,,,,,,,,,,,,,,,,,,,,,,,,,,,,,,,,,,,,,,,,,,,,,
,,,,,416998,1,2024-06-17_10h52.45.874,experiment,2024.1.5,Win32,60.09615385,667045947eb812cbdacbf325,66704acf6c1f215d8d485521,,,,,,,,,,,,,,,,,,,,,,,,,,,,,,,,,,,,772.207,781.029,0.0,1.0,1.0,1.0,1.0,SoundStimuli/HeatWaves_GlassAnimals_Cover5S.wav,,,,,,,,,,,,,,,,,,,,,,,,,,,,,,,,,,,,,,,,,,,,,,,,,,,,,,,,,,
,,,,,416998,1,2024-06-17_10h52.45.874,experiment,2024.1.5,Win32,60.09615385,667045947eb812cbdacbf325,66704acf6c1f215d8d485521,,,,,,,,,,,,,,,,,,,,,,,,,,,,,,,,,,,,,,,,,,,,781.031,786.502,6.993,5.447,0.0,14.0,14.0,10.0,1.0,song_indices/HeatWaves_GlassAnimals.csv,,,,,,,,,,,,,,,,,,,,,,,,,,,,,,,,,,,,,,,,,,,,,,,,
,,,,,416998,1,2024-06-17_10h52.45.874,experiment,2024.1.5,Win32,60.09615385,667045947eb812cbdacbf325,66704acf6c1f215d8d485521,,,,,,,,,,,,,,,,,,,,,,,,,,,,,,,,,,,,786.515,793.225,0.0,0.0,0.0,1.0,1.0,SoundStimuli/OldTownRoad_LilNasX_Cover5S.wav,,,,,,,,,,,,,,,,,,,,,,,,,,,,,,,,,,,,,,,,,,,,,,,,,,,,,,,,,,
,,,,,416998,1,2024-06-17_10h52.45.874,experiment,2024.1.5,Win32,60.09615385,667045947eb812cbdacbf325,66704acf6c1f215d8d485521,,,,,,,,,,,,,,,,,,,,,,,,,,,,,,,,,,,,793.233,800.752,0.0,1.0,1.0,0.0,1.0,SoundStimuli/OldTownRoad_LilNasX_Original5S.wav,,,,,,,,,,,,,,,,,,,,,,,,,,,,,,,,,,,,,,,,,,,,,,,,,,,,,,,,,,
,,,,,416998,1,2024-06-17_10h52.45.874,experiment,2024.1.5,Win32,60.09615385,667045947eb812cbdacbf325,66704acf6c1f215d8d485521,,,,,,,,,,,,,,,,,,,,,,,,,,,,,,,,,,,,,,,,,,,,800.754,802.401,6.987,1.64,0.0,15.0,15.0,20.0,1.0,song_indices/OldTownRoad_LilNasX.csv,,,,,,,,,,,,,,,,,,,,,,,,,,,,,,,,,,,,,,,,,,,,,,,,
,,,,,416998,1,2024-06-17_10h52.45.874,experiment,2024.1.5,Win32,60.09615385,667045947eb812cbdacbf325,66704acf6c1f215d8d485521,,,,,,,,,,,,,,,,,,,,,,,,,,,,,,,,,,,,802.417,809.71,0.0,0.0,0.0,1.0,1.0,SoundStimuli/StrawberryFieldsForever_TheBeatles_Cover5S.wav,,,,,,,,,,,,,,,,,,,,,,,,,,,,,,,,,,,,,,,,,,,,,,,,,,,,,,,,,,
,,,,,416998,1,2024-06-17_10h52.45.874,experiment,2024.1.5,Win32,60.09615385,667045947eb812cbdacbf325,66704acf6c1f215d8d485521,,,,,,,,,,,,,,,,,,,,,,,,,,,,,,,,,,,,809.712,816.015,0.0,1.0,1.0,0.0,1.0,SoundStimuli/StrawberryFieldsForever_TheBeatles_Original5S.wav,,,,,,,,,,,,,,,,,,,,,,,,,,,,,,,,,,,,,,,,,,,,,,,,,,,,,,,,,,
,,,,,416998,1,2024-06-17_10h52.45.874,experiment,2024.1.5,Win32,60.09615385,667045947eb812cbdacbf325,66704acf6c1f215d8d485521,,,,,,,,,,,,,,,,,,,,,,,,,,,,,,,,,,,,,,,,,,,,816.018,822.639,6.973,6.605,0.0,16.0,16.0,14.0,1.0,song_indices/StrawberryFieldsForever_TheBeatles.csv,,,,,,,,,,,,,,,,,,,,,,,,,,,,,,,,,,,,,,,,,,,,,,,,
,,,,,416998,1,2024-06-17_10h52.45.874,experiment,2024.1.5,Win32,60.09615385,667045947eb812cbdacbf325,66704acf6c1f215d8d485521,,,,,,,,,,,,,,,,,,,,,,,,,,,,,,,,,,,,822.658,828.926,0.0,0.0,0.0,0.0,1.0,SoundStimuli/LikeAPrayer_Madonna_Original5S.wav,,,,,,,,,,,,,,,,,,,,,,,,,,,,,,,,,,,,,,,,,,,,,,,,,,,,,,,,,,
,,,,,416998,1,2024-06-17_10h52.45.874,experiment,2024.1.5,Win32,60.09615385,667045947eb812cbdacbf325,66704acf6c1f215d8d485521,,,,,,,,,,,,,,,,,,,,,,,,,,,,,,,,,,,,828.931,835.364,0.0,1.0,1.0,1.0,1.0,SoundStimuli/LikeAPrayer_Madonna_Cover5S.wav,,,,,,,,,,,,,,,,,,,,,,,,,,,,,,,,,,,,,,,,,,,,,,,,,,,,,,,,,,
,,,,,416998,1,2024-06-17_10h52.45.874,experiment,2024.1.5,Win32,60.09615385,667045947eb812cbdacbf325,66704acf6c1f215d8d485521,,,,,,,,,,,,,,,,,,,,,,,,,,,,,,,,,,,,,,,,,,,,835.365,843.727,6.981,8.335,0.0,17.0,17.0,7.0,1.0,song_indices/LikeAPrayer_Madonna.csv,,,,,,,,,,,,,,,,,,,,,,,,,,,,,,,,,,,,,,,,,,,,,,,,
,,,,,416998,1,2024-06-17_10h52.45.874,experiment,2024.1.5,Win32,60.09615385,667045947eb812cbdacbf325,66704acf6c1f215d8d485521,,,,,,,,,,,,,,,,,,,,,,,,,,,,,,,,,,,,843.743,849.904,0.0,0.0,0.0,1.0,1.0,SoundStimuli/IWantToHoldYourHand_TheBeatles_Cover5S.wav,,,,,,,,,,,,,,,,,,,,,,,,,,,,,,,,,,,,,,,,,,,,,,,,,,,,,,,,,,
,,,,,416998,1,2024-06-17_10h52.45.874,experiment,2024.1.5,Win32,60.09615385,667045947eb812cbdacbf325,66704acf6c1f215d8d485521,,,,,,,,,,,,,,,,,,,,,,,,,,,,,,,,,,,,849.911,855.828,0.0,1.0,1.0,0.0,1.0,SoundStimuli/IWantToHoldYourHand_TheBeatles_Original5S.wav,,,,,,,,,,,,,,,,,,,,,,,,,,,,,,,,,,,,,,,,,,,,,,,,,,,,,,,,,,
,,,,,416998,1,2024-06-17_10h52.45.874,experiment,2024.1.5,Win32,60.09615385,667045947eb812cbdacbf325,66704acf6c1f215d8d485521,,,,,,,,,,,,,,,,,,,,,,,,,,,,,,,,,,,,,,,,,,,,855.835,863.444,1.013,7.599,0.0,18.0,18.0,19.0,1.0,song_indices/IWantToHoldYourHand_TheBeatles.csv,,,,,,,,,,,,,,,,,,,,,,,,,,,,,,,,,,,,,,,,,,,,,,,,
,,,,,416998,1,2024-06-17_10h52.45.874,experiment,2024.1.5,Win32,60.09615385,667045947eb812cbdacbf325,66704acf6c1f215d8d485521,,,,,,,,,,,,,,,,,,,,,,,,,,,,,,,,,,,,863.457,870.364,0.0,0.0,0.0,1.0,1.0,SoundStimuli/BridgeOverTroubledWater_SimonAndGarfunkel_Cover5S.wav,,,,,,,,,,,,,,,,,,,,,,,,,,,,,,,,,,,,,,,,,,,,,,,,,,,,,,,,,,
,,,,,416998,1,2024-06-17_10h52.45.874,experiment,2024.1.5,Win32,60.09615385,667045947eb812cbdacbf325,66704acf6c1f215d8d485521,,,,,,,,,,,,,,,,,,,,,,,,,,,,,,,,,,,,870.365,876.779,0.0,1.0,1.0,0.0,1.0,SoundStimuli/BridgeOverTroubledWater_SimonAndGarfunkel_Original5S.wav,,,,,,,,,,,,,,,,,,,,,,,,,,,,,,,,,,,,,,,,,,,,,,,,,,,,,,,,,,
,,,,,416998,1,2024-06-17_10h52.45.874,experiment,2024.1.5,Win32,60.09615385,667045947eb812cbdacbf325,66704acf6c1f215d8d485521,,,,,,,,,,,,,,,,,,,,,,,,,,,,,,,,,,,,,,,,,,,,876.78,884.434,6.993,7.648,0.0,19.0,19.0,1.0,1.0,song_indices/BridgeOverTroubledWater_SimonAndGarfunkel.csv,,,,,,,,,,,,,,,,,,,,,,,,,,,,,,,,,,,,,,,,,,,,,,,,
,,,,,416998,1,2024-06-17_10h52.45.874,experiment,2024.1.5,Win32,60.09615385,667045947eb812cbdacbf325,66704acf6c1f215d8d485521,,,,,,,,,,,,,,,,,,,,,,,,,,,,,,,,,,,,884.446,888.731,0.0,0.0,0.0,1.0,1.0,SoundStimuli/BohemianRhapsody_Queen_Cover5S.wav,,,,,,,,,,,,,,,,,,,,,,,,,,,,,,,,,,,,,,,,,,,,,,,,,,,,,,,,,,
,,,,,416998,1,2024-06-17_10h52.45.874,experiment,2024.1.5,Win32,60.09615385,667045947eb812cbdacbf325,66704acf6c1f215d8d485521,,,,,,,,,,,,,,,,,,,,,,,,,,,,,,,,,,,,888.735,894.844,0.0,1.0,1.0,0.0,1.0,SoundStimuli/BohemianRhapsody_Queen_Original5S.wav,,,,,,,,,,,,,,,,,,,,,,,,,,,,,,,,,,,,,,,,,,,,,,,,,,,,,,,,,,
,,,,,416998,1,2024-06-17_10h52.45.874,experiment,2024.1.5,Win32,60.09615385,667045947eb812cbdacbf325,66704acf6c1f215d8d485521,,,,,,,,,,,,,,,,,,,,,,,,,,,,,,,,,,,,,,,,,,,,894.845,900.297,5.013,5.433,0.0,20.0,20.0,18.0,1.0,song_indices/BohemianRhapsody_Queen.csv,,,,,,,,,,,,,,,,,,,,,,,,,,,,,,,,,,,,,,,,,,,,,,,,
,,,,,416998,1,2024-06-17_10h52.45.874,experiment,2024.1.5,Win32,60.09615385,667045947eb812cbdacbf325,66704acf6c1f215d8d485521,,,,,,,,,,,,,,,,,,,,,,,,,,,,,,,,,,,,900.305,906.966,0.0,0.0,0.0,0.0,1.0,SoundStimuli/BadDay_DanielPowter_Original5S.wav,,,,,,,,,,,,,,,,,,,,,,,,,,,,,,,,,,,,,,,,,,,,,,,,,,,,,,,,,,
,,,,,416998,1,2024-06-17_10h52.45.874,experiment,2024.1.5,Win32,60.09615385,667045947eb812cbdacbf325,66704acf6c1f215d8d485521,,,,,,,,,,,,,,,,,,,,,,,,,,,,,,,,,,,,906.967,914.601,0.0,1.0,1.0,1.0,1.0,SoundStimuli/BadDay_DanielPowter_Cover5S.wav,,,,,,,,,,,,,,,,,,,,,,,,,,,,,,,,,,,,,,,,,,,,,,,,,,,,,,,,,,
,,,,,416998,1,2024-06-17_10h52.45.874,experiment,2024.1.5,Win32,60.09615385,667045947eb812cbdacbf325,66704acf6c1f215d8d485521,,,,,,,,,,,,,,,,,,,,,,,,,,,,,,,,,,,,,,,,,,,,914.604,916.966,5.981,2.338,0.0,21.0,21.0,22.0,1.0,song_indices/BadDay_DanielPowter.csv,,,,,,,,,,,,,,,,,,,,,,,,,,,,,,,,,,,,,,,,,,,,,,,,
,,,,,416998,1,2024-06-17_10h52.45.874,experiment,2024.1.5,Win32,60.09615385,667045947eb812cbdacbf325,66704acf6c1f215d8d485521,,,,,,,,,,,,,,,,,,,,,,,,,,,,,,,,,,,,916.982,923.719,0.0,0.0,0.0,0.0,1.0,SoundStimuli/Despacito_LuisFonsiDaddyYankee_Original5S.wav,,,,,,,,,,,,,,,,,,,,,,,,,,,,,,,,,,,,,,,,,,,,,,,,,,,,,,,,,,
,,,,,416998,1,2024-06-17_10h52.45.874,experiment,2024.1.5,Win32,60.09615385,667045947eb812cbdacbf325,66704acf6c1f215d8d485521,,,,,,,,,,,,,,,,,,,,,,,,,,,,,,,,,,,,923.723,930.527,0.0,1.0,1.0,1.0,1.0,SoundStimuli/Despacito_LuisFonsiDaddyYankee_Cover5S.wav,,,,,,,,,,,,,,,,,,,,,,,,,,,,,,,,,,,,,,,,,,,,,,,,,,,,,,,,,,
,,,,,416998,1,2024-06-17_10h52.45.874,experiment,2024.1.5,Win32,60.09615385,667045947eb812cbdacbf325,66704acf6c1f215d8d485521,,,,,,,,,,,,,,,,,,,,,,,,,,,,,,,,,,,,,,,,,,,,930.529,933.559,5.981,3.0,0.0,22.0,22.0,11.0,1.0,song_indices/Despacito_LuisFonsiDaddyYankee.csv,,,,,,,,,,,,,,,,,,,,,,,,,,,,,,,,,,,,,,,,,,,,,,,,
,,,,,416998,1,2024-06-17_10h52.45.874,experiment,2024.1.5,Win32,60.09615385,667045947eb812cbdacbf325,66704acf6c1f215d8d485521,,,,,,,,,,,,,,,,,,,,,,,,,,,,,,,,,,,,,,,,,,,,,,,,,,,,,,933.559,935.6,space,1.95,,0.0,1.0,1.0,0.0,1.0,choose_song_b1.csv,,,,,,,,,,,,,,,,,,,,,,,,,,,,,,,,,,,,,
,,,,,416998,1,2024-06-17_10h52.45.874,experiment,2024.1.5,Win32,60.09615385,667045947eb812cbdacbf325,66704acf6c1f215d8d485521,,,,,,,,,,,,,,,,,,,,,,,,,,,,,,,,,,,,935.629,944.724,0.0,0.0,0.0,1.0,1.0,SoundStimuli/HeyYa_Outkast_Cover5S.wav,,,,,,,,,,,,,,,,,,,,,,,,,,,,,,,,,,,,,,,,,,,,,,,,,,,,,,,,,,
,,,,,416998,1,2024-06-17_10h52.45.874,experiment,2024.1.5,Win32,60.09615385,667045947eb812cbdacbf325,66704acf6c1f215d8d485521,,,,,,,,,,,,,,,,,,,,,,,,,,,,,,,,,,,,944.727,951.241,0.0,1.0,1.0,0.0,1.0,SoundStimuli/HeyYa_Outkast_Original5S.wav,,,,,,,,,,,,,,,,,,,,,,,,,,,,,,,,,,,,,,,,,,,,,,,,,,,,,,,,,,
,,,,,416998,1,2024-06-17_10h52.45.874,experiment,2024.1.5,Win32,60.09615385,667045947eb812cbdacbf325,66704acf6c1f215d8d485521,,,,,,,,,,,,,,,,,,,,,,,,,,,,,,,,,,,,,,,,,,,,951.241,953.907,5.021,2.65,0.0,0.0,0.0,22.0,1.0,song_indices/HeyYa_Outkast.csv,,,,,,,,,,,,,,,,,,,,,,,,,,,,,,,,,,,,,,,,,,,,,,,,
,,,,,416998,1,2024-06-17_10h52.45.874,experiment,2024.1.5,Win32,60.09615385,667045947eb812cbdacbf325,66704acf6c1f215d8d485521,,,,,,,,,,,,,,,,,,,,,,,,,,,,,,,,,,,,953.915,960.334,0.0,0.0,0.0,0.0,1.0,SoundStimuli/RockWithYou_MichaelJackson_Original5S.wav,,,,,,,,,,,,,,,,,,,,,,,,,,,,,,,,,,,,,,,,,,,,,,,,,,,,,,,,,,
,,,,,416998,1,2024-06-17_10h52.45.874,experiment,2024.1.5,Win32,60.09615385,667045947eb812cbdacbf325,66704acf6c1f215d8d485521,,,,,,,,,,,,,,,,,,,,,,,,,,,,,,,,,,,,960.341,966.535,0.0,1.0,1.0,1.0,1.0,SoundStimuli/RockWithYou_MichaelJackson_Cover5S.wav,,,,,,,,,,,,,,,,,,,,,,,,,,,,,,,,,,,,,,,,,,,,,,,,,,,,,,,,,,
,,,,,416998,1,2024-06-17_10h52.45.874,experiment,2024.1.5,Win32,60.09615385,667045947eb812cbdacbf325,66704acf6c1f215d8d485521,,,,,,,,,,,,,,,,,,,,,,,,,,,,,,,,,,,,,,,,,,,,966.535,971.631,4.981,5.089,0.0,1.0,1.0,16.0,1.0,song_indices/RockWithYou_MichaelJackson.csv,,,,,,,,,,,,,,,,,,,,,,,,,,,,,,,,,,,,,,,,,,,,,,,,
,,,,,416998,1,2024-06-17_10h52.45.874,experiment,2024.1.5,Win32,60.09615385,667045947eb812cbdacbf325,66704acf6c1f215d8d485521,,,,,,,,,,,,,,,,,,,,,,,,,,,,,,,,,,,,971.647,977.9,0.0,0.0,0.0,1.0,1.0,SoundStimuli/StandByMe_BenEKing_Cover5S.wav,,,,,,,,,,,,,,,,,,,,,,,,,,,,,,,,,,,,,,,,,,,,,,,,,,,,,,,,,,
,,,,,416998,1,2024-06-17_10h52.45.874,experiment,2024.1.5,Win32,60.09615385,667045947eb812cbdacbf325,66704acf6c1f215d8d485521,,,,,,,,,,,,,,,,,,,,,,,,,,,,,,,,,,,,977.916,984.018,0.0,1.0,1.0,0.0,1.0,SoundStimuli/StandByMe_BenEKing_Original5S.wav,,,,,,,,,,,,,,,,,,,,,,,,,,,,,,,,,,,,,,,,,,,,,,,,,,,,,,,,,,
,,,,,416998,1,2024-06-17_10h52.45.874,experiment,2024.1.5,Win32,60.09615385,667045947eb812cbdacbf325,66704acf6c1f215d8d485521,,,,,,,,,,,,,,,,,,,,,,,,,,,,,,,,,,,,,,,,,,,,984.018,986.148,1.021,2.124,0.0,2.0,2.0,1.0,1.0,song_indices/StandByMe_BenEKing.csv,,,,,,,,,,,,,,,,,,,,,,,,,,,,,,,,,,,,,,,,,,,,,,,,
,,,,,416998,1,2024-06-17_10h52.45.874,experiment,2024.1.5,Win32,60.09615385,667045947eb812cbdacbf325,66704acf6c1f215d8d485521,,,,,,,,,,,,,,,,,,,,,,,,,,,,,,,,,,,,986.167,994.328,0.0,0.0,0.0,1.0,1.0,SoundStimuli/TheBattleOfNewOrleans_JohnnyHorton_Cover5S.wav,,,,,,,,,,,,,,,,,,,,,,,,,,,,,,,,,,,,,,,,,,,,,,,,,,,,,,,,,,
,,,,,416998,1,2024-06-17_10h52.45.874,experiment,2024.1.5,Win32,60.09615385,667045947eb812cbdacbf325,66704acf6c1f215d8d485521,,,,,,,,,,,,,,,,,,,,,,,,,,,,,,,,,,,,994.329,1000.719,0.0,1.0,1.0,0.0,1.0,SoundStimuli/TheBattleOfNewOrleans_JohnnyHorton_Original5S.wav,,,,,,,,,,,,,,,,,,,,,,,,,,,,,,,,,,,,,,,,,,,,,,,,,,,,,,,,,,
,,,,,416998,1,2024-06-17_10h52.45.874,experiment,2024.1.5,Win32,60.09615385,667045947eb812cbdacbf325,66704acf6c1f215d8d485521,,,,,,,,,,,,,,,,,,,,,,,,,,,,,,,,,,,,,,,,,,,,1000.72,1012.686,1.021,11.936,0.0,3.0,3.0,4.0,1.0,song_indices/TheBattleOfNewOrleans_JohnnyHorton.csv,,,,,,,,,,,,,,,,,,,,,,,,,,,,,,,,,,,,,,,,,,,,,,,,
,,,,,416998,1,2024-06-17_10h52.45.874,experiment,2024.1.5,Win32,60.09615385,667045947eb812cbdacbf325,66704acf6c1f215d8d485521,,,,,,,,,,,,,,,,,,,,,,,,,,,,,,,,,,,,1012.692,1019.352,0.0,0.0,0.0,0.0,1.0,SoundStimuli/ShapeofYou_EdSheeran_Original5S.wav,,,,,,,,,,,,,,,,,,,,,,,,,,,,,,,,,,,,,,,,,,,,,,,,,,,,,,,,,,
,,,,,416998,1,2024-06-17_10h52.45.874,experiment,2024.1.5,Win32,60.09615385,667045947eb812cbdacbf325,66704acf6c1f215d8d485521,,,,,,,,,,,,,,,,,,,,,,,,,,,,,,,,,,,,1019.354,1025.754,0.0,1.0,1.0,1.0,1.0,SoundStimuli/ShapeofYou_EdSheeran_Cover5S.wav,,,,,,,,,,,,,,,,,,,,,,,,,,,,,,,,,,,,,,,,,,,,,,,,,,,,,,,,,,
,,,,,416998,1,2024-06-17_10h52.45.874,experiment,2024.1.5,Win32,60.09615385,667045947eb812cbdacbf325,66704acf6c1f215d8d485521,,,,,,,,,,,,,,,,,,,,,,,,,,,,,,,,,,,,,,,,,,,,1025.755,1033.763,4.993,8.0,0.0,4.0,4.0,21.0,1.0,song_indices/ShapeofYou_EdSheeran.csv,,,,,,,,,,,,,,,,,,,,,,,,,,,,,,,,,,,,,,,,,,,,,,,,
,,,,,416998,1,2024-06-17_10h52.45.874,experiment,2024.1.5,Win32,60.09615385,667045947eb812cbdacbf325,66704acf6c1f215d8d485521,,,,,,,,,,,,,,,,,,,,,,,,,,,,,,,,,,,,1033.776,1039.593,0.0,0.0,0.0,1.0,1.0,SoundStimuli/BetteDavisEyes_KimCarnes_Cover5S.wav,,,,,,,,,,,,,,,,,,,,,,,,,,,,,,,,,,,,,,,,,,,,,,,,,,,,,,,,,,
,,,,,416998,1,2024-06-17_10h52.45.874,experiment,2024.1.5,Win32,60.09615385,667045947eb812cbdacbf325,66704acf6c1f215d8d485521,,,,,,,,,,,,,,,,,,,,,,,,,,,,,,,,,,,,1039.607,1046.018,0.0,1.0,1.0,0.0,1.0,SoundStimuli/BetteDavisEyes_KimCarnes_Original5S.wav,,,,,,,,,,,,,,,,,,,,,,,,,,,,,,,,,,,,,,,,,,,,,,,,,,,,,,,,,,
,,,,,416998,1,2024-06-17_10h52.45.874,experiment,2024.1.5,Win32,60.09615385,667045947eb812cbdacbf325,66704acf6c1f215d8d485521,,,,,,,,,,,,,,,,,,,,,,,,,,,,,,,,,,,,,,,,,,,,1046.021,1048.145,6.987,2.118,0.0,5.0,5.0,5.0,1.0,song_indices/BetteDavisEyes_KimCarnes.csv,,,,,,,,,,,,,,,,,,,,,,,,,,,,,,,,,,,,,,,,,,,,,,,,
,,,,,416998,1,2024-06-17_10h52.45.874,experiment,2024.1.5,Win32,60.09615385,667045947eb812cbdacbf325,66704acf6c1f215d8d485521,,,,,,,,,,,,,,,,,,,,,,,,,,,,,,,,,,,,1048.169,1054.576,0.0,0.0,0.0,1.0,1.0,SoundStimuli/GimmeShelter_RollingStones_Cover5S.wav,,,,,,,,,,,,,,,,,,,,,,,,,,,,,,,,,,,,,,,,,,,,,,,,,,,,,,,,,,
,,,,,416998,1,2024-06-17_10h52.45.874,experiment,2024.1.5,Win32,60.09615385,667045947eb812cbdacbf325,66704acf6c1f215d8d485521,,,,,,,,,,,,,,,,,,,,,,,,,,,,,,,,,,,,1054.58,1060.863,0.0,1.0,1.0,0.0,1.0,SoundStimuli/GimmeShelter_RollingStones_Original5S.wav,,,,,,,,,,,,,,,,,,,,,,,,,,,,,,,,,,,,,,,,,,,,,,,,,,,,,,,,,,
,,,,,416998,1,2024-06-17_10h52.45.874,experiment,2024.1.5,Win32,60.09615385,667045947eb812cbdacbf325,66704acf6c1f215d8d485521,,,,,,,,,,,,,,,,,,,,,,,,,,,,,,,,,,,,,,,,,,,,1060.864,1065.702,6.007,4.837,0.0,6.0,6.0,20.0,1.0,song_indices/GimmeShelter_RollingStones.csv,,,,,,,,,,,,,,,,,,,,,,,,,,,,,,,,,,,,,,,,,,,,,,,,
,,,,,416998,1,2024-06-17_10h52.45.874,experiment,2024.1.5,Win32,60.09615385,667045947eb812cbdacbf325,66704acf6c1f215d8d485521,,,,,,,,,,,,,,,,,,,,,,,,,,,,,,,,,,,,1065.71,1072.854,0.0,0.0,0.0,1.0,1.0,SoundStimuli/UptownFunk_MarkRonson_Cover5S.wav,,,,,,,,,,,,,,,,,,,,,,,,,,,,,,,,,,,,,,,,,,,,,,,,,,,,,,,,,,
,,,,,416998,1,2024-06-17_10h52.45.874,experiment,2024.1.5,Win32,60.09615385,667045947eb812cbdacbf325,66704acf6c1f215d8d485521,,,,,,,,,,,,,,,,,,,,,,,,,,,,,,,,,,,,1072.857,1080.287,0.0,1.0,1.0,0.0,1.0,SoundStimuli/UptownFunk_MarkRonson_Original5S.wav,,,,,,,,,,,,,,,,,,,,,,,,,,,,,,,,,,,,,,,,,,,,,,,,,,,,,,,,,,
,,,,,416998,1,2024-06-17_10h52.45.874,experiment,2024.1.5,Win32,60.09615385,667045947eb812cbdacbf325,66704acf6c1f215d8d485521,,,,,,,,,,,,,,,,,,,,,,,,,,,,,,,,,,,,,,,,,,,,1080.288,1085.241,6.967,4.948,0.0,7.0,7.0,15.0,1.0,song_indices/UptownFunk_MarkRonson.csv,,,,,,,,,,,,,,,,,,,,,,,,,,,,,,,,,,,,,,,,,,,,,,,,
,,,,,416998,1,2024-06-17_10h52.45.874,experiment,2024.1.5,Win32,60.09615385,667045947eb812cbdacbf325,66704acf6c1f215d8d485521,,,,,,,,,,,,,,,,,,,,,,,,,,,,,,,,,,,,1085.254,1091.622,0.0,0.0,0.0,0.0,1.0,SoundStimuli/TheBoyIsMine_BrandyMonica_Original5S.wav,,,,,,,,,,,,,,,,,,,,,,,,,,,,,,,,,,,,,,,,,,,,,,,,,,,,,,,,,,
,,,,,416998,1,2024-06-17_10h52.45.874,experiment,2024.1.5,Win32,60.09615385,667045947eb812cbdacbf325,66704acf6c1f215d8d485521,,,,,,,,,,,,,,,,,,,,,,,,,,,,,,,,,,,,1091.623,1097.798,0.0,1.0,1.0,1.0,1.0,SoundStimuli/TheBoyIsMine_BrandyMonica_Cover5S.wav,,,,,,,,,,,,,,,,,,,,,,,,,,,,,,,,,,,,,,,,,,,,,,,,,,,,,,,,,,
,,,,,416998,1,2024-06-17_10h52.45.874,experiment,2024.1.5,Win32,60.09615385,667045947eb812cbdacbf325,66704acf6c1f215d8d485521,,,,,,,,,,,,,,,,,,,,,,,,,,,,,,,,,,,,,,,,,,,,1097.802,1099.531,6.973,1.698,0.0,8.0,8.0,6.0,1.0,song_indices/TheBoyIsMine_BrandyMonica.csv,,,,,,,,,,,,,,,,,,,,,,,,,,,,,,,,,,,,,,,,,,,,,,,,
,,,,,416998,1,2024-06-17_10h52.45.874,experiment,2024.1.5,Win32,60.09615385,667045947eb812cbdacbf325,66704acf6c1f215d8d485521,,,,,,,,,,,,,,,,,,,,,,,,,,,,,,,,,,,,1099.541,1105.773,0.0,0.0,0.0,0.0,1.0,SoundStimuli/GetUrFreakOn_MissyElliot_Original5S.wav,,,,,,,,,,,,,,,,,,,,,,,,,,,,,,,,,,,,,,,,,,,,,,,,,,,,,,,,,,
,,,,,416998,1,2024-06-17_10h52.45.874,experiment,2024.1.5,Win32,60.09615385,667045947eb812cbdacbf325,66704acf6c1f215d8d485521,,,,,,,,,,,,,,,,,,,,,,,,,,,,,,,,,,,,1105.775,1112.489,0.0,1.0,1.0,1.0,1.0,SoundStimuli/GetUrFreakOn_MissyElliot_Cover5S.wav,,,,,,,,,,,,,,,,,,,,,,,,,,,,,,,,,,,,,,,,,,,,,,,,,,,,,,,,,,
,,,,,416998,1,2024-06-17_10h52.45.874,experiment,2024.1.5,Win32,60.09615385,667045947eb812cbdacbf325,66704acf6c1f215d8d485521,,,,,,,,,,,,,,,,,,,,,,,,,,,,,,,,,,,,,,,,,,,,1112.491,1114.563,2.087,2.053,0.0,9.0,9.0,18.0,1.0,song_indices/GetUrFreakOn_MissyElliot.csv,,,,,,,,,,,,,,,,,,,,,,,,,,,,,,,,,,,,,,,,,,,,,,,,
,,,,,416998,1,2024-06-17_10h52.45.874,experiment,2024.1.5,Win32,60.09615385,667045947eb812cbdacbf325,66704acf6c1f215d8d485521,,,,,,,,,,,,,,,,,,,,,,,,,,,,,,,,,,,,1114.574,1120.763,0.0,0.0,0.0,0.0,1.0,SoundStimuli/Stronger_KanyeWest_Original5S.wav,,,,,,,,,,,,,,,,,,,,,,,,,,,,,,,,,,,,,,,,,,,,,,,,,,,,,,,,,,
,,,,,416998,1,2024-06-17_10h52.45.874,experiment,2024.1.5,Win32,60.09615385,667045947eb812cbdacbf325,66704acf6c1f215d8d485521,,,,,,,,,,,,,,,,,,,,,,,,,,,,,,,,,,,,1120.766,1127.292,0.0,1.0,1.0,1.0,1.0,SoundStimuli/Stronger_KanyeWest_Cover5S.wav,,,,,,,,,,,,,,,,,,,,,,,,,,,,,,,,,,,,,,,,,,,,,,,,,,,,,,,,,,
,,,,,416998,1,2024-06-17_10h52.45.874,experiment,2024.1.5,Win32,60.09615385,667045947eb812cbdacbf325,66704acf6c1f215d8d485521,,,,,,,,,,,,,,,,,,,,,,,,,,,,,,,,,,,,,,,,,,,,1127.294,1129.739,1.021,2.427,0.0,10.0,10.0,9.0,1.0,song_indices/Stronger_KanyeWest.csv,,,,,,,,,,,,,,,,,,,,,,,,,,,,,,,,,,,,,,,,,,,,,,,,
,,,,,416998,1,2024-06-17_10h52.45.874,experiment,2024.1.5,Win32,60.09615385,667045947eb812cbdacbf325,66704acf6c1f215d8d485521,,,,,,,,,,,,,,,,,,,,,,,,,,,,,,,,,,,,1129.758,1136.424,0.0,0.0,0.0,0.0,1.0,SoundStimuli/CrazyInLove_BeyonceFtJayZ_Original5S.wav,,,,,,,,,,,,,,,,,,,,,,,,,,,,,,,,,,,,,,,,,,,,,,,,,,,,,,,,,,
,,,,,416998,1,2024-06-17_10h52.45.874,experiment,2024.1.5,Win32,60.09615385,667045947eb812cbdacbf325,66704acf6c1f215d8d485521,,,,,,,,,,,,,,,,,,,,,,,,,,,,,,,,,,,,1136.426,1146.791,0.0,1.0,1.0,1.0,1.0,SoundStimuli/CrazyInLove_BeyonceFtJayZ_Cover5S.wav,,,,,,,,,,,,,,,,,,,,,,,,,,,,,,,,,,,,,,,,,,,,,,,,,,,,,,,,,,
,,,,,416998,1,2024-06-17_10h52.45.874,experiment,2024.1.5,Win32,60.09615385,667045947eb812cbdacbf325,66704acf6c1f215d8d485521,,,,,,,,,,,,,,,,,,,,,,,,,,,,,,,,,,,,,,,,,,,,1146.793,1153.623,2.981,6.813,0.0,11.0,11.0,3.0,1.0,song_indices/CrazyInLove_BeyonceFtJayZ.csv,,,,,,,,,,,,,,,,,,,,,,,,,,,,,,,,,,,,,,,,,,,,,,,,
,,,,,416998,1,2024-06-17_10h52.45.874,experiment,2024.1.5,Win32,60.09615385,667045947eb812cbdacbf325,66704acf6c1f215d8d485521,,,,,,,,,,,,,,,,,,,,,,,,,,,,,,,,,,,,1153.625,1159.943,0.0,0.0,0.0,1.0,1.0,SoundStimuli/NoScrubs_TLC_Cover5S.wav,,,,,,,,,,,,,,,,,,,,,,,,,,,,,,,,,,,,,,,,,,,,,,,,,,,,,,,,,,
,,,,,416998,1,2024-06-17_10h52.45.874,experiment,2024.1.5,Win32,60.09615385,667045947eb812cbdacbf325,66704acf6c1f215d8d485521,,,,,,,,,,,,,,,,,,,,,,,,,,,,,,,,,,,,1159.945,1166.286,0.0,1.0,1.0,0.0,1.0,SoundStimuli/NoScrubs_TLC_Original5S.wav,,,,,,,,,,,,,,,,,,,,,,,,,,,,,,,,,,,,,,,,,,,,,,,,,,,,,,,,,,
,,,,,416998,1,2024-06-17_10h52.45.874,experiment,2024.1.5,Win32,60.09615385,667045947eb812cbdacbf325,66704acf6c1f215d8d485521,,,,,,,,,,,,,,,,,,,,,,,,,,,,,,,,,,,,,,,,,,,,1166.288,1170.462,6.993,4.163,0.0,12.0,12.0,14.0,1.0,song_indices/NoScrubs_TLC.csv,,,,,,,,,,,,,,,,,,,,,,,,,,,,,,,,,,,,,,,,,,,,,,,,
,,,,,416998,1,2024-06-17_10h52.45.874,experiment,2024.1.5,Win32,60.09615385,667045947eb812cbdacbf325,66704acf6c1f215d8d485521,,,,,,,,,,,,,,,,,,,,,,,,,,,,,,,,,,,,1170.489,1177.417,0.0,0.0,0.0,0.0,1.0,SoundStimuli/PartyRockAnthem_LMFAO_Original5S.wav,,,,,,,,,,,,,,,,,,,,,,,,,,,,,,,,,,,,,,,,,,,,,,,,,,,,,,,,,,
,,,,,416998,1,2024-06-17_10h52.45.874,experiment,2024.1.5,Win32,60.09615385,667045947eb812cbdacbf325,66704acf6c1f215d8d485521,,,,,,,,,,,,,,,,,,,,,,,,,,,,,,,,,,,,1177.419,1184.349,0.0,1.0,1.0,1.0,1.0,SoundStimuli/PartyRockAnthem_LMFAO_Cover5S.wav,,,,,,,,,,,,,,,,,,,,,,,,,,,,,,,,,,,,,,,,,,,,,,,,,,,,,,,,,,
,,,,,416998,1,2024-06-17_10h52.45.874,experiment,2024.1.5,Win32,60.09615385,667045947eb812cbdacbf325,66704acf6c1f215d8d485521,,,,,,,,,,,,,,,,,,,,,,,,,,,,,,,,,,,,,,,,,,,,1184.35,1187.122,6.033,2.756,0.0,13.0,13.0,2.0,1.0,song_indices/PartyRockAnthem_LMFAO.csv,,,,,,,,,,,,,,,,,,,,,,,,,,,,,,,,,,,,,,,,,,,,,,,,
,,,,,416998,1,2024-06-17_10h52.45.874,experiment,2024.1.5,Win32,60.09615385,667045947eb812cbdacbf325,66704acf6c1f215d8d485521,,,,,,,,,,,,,,,,,,,,,,,,,,,,,,,,,,,,1187.137,1193.78,0.0,0.0,0.0,0.0,1.0,SoundStimuli/IWillAlwaysLoveYou_WhitneyHouston_Original5S.wav,,,,,,,,,,,,,,,,,,,,,,,,,,,,,,,,,,,,,,,,,,,,,,,,,,,,,,,,,,
,,,,,416998,1,2024-06-17_10h52.45.874,experiment,2024.1.5,Win32,60.09615385,667045947eb812cbdacbf325,66704acf6c1f215d8d485521,,,,,,,,,,,,,,,,,,,,,,,,,,,,,,,,,,,,1193.792,1199.765,0.0,1.0,1.0,1.0,1.0,SoundStimuli/IWillAlwaysLoveYou_WhitneyHouston_Cover5S.wav,,,,,,,,,,,,,,,,,,,,,,,,,,,,,,,,,,,,,,,,,,,,,,,,,,,,,,,,,,
,,,,,416998,1,2024-06-17_10h52.45.874,experiment,2024.1.5,Win32,60.09615385,667045947eb812cbdacbf325,66704acf6c1f215d8d485521,,,,,,,,,,,,,,,,,,,,,,,,,,,,,,,,,,,,,,,,,,,,1199.766,1214.386,6.967,14.608,0.0,14.0,14.0,10.0,1.0,song_indices/IWillAlwaysLoveYou_WhitneyHouston.csv,,,,,,,,,,,,,,,,,,,,,,,,,,,,,,,,,,,,,,,,,,,,,,,,
,,,,,416998,1,2024-06-17_10h52.45.874,experiment,2024.1.5,Win32,60.09615385,667045947eb812cbdacbf325,66704acf6c1f215d8d485521,,,,,,,,,,,,,,,,,,,,,,,,,,,,,,,,,,,,1214.404,1221.695,0.0,0.0,0.0,1.0,1.0,SoundStimuli/IWalkTheLine_JohnnyCash_Cover5S.wav,,,,,,,,,,,,,,,,,,,,,,,,,,,,,,,,,,,,,,,,,,,,,,,,,,,,,,,,,,
,,,,,416998,1,2024-06-17_10h52.45.874,experiment,2024.1.5,Win32,60.09615385,667045947eb812cbdacbf325,66704acf6c1f215d8d485521,,,,,,,,,,,,,,,,,,,,,,,,,,,,,,,,,,,,1221.7,1227.832,0.0,1.0,1.0,0.0,1.0,SoundStimuli/IWalkTheLine_JohnnyCash_Original5S.wav,,,,,,,,,,,,,,,,,,,,,,,,,,,,,,,,,,,,,,,,,,,,,,,,,,,,,,,,,,
,,,,,416998,1,2024-06-17_10h52.45.874,experiment,2024.1.5,Win32,60.09615385,667045947eb812cbdacbf325,66704acf6c1f215d8d485521,,,,,,,,,,,,,,,,,,,,,,,,,,,,,,,,,,,,,,,,,,,,1227.834,1229.632,5.973,1.782,0.0,15.0,15.0,17.0,1.0,song_indices/IWalkTheLine_JohnnyCash.csv,,,,,,,,,,,,,,,,,,,,,,,,,,,,,,,,,,,,,,,,,,,,,,,,
,,,,,416998,1,2024-06-17_10h52.45.874,experiment,2024.1.5,Win32,60.09615385,667045947eb812cbdacbf325,66704acf6c1f215d8d485521,,,,,,,,,,,,,,,,,,,,,,,,,,,,,,,,,,,,1229.651,1235.537,0.0,0.0,0.0,1.0,1.0,SoundStimuli/SmellsLikeTeenSpirit_Nirvana_Cover5S.wav,,,,,,,,,,,,,,,,,,,,,,,,,,,,,,,,,,,,,,,,,,,,,,,,,,,,,,,,,,
,,,,,416998,1,2024-06-17_10h52.45.874,experiment,2024.1.5,Win32,60.09615385,667045947eb812cbdacbf325,66704acf6c1f215d8d485521,,,,,,,,,,,,,,,,,,,,,,,,,,,,,,,,,,,,1235.539,1241.898,0.0,1.0,1.0,0.0,1.0,SoundStimuli/SmellsLikeTeenSpirit_Nirvana_Original5S.wav,,,,,,,,,,,,,,,,,,,,,,,,,,,,,,,,,,,,,,,,,,,,,,,,,,,,,,,,,,
,,,,,416998,1,2024-06-17_10h52.45.874,experiment,2024.1.5,Win32,60.09615385,667045947eb812cbdacbf325,66704acf6c1f215d8d485521,,,,,,,,,,,,,,,,,,,,,,,,,,,,,,,,,,,,,,,,,,,,1241.899,1246.061,6.987,4.155,0.0,16.0,16.0,8.0,1.0,song_indices/SmellsLikeTeenSpirit_Nirvana.csv,,,,,,,,,,,,,,,,,,,,,,,,,,,,,,,,,,,,,,,,,,,,,,,,
,,,,,416998,1,2024-06-17_10h52.45.874,experiment,2024.1.5,Win32,60.09615385,667045947eb812cbdacbf325,66704acf6c1f215d8d485521,,,,,,,,,,,,,,,,,,,,,,,,,,,,,,,,,,,,1246.071,1252.487,0.0,0.0,0.0,1.0,1.0,SoundStimuli/NoOne_AliciaKeys_Cover5S.wav,,,,,,,,,,,,,,,,,,,,,,,,,,,,,,,,,,,,,,,,,,,,,,,,,,,,,,,,,,
,,,,,416998,1,2024-06-17_10h52.45.874,experiment,2024.1.5,Win32,60.09615385,667045947eb812cbdacbf325,66704acf6c1f215d8d485521,,,,,,,,,,,,,,,,,,,,,,,,,,,,,,,,,,,,1252.49,1260.351,0.0,1.0,1.0,0.0,1.0,SoundStimuli/NoOne_AliciaKeys_Original5S.wav,,,,,,,,,,,,,,,,,,,,,,,,,,,,,,,,,,,,,,,,,,,,,,,,,,,,,,,,,,
,,,,,416998,1,2024-06-17_10h52.45.874,experiment,2024.1.5,Win32,60.09615385,667045947eb812cbdacbf325,66704acf6c1f215d8d485521,,,,,,,,,,,,,,,,,,,,,,,,,,,,,,,,,,,,,,,,,,,,1260.352,1262.503,2.013,2.14,0.0,17.0,17.0,19.0,1.0,song_indices/NoOne_AliciaKeys.csv,,,,,,,,,,,,,,,,,,,,,,,,,,,,,,,,,,,,,,,,,,,,,,,,
,,,,,416998,1,2024-06-17_10h52.45.874,experiment,2024.1.5,Win32,60.09615385,667045947eb812cbdacbf325,66704acf6c1f215d8d485521,,,,,,,,,,,,,,,,,,,,,,,,,,,,,,,,,,,,1262.512,1268.924,0.0,0.0,0.0,0.0,1.0,SoundStimuli/ItsAllInTheGame_TommyEdwards_Original5S.wav,,,,,,,,,,,,,,,,,,,,,,,,,,,,,,,,,,,,,,,,,,,,,,,,,,,,,,,,,,
,,,,,416998,1,2024-06-17_10h52.45.874,experiment,2024.1.5,Win32,60.09615385,667045947eb812cbdacbf325,66704acf6c1f215d8d485521,,,,,,,,,,,,,,,,,,,,,,,,,,,,,,,,,,,,1268.928,1275.331,0.0,1.0,1.0,1.0,1.0,SoundStimuli/ItsAllInTheGame_TommyEdwards_Cover5S.wav,,,,,,,,,,,,,,,,,,,,,,,,,,,,,,,,,,,,,,,,,,,,,,,,,,,,,,,,,,
,,,,,416998,1,2024-06-17_10h52.45.874,experiment,2024.1.5,Win32,60.09615385,667045947eb812cbdacbf325,66704acf6c1f215d8d485521,,,,,,,,,,,,,,,,,,,,,,,,,,,,,,,,,,,,,,,,,,,,1275.332,1278.425,3.021,3.074,0.0,18.0,18.0,13.0,1.0,song_indices/ItsAllInTheGame_TommyEdwards.csv,,,,,,,,,,,,,,,,,,,,,,,,,,,,,,,,,,,,,,,,,,,,,,,,
,,,,,416998,1,2024-06-17_10h52.45.874,experiment,2024.1.5,Win32,60.09615385,667045947eb812cbdacbf325,66704acf6c1f215d8d485521,,,,,,,,,,,,,,,,,,,,,,,,,,,,,,,,,,,,1278.44,1284.444,0.0,0.0,0.0,0.0,1.0,SoundStimuli/EyeOfTheTiger_Survivor_Original5S.wav,,,,,,,,,,,,,,,,,,,,,,,,,,,,,,,,,,,,,,,,,,,,,,,,,,,,,,,,,,
,,,,,416998,1,2024-06-17_10h52.45.874,experiment,2024.1.5,Win32,60.09615385,667045947eb812cbdacbf325,66704acf6c1f215d8d485521,,,,,,,,,,,,,,,,,,,,,,,,,,,,,,,,,,,,1284.448,1290.704,0.0,1.0,1.0,1.0,1.0,SoundStimuli/EyeOfTheTiger_Survivor_Cover5S.wav,,,,,,,,,,,,,,,,,,,,,,,,,,,,,,,,,,,,,,,,,,,,,,,,,,,,,,,,,,
,,,,,416998,1,2024-06-17_10h52.45.874,experiment,2024.1.5,Win32,60.09615385,667045947eb812cbdacbf325,66704acf6c1f215d8d485521,,,,,,,,,,,,,,,,,,,,,,,,,,,,,,,,,,,,,,,,,,,,1290.705,1293.439,6.967,2.719,0.0,19.0,19.0,11.0,1.0,song_indices/EyeOfTheTiger_Survivor.csv,,,,,,,,,,,,,,,,,,,,,,,,,,,,,,,,,,,,,,,,,,,,,,,,
,,,,,416998,1,2024-06-17_10h52.45.874,experiment,2024.1.5,Win32,60.09615385,667045947eb812cbdacbf325,66704acf6c1f215d8d485521,,,,,,,,,,,,,,,,,,,,,,,,,,,,,,,,,,,,1293.461,1300.955,0.0,0.0,0.0,0.0,1.0,SoundStimuli/Happy_PharellWilliams_Original5S.wav,,,,,,,,,,,,,,,,,,,,,,,,,,,,,,,,,,,,,,,,,,,,,,,,,,,,,,,,,,
,,,,,416998,1,2024-06-17_10h52.45.874,experiment,2024.1.5,Win32,60.09615385,667045947eb812cbdacbf325,66704acf6c1f215d8d485521,,,,,,,,,,,,,,,,,,,,,,,,,,,,,,,,,,,,1300.959,1308.485,0.0,1.0,1.0,1.0,1.0,SoundStimuli/Happy_PharellWilliams_Cover5S.wav,,,,,,,,,,,,,,,,,,,,,,,,,,,,,,,,,,,,,,,,,,,,,,,,,,,,,,,,,,
,,,,,416998,1,2024-06-17_10h52.45.874,experiment,2024.1.5,Win32,60.09615385,667045947eb812cbdacbf325,66704acf6c1f215d8d485521,,,,,,,,,,,,,,,,,,,,,,,,,,,,,,,,,,,,,,,,,,,,1308.488,1310.55,6.967,2.034,0.0,20.0,20.0,7.0,1.0,song_indices/Happy_PharellWilliams.csv,,,,,,,,,,,,,,,,,,,,,,,,,,,,,,,,,,,,,,,,,,,,,,,,
,,,,,416998,1,2024-06-17_10h52.45.874,experiment,2024.1.5,Win32,60.09615385,667045947eb812cbdacbf325,66704acf6c1f215d8d485521,,,,,,,,,,,,,,,,,,,,,,,,,,,,,,,,,,,,1310.559,1316.88,0.0,0.0,0.0,0.0,1.0,SoundStimuli/Fallin_AliciaKeys_Original5S.wav,,,,,,,,,,,,,,,,,,,,,,,,,,,,,,,,,,,,,,,,,,,,,,,,,,,,,,,,,,
,,,,,416998,1,2024-06-17_10h52.45.874,experiment,2024.1.5,Win32,60.09615385,667045947eb812cbdacbf325,66704acf6c1f215d8d485521,,,,,,,,,,,,,,,,,,,,,,,,,,,,,,,,,,,,1316.882,1323.512,0.0,1.0,1.0,1.0,1.0,SoundStimuli/Fallin_AliciaKeys_Cover5S.wav,,,,,,,,,,,,,,,,,,,,,,,,,,,,,,,,,,,,,,,,,,,,,,,,,,,,,,,,,,
,,,,,416998,1,2024-06-17_10h52.45.874,experiment,2024.1.5,Win32,60.09615385,667045947eb812cbdacbf325,66704acf6c1f215d8d485521,,,,,,,,,,,,,,,,,,,,,,,,,,,,,,,,,,,,,,,,,,,,1323.515,1326.166,5.993,2.645,0.0,21.0,21.0,12.0,1.0,song_indices/Fallin_AliciaKeys.csv,,,,,,,,,,,,,,,,,,,,,,,,,,,,,,,,,,,,,,,,,,,,,,,,
,,,,,416998,1,2024-06-17_10h52.45.874,experiment,2024.1.5,Win32,60.09615385,667045947eb812cbdacbf325,66704acf6c1f215d8d485521,,,,,,,,,,,,,,,,,,,,,,,,,,,,,,,,,,,,1326.175,1332.646,0.0,0.0,0.0,1.0,1.0,SoundStimuli/GoodGollyMissMolly_LittleRichard_Cover5S.wav,,,,,,,,,,,,,,,,,,,,,,,,,,,,,,,,,,,,,,,,,,,,,,,,,,,,,,,,,,
,,,,,416998,1,2024-06-17_10h52.45.874,experiment,2024.1.5,Win32,60.09615385,667045947eb812cbdacbf325,66704acf6c1f215d8d485521,,,,,,,,,,,,,,,,,,,,,,,,,,,,,,,,,,,,1332.651,1338.96,0.0,1.0,1.0,0.0,1.0,SoundStimuli/GoodGollyMissMolly_LittleRichard_Original5S.wav,,,,,,,,,,,,,,,,,,,,,,,,,,,,,,,,,,,,,,,,,,,,,,,,,,,,,,,,,,
,,,,,416998,1,2024-06-17_10h52.45.874,experiment,2024.1.5,Win32,60.09615385,667045947eb812cbdacbf325,66704acf6c1f215d8d485521,,,,,,,,,,,,,,,,,,,,,,,,,,,,,,,,,,,,,,,,,,,,1338.969,1340.104,5.993,1.122,0.0,22.0,22.0,0.0,1.0,song_indices/GoodGollyMissMolly_LittleRichard.csv,,,,,,,,,,,,,,,,,,,,,,,,,,,,,,,,,,,,,,,,,,,,,,,,
,,,,,416998,1,2024-06-17_10h52.45.874,experiment,2024.1.5,Win32,60.09615385,667045947eb812cbdacbf325,66704acf6c1f215d8d485521,,,,,,,,,,,,,,,,,,,,,,,,,,,,,,,,,,,,,,,,,,,,,,,,,,,,,,1340.105,1340.112,,,,0.0,2.0,2.0,1.0,1.0,choose_song_b2.csv,,,,,,,,,,,,,,,,,,,,,,,,,,,,,,,,,,,,,
,,,,,416998,1,2024-06-17_10h52.45.874,experiment,2024.1.5,Win32,60.09615385,667045947eb812cbdacbf325,66704acf6c1f215d8d485521,,,,,,,,,,,,,,,,,,,,,,,,,,,,,,,,,,,,,,,,,,,,,,,,,,,,,,,,,,,,,,,,,35.0,Item 2,less than a year beginner on the guitar,Item 6,Spotify,7.0,7.0,Driving,Always,Sometimes,Always,Rarely,Often,Never,Never,Never,Never,Often,Never,Never,Never,Never,Never,Rarely,Afro pop,R&b,Hip hop,Reggae,My music habit recently has been shifting towards afrobeat more,Afrobeats is a new wave of music genre and it was not captured in the questions,0.0,0.0,0.0,0.0,1.0,,
,,,,,416998,1,2024-06-17_10h52.45.874,experiment,2024.1.5,Win32,60.09615385,667045947eb812cbdacbf325,66704acf6c1f215d8d485521,,,,,,,,,,,,,,,,,,,,,,,,,,,,,,,,,,,,,,,,,,,,,,,,,,,,,,,,,,,,,,,,,,,,,,,,,,,,,,,,,,,,,,,,,,,,,,,,,,,,1811.453,1812.373
