welcome.started,welcome.stopped,space_to_continue.keys,space_to_continue.rt,space_to_continue.duration,participant,session,date,expName,psychopyVersion,OS,frameRate,STUDY_ID,SESSION_ID,consent.consent,consent.consent_recontact,consent_check.started,consent_check.stopped,calibration_ready.started,calibration_ready.stopped,cal_ready.keys,cal_ready.rt,cal_ready.duration,calibration.started,calibration.stopped,mouse.x,mouse.y,mouse.leftButton,mouse.midButton,mouse.rightButton,mouse.time,mouse.clicked_name,move_on.keys,move_on.rt,move_on.duration,instructions.started,instructions.stopped,next.keys,next.rt,next.duration,practice_trial.started,practice_trial.stopped,practice_slider.response,practice_slider.rt,ready.started,ready.stopped,key_resp.keys,key_resp.rt,key_resp.duration,play_sound.started,play_sound.stopped,trials.thisRepN,trials.thisTrialN,trials.thisN,trials.thisIndex,trials.ran,orig_or_cover,rating.started,rating.stopped,slider.response,slider.rt,songs.thisRepN,songs.thisTrialN,songs.thisN,songs.thisIndex,songs.ran,song_id,short_break.started,short_break.stopped,space_to_move_on.keys,space_to_move_on.rt,space_to_move_on.duration,blocks.thisRepN,blocks.thisTrialN,blocks.thisN,blocks.thisIndex,blocks.ran,block,survey.age,survey.musician,survey.music_making,survey.listen_time,survey.medium,survey.music_seeking,survey.music_choice,survey.activities,survey.question1.A cappella,survey.question1.Disco,survey.question1.Pop,survey.question1.Classic rock,survey.question1.R&B,survey.question1.Latin,survey.question1.Metal,survey.question1.Folk/indie,survey.question1.Country,survey.question1.Reggae,survey.question1.Ambient,survey.question1.Electronic (EDM),survey.question1.Jazz,survey.question1.Hip hop,survey.question1.Alternative rock,survey.question1.Classical,survey.other_genres,survey.genres_ranked.text1,survey.genres_ranked.text2,survey.genres_ranked.text3,survey.habit_change,experiment.thisRepN,experiment.thisTrialN,experiment.thisN,experiment.thisIndex,experiment.ran,goodbye.started,goodbye.stopped
0.0058,4.9922,space,4.9681,,524677,1,2024-06-17_09h55.51.946,experiment,2024.1.5,Win32,60.60606061,667045947eb812cbdacbf325,66704e48ab4a651f789adc69,,,,,,,,,,,,,,,,,,,,,,,,,,,,,,,,,,,,,,,,,,,,,,,,,,,,,,,,,,,,,,,,,,,,,,,,,,,,,,,,,,,,,,,,,,,,,,,,,,,,
,,,,,524677,1,2024-06-17_09h55.51.946,experiment,2024.1.5,Win32,60.60606061,667045947eb812cbdacbf325,66704e48ab4a651f789adc69,yes,no,,,,,,,,,,,,,,,,,,,,,,,,,,,,,,,,,,,,,,,,,,,,,,,,,,,,,,,,,,,,,,,,,,,,,,,,,,,,,,,,,,,,,,,,,,,,,,,,,,
,,,,,524677,1,2024-06-17_09h55.51.946,experiment,2024.1.5,Win32,60.60606061,667045947eb812cbdacbf325,66704e48ab4a651f789adc69,,,74.1969,74.1972,,,,,,,,,,,,,,,,,,,,,,,,,,,,,,,,,,,,,,,,,,,,,,,,,,,,,,,,,,,,,,,,,,,,,,,,,,,,,,,,,,,,,,,,,,,,,,,,
,,,,,524677,1,2024-06-17_09h55.51.946,experiment,2024.1.5,Win32,60.60606061,667045947eb812cbdacbf325,66704e48ab4a651f789adc69,,,,,74.2011,81.9429,space,7.6962,,81.9434,132.3101,"[-0.019444430315936054,-0.012036994651511864,-0.024999971742983216]","[-0.4518518801088686,-0.4314814673529731,-0.42685183772334345]","[1,1,1]","[0,0,0]","[0,0,0]","[17.824400000035737,38.62230000001189,46.846700000047676]","[""play_button"",""play_button""]",right,40.355,,132.3106,146.0896,space,13.7563,,146.0898,162.6887,4.983333588,16.593,162.6891,164.5995,space,1.8969,,164.6392,171.6518,0.0,0.0,0.0,0.0,1.0,SoundStimuli/PokerFace_LadyGaga_Original5S.wav,,,,,,,,,,,,,,,,,,,,,,,,,,,,,,,,,,,,,,,,,,,,,,,,,,,,,,,,,
,,,,,524677,1,2024-06-17_09h55.51.946,experiment,2024.1.5,Win32,60.60606061,667045947eb812cbdacbf325,66704e48ab4a651f789adc69,,,,,,,,,,,,,,,,,,,,,,,,,,,,,,,,,,,,171.6707,178.5109,0.0,1.0,1.0,1.0,1.0,SoundStimuli/PokerFace_LadyGaga_Cover5S.wav,,,,,,,,,,,,,,,,,,,,,,,,,,,,,,,,,,,,,,,,,,,,,,,,,,,,,,,,,
,,,,,524677,1,2024-06-17_09h55.51.946,experiment,2024.1.5,Win32,60.60606061,667045947eb812cbdacbf325,66704e48ab4a651f789adc69,,,,,,,,,,,,,,,,,,,,,,,,,,,,,,,,,,,,,,,,,,,,178.5247,182.4847,4.422222137,3.9504,0.0,0.0,0.0,23.0,1.0,song_indices/PokerFace_LadyGaga.csv,,,,,,,,,,,,,,,,,,,,,,,,,,,,,,,,,,,,,,,,,,,,,,,
,,,,,524677,1,2024-06-17_09h55.51.946,experiment,2024.1.5,Win32,60.60606061,667045947eb812cbdacbf325,66704e48ab4a651f789adc69,,,,,,,,,,,,,,,,,,,,,,,,,,,,,,,,,,,,182.4881,188.705,0.0,0.0,0.0,0.0,1.0,SoundStimuli/TikTok_Kesha_Original5S.wav,,,,,,,,,,,,,,,,,,,,,,,,,,,,,,,,,,,,,,,,,,,,,,,,,,,,,,,,,
,,,,,524677,1,2024-06-17_09h55.51.946,experiment,2024.1.5,Win32,60.60606061,667045947eb812cbdacbf325,66704e48ab4a651f789adc69,,,,,,,,,,,,,,,,,,,,,,,,,,,,,,,,,,,,188.7241,196.2627,0.0,1.0,1.0,1.0,1.0,SoundStimuli/TikTok_Kesha_Cover5S.wav,,,,,,,,,,,,,,,,,,,,,,,,,,,,,,,,,,,,,,,,,,,,,,,,,,,,,,,,,
,,,,,524677,1,2024-06-17_09h55.51.946,experiment,2024.1.5,Win32,60.60606061,667045947eb812cbdacbf325,66704e48ab4a651f789adc69,,,,,,,,,,,,,,,,,,,,,,,,,,,,,,,,,,,,,,,,,,,,196.2631,198.723,3.616666582,2.4345,0.0,1.0,1.0,3.0,1.0,song_indices/TikTok_Kesha.csv,,,,,,,,,,,,,,,,,,,,,,,,,,,,,,,,,,,,,,,,,,,,,,,
,,,,,524677,1,2024-06-17_09h55.51.946,experiment,2024.1.5,Win32,60.60606061,667045947eb812cbdacbf325,66704e48ab4a651f789adc69,,,,,,,,,,,,,,,,,,,,,,,,,,,,,,,,,,,,198.7255,204.7397,0.0,0.0,0.0,0.0,1.0,SoundStimuli/Levitating_DuaLipa_Original5S.wav,,,,,,,,,,,,,,,,,,,,,,,,,,,,,,,,,,,,,,,,,,,,,,,,,,,,,,,,,
,,,,,524677,1,2024-06-17_09h55.51.946,experiment,2024.1.5,Win32,60.60606061,667045947eb812cbdacbf325,66704e48ab4a651f789adc69,,,,,,,,,,,,,,,,,,,,,,,,,,,,,,,,,,,,204.7574,210.4738,0.0,1.0,1.0,1.0,1.0,SoundStimuli/Levitating_DuaLipa_Cover5S.wav,,,,,,,,,,,,,,,,,,,,,,,,,,,,,,,,,,,,,,,,,,,,,,,,,,,,,,,,,
,,,,,524677,1,2024-06-17_09h55.51.946,experiment,2024.1.5,Win32,60.60606061,667045947eb812cbdacbf325,66704e48ab4a651f789adc69,,,,,,,,,,,,,,,,,,,,,,,,,,,,,,,,,,,,,,,,,,,,210.4741,212.3686,2.911111196,1.8746,0.0,2.0,2.0,10.0,1.0,song_indices/Levitating_DuaLipa.csv,,,,,,,,,,,,,,,,,,,,,,,,,,,,,,,,,,,,,,,,,,,,,,,
,,,,,524677,1,2024-06-17_09h55.51.946,experiment,2024.1.5,Win32,60.60606061,667045947eb812cbdacbf325,66704e48ab4a651f789adc69,,,,,,,,,,,,,,,,,,,,,,,,,,,,,,,,,,,,212.3714,218.5685,0.0,0.0,0.0,0.0,1.0,SoundStimuli/Dilemma_NellyKellyRowland_Original5S.wav,,,,,,,,,,,,,,,,,,,,,,,,,,,,,,,,,,,,,,,,,,,,,,,,,,,,,,,,,
,,,,,524677,1,2024-06-17_09h55.51.946,experiment,2024.1.5,Win32,60.60606061,667045947eb812cbdacbf325,66704e48ab4a651f789adc69,,,,,,,,,,,,,,,,,,,,,,,,,,,,,,,,,,,,218.5869,225.583,0.0,1.0,1.0,1.0,1.0,SoundStimuli/Dilemma_NellyKellyRowland_Cover5S.wav,,,,,,,,,,,,,,,,,,,,,,,,,,,,,,,,,,,,,,,,,,,,,,,,,,,,,,,,,
,,,,,524677,1,2024-06-17_09h55.51.946,experiment,2024.1.5,Win32,60.60606061,667045947eb812cbdacbf325,66704e48ab4a651f789adc69,,,,,,,,,,,,,,,,,,,,,,,,,,,,,,,,,,,,,,,,,,,,225.5833,227.1454,1.955555598,1.5344,0.0,3.0,3.0,2.0,1.0,song_indices/Dilemma_NellyKellyRowland.csv,,,,,,,,,,,,,,,,,,,,,,,,,,,,,,,,,,,,,,,,,,,,,,,
,,,,,524677,1,2024-06-17_09h55.51.946,experiment,2024.1.5,Win32,60.60606061,667045947eb812cbdacbf325,66704e48ab4a651f789adc69,,,,,,,,,,,,,,,,,,,,,,,,,,,,,,,,,,,,227.1487,231.1339,0.0,0.0,0.0,1.0,1.0,SoundStimuli/UnbreakMyHeart_ToniBraxton_Cover5S.wav,,,,,,,,,,,,,,,,,,,,,,,,,,,,,,,,,,,,,,,,,,,,,,,,,,,,,,,,,
,,,,,524677,1,2024-06-17_09h55.51.946,experiment,2024.1.5,Win32,60.60606061,667045947eb812cbdacbf325,66704e48ab4a651f789adc69,,,,,,,,,,,,,,,,,,,,,,,,,,,,,,,,,,,,231.1454,237.2343,0.0,1.0,1.0,0.0,1.0,SoundStimuli/UnbreakMyHeart_ToniBraxton_Original5S.wav,,,,,,,,,,,,,,,,,,,,,,,,,,,,,,,,,,,,,,,,,,,,,,,,,,,,,,,,,
,,,,,524677,1,2024-06-17_09h55.51.946,experiment,2024.1.5,Win32,60.60606061,667045947eb812cbdacbf325,66704e48ab4a651f789adc69,,,,,,,,,,,,,,,,,,,,,,,,,,,,,,,,,,,,,,,,,,,,237.2346,238.9959,1.444444444,1.734,0.0,4.0,4.0,16.0,1.0,song_indices/UnbreakMyHeart_ToniBraxton.csv,,,,,,,,,,,,,,,,,,,,,,,,,,,,,,,,,,,,,,,,,,,,,,,
,,,,,524677,1,2024-06-17_09h55.51.946,experiment,2024.1.5,Win32,60.60606061,667045947eb812cbdacbf325,66704e48ab4a651f789adc69,,,,,,,,,,,,,,,,,,,,,,,,,,,,,,,,,,,,238.9987,244.4815,0.0,0.0,0.0,1.0,1.0,SoundStimuli/HowDoILive_LeAnnRimes_Cover5S.wav,,,,,,,,,,,,,,,,,,,,,,,,,,,,,,,,,,,,,,,,,,,,,,,,,,,,,,,,,
,,,,,524677,1,2024-06-17_09h55.51.946,experiment,2024.1.5,Win32,60.60606061,667045947eb812cbdacbf325,66704e48ab4a651f789adc69,,,,,,,,,,,,,,,,,,,,,,,,,,,,,,,,,,,,244.4994,250.5316,0.0,1.0,1.0,0.0,1.0,SoundStimuli/HowDoILive_LeAnnRimes_Original5S.wav,,,,,,,,,,,,,,,,,,,,,,,,,,,,,,,,,,,,,,,,,,,,,,,,,,,,,,,,,
,,,,,524677,1,2024-06-17_09h55.51.946,experiment,2024.1.5,Win32,60.60606061,667045947eb812cbdacbf325,66704e48ab4a651f789adc69,,,,,,,,,,,,,,,,,,,,,,,,,,,,,,,,,,,,,,,,,,,,250.5319,252.3098,5.772222307,1.7526,0.0,5.0,5.0,17.0,1.0,song_indices/HowDoILive_LeAnnRimes.csv,,,,,,,,,,,,,,,,,,,,,,,,,,,,,,,,,,,,,,,,,,,,,,,
,,,,,524677,1,2024-06-17_09h55.51.946,experiment,2024.1.5,Win32,60.60606061,667045947eb812cbdacbf325,66704e48ab4a651f789adc69,,,,,,,,,,,,,,,,,,,,,,,,,,,,,,,,,,,,252.3125,258.3932,0.0,0.0,0.0,0.0,1.0,SoundStimuli/YouLightUpMyLife_DebbyBoone_Original5S.wav,,,,,,,,,,,,,,,,,,,,,,,,,,,,,,,,,,,,,,,,,,,,,,,,,,,,,,,,,
,,,,,524677,1,2024-06-17_09h55.51.946,experiment,2024.1.5,Win32,60.60606061,667045947eb812cbdacbf325,66704e48ab4a651f789adc69,,,,,,,,,,,,,,,,,,,,,,,,,,,,,,,,,,,,258.4116,264.8592,0.0,1.0,1.0,1.0,1.0,SoundStimuli/YouLightUpMyLife_DebbyBoone_Cover5S.wav,,,,,,,,,,,,,,,,,,,,,,,,,,,,,,,,,,,,,,,,,,,,,,,,,,,,,,,,,
,,,,,524677,1,2024-06-17_09h55.51.946,experiment,2024.1.5,Win32,60.60606061,667045947eb812cbdacbf325,66704e48ab4a651f789adc69,,,,,,,,,,,,,,,,,,,,,,,,,,,,,,,,,,,,,,,,,,,,264.8594,266.6541,6.816666497,1.7666,0.0,6.0,6.0,4.0,1.0,song_indices/YouLightUpMyLife_DebbyBoone.csv,,,,,,,,,,,,,,,,,,,,,,,,,,,,,,,,,,,,,,,,,,,,,,,
,,,,,524677,1,2024-06-17_09h55.51.946,experiment,2024.1.5,Win32,60.60606061,667045947eb812cbdacbf325,66704e48ab4a651f789adc69,,,,,,,,,,,,,,,,,,,,,,,,,,,,,,,,,,,,266.6573,273.419,0.0,0.0,0.0,0.0,1.0,SoundStimuli/BlurredLines_RobinThicke_Original5S.wav,,,,,,,,,,,,,,,,,,,,,,,,,,,,,,,,,,,,,,,,,,,,,,,,,,,,,,,,,
,,,,,524677,1,2024-06-17_09h55.51.946,experiment,2024.1.5,Win32,60.60606061,667045947eb812cbdacbf325,66704e48ab4a651f789adc69,,,,,,,,,,,,,,,,,,,,,,,,,,,,,,,,,,,,273.4376,280.5329,0.0,1.0,1.0,1.0,1.0,SoundStimuli/BlurredLines_RobinThicke_Cover5S.wav,,,,,,,,,,,,,,,,,,,,,,,,,,,,,,,,,,,,,,,,,,,,,,,,,,,,,,,,,
,,,,,524677,1,2024-06-17_09h55.51.946,experiment,2024.1.5,Win32,60.60606061,667045947eb812cbdacbf325,66704e48ab4a651f789adc69,,,,,,,,,,,,,,,,,,,,,,,,,,,,,,,,,,,,,,,,,,,,280.5332,282.4449,6.077778286,1.8829,0.0,7.0,7.0,9.0,1.0,song_indices/BlurredLines_RobinThicke.csv,,,,,,,,,,,,,,,,,,,,,,,,,,,,,,,,,,,,,,,,,,,,,,,
,,,,,524677,1,2024-06-17_09h55.51.946,experiment,2024.1.5,Win32,60.60606061,667045947eb812cbdacbf325,66704e48ab4a651f789adc69,,,,,,,,,,,,,,,,,,,,,,,,,,,,,,,,,,,,282.4472,288.4778,0.0,0.0,0.0,0.0,1.0,SoundStimuli/LeFreak_Chic_Original5S.wav,,,,,,,,,,,,,,,,,,,,,,,,,,,,,,,,,,,,,,,,,,,,,,,,,,,,,,,,,
,,,,,524677,1,2024-06-17_09h55.51.946,experiment,2024.1.5,Win32,60.60606061,667045947eb812cbdacbf325,66704e48ab4a651f789adc69,,,,,,,,,,,,,,,,,,,,,,,,,,,,,,,,,,,,288.4966,294.013,0.0,1.0,1.0,1.0,1.0,SoundStimuli/LeFreak_Chic_Cover5S.wav,,,,,,,,,,,,,,,,,,,,,,,,,,,,,,,,,,,,,,,,,,,,,,,,,,,,,,,,,
,,,,,524677,1,2024-06-17_09h55.51.946,experiment,2024.1.5,Win32,60.60606061,667045947eb812cbdacbf325,66704e48ab4a651f789adc69,,,,,,,,,,,,,,,,,,,,,,,,,,,,,,,,,,,,,,,,,,,,294.0134,298.3347,3.638888889,4.2964,0.0,8.0,8.0,11.0,1.0,song_indices/LeFreak_Chic.csv,,,,,,,,,,,,,,,,,,,,,,,,,,,,,,,,,,,,,,,,,,,,,,,
,,,,,524677,1,2024-06-17_09h55.51.946,experiment,2024.1.5,Win32,60.60606061,667045947eb812cbdacbf325,66704e48ab4a651f789adc69,,,,,,,,,,,,,,,,,,,,,,,,,,,,,,,,,,,,298.3376,304.5343,0.0,0.0,0.0,0.0,1.0,SoundStimuli/SaveYourTears_TheWeekndArianaGrande_Original5S.wav,,,,,,,,,,,,,,,,,,,,,,,,,,,,,,,,,,,,,,,,,,,,,,,,,,,,,,,,,
,,,,,524677,1,2024-06-17_09h55.51.946,experiment,2024.1.5,Win32,60.60606061,667045947eb812cbdacbf325,66704e48ab4a651f789adc69,,,,,,,,,,,,,,,,,,,,,,,,,,,,,,,,,,,,304.5537,310.4353,0.0,1.0,1.0,1.0,1.0,SoundStimuli/SaveYourTears_TheWeekndArianaGrande_Cover5S.wav,,,,,,,,,,,,,,,,,,,,,,,,,,,,,,,,,,,,,,,,,,,,,,,,,,,,,,,,,
,,,,,524677,1,2024-06-17_09h55.51.946,experiment,2024.1.5,Win32,60.60606061,667045947eb812cbdacbf325,66704e48ab4a651f789adc69,,,,,,,,,,,,,,,,,,,,,,,,,,,,,,,,,,,,,,,,,,,,310.4355,312.479,1.849999958,2.0244,0.0,9.0,9.0,12.0,1.0,song_indices/SaveYourTears_TheWeekndArianaGrande.csv,,,,,,,,,,,,,,,,,,,,,,,,,,,,,,,,,,,,,,,,,,,,,,,
,,,,,524677,1,2024-06-17_09h55.51.946,experiment,2024.1.5,Win32,60.60606061,667045947eb812cbdacbf325,66704e48ab4a651f789adc69,,,,,,,,,,,,,,,,,,,,,,,,,,,,,,,,,,,,312.4814,319.7595,0.0,0.0,0.0,1.0,1.0,SoundStimuli/FlashdanceWhatAFeeling_IreneCara_Cover5S.wav,,,,,,,,,,,,,,,,,,,,,,,,,,,,,,,,,,,,,,,,,,,,,,,,,,,,,,,,,
,,,,,524677,1,2024-06-17_09h55.51.946,experiment,2024.1.5,Win32,60.60606061,667045947eb812cbdacbf325,66704e48ab4a651f789adc69,,,,,,,,,,,,,,,,,,,,,,,,,,,,,,,,,,,,319.7787,326.1751,0.0,1.0,1.0,0.0,1.0,SoundStimuli/FlashdanceWhatAFeeling_IreneCara_Original5S.wav,,,,,,,,,,,,,,,,,,,,,,,,,,,,,,,,,,,,,,,,,,,,,,,,,,,,,,,,,
,,,,,524677,1,2024-06-17_09h55.51.946,experiment,2024.1.5,Win32,60.60606061,667045947eb812cbdacbf325,66704e48ab4a651f789adc69,,,,,,,,,,,,,,,,,,,,,,,,,,,,,,,,,,,,,,,,,,,,326.1755,328.4855,6.816666497,2.2853,0.0,10.0,10.0,18.0,1.0,song_indices/FlashdanceWhatAFeeling_IreneCara.csv,,,,,,,,,,,,,,,,,,,,,,,,,,,,,,,,,,,,,,,,,,,,,,,
,,,,,524677,1,2024-06-17_09h55.51.946,experiment,2024.1.5,Win32,60.60606061,667045947eb812cbdacbf325,66704e48ab4a651f789adc69,,,,,,,,,,,,,,,,,,,,,,,,,,,,,,,,,,,,328.4882,334.5025,0.0,0.0,0.0,1.0,1.0,SoundStimuli/TheSign_AceOfBase_Cover5S.wav,,,,,,,,,,,,,,,,,,,,,,,,,,,,,,,,,,,,,,,,,,,,,,,,,,,,,,,,,
,,,,,524677,1,2024-06-17_09h55.51.946,experiment,2024.1.5,Win32,60.60606061,667045947eb812cbdacbf325,66704e48ab4a651f789adc69,,,,,,,,,,,,,,,,,,,,,,,,,,,,,,,,,,,,334.5217,340.6854,0.0,1.0,1.0,0.0,1.0,SoundStimuli/TheSign_AceOfBase_Original5S.wav,,,,,,,,,,,,,,,,,,,,,,,,,,,,,,,,,,,,,,,,,,,,,,,,,,,,,,,,,
,,,,,524677,1,2024-06-17_09h55.51.946,experiment,2024.1.5,Win32,60.60606061,667045947eb812cbdacbf325,66704e48ab4a651f789adc69,,,,,,,,,,,,,,,,,,,,,,,,,,,,,,,,,,,,,,,,,,,,340.6857,342.265,6.983333164,1.5541,0.0,11.0,11.0,5.0,1.0,song_indices/TheSign_AceOfBase.csv,,,,,,,,,,,,,,,,,,,,,,,,,,,,,,,,,,,,,,,,,,,,,,,
,,,,,524677,1,2024-06-17_09h55.51.946,experiment,2024.1.5,Win32,60.60606061,667045947eb812cbdacbf325,66704e48ab4a651f789adc69,,,,,,,,,,,,,,,,,,,,,,,,,,,,,,,,,,,,342.2675,349.3287,0.0,0.0,0.0,1.0,1.0,SoundStimuli/ComeAndGetYourLove_Redbone_Cover5S.wav,,,,,,,,,,,,,,,,,,,,,,,,,,,,,,,,,,,,,,,,,,,,,,,,,,,,,,,,,
,,,,,524677,1,2024-06-17_09h55.51.946,experiment,2024.1.5,Win32,60.60606061,667045947eb812cbdacbf325,66704e48ab4a651f789adc69,,,,,,,,,,,,,,,,,,,,,,,,,,,,,,,,,,,,349.3497,355.4452,0.0,1.0,1.0,0.0,1.0,SoundStimuli/ComeAndGetYourLove_Redbone_Original5S.wav,,,,,,,,,,,,,,,,,,,,,,,,,,,,,,,,,,,,,,,,,,,,,,,,,,,,,,,,,
,,,,,524677,1,2024-06-17_09h55.51.946,experiment,2024.1.5,Win32,60.60606061,667045947eb812cbdacbf325,66704e48ab4a651f789adc69,,,,,,,,,,,,,,,,,,,,,,,,,,,,,,,,,,,,,,,,,,,,355.4454,357.2903,6.66111162,1.8219,0.0,12.0,12.0,22.0,1.0,song_indices/ComeAndGetYourLove_Redbone.csv,,,,,,,,,,,,,,,,,,,,,,,,,,,,,,,,,,,,,,,,,,,,,,,
,,,,,524677,1,2024-06-17_09h55.51.946,experiment,2024.1.5,Win32,60.60606061,667045947eb812cbdacbf325,66704e48ab4a651f789adc69,,,,,,,,,,,,,,,,,,,,,,,,,,,,,,,,,,,,357.2929,363.773,0.0,0.0,0.0,0.0,1.0,SoundStimuli/BlindingLights_TheWeeknd_Original5S.wav,,,,,,,,,,,,,,,,,,,,,,,,,,,,,,,,,,,,,,,,,,,,,,,,,,,,,,,,,
,,,,,524677,1,2024-06-17_09h55.51.946,experiment,2024.1.5,Win32,60.60606061,667045947eb812cbdacbf325,66704e48ab4a651f789adc69,,,,,,,,,,,,,,,,,,,,,,,,,,,,,,,,,,,,363.7915,370.5873,0.0,1.0,1.0,1.0,1.0,SoundStimuli/BlindingLights_TheWeeknd_Cover5S.wav,,,,,,,,,,,,,,,,,,,,,,,,,,,,,,,,,,,,,,,,,,,,,,,,,,,,,,,,,
,,,,,524677,1,2024-06-17_09h55.51.946,experiment,2024.1.5,Win32,60.60606061,667045947eb812cbdacbf325,66704e48ab4a651f789adc69,,,,,,,,,,,,,,,,,,,,,,,,,,,,,,,,,,,,,,,,,,,,370.5876,372.4824,6.522222731,1.8719,0.0,13.0,13.0,21.0,1.0,song_indices/BlindingLights_TheWeeknd.csv,,,,,,,,,,,,,,,,,,,,,,,,,,,,,,,,,,,,,,,,,,,,,,,
,,,,,524677,1,2024-06-17_09h55.51.946,experiment,2024.1.5,Win32,60.60606061,667045947eb812cbdacbf325,66704e48ab4a651f789adc69,,,,,,,,,,,,,,,,,,,,,,,,,,,,,,,,,,,,372.4847,378.5658,0.0,0.0,0.0,0.0,1.0,SoundStimuli/Weak_SWV_Original5S.wav,,,,,,,,,,,,,,,,,,,,,,,,,,,,,,,,,,,,,,,,,,,,,,,,,,,,,,,,,
,,,,,524677,1,2024-06-17_09h55.51.946,experiment,2024.1.5,Win32,60.60606061,667045947eb812cbdacbf325,66704e48ab4a651f789adc69,,,,,,,,,,,,,,,,,,,,,,,,,,,,,,,,,,,,378.5839,385.0643,0.0,1.0,1.0,1.0,1.0,SoundStimuli/Weak_SWV_Cover5S.wav,,,,,,,,,,,,,,,,,,,,,,,,,,,,,,,,,,,,,,,,,,,,,,,,,,,,,,,,,
,,,,,524677,1,2024-06-17_09h55.51.946,experiment,2024.1.5,Win32,60.60606061,667045947eb812cbdacbf325,66704e48ab4a651f789adc69,,,,,,,,,,,,,,,,,,,,,,,,,,,,,,,,,,,,,,,,,,,,385.0646,388.9212,1.400000042,3.8353,0.0,14.0,14.0,6.0,1.0,song_indices/Weak_SWV.csv,,,,,,,,,,,,,,,,,,,,,,,,,,,,,,,,,,,,,,,,,,,,,,,
,,,,,524677,1,2024-06-17_09h55.51.946,experiment,2024.1.5,Win32,60.60606061,667045947eb812cbdacbf325,66704e48ab4a651f789adc69,,,,,,,,,,,,,,,,,,,,,,,,,,,,,,,,,,,,388.9237,394.8383,0.0,0.0,0.0,1.0,1.0,SoundStimuli/Irreplaceable_Beyonce_Cover5S.wav,,,,,,,,,,,,,,,,,,,,,,,,,,,,,,,,,,,,,,,,,,,,,,,,,,,,,,,,,
,,,,,524677,1,2024-06-17_09h55.51.946,experiment,2024.1.5,Win32,60.60606061,667045947eb812cbdacbf325,66704e48ab4a651f789adc69,,,,,,,,,,,,,,,,,,,,,,,,,,,,,,,,,,,,394.857,400.7217,0.0,1.0,1.0,0.0,1.0,SoundStimuli/Irreplaceable_Beyonce_Original5S.wav,,,,,,,,,,,,,,,,,,,,,,,,,,,,,,,,,,,,,,,,,,,,,,,,,,,,,,,,,
,,,,,524677,1,2024-06-17_09h55.51.946,experiment,2024.1.5,Win32,60.60606061,667045947eb812cbdacbf325,66704e48ab4a651f789adc69,,,,,,,,,,,,,,,,,,,,,,,,,,,,,,,,,,,,,,,,,,,,400.7222,405.0601,1.35555564,4.3116,0.0,15.0,15.0,19.0,1.0,song_indices/Irreplaceable_Beyonce.csv,,,,,,,,,,,,,,,,,,,,,,,,,,,,,,,,,,,,,,,,,,,,,,,
,,,,,524677,1,2024-06-17_09h55.51.946,experiment,2024.1.5,Win32,60.60606061,667045947eb812cbdacbf325,66704e48ab4a651f789adc69,,,,,,,,,,,,,,,,,,,,,,,,,,,,,,,,,,,,405.0633,410.3622,0.0,0.0,0.0,1.0,1.0,SoundStimuli/Superstition_StevieWonder_Cover5S.wav,,,,,,,,,,,,,,,,,,,,,,,,,,,,,,,,,,,,,,,,,,,,,,,,,,,,,,,,,
,,,,,524677,1,2024-06-17_09h55.51.946,experiment,2024.1.5,Win32,60.60606061,667045947eb812cbdacbf325,66704e48ab4a651f789adc69,,,,,,,,,,,,,,,,,,,,,,,,,,,,,,,,,,,,410.3817,416.512,0.0,1.0,1.0,0.0,1.0,SoundStimuli/Superstition_StevieWonder_Original5S.wav,,,,,,,,,,,,,,,,,,,,,,,,,,,,,,,,,,,,,,,,,,,,,,,,,,,,,,,,,
,,,,,524677,1,2024-06-17_09h55.51.946,experiment,2024.1.5,Win32,60.60606061,667045947eb812cbdacbf325,66704e48ab4a651f789adc69,,,,,,,,,,,,,,,,,,,,,,,,,,,,,,,,,,,,,,,,,,,,416.5122,417.7764,1.172222349,1.2446,0.0,16.0,16.0,15.0,1.0,song_indices/Superstition_StevieWonder.csv,,,,,,,,,,,,,,,,,,,,,,,,,,,,,,,,,,,,,,,,,,,,,,,
,,,,,524677,1,2024-06-17_09h55.51.946,experiment,2024.1.5,Win32,60.60606061,667045947eb812cbdacbf325,66704e48ab4a651f789adc69,,,,,,,,,,,,,,,,,,,,,,,,,,,,,,,,,,,,417.7785,424.4238,0.0,0.0,0.0,1.0,1.0,SoundStimuli/LetsGetItOn_MarvinGaye_Cover5S.wav,,,,,,,,,,,,,,,,,,,,,,,,,,,,,,,,,,,,,,,,,,,,,,,,,,,,,,,,,
,,,,,524677,1,2024-06-17_09h55.51.946,experiment,2024.1.5,Win32,60.60606061,667045947eb812cbdacbf325,66704e48ab4a651f789adc69,,,,,,,,,,,,,,,,,,,,,,,,,,,,,,,,,,,,424.4426,430.7399,0.0,1.0,1.0,0.0,1.0,SoundStimuli/LetsGetItOn_MarvinGaye_Original5S.wav,,,,,,,,,,,,,,,,,,,,,,,,,,,,,,,,,,,,,,,,,,,,,,,,,,,,,,,,,
,,,,,524677,1,2024-06-17_09h55.51.946,experiment,2024.1.5,Win32,60.60606061,667045947eb812cbdacbf325,66704e48ab4a651f789adc69,,,,,,,,,,,,,,,,,,,,,,,,,,,,,,,,,,,,,,,,,,,,430.7401,432.6516,1.555555556,1.8825,0.0,17.0,17.0,20.0,1.0,song_indices/LetsGetItOn_MarvinGaye.csv,,,,,,,,,,,,,,,,,,,,,,,,,,,,,,,,,,,,,,,,,,,,,,,
,,,,,524677,1,2024-06-17_09h55.51.946,experiment,2024.1.5,Win32,60.60606061,667045947eb812cbdacbf325,66704e48ab4a651f789adc69,,,,,,,,,,,,,,,,,,,,,,,,,,,,,,,,,,,,432.6543,439.8817,0.0,0.0,0.0,0.0,1.0,SoundStimuli/SomebodyThatIUsedtoKnow_Gotye_Original5S.wav,,,,,,,,,,,,,,,,,,,,,,,,,,,,,,,,,,,,,,,,,,,,,,,,,,,,,,,,,
,,,,,524677,1,2024-06-17_09h55.51.946,experiment,2024.1.5,Win32,60.60606061,667045947eb812cbdacbf325,66704e48ab4a651f789adc69,,,,,,,,,,,,,,,,,,,,,,,,,,,,,,,,,,,,439.8999,446.6973,0.0,1.0,1.0,1.0,1.0,SoundStimuli/SomebodyThatIUsedtoKnow_Gotye_Cover5S.wav,,,,,,,,,,,,,,,,,,,,,,,,,,,,,,,,,,,,,,,,,,,,,,,,,,,,,,,,,
,,,,,524677,1,2024-06-17_09h55.51.946,experiment,2024.1.5,Win32,60.60606061,667045947eb812cbdacbf325,66704e48ab4a651f789adc69,,,,,,,,,,,,,,,,,,,,,,,,,,,,,,,,,,,,,,,,,,,,446.6976,449.0236,6.538888719,2.2976,0.0,18.0,18.0,7.0,1.0,song_indices/SomebodyThatIUsedtoKnow_Gotye.csv,,,,,,,,,,,,,,,,,,,,,,,,,,,,,,,,,,,,,,,,,,,,,,,
,,,,,524677,1,2024-06-17_09h55.51.946,experiment,2024.1.5,Win32,60.60606061,667045947eb812cbdacbf325,66704e48ab4a651f789adc69,,,,,,,,,,,,,,,,,,,,,,,,,,,,,,,,,,,,449.0255,455.1403,0.0,0.0,0.0,1.0,1.0,SoundStimuli/TossinAndTurnin_BobbyLewis_Cover5S.wav,,,,,,,,,,,,,,,,,,,,,,,,,,,,,,,,,,,,,,,,,,,,,,,,,,,,,,,,,
,,,,,524677,1,2024-06-17_09h55.51.946,experiment,2024.1.5,Win32,60.60606061,667045947eb812cbdacbf325,66704e48ab4a651f789adc69,,,,,,,,,,,,,,,,,,,,,,,,,,,,,,,,,,,,455.1586,461.2239,0.0,1.0,1.0,0.0,1.0,SoundStimuli/TossinAndTurnin_BobbyLewis_Original5S.wav,,,,,,,,,,,,,,,,,,,,,,,,,,,,,,,,,,,,,,,,,,,,,,,,,,,,,,,,,
,,,,,524677,1,2024-06-17_09h55.51.946,experiment,2024.1.5,Win32,60.60606061,667045947eb812cbdacbf325,66704e48ab4a651f789adc69,,,,,,,,,,,,,,,,,,,,,,,,,,,,,,,,,,,,,,,,,,,,461.2242,464.6356,1.005555683,3.3914,0.0,19.0,19.0,13.0,1.0,song_indices/TossinAndTurnin_BobbyLewis.csv,,,,,,,,,,,,,,,,,,,,,,,,,,,,,,,,,,,,,,,,,,,,,,,
,,,,,524677,1,2024-06-17_09h55.51.946,experiment,2024.1.5,Win32,60.60606061,667045947eb812cbdacbf325,66704e48ab4a651f789adc69,,,,,,,,,,,,,,,,,,,,,,,,,,,,,,,,,,,,464.6378,470.7478,0.0,0.0,0.0,0.0,1.0,SoundStimuli/JoyToTheWorld_ThreeDogNight_Original5S.wav,,,,,,,,,,,,,,,,,,,,,,,,,,,,,,,,,,,,,,,,,,,,,,,,,,,,,,,,,
,,,,,524677,1,2024-06-17_09h55.51.946,experiment,2024.1.5,Win32,60.60606061,667045947eb812cbdacbf325,66704e48ab4a651f789adc69,,,,,,,,,,,,,,,,,,,,,,,,,,,,,,,,,,,,470.7671,475.9003,0.0,1.0,1.0,1.0,1.0,SoundStimuli/JoyToTheWorld_ThreeDogNight_Cover5S.wav,,,,,,,,,,,,,,,,,,,,,,,,,,,,,,,,,,,,,,,,,,,,,,,,,,,,,,,,,
,,,,,524677,1,2024-06-17_09h55.51.946,experiment,2024.1.5,Win32,60.60606061,667045947eb812cbdacbf325,66704e48ab4a651f789adc69,,,,,,,,,,,,,,,,,,,,,,,,,,,,,,,,,,,,,,,,,,,,475.9005,479.3423,5.077777863,3.4219,0.0,20.0,20.0,8.0,1.0,song_indices/JoyToTheWorld_ThreeDogNight.csv,,,,,,,,,,,,,,,,,,,,,,,,,,,,,,,,,,,,,,,,,,,,,,,
,,,,,524677,1,2024-06-17_09h55.51.946,experiment,2024.1.5,Win32,60.60606061,667045947eb812cbdacbf325,66704e48ab4a651f789adc69,,,,,,,,,,,,,,,,,,,,,,,,,,,,,,,,,,,,479.3445,485.6241,0.0,0.0,0.0,1.0,1.0,SoundStimuli/Kiss_Prince_Cover5S.wav,,,,,,,,,,,,,,,,,,,,,,,,,,,,,,,,,,,,,,,,,,,,,,,,,,,,,,,,,
,,,,,524677,1,2024-06-17_09h55.51.946,experiment,2024.1.5,Win32,60.60606061,667045947eb812cbdacbf325,66704e48ab4a651f789adc69,,,,,,,,,,,,,,,,,,,,,,,,,,,,,,,,,,,,485.6427,493.0703,0.0,1.0,1.0,0.0,1.0,SoundStimuli/Kiss_Prince_Original5S.wav,,,,,,,,,,,,,,,,,,,,,,,,,,,,,,,,,,,,,,,,,,,,,,,,,,,,,,,,,
,,,,,524677,1,2024-06-17_09h55.51.946,experiment,2024.1.5,Win32,60.60606061,667045947eb812cbdacbf325,66704e48ab4a651f789adc69,,,,,,,,,,,,,,,,,,,,,,,,,,,,,,,,,,,,,,,,,,,,493.0707,495.8462,1.122222265,2.7493,0.0,21.0,21.0,14.0,1.0,song_indices/Kiss_Prince.csv,,,,,,,,,,,,,,,,,,,,,,,,,,,,,,,,,,,,,,,,,,,,,,,
,,,,,524677,1,2024-06-17_09h55.51.946,experiment,2024.1.5,Win32,60.60606061,667045947eb812cbdacbf325,66704e48ab4a651f789adc69,,,,,,,,,,,,,,,,,,,,,,,,,,,,,,,,,,,,495.8479,501.9128,0.0,0.0,0.0,1.0,1.0,SoundStimuli/Respect_ArethaFranklin_Cover5S.wav,,,,,,,,,,,,,,,,,,,,,,,,,,,,,,,,,,,,,,,,,,,,,,,,,,,,,,,,,
,,,,,524677,1,2024-06-17_09h55.51.946,experiment,2024.1.5,Win32,60.60606061,667045947eb812cbdacbf325,66704e48ab4a651f789adc69,,,,,,,,,,,,,,,,,,,,,,,,,,,,,,,,,,,,501.9306,507.8631,0.0,1.0,1.0,0.0,1.0,SoundStimuli/Respect_ArethaFranklin_Original5S.wav,,,,,,,,,,,,,,,,,,,,,,,,,,,,,,,,,,,,,,,,,,,,,,,,,,,,,,,,,
,,,,,524677,1,2024-06-17_09h55.51.946,experiment,2024.1.5,Win32,60.60606061,667045947eb812cbdacbf325,66704e48ab4a651f789adc69,,,,,,,,,,,,,,,,,,,,,,,,,,,,,,,,,,,,,,,,,,,,507.8633,510.927,1.861111111,3.0446,0.0,22.0,22.0,0.0,1.0,song_indices/Respect_ArethaFranklin.csv,,,,,,,,,,,,,,,,,,,,,,,,,,,,,,,,,,,,,,,,,,,,,,,
,,,,,524677,1,2024-06-17_09h55.51.946,experiment,2024.1.5,Win32,60.60606061,667045947eb812cbdacbf325,66704e48ab4a651f789adc69,,,,,,,,,,,,,,,,,,,,,,,,,,,,,,,,,,,,510.9283,517.437,0.0,0.0,0.0,0.0,1.0,SoundStimuli/Dreams_FleetwoodMac_Original5S.wav,,,,,,,,,,,,,,,,,,,,,,,,,,,,,,,,,,,,,,,,,,,,,,,,,,,,,,,,,
,,,,,524677,1,2024-06-17_09h55.51.946,experiment,2024.1.5,Win32,60.60606061,667045947eb812cbdacbf325,66704e48ab4a651f789adc69,,,,,,,,,,,,,,,,,,,,,,,,,,,,,,,,,,,,517.4481,525.2869,0.0,1.0,1.0,1.0,1.0,SoundStimuli/Dreams_FleetwoodMac_Cover5S.wav,,,,,,,,,,,,,,,,,,,,,,,,,,,,,,,,,,,,,,,,,,,,,,,,,,,,,,,,,
,,,,,524677,1,2024-06-17_09h55.51.946,experiment,2024.1.5,Win32,60.60606061,667045947eb812cbdacbf325,66704e48ab4a651f789adc69,,,,,,,,,,,,,,,,,,,,,,,,,,,,,,,,,,,,,,,,,,,,525.287,527.2937,1.316666709,1.9785,0.0,23.0,23.0,1.0,1.0,song_indices/Dreams_FleetwoodMac.csv,,,,,,,,,,,,,,,,,,,,,,,,,,,,,,,,,,,,,,,,,,,,,,,
,,,,,524677,1,2024-06-17_09h55.51.946,experiment,2024.1.5,Win32,60.60606061,667045947eb812cbdacbf325,66704e48ab4a651f789adc69,,,,,,,,,,,,,,,,,,,,,,,,,,,,,,,,,,,,,,,,,,,,,,,,,,,,,,527.2952,529.7536,space,2.4381,,0.0,0.0,0.0,2.0,1.0,choose_song_b3.csv,,,,,,,,,,,,,,,,,,,,,,,,,,,,,,,,,,,,
,,,,,524677,1,2024-06-17_09h55.51.946,experiment,2024.1.5,Win32,60.60606061,667045947eb812cbdacbf325,66704e48ab4a651f789adc69,,,,,,,,,,,,,,,,,,,,,,,,,,,,,,,,,,,,529.7575,537.1165,0.0,0.0,0.0,0.0,1.0,SoundStimuli/Happy_PharellWilliams_Original5S.wav,,,,,,,,,,,,,,,,,,,,,,,,,,,,,,,,,,,,,,,,,,,,,,,,,,,,,,,,,
,,,,,524677,1,2024-06-17_09h55.51.946,experiment,2024.1.5,Win32,60.60606061,667045947eb812cbdacbf325,66704e48ab4a651f789adc69,,,,,,,,,,,,,,,,,,,,,,,,,,,,,,,,,,,,537.1347,544.4969,0.0,1.0,1.0,1.0,1.0,SoundStimuli/Happy_PharellWilliams_Cover5S.wav,,,,,,,,,,,,,,,,,,,,,,,,,,,,,,,,,,,,,,,,,,,,,,,,,,,,,,,,,
,,,,,524677,1,2024-06-17_09h55.51.946,experiment,2024.1.5,Win32,60.60606061,667045947eb812cbdacbf325,66704e48ab4a651f789adc69,,,,,,,,,,,,,,,,,,,,,,,,,,,,,,,,,,,,,,,,,,,,544.4971,546.4758,3.522222307,1.9511,0.0,0.0,0.0,7.0,1.0,song_indices/Happy_PharellWilliams.csv,,,,,,,,,,,,,,,,,,,,,,,,,,,,,,,,,,,,,,,,,,,,,,,
,,,,,524677,1,2024-06-17_09h55.51.946,experiment,2024.1.5,Win32,60.60606061,667045947eb812cbdacbf325,66704e48ab4a651f789adc69,,,,,,,,,,,,,,,,,,,,,,,,,,,,,,,,,,,,546.478,553.0575,0.0,0.0,0.0,1.0,1.0,SoundStimuli/GetUrFreakOn_MissyElliot_Cover5S.wav,,,,,,,,,,,,,,,,,,,,,,,,,,,,,,,,,,,,,,,,,,,,,,,,,,,,,,,,,
,,,,,524677,1,2024-06-17_09h55.51.946,experiment,2024.1.5,Win32,60.60606061,667045947eb812cbdacbf325,66704e48ab4a651f789adc69,,,,,,,,,,,,,,,,,,,,,,,,,,,,,,,,,,,,553.0768,559.1568,0.0,1.0,1.0,0.0,1.0,SoundStimuli/GetUrFreakOn_MissyElliot_Original5S.wav,,,,,,,,,,,,,,,,,,,,,,,,,,,,,,,,,,,,,,,,,,,,,,,,,,,,,,,,,
,,,,,524677,1,2024-06-17_09h55.51.946,experiment,2024.1.5,Win32,60.60606061,667045947eb812cbdacbf325,66704e48ab4a651f789adc69,,,,,,,,,,,,,,,,,,,,,,,,,,,,,,,,,,,,,,,,,,,,559.1573,561.2845,1.577777863,2.0981,0.0,1.0,1.0,18.0,1.0,song_indices/GetUrFreakOn_MissyElliot.csv,,,,,,,,,,,,,,,,,,,,,,,,,,,,,,,,,,,,,,,,,,,,,,,
,,,,,524677,1,2024-06-17_09h55.51.946,experiment,2024.1.5,Win32,60.60606061,667045947eb812cbdacbf325,66704e48ab4a651f789adc69,,,,,,,,,,,,,,,,,,,,,,,,,,,,,,,,,,,,561.2866,568.0658,0.0,0.0,0.0,1.0,1.0,SoundStimuli/PartyRockAnthem_LMFAO_Cover5S.wav,,,,,,,,,,,,,,,,,,,,,,,,,,,,,,,,,,,,,,,,,,,,,,,,,,,,,,,,,
,,,,,524677,1,2024-06-17_09h55.51.946,experiment,2024.1.5,Win32,60.60606061,667045947eb812cbdacbf325,66704e48ab4a651f789adc69,,,,,,,,,,,,,,,,,,,,,,,,,,,,,,,,,,,,568.085,574.8305,0.0,1.0,1.0,0.0,1.0,SoundStimuli/PartyRockAnthem_LMFAO_Original5S.wav,,,,,,,,,,,,,,,,,,,,,,,,,,,,,,,,,,,,,,,,,,,,,,,,,,,,,,,,,
,,,,,524677,1,2024-06-17_09h55.51.946,experiment,2024.1.5,Win32,60.60606061,667045947eb812cbdacbf325,66704e48ab4a651f789adc69,,,,,,,,,,,,,,,,,,,,,,,,,,,,,,,,,,,,,,,,,,,,574.8307,577.2572,3.022222307,2.4026,0.0,2.0,2.0,2.0,1.0,song_indices/PartyRockAnthem_LMFAO.csv,,,,,,,,,,,,,,,,,,,,,,,,,,,,,,,,,,,,,,,,,,,,,,,
,,,,,524677,1,2024-06-17_09h55.51.946,experiment,2024.1.5,Win32,60.60606061,667045947eb812cbdacbf325,66704e48ab4a651f789adc69,,,,,,,,,,,,,,,,,,,,,,,,,,,,,,,,,,,,577.2592,583.3571,0.0,0.0,0.0,0.0,1.0,SoundStimuli/GimmeShelter_RollingStones_Original5S.wav,,,,,,,,,,,,,,,,,,,,,,,,,,,,,,,,,,,,,,,,,,,,,,,,,,,,,,,,,
,,,,,524677,1,2024-06-17_09h55.51.946,experiment,2024.1.5,Win32,60.60606061,667045947eb812cbdacbf325,66704e48ab4a651f789adc69,,,,,,,,,,,,,,,,,,,,,,,,,,,,,,,,,,,,583.3666,589.574,0.0,1.0,1.0,1.0,1.0,SoundStimuli/GimmeShelter_RollingStones_Cover5S.wav,,,,,,,,,,,,,,,,,,,,,,,,,,,,,,,,,,,,,,,,,,,,,,,,,,,,,,,,,
,,,,,524677,1,2024-06-17_09h55.51.946,experiment,2024.1.5,Win32,60.60606061,667045947eb812cbdacbf325,66704e48ab4a651f789adc69,,,,,,,,,,,,,,,,,,,,,,,,,,,,,,,,,,,,,,,,,,,,589.5743,592.334,2.322222392,2.7346,0.0,3.0,3.0,20.0,1.0,song_indices/GimmeShelter_RollingStones.csv,,,,,,,,,,,,,,,,,,,,,,,,,,,,,,,,,,,,,,,,,,,,,,,
,,,,,524677,1,2024-06-17_09h55.51.946,experiment,2024.1.5,Win32,60.60606061,667045947eb812cbdacbf325,66704e48ab4a651f789adc69,,,,,,,,,,,,,,,,,,,,,,,,,,,,,,,,,,,,592.3365,598.549,0.0,0.0,0.0,0.0,1.0,SoundStimuli/TheBattleOfNewOrleans_JohnnyHorton_Original5S.wav,,,,,,,,,,,,,,,,,,,,,,,,,,,,,,,,,,,,,,,,,,,,,,,,,,,,,,,,,
,,,,,524677,1,2024-06-17_09h55.51.946,experiment,2024.1.5,Win32,60.60606061,667045947eb812cbdacbf325,66704e48ab4a651f789adc69,,,,,,,,,,,,,,,,,,,,,,,,,,,,,,,,,,,,598.5678,606.544,0.0,1.0,1.0,1.0,1.0,SoundStimuli/TheBattleOfNewOrleans_JohnnyHorton_Cover5S.wav,,,,,,,,,,,,,,,,,,,,,,,,,,,,,,,,,,,,,,,,,,,,,,,,,,,,,,,,,
,,,,,524677,1,2024-06-17_09h55.51.946,experiment,2024.1.5,Win32,60.60606061,667045947eb812cbdacbf325,66704e48ab4a651f789adc69,,,,,,,,,,,,,,,,,,,,,,,,,,,,,,,,,,,,,,,,,,,,606.5444,610.9161,1.638888889,4.342,0.0,4.0,4.0,4.0,1.0,song_indices/TheBattleOfNewOrleans_JohnnyHorton.csv,,,,,,,,,,,,,,,,,,,,,,,,,,,,,,,,,,,,,,,,,,,,,,,
,,,,,524677,1,2024-06-17_09h55.51.946,experiment,2024.1.5,Win32,60.60606061,667045947eb812cbdacbf325,66704e48ab4a651f789adc69,,,,,,,,,,,,,,,,,,,,,,,,,,,,,,,,,,,,610.9185,616.8213,0.0,0.0,0.0,0.0,1.0,SoundStimuli/EyeOfTheTiger_Survivor_Original5S.wav,,,,,,,,,,,,,,,,,,,,,,,,,,,,,,,,,,,,,,,,,,,,,,,,,,,,,,,,,
,,,,,524677,1,2024-06-17_09h55.51.946,experiment,2024.1.5,Win32,60.60606061,667045947eb812cbdacbf325,66704e48ab4a651f789adc69,,,,,,,,,,,,,,,,,,,,,,,,,,,,,,,,,,,,616.8218,622.9543,0.0,1.0,1.0,1.0,1.0,SoundStimuli/EyeOfTheTiger_Survivor_Cover5S.wav,,,,,,,,,,,,,,,,,,,,,,,,,,,,,,,,,,,,,,,,,,,,,,,,,,,,,,,,,
,,,,,524677,1,2024-06-17_09h55.51.946,experiment,2024.1.5,Win32,60.60606061,667045947eb812cbdacbf325,66704e48ab4a651f789adc69,,,,,,,,,,,,,,,,,,,,,,,,,,,,,,,,,,,,,,,,,,,,622.9545,625.3428,6.877777947,2.3656,0.0,5.0,5.0,11.0,1.0,song_indices/EyeOfTheTiger_Survivor.csv,,,,,,,,,,,,,,,,,,,,,,,,,,,,,,,,,,,,,,,,,,,,,,,
,,,,,524677,1,2024-06-17_09h55.51.946,experiment,2024.1.5,Win32,60.60606061,667045947eb812cbdacbf325,66704e48ab4a651f789adc69,,,,,,,,,,,,,,,,,,,,,,,,,,,,,,,,,,,,625.345,631.6755,0.0,0.0,0.0,0.0,1.0,SoundStimuli/RockWithYou_MichaelJackson_Original5S.wav,,,,,,,,,,,,,,,,,,,,,,,,,,,,,,,,,,,,,,,,,,,,,,,,,,,,,,,,,
,,,,,524677,1,2024-06-17_09h55.51.946,experiment,2024.1.5,Win32,60.60606061,667045947eb812cbdacbf325,66704e48ab4a651f789adc69,,,,,,,,,,,,,,,,,,,,,,,,,,,,,,,,,,,,631.6933,637.7587,0.0,1.0,1.0,1.0,1.0,SoundStimuli/RockWithYou_MichaelJackson_Cover5S.wav,,,,,,,,,,,,,,,,,,,,,,,,,,,,,,,,,,,,,,,,,,,,,,,,,,,,,,,,,
,,,,,524677,1,2024-06-17_09h55.51.946,experiment,2024.1.5,Win32,60.60606061,667045947eb812cbdacbf325,66704e48ab4a651f789adc69,,,,,,,,,,,,,,,,,,,,,,,,,,,,,,,,,,,,,,,,,,,,637.7589,640.1359,1.25,2.3511,0.0,6.0,6.0,16.0,1.0,song_indices/RockWithYou_MichaelJackson.csv,,,,,,,,,,,,,,,,,,,,,,,,,,,,,,,,,,,,,,,,,,,,,,,
,,,,,524677,1,2024-06-17_09h55.51.946,experiment,2024.1.5,Win32,60.60606061,667045947eb812cbdacbf325,66704e48ab4a651f789adc69,,,,,,,,,,,,,,,,,,,,,,,,,,,,,,,,,,,,640.1386,650.3959,0.0,0.0,0.0,1.0,1.0,SoundStimuli/CrazyInLove_BeyonceFtJayZ_Cover5S.wav,,,,,,,,,,,,,,,,,,,,,,,,,,,,,,,,,,,,,,,,,,,,,,,,,,,,,,,,,
,,,,,524677,1,2024-06-17_09h55.51.946,experiment,2024.1.5,Win32,60.60606061,667045947eb812cbdacbf325,66704e48ab4a651f789adc69,,,,,,,,,,,,,,,,,,,,,,,,,,,,,,,,,,,,650.4159,656.957,0.0,1.0,1.0,0.0,1.0,SoundStimuli/CrazyInLove_BeyonceFtJayZ_Original5S.wav,,,,,,,,,,,,,,,,,,,,,,,,,,,,,,,,,,,,,,,,,,,,,,,,,,,,,,,,,
,,,,,524677,1,2024-06-17_09h55.51.946,experiment,2024.1.5,Win32,60.60606061,667045947eb812cbdacbf325,66704e48ab4a651f789adc69,,,,,,,,,,,,,,,,,,,,,,,,,,,,,,,,,,,,,,,,,,,,656.9572,658.8015,1.161111196,1.8211,0.0,7.0,7.0,3.0,1.0,song_indices/CrazyInLove_BeyonceFtJayZ.csv,,,,,,,,,,,,,,,,,,,,,,,,,,,,,,,,,,,,,,,,,,,,,,,
,,,,,524677,1,2024-06-17_09h55.51.946,experiment,2024.1.5,Win32,60.60606061,667045947eb812cbdacbf325,66704e48ab4a651f789adc69,,,,,,,,,,,,,,,,,,,,,,,,,,,,,,,,,,,,658.8042,665.101,0.0,0.0,0.0,1.0,1.0,SoundStimuli/ShapeofYou_EdSheeran_Cover5S.wav,,,,,,,,,,,,,,,,,,,,,,,,,,,,,,,,,,,,,,,,,,,,,,,,,,,,,,,,,
,,,,,524677,1,2024-06-17_09h55.51.946,experiment,2024.1.5,Win32,60.60606061,667045947eb812cbdacbf325,66704e48ab4a651f789adc69,,,,,,,,,,,,,,,,,,,,,,,,,,,,,,,,,,,,665.1192,671.5836,0.0,1.0,1.0,0.0,1.0,SoundStimuli/ShapeofYou_EdSheeran_Original5S.wav,,,,,,,,,,,,,,,,,,,,,,,,,,,,,,,,,,,,,,,,,,,,,,,,,,,,,,,,,
,,,,,524677,1,2024-06-17_09h55.51.946,experiment,2024.1.5,Win32,60.60606061,667045947eb812cbdacbf325,66704e48ab4a651f789adc69,,,,,,,,,,,,,,,,,,,,,,,,,,,,,,,,,,,,,,,,,,,,671.5838,673.5944,5.150000254,1.9881,0.0,8.0,8.0,21.0,1.0,song_indices/ShapeofYou_EdSheeran.csv,,,,,,,,,,,,,,,,,,,,,,,,,,,,,,,,,,,,,,,,,,,,,,,
,,,,,524677,1,2024-06-17_09h55.51.946,experiment,2024.1.5,Win32,60.60606061,667045947eb812cbdacbf325,66704e48ab4a651f789adc69,,,,,,,,,,,,,,,,,,,,,,,,,,,,,,,,,,,,673.5973,679.8109,0.0,0.0,0.0,1.0,1.0,SoundStimuli/NoOne_AliciaKeys_Cover5S.wav,,,,,,,,,,,,,,,,,,,,,,,,,,,,,,,,,,,,,,,,,,,,,,,,,,,,,,,,,
,,,,,524677,1,2024-06-17_09h55.51.946,experiment,2024.1.5,Win32,60.60606061,667045947eb812cbdacbf325,66704e48ab4a651f789adc69,,,,,,,,,,,,,,,,,,,,,,,,,,,,,,,,,,,,679.8301,687.5571,0.0,1.0,1.0,0.0,1.0,SoundStimuli/NoOne_AliciaKeys_Original5S.wav,,,,,,,,,,,,,,,,,,,,,,,,,,,,,,,,,,,,,,,,,,,,,,,,,,,,,,,,,
,,,,,524677,1,2024-06-17_09h55.51.946,experiment,2024.1.5,Win32,60.60606061,667045947eb812cbdacbf325,66704e48ab4a651f789adc69,,,,,,,,,,,,,,,,,,,,,,,,,,,,,,,,,,,,,,,,,,,,687.5575,689.9834,3.905555725,2.3964,0.0,9.0,9.0,19.0,1.0,song_indices/NoOne_AliciaKeys.csv,,,,,,,,,,,,,,,,,,,,,,,,,,,,,,,,,,,,,,,,,,,,,,,
,,,,,524677,1,2024-06-17_09h55.51.946,experiment,2024.1.5,Win32,60.60606061,667045947eb812cbdacbf325,66704e48ab4a651f789adc69,,,,,,,,,,,,,,,,,,,,,,,,,,,,,,,,,,,,689.9853,695.7508,0.0,0.0,0.0,1.0,1.0,SoundStimuli/SmellsLikeTeenSpirit_Nirvana_Cover5S.wav,,,,,,,,,,,,,,,,,,,,,,,,,,,,,,,,,,,,,,,,,,,,,,,,,,,,,,,,,
,,,,,524677,1,2024-06-17_09h55.51.946,experiment,2024.1.5,Win32,60.60606061,667045947eb812cbdacbf325,66704e48ab4a651f789adc69,,,,,,,,,,,,,,,,,,,,,,,,,,,,,,,,,,,,695.7694,701.967,0.0,1.0,1.0,0.0,1.0,SoundStimuli/SmellsLikeTeenSpirit_Nirvana_Original5S.wav,,,,,,,,,,,,,,,,,,,,,,,,,,,,,,,,,,,,,,,,,,,,,,,,,,,,,,,,,
,,,,,524677,1,2024-06-17_09h55.51.946,experiment,2024.1.5,Win32,60.60606061,667045947eb812cbdacbf325,66704e48ab4a651f789adc69,,,,,,,,,,,,,,,,,,,,,,,,,,,,,,,,,,,,,,,,,,,,701.9674,709.8288,6.950000339,7.8349,0.0,10.0,10.0,8.0,1.0,song_indices/SmellsLikeTeenSpirit_Nirvana.csv,,,,,,,,,,,,,,,,,,,,,,,,,,,,,,,,,,,,,,,,,,,,,,,
,,,,,524677,1,2024-06-17_09h55.51.946,experiment,2024.1.5,Win32,60.60606061,667045947eb812cbdacbf325,66704e48ab4a651f789adc69,,,,,,,,,,,,,,,,,,,,,,,,,,,,,,,,,,,,709.8309,715.7794,0.0,0.0,0.0,1.0,1.0,SoundStimuli/TheBoyIsMine_BrandyMonica_Cover5S.wav,,,,,,,,,,,,,,,,,,,,,,,,,,,,,,,,,,,,,,,,,,,,,,,,,,,,,,,,,
,,,,,524677,1,2024-06-17_09h55.51.946,experiment,2024.1.5,Win32,60.60606061,667045947eb812cbdacbf325,66704e48ab4a651f789adc69,,,,,,,,,,,,,,,,,,,,,,,,,,,,,,,,,,,,715.7982,722.0124,0.0,1.0,1.0,0.0,1.0,SoundStimuli/TheBoyIsMine_BrandyMonica_Original5S.wav,,,,,,,,,,,,,,,,,,,,,,,,,,,,,,,,,,,,,,,,,,,,,,,,,,,,,,,,,
,,,,,524677,1,2024-06-17_09h55.51.946,experiment,2024.1.5,Win32,60.60606061,667045947eb812cbdacbf325,66704e48ab4a651f789adc69,,,,,,,,,,,,,,,,,,,,,,,,,,,,,,,,,,,,,,,,,,,,722.0126,723.9745,6.822222392,1.9375,0.0,11.0,11.0,6.0,1.0,song_indices/TheBoyIsMine_BrandyMonica.csv,,,,,,,,,,,,,,,,,,,,,,,,,,,,,,,,,,,,,,,,,,,,,,,
,,,,,524677,1,2024-06-17_09h55.51.946,experiment,2024.1.5,Win32,60.60606061,667045947eb812cbdacbf325,66704e48ab4a651f789adc69,,,,,,,,,,,,,,,,,,,,,,,,,,,,,,,,,,,,723.9767,730.3072,0.0,0.0,0.0,1.0,1.0,SoundStimuli/Stronger_KanyeWest_Cover5S.wav,,,,,,,,,,,,,,,,,,,,,,,,,,,,,,,,,,,,,,,,,,,,,,,,,,,,,,,,,
,,,,,524677,1,2024-06-17_09h55.51.946,experiment,2024.1.5,Win32,60.60606061,667045947eb812cbdacbf325,66704e48ab4a651f789adc69,,,,,,,,,,,,,,,,,,,,,,,,,,,,,,,,,,,,730.3256,736.3949,0.0,1.0,1.0,0.0,1.0,SoundStimuli/Stronger_KanyeWest_Original5S.wav,,,,,,,,,,,,,,,,,,,,,,,,,,,,,,,,,,,,,,,,,,,,,,,,,,,,,,,,,
,,,,,524677,1,2024-06-17_09h55.51.946,experiment,2024.1.5,Win32,60.60606061,667045947eb812cbdacbf325,66704e48ab4a651f789adc69,,,,,,,,,,,,,,,,,,,,,,,,,,,,,,,,,,,,,,,,,,,,736.3951,739.3655,1.28333346,2.9414,0.0,12.0,12.0,9.0,1.0,song_indices/Stronger_KanyeWest.csv,,,,,,,,,,,,,,,,,,,,,,,,,,,,,,,,,,,,,,,,,,,,,,,
,,,,,524677,1,2024-06-17_09h55.51.946,experiment,2024.1.5,Win32,60.60606061,667045947eb812cbdacbf325,66704e48ab4a651f789adc69,,,,,,,,,,,,,,,,,,,,,,,,,,,,,,,,,,,,739.3677,745.6643,0.0,0.0,0.0,0.0,1.0,SoundStimuli/HeyYa_Outkast_Original5S.wav,,,,,,,,,,,,,,,,,,,,,,,,,,,,,,,,,,,,,,,,,,,,,,,,,,,,,,,,,
,,,,,524677,1,2024-06-17_09h55.51.946,experiment,2024.1.5,Win32,60.60606061,667045947eb812cbdacbf325,66704e48ab4a651f789adc69,,,,,,,,,,,,,,,,,,,,,,,,,,,,,,,,,,,,745.6835,754.6075,0.0,1.0,1.0,1.0,1.0,SoundStimuli/HeyYa_Outkast_Cover5S.wav,,,,,,,,,,,,,,,,,,,,,,,,,,,,,,,,,,,,,,,,,,,,,,,,,,,,,,,,,
,,,,,524677,1,2024-06-17_09h55.51.946,experiment,2024.1.5,Win32,60.60606061,667045947eb812cbdacbf325,66704e48ab4a651f789adc69,,,,,,,,,,,,,,,,,,,,,,,,,,,,,,,,,,,,,,,,,,,,754.6078,755.7704,1.28333346,1.132,0.0,13.0,13.0,22.0,1.0,song_indices/HeyYa_Outkast.csv,,,,,,,,,,,,,,,,,,,,,,,,,,,,,,,,,,,,,,,,,,,,,,,
,,,,,524677,1,2024-06-17_09h55.51.946,experiment,2024.1.5,Win32,60.60606061,667045947eb812cbdacbf325,66704e48ab4a651f789adc69,,,,,,,,,,,,,,,,,,,,,,,,,,,,,,,,,,,,755.7725,761.7539,0.0,0.0,0.0,0.0,1.0,SoundStimuli/IWalkTheLine_JohnnyCash_Original5S.wav,,,,,,,,,,,,,,,,,,,,,,,,,,,,,,,,,,,,,,,,,,,,,,,,,,,,,,,,,
,,,,,524677,1,2024-06-17_09h55.51.946,experiment,2024.1.5,Win32,60.60606061,667045947eb812cbdacbf325,66704e48ab4a651f789adc69,,,,,,,,,,,,,,,,,,,,,,,,,,,,,,,,,,,,761.7725,768.9177,0.0,1.0,1.0,1.0,1.0,SoundStimuli/IWalkTheLine_JohnnyCash_Cover5S.wav,,,,,,,,,,,,,,,,,,,,,,,,,,,,,,,,,,,,,,,,,,,,,,,,,,,,,,,,,
,,,,,524677,1,2024-06-17_09h55.51.946,experiment,2024.1.5,Win32,60.60606061,667045947eb812cbdacbf325,66704e48ab4a651f789adc69,,,,,,,,,,,,,,,,,,,,,,,,,,,,,,,,,,,,,,,,,,,,768.9178,782.8464,1.733333376,13.9051,0.0,14.0,14.0,17.0,1.0,song_indices/IWalkTheLine_JohnnyCash.csv,,,,,,,,,,,,,,,,,,,,,,,,,,,,,,,,,,,,,,,,,,,,,,,
,,,,,524677,1,2024-06-17_09h55.51.946,experiment,2024.1.5,Win32,60.60606061,667045947eb812cbdacbf325,66704e48ab4a651f789adc69,,,,,,,,,,,,,,,,,,,,,,,,,,,,,,,,,,,,782.8486,790.077,0.0,0.0,0.0,0.0,1.0,SoundStimuli/UptownFunk_MarkRonson_Original5S.wav,,,,,,,,,,,,,,,,,,,,,,,,,,,,,,,,,,,,,,,,,,,,,,,,,,,,,,,,,
,,,,,524677,1,2024-06-17_09h55.51.946,experiment,2024.1.5,Win32,60.60606061,667045947eb812cbdacbf325,66704e48ab4a651f789adc69,,,,,,,,,,,,,,,,,,,,,,,,,,,,,,,,,,,,790.0948,797.1244,0.0,1.0,1.0,1.0,1.0,SoundStimuli/UptownFunk_MarkRonson_Cover5S.wav,,,,,,,,,,,,,,,,,,,,,,,,,,,,,,,,,,,,,,,,,,,,,,,,,,,,,,,,,
,,,,,524677,1,2024-06-17_09h55.51.946,experiment,2024.1.5,Win32,60.60606061,667045947eb812cbdacbf325,66704e48ab4a651f789adc69,,,,,,,,,,,,,,,,,,,,,,,,,,,,,,,,,,,,,,,,,,,,797.1246,800.6149,6.866667006,3.4628,0.0,15.0,15.0,15.0,1.0,song_indices/UptownFunk_MarkRonson.csv,,,,,,,,,,,,,,,,,,,,,,,,,,,,,,,,,,,,,,,,,,,,,,,
,,,,,524677,1,2024-06-17_09h55.51.946,experiment,2024.1.5,Win32,60.60606061,667045947eb812cbdacbf325,66704e48ab4a651f789adc69,,,,,,,,,,,,,,,,,,,,,,,,,,,,,,,,,,,,800.6169,806.6864,0.0,0.0,0.0,0.0,1.0,SoundStimuli/GoodGollyMissMolly_LittleRichard_Original5S.wav,,,,,,,,,,,,,,,,,,,,,,,,,,,,,,,,,,,,,,,,,,,,,,,,,,,,,,,,,
,,,,,524677,1,2024-06-17_09h55.51.946,experiment,2024.1.5,Win32,60.60606061,667045947eb812cbdacbf325,66704e48ab4a651f789adc69,,,,,,,,,,,,,,,,,,,,,,,,,,,,,,,,,,,,806.7055,813.0679,0.0,1.0,1.0,1.0,1.0,SoundStimuli/GoodGollyMissMolly_LittleRichard_Cover5S.wav,,,,,,,,,,,,,,,,,,,,,,,,,,,,,,,,,,,,,,,,,,,,,,,,,,,,,,,,,
,,,,,524677,1,2024-06-17_09h55.51.946,experiment,2024.1.5,Win32,60.60606061,667045947eb812cbdacbf325,66704e48ab4a651f789adc69,,,,,,,,,,,,,,,,,,,,,,,,,,,,,,,,,,,,,,,,,,,,813.0681,816.8377,1.111111111,3.7435,0.0,16.0,16.0,0.0,1.0,song_indices/GoodGollyMissMolly_LittleRichard.csv,,,,,,,,,,,,,,,,,,,,,,,,,,,,,,,,,,,,,,,,,,,,,,,
,,,,,524677,1,2024-06-17_09h55.51.946,experiment,2024.1.5,Win32,60.60606061,667045947eb812cbdacbf325,66704e48ab4a651f789adc69,,,,,,,,,,,,,,,,,,,,,,,,,,,,,,,,,,,,816.8394,822.9707,0.0,0.0,0.0,1.0,1.0,SoundStimuli/NoScrubs_TLC_Cover5S.wav,,,,,,,,,,,,,,,,,,,,,,,,,,,,,,,,,,,,,,,,,,,,,,,,,,,,,,,,,
,,,,,524677,1,2024-06-17_09h55.51.946,experiment,2024.1.5,Win32,60.60606061,667045947eb812cbdacbf325,66704e48ab4a651f789adc69,,,,,,,,,,,,,,,,,,,,,,,,,,,,,,,,,,,,822.9843,829.1763,0.0,1.0,1.0,0.0,1.0,SoundStimuli/NoScrubs_TLC_Original5S.wav,,,,,,,,,,,,,,,,,,,,,,,,,,,,,,,,,,,,,,,,,,,,,,,,,,,,,,,,,
,,,,,524677,1,2024-06-17_09h55.51.946,experiment,2024.1.5,Win32,60.60606061,667045947eb812cbdacbf325,66704e48ab4a651f789adc69,,,,,,,,,,,,,,,,,,,,,,,,,,,,,,,,,,,,,,,,,,,,829.1765,831.8024,6.866667006,2.6044,0.0,17.0,17.0,14.0,1.0,song_indices/NoScrubs_TLC.csv,,,,,,,,,,,,,,,,,,,,,,,,,,,,,,,,,,,,,,,,,,,,,,,
,,,,,524677,1,2024-06-17_09h55.51.946,experiment,2024.1.5,Win32,60.60606061,667045947eb812cbdacbf325,66704e48ab4a651f789adc69,,,,,,,,,,,,,,,,,,,,,,,,,,,,,,,,,,,,831.8042,837.5022,0.0,0.0,0.0,1.0,1.0,SoundStimuli/BetteDavisEyes_KimCarnes_Cover5S.wav,,,,,,,,,,,,,,,,,,,,,,,,,,,,,,,,,,,,,,,,,,,,,,,,,,,,,,,,,
,,,,,524677,1,2024-06-17_09h55.51.946,experiment,2024.1.5,Win32,60.60606061,667045947eb812cbdacbf325,66704e48ab4a651f789adc69,,,,,,,,,,,,,,,,,,,,,,,,,,,,,,,,,,,,837.5218,843.7308,0.0,1.0,1.0,0.0,1.0,SoundStimuli/BetteDavisEyes_KimCarnes_Original5S.wav,,,,,,,,,,,,,,,,,,,,,,,,,,,,,,,,,,,,,,,,,,,,,,,,,,,,,,,,,
,,,,,524677,1,2024-06-17_09h55.51.946,experiment,2024.1.5,Win32,60.60606061,667045947eb812cbdacbf325,66704e48ab4a651f789adc69,,,,,,,,,,,,,,,,,,,,,,,,,,,,,,,,,,,,,,,,,,,,843.7312,845.8082,6.794444614,2.0515,0.0,18.0,18.0,5.0,1.0,song_indices/BetteDavisEyes_KimCarnes.csv,,,,,,,,,,,,,,,,,,,,,,,,,,,,,,,,,,,,,,,,,,,,,,,
,,,,,524677,1,2024-06-17_09h55.51.946,experiment,2024.1.5,Win32,60.60606061,667045947eb812cbdacbf325,66704e48ab4a651f789adc69,,,,,,,,,,,,,,,,,,,,,,,,,,,,,,,,,,,,845.8101,852.0797,0.0,0.0,0.0,0.0,1.0,SoundStimuli/ItsAllInTheGame_TommyEdwards_Original5S.wav,,,,,,,,,,,,,,,,,,,,,,,,,,,,,,,,,,,,,,,,,,,,,,,,,,,,,,,,,
,,,,,524677,1,2024-06-17_09h55.51.946,experiment,2024.1.5,Win32,60.60606061,667045947eb812cbdacbf325,66704e48ab4a651f789adc69,,,,,,,,,,,,,,,,,,,,,,,,,,,,,,,,,,,,852.0983,858.3441,0.0,1.0,1.0,1.0,1.0,SoundStimuli/ItsAllInTheGame_TommyEdwards_Cover5S.wav,,,,,,,,,,,,,,,,,,,,,,,,,,,,,,,,,,,,,,,,,,,,,,,,,,,,,,,,,
,,,,,524677,1,2024-06-17_09h55.51.946,experiment,2024.1.5,Win32,60.60606061,667045947eb812cbdacbf325,66704e48ab4a651f789adc69,,,,,,,,,,,,,,,,,,,,,,,,,,,,,,,,,,,,,,,,,,,,858.3444,861.8649,2.677778032,3.4914,0.0,19.0,19.0,13.0,1.0,song_indices/ItsAllInTheGame_TommyEdwards.csv,,,,,,,,,,,,,,,,,,,,,,,,,,,,,,,,,,,,,,,,,,,,,,,
,,,,,524677,1,2024-06-17_09h55.51.946,experiment,2024.1.5,Win32,60.60606061,667045947eb812cbdacbf325,66704e48ab4a651f789adc69,,,,,,,,,,,,,,,,,,,,,,,,,,,,,,,,,,,,861.8669,867.8984,0.0,0.0,0.0,1.0,1.0,SoundStimuli/StandByMe_BenEKing_Cover5S.wav,,,,,,,,,,,,,,,,,,,,,,,,,,,,,,,,,,,,,,,,,,,,,,,,,,,,,,,,,
,,,,,524677,1,2024-06-17_09h55.51.946,experiment,2024.1.5,Win32,60.60606061,667045947eb812cbdacbf325,66704e48ab4a651f789adc69,,,,,,,,,,,,,,,,,,,,,,,,,,,,,,,,,,,,867.9172,873.8485,0.0,1.0,1.0,0.0,1.0,SoundStimuli/StandByMe_BenEKing_Original5S.wav,,,,,,,,,,,,,,,,,,,,,,,,,,,,,,,,,,,,,,,,,,,,,,,,,,,,,,,,,
,,,,,524677,1,2024-06-17_09h55.51.946,experiment,2024.1.5,Win32,60.60606061,667045947eb812cbdacbf325,66704e48ab4a651f789adc69,,,,,,,,,,,,,,,,,,,,,,,,,,,,,,,,,,,,,,,,,,,,873.8491,875.727,2.538889143,1.8485,0.0,20.0,20.0,1.0,1.0,song_indices/StandByMe_BenEKing.csv,,,,,,,,,,,,,,,,,,,,,,,,,,,,,,,,,,,,,,,,,,,,,,,
,,,,,524677,1,2024-06-17_09h55.51.946,experiment,2024.1.5,Win32,60.60606061,667045947eb812cbdacbf325,66704e48ab4a651f789adc69,,,,,,,,,,,,,,,,,,,,,,,,,,,,,,,,,,,,875.7302,881.5775,0.0,0.0,0.0,1.0,1.0,SoundStimuli/IWillAlwaysLoveYou_WhitneyHouston_Cover5S.wav,,,,,,,,,,,,,,,,,,,,,,,,,,,,,,,,,,,,,,,,,,,,,,,,,,,,,,,,,
,,,,,524677,1,2024-06-17_09h55.51.946,experiment,2024.1.5,Win32,60.60606061,667045947eb812cbdacbf325,66704e48ab4a651f789adc69,,,,,,,,,,,,,,,,,,,,,,,,,,,,,,,,,,,,881.5966,887.9771,0.0,1.0,1.0,0.0,1.0,SoundStimuli/IWillAlwaysLoveYou_WhitneyHouston_Original5S.wav,,,,,,,,,,,,,,,,,,,,,,,,,,,,,,,,,,,,,,,,,,,,,,,,,,,,,,,,,
,,,,,524677,1,2024-06-17_09h55.51.946,experiment,2024.1.5,Win32,60.60606061,667045947eb812cbdacbf325,66704e48ab4a651f789adc69,,,,,,,,,,,,,,,,,,,,,,,,,,,,,,,,,,,,,,,,,,,,887.9773,892.0657,6.988889058,4.0615,0.0,21.0,21.0,10.0,1.0,song_indices/IWillAlwaysLoveYou_WhitneyHouston.csv,,,,,,,,,,,,,,,,,,,,,,,,,,,,,,,,,,,,,,,,,,,,,,,
,,,,,524677,1,2024-06-17_09h55.51.946,experiment,2024.1.5,Win32,60.60606061,667045947eb812cbdacbf325,66704e48ab4a651f789adc69,,,,,,,,,,,,,,,,,,,,,,,,,,,,,,,,,,,,892.0685,898.4985,0.0,0.0,0.0,1.0,1.0,SoundStimuli/Fallin_AliciaKeys_Cover5S.wav,,,,,,,,,,,,,,,,,,,,,,,,,,,,,,,,,,,,,,,,,,,,,,,,,,,,,,,,,
,,,,,524677,1,2024-06-17_09h55.51.946,experiment,2024.1.5,Win32,60.60606061,667045947eb812cbdacbf325,66704e48ab4a651f789adc69,,,,,,,,,,,,,,,,,,,,,,,,,,,,,,,,,,,,898.5173,904.7023,0.0,1.0,1.0,0.0,1.0,SoundStimuli/Fallin_AliciaKeys_Original5S.wav,,,,,,,,,,,,,,,,,,,,,,,,,,,,,,,,,,,,,,,,,,,,,,,,,,,,,,,,,
,,,,,524677,1,2024-06-17_09h55.51.946,experiment,2024.1.5,Win32,60.60606061,667045947eb812cbdacbf325,66704e48ab4a651f789adc69,,,,,,,,,,,,,,,,,,,,,,,,,,,,,,,,,,,,,,,,,,,,904.7025,907.5468,6.555555556,2.824,0.0,22.0,22.0,12.0,1.0,song_indices/Fallin_AliciaKeys.csv,,,,,,,,,,,,,,,,,,,,,,,,,,,,,,,,,,,,,,,,,,,,,,,
,,,,,524677,1,2024-06-17_09h55.51.946,experiment,2024.1.5,Win32,60.60606061,667045947eb812cbdacbf325,66704e48ab4a651f789adc69,,,,,,,,,,,,,,,,,,,,,,,,,,,,,,,,,,,,,,,,,,,,,,,,,,,,,,907.547,910.188,space,2.6252,,0.0,1.0,1.0,1.0,1.0,choose_song_b2.csv,,,,,,,,,,,,,,,,,,,,,,,,,,,,,,,,,,,,
,,,,,524677,1,2024-06-17_09h55.51.946,experiment,2024.1.5,Win32,60.60606061,667045947eb812cbdacbf325,66704e48ab4a651f789adc69,,,,,,,,,,,,,,,,,,,,,,,,,,,,,,,,,,,,910.1911,916.4533,0.0,0.0,0.0,1.0,1.0,SoundStimuli/MackTheKnife_BobbyDarin_Cover5S.wav,,,,,,,,,,,,,,,,,,,,,,,,,,,,,,,,,,,,,,,,,,,,,,,,,,,,,,,,,
,,,,,524677,1,2024-06-17_09h55.51.946,experiment,2024.1.5,Win32,60.60606061,667045947eb812cbdacbf325,66704e48ab4a651f789adc69,,,,,,,,,,,,,,,,,,,,,,,,,,,,,,,,,,,,916.4723,922.6153,0.0,1.0,1.0,0.0,1.0,SoundStimuli/MackTheKnife_BobbyDarin_Original5S.wav,,,,,,,,,,,,,,,,,,,,,,,,,,,,,,,,,,,,,,,,,,,,,,,,,,,,,,,,,
,,,,,524677,1,2024-06-17_09h55.51.946,experiment,2024.1.5,Win32,60.60606061,667045947eb812cbdacbf325,66704e48ab4a651f789adc69,,,,,,,,,,,,,,,,,,,,,,,,,,,,,,,,,,,,,,,,,,,,922.6157,929.0647,1.07222218,6.4232,0.0,0.0,0.0,21.0,1.0,song_indices/MackTheKnife_BobbyDarin.csv,,,,,,,,,,,,,,,,,,,,,,,,,,,,,,,,,,,,,,,,,,,,,,,
,,,,,524677,1,2024-06-17_09h55.51.946,experiment,2024.1.5,Win32,60.60606061,667045947eb812cbdacbf325,66704e48ab4a651f789adc69,,,,,,,,,,,,,,,,,,,,,,,,,,,,,,,,,,,,929.0684,936.7272,0.0,0.0,0.0,1.0,1.0,SoundStimuli/MyGirl_TheTemptations_Cover5S.wav,,,,,,,,,,,,,,,,,,,,,,,,,,,,,,,,,,,,,,,,,,,,,,,,,,,,,,,,,
,,,,,524677,1,2024-06-17_09h55.51.946,experiment,2024.1.5,Win32,60.60606061,667045947eb812cbdacbf325,66704e48ab4a651f789adc69,,,,,,,,,,,,,,,,,,,,,,,,,,,,,,,,,,,,936.7466,943.1265,0.0,1.0,1.0,0.0,1.0,SoundStimuli/MyGirl_TheTemptations_Original5S.wav,,,,,,,,,,,,,,,,,,,,,,,,,,,,,,,,,,,,,,,,,,,,,,,,,,,,,,,,,
,,,,,524677,1,2024-06-17_09h55.51.946,experiment,2024.1.5,Win32,60.60606061,667045947eb812cbdacbf325,66704e48ab4a651f789adc69,,,,,,,,,,,,,,,,,,,,,,,,,,,,,,,,,,,,,,,,,,,,943.1269,953.3821,6.066666497,10.2272,0.0,1.0,1.0,15.0,1.0,song_indices/MyGirl_TheTemptations.csv,,,,,,,,,,,,,,,,,,,,,,,,,,,,,,,,,,,,,,,,,,,,,,,
,,,,,524677,1,2024-06-17_09h55.51.946,experiment,2024.1.5,Win32,60.60606061,667045947eb812cbdacbf325,66704e48ab4a651f789adc69,,,,,,,,,,,,,,,,,,,,,,,,,,,,,,,,,,,,953.3848,959.5813,0.0,0.0,0.0,0.0,1.0,SoundStimuli/LikeAPrayer_Madonna_Original5S.wav,,,,,,,,,,,,,,,,,,,,,,,,,,,,,,,,,,,,,,,,,,,,,,,,,,,,,,,,,
,,,,,524677,1,2024-06-17_09h55.51.946,experiment,2024.1.5,Win32,60.60606061,667045947eb812cbdacbf325,66704e48ab4a651f789adc69,,,,,,,,,,,,,,,,,,,,,,,,,,,,,,,,,,,,959.5998,965.8146,0.0,1.0,1.0,1.0,1.0,SoundStimuli/LikeAPrayer_Madonna_Cover5S.wav,,,,,,,,,,,,,,,,,,,,,,,,,,,,,,,,,,,,,,,,,,,,,,,,,,,,,,,,,
,,,,,524677,1,2024-06-17_09h55.51.946,experiment,2024.1.5,Win32,60.60606061,667045947eb812cbdacbf325,66704e48ab4a651f789adc69,,,,,,,,,,,,,,,,,,,,,,,,,,,,,,,,,,,,,,,,,,,,965.815,969.1391,6.794444614,3.2963,0.0,2.0,2.0,7.0,1.0,song_indices/LikeAPrayer_Madonna.csv,,,,,,,,,,,,,,,,,,,,,,,,,,,,,,,,,,,,,,,,,,,,,,,
,,,,,524677,1,2024-06-17_09h55.51.946,experiment,2024.1.5,Win32,60.60606061,667045947eb812cbdacbf325,66704e48ab4a651f789adc69,,,,,,,,,,,,,,,,,,,,,,,,,,,,,,,,,,,,969.1404,976.003,0.0,0.0,0.0,1.0,1.0,SoundStimuli/GodOnlyKnows_TheBeachBoys_Cover5S.wav,,,,,,,,,,,,,,,,,,,,,,,,,,,,,,,,,,,,,,,,,,,,,,,,,,,,,,,,,
,,,,,524677,1,2024-06-17_09h55.51.946,experiment,2024.1.5,Win32,60.60606061,667045947eb812cbdacbf325,66704e48ab4a651f789adc69,,,,,,,,,,,,,,,,,,,,,,,,,,,,,,,,,,,,976.0225,982.2696,0.0,1.0,1.0,0.0,1.0,SoundStimuli/GodOnlyKnows_TheBeachBoys_Original5S.wav,,,,,,,,,,,,,,,,,,,,,,,,,,,,,,,,,,,,,,,,,,,,,,,,,,,,,,,,,
,,,,,524677,1,2024-06-17_09h55.51.946,experiment,2024.1.5,Win32,60.60606061,667045947eb812cbdacbf325,66704e48ab4a651f789adc69,,,,,,,,,,,,,,,,,,,,,,,,,,,,,,,,,,,,,,,,,,,,982.2698,985.3452,6.572222392,3.0502,0.0,3.0,3.0,8.0,1.0,song_indices/GodOnlyKnows_TheBeachBoys.csv,,,,,,,,,,,,,,,,,,,,,,,,,,,,,,,,,,,,,,,,,,,,,,,
,,,,,524677,1,2024-06-17_09h55.51.946,experiment,2024.1.5,Win32,60.60606061,667045947eb812cbdacbf325,66704e48ab4a651f789adc69,,,,,,,,,,,,,,,,,,,,,,,,,,,,,,,,,,,,985.3477,991.4485,0.0,0.0,0.0,0.0,1.0,SoundStimuli/HeatWaves_GlassAnimals_Original5S.wav,,,,,,,,,,,,,,,,,,,,,,,,,,,,,,,,,,,,,,,,,,,,,,,,,,,,,,,,,
,,,,,524677,1,2024-06-17_09h55.51.946,experiment,2024.1.5,Win32,60.60606061,667045947eb812cbdacbf325,66704e48ab4a651f789adc69,,,,,,,,,,,,,,,,,,,,,,,,,,,,,,,,,,,,991.4677,1000.0564,0.0,1.0,1.0,1.0,1.0,SoundStimuli/HeatWaves_GlassAnimals_Cover5S.wav,,,,,,,,,,,,,,,,,,,,,,,,,,,,,,,,,,,,,,,,,,,,,,,,,,,,,,,,,
,,,,,524677,1,2024-06-17_09h55.51.946,experiment,2024.1.5,Win32,60.60606061,667045947eb812cbdacbf325,66704e48ab4a651f789adc69,,,,,,,,,,,,,,,,,,,,,,,,,,,,,,,,,,,,,,,,,,,,1000.0567,1002.0156,6.572222392,1.929,0.0,4.0,4.0,10.0,1.0,song_indices/HeatWaves_GlassAnimals.csv,,,,,,,,,,,,,,,,,,,,,,,,,,,,,,,,,,,,,,,,,,,,,,,
,,,,,524677,1,2024-06-17_09h55.51.946,experiment,2024.1.5,Win32,60.60606061,667045947eb812cbdacbf325,66704e48ab4a651f789adc69,,,,,,,,,,,,,,,,,,,,,,,,,,,,,,,,,,,,1002.0183,1008.2322,0.0,0.0,0.0,0.0,1.0,SoundStimuli/Smooth_SantanaRobThomas_Original5S.wav,,,,,,,,,,,,,,,,,,,,,,,,,,,,,,,,,,,,,,,,,,,,,,,,,,,,,,,,,
,,,,,524677,1,2024-06-17_09h55.51.946,experiment,2024.1.5,Win32,60.60606061,667045947eb812cbdacbf325,66704e48ab4a651f789adc69,,,,,,,,,,,,,,,,,,,,,,,,,,,,,,,,,,,,1008.2507,1014.3819,0.0,1.0,1.0,1.0,1.0,SoundStimuli/Smooth_SantanaRobThomas_Cover5S.wav,,,,,,,,,,,,,,,,,,,,,,,,,,,,,,,,,,,,,,,,,,,,,,,,,,,,,,,,,
,,,,,524677,1,2024-06-17_09h55.51.946,experiment,2024.1.5,Win32,60.60606061,667045947eb812cbdacbf325,66704e48ab4a651f789adc69,,,,,,,,,,,,,,,,,,,,,,,,,,,,,,,,,,,,,,,,,,,,1014.3822,1016.6755,6.233333164,2.2645,0.0,5.0,5.0,4.0,1.0,song_indices/Smooth_SantanaRobThomas.csv,,,,,,,,,,,,,,,,,,,,,,,,,,,,,,,,,,,,,,,,,,,,,,,
,,,,,524677,1,2024-06-17_09h55.51.946,experiment,2024.1.5,Win32,60.60606061,667045947eb812cbdacbf325,66704e48ab4a651f789adc69,,,,,,,,,,,,,,,,,,,,,,,,,,,,,,,,,,,,1016.679,1023.2409,0.0,0.0,0.0,0.0,1.0,SoundStimuli/Despacito_LuisFonsiDaddyYankee_Original5S.wav,,,,,,,,,,,,,,,,,,,,,,,,,,,,,,,,,,,,,,,,,,,,,,,,,,,,,,,,,
,,,,,524677,1,2024-06-17_09h55.51.946,experiment,2024.1.5,Win32,60.60606061,667045947eb812cbdacbf325,66704e48ab4a651f789adc69,,,,,,,,,,,,,,,,,,,,,,,,,,,,,,,,,,,,1023.26,1029.8397,0.0,1.0,1.0,1.0,1.0,SoundStimuli/Despacito_LuisFonsiDaddyYankee_Cover5S.wav,,,,,,,,,,,,,,,,,,,,,,,,,,,,,,,,,,,,,,,,,,,,,,,,,,,,,,,,,
,,,,,524677,1,2024-06-17_09h55.51.946,experiment,2024.1.5,Win32,60.60606061,667045947eb812cbdacbf325,66704e48ab4a651f789adc69,,,,,,,,,,,,,,,,,,,,,,,,,,,,,,,,,,,,,,,,,,,,1029.8399,1031.5181,5.950000339,1.6577,0.0,6.0,6.0,11.0,1.0,song_indices/Despacito_LuisFonsiDaddyYankee.csv,,,,,,,,,,,,,,,,,,,,,,,,,,,,,,,,,,,,,,,,,,,,,,,
,,,,,524677,1,2024-06-17_09h55.51.946,experiment,2024.1.5,Win32,60.60606061,667045947eb812cbdacbf325,66704e48ab4a651f789adc69,,,,,,,,,,,,,,,,,,,,,,,,,,,,,,,,,,,,1031.5203,1038.5493,0.0,0.0,0.0,1.0,1.0,SoundStimuli/StrawberryFieldsForever_TheBeatles_Cover5S.wav,,,,,,,,,,,,,,,,,,,,,,,,,,,,,,,,,,,,,,,,,,,,,,,,,,,,,,,,,
,,,,,524677,1,2024-06-17_09h55.51.946,experiment,2024.1.5,Win32,60.60606061,667045947eb812cbdacbf325,66704e48ab4a651f789adc69,,,,,,,,,,,,,,,,,,,,,,,,,,,,,,,,,,,,1038.5675,1044.6994,0.0,1.0,1.0,0.0,1.0,SoundStimuli/StrawberryFieldsForever_TheBeatles_Original5S.wav,,,,,,,,,,,,,,,,,,,,,,,,,,,,,,,,,,,,,,,,,,,,,,,,,,,,,,,,,
,,,,,524677,1,2024-06-17_09h55.51.946,experiment,2024.1.5,Win32,60.60606061,667045947eb812cbdacbf325,66704e48ab4a651f789adc69,,,,,,,,,,,,,,,,,,,,,,,,,,,,,,,,,,,,,,,,,,,,1044.6996,1048.5553,1.027777778,3.8284,0.0,7.0,7.0,14.0,1.0,song_indices/StrawberryFieldsForever_TheBeatles.csv,,,,,,,,,,,,,,,,,,,,,,,,,,,,,,,,,,,,,,,,,,,,,,,
,,,,,524677,1,2024-06-17_09h55.51.946,experiment,2024.1.5,Win32,60.60606061,667045947eb812cbdacbf325,66704e48ab4a651f789adc69,,,,,,,,,,,,,,,,,,,,,,,,,,,,,,,,,,,,1048.5576,1054.855,0.0,0.0,0.0,0.0,1.0,SoundStimuli/Mood_24kGoldnianndior_Original5S.wav,,,,,,,,,,,,,,,,,,,,,,,,,,,,,,,,,,,,,,,,,,,,,,,,,,,,,,,,,
,,,,,524677,1,2024-06-17_09h55.51.946,experiment,2024.1.5,Win32,60.60606061,667045947eb812cbdacbf325,66704e48ab4a651f789adc69,,,,,,,,,,,,,,,,,,,,,,,,,,,,,,,,,,,,1054.874,1063.166,0.0,1.0,1.0,1.0,1.0,SoundStimuli/Mood_24kGoldnianndior_Cover5S.wav,,,,,,,,,,,,,,,,,,,,,,,,,,,,,,,,,,,,,,,,,,,,,,,,,,,,,,,,,
,,,,,524677,1,2024-06-17_09h55.51.946,experiment,2024.1.5,Win32,60.60606061,667045947eb812cbdacbf325,66704e48ab4a651f789adc69,,,,,,,,,,,,,,,,,,,,,,,,,,,,,,,,,,,,,,,,,,,,1063.1664,1079.986,1.494444529,16.7942,0.0,8.0,8.0,5.0,1.0,song_indices/Mood_24kGoldnianndior.csv,,,,,,,,,,,,,,,,,,,,,,,,,,,,,,,,,,,,,,,,,,,,,,,
,,,,,524677,1,2024-06-17_09h55.51.946,experiment,2024.1.5,Win32,60.60606061,667045947eb812cbdacbf325,66704e48ab4a651f789adc69,,,,,,,,,,,,,,,,,,,,,,,,,,,,,,,,,,,,1079.989,1086.3064,0.0,0.0,0.0,0.0,1.0,SoundStimuli/BridgeOverTroubledWater_SimonAndGarfunkel_Original5S.wav,,,,,,,,,,,,,,,,,,,,,,,,,,,,,,,,,,,,,,,,,,,,,,,,,,,,,,,,,
,,,,,524677,1,2024-06-17_09h55.51.946,experiment,2024.1.5,Win32,60.60606061,667045947eb812cbdacbf325,66704e48ab4a651f789adc69,,,,,,,,,,,,,,,,,,,,,,,,,,,,,,,,,,,,1086.3254,1093.018,0.0,1.0,1.0,1.0,1.0,SoundStimuli/BridgeOverTroubledWater_SimonAndGarfunkel_Cover5S.wav,,,,,,,,,,,,,,,,,,,,,,,,,,,,,,,,,,,,,,,,,,,,,,,,,,,,,,,,,
,,,,,524677,1,2024-06-17_09h55.51.946,experiment,2024.1.5,Win32,60.60606061,667045947eb812cbdacbf325,66704e48ab4a651f789adc69,,,,,,,,,,,,,,,,,,,,,,,,,,,,,,,,,,,,,,,,,,,,1093.0181,1099.5826,4.055555556,6.5411,0.0,9.0,9.0,1.0,1.0,song_indices/BridgeOverTroubledWater_SimonAndGarfunkel.csv,,,,,,,,,,,,,,,,,,,,,,,,,,,,,,,,,,,,,,,,,,,,,,,
,,,,,524677,1,2024-06-17_09h55.51.946,experiment,2024.1.5,Win32,60.60606061,667045947eb812cbdacbf325,66704e48ab4a651f789adc69,,,,,,,,,,,,,,,,,,,,,,,,,,,,,,,,,,,,1099.5855,1105.6163,0.0,0.0,0.0,1.0,1.0,SoundStimuli/IWantToHoldYourHand_TheBeatles_Cover5S.wav,,,,,,,,,,,,,,,,,,,,,,,,,,,,,,,,,,,,,,,,,,,,,,,,,,,,,,,,,
,,,,,524677,1,2024-06-17_09h55.51.946,experiment,2024.1.5,Win32,60.60606061,667045947eb812cbdacbf325,66704e48ab4a651f789adc69,,,,,,,,,,,,,,,,,,,,,,,,,,,,,,,,,,,,1105.6345,1111.4175,0.0,1.0,1.0,0.0,1.0,SoundStimuli/IWantToHoldYourHand_TheBeatles_Original5S.wav,,,,,,,,,,,,,,,,,,,,,,,,,,,,,,,,,,,,,,,,,,,,,,,,,,,,,,,,,
,,,,,524677,1,2024-06-17_09h55.51.946,experiment,2024.1.5,Win32,60.60606061,667045947eb812cbdacbf325,66704e48ab4a651f789adc69,,,,,,,,,,,,,,,,,,,,,,,,,,,,,,,,,,,,,,,,,,,,1111.4178,1116.4537,2.216666751,5.011,0.0,10.0,10.0,19.0,1.0,song_indices/IWantToHoldYourHand_TheBeatles.csv,,,,,,,,,,,,,,,,,,,,,,,,,,,,,,,,,,,,,,,,,,,,,,,
,,,,,524677,1,2024-06-17_09h55.51.946,experiment,2024.1.5,Win32,60.60606061,667045947eb812cbdacbf325,66704e48ab4a651f789adc69,,,,,,,,,,,,,,,,,,,,,,,,,,,,,,,,,,,,1116.4571,1122.7028,0.0,0.0,0.0,0.0,1.0,SoundStimuli/LivinOnAPrayer_BonJovi_Original5S.wav,,,,,,,,,,,,,,,,,,,,,,,,,,,,,,,,,,,,,,,,,,,,,,,,,,,,,,,,,
,,,,,524677,1,2024-06-17_09h55.51.946,experiment,2024.1.5,Win32,60.60606061,667045947eb812cbdacbf325,66704e48ab4a651f789adc69,,,,,,,,,,,,,,,,,,,,,,,,,,,,,,,,,,,,1122.7216,1130.399,0.0,1.0,1.0,1.0,1.0,SoundStimuli/LivinOnAPrayer_BonJovi_Cover5S.wav,,,,,,,,,,,,,,,,,,,,,,,,,,,,,,,,,,,,,,,,,,,,,,,,,,,,,,,,,
,,,,,524677,1,2024-06-17_09h55.51.946,experiment,2024.1.5,Win32,60.60606061,667045947eb812cbdacbf325,66704e48ab4a651f789adc69,,,,,,,,,,,,,,,,,,,,,,,,,,,,,,,,,,,,,,,,,,,,1130.3994,1142.5486,1.683333291,12.1245,0.0,11.0,11.0,16.0,1.0,song_indices/LivinOnAPrayer_BonJovi.csv,,,,,,,,,,,,,,,,,,,,,,,,,,,,,,,,,,,,,,,,,,,,,,,
,,,,,524677,1,2024-06-17_09h55.51.946,experiment,2024.1.5,Win32,60.60606061,667045947eb812cbdacbf325,66704e48ab4a651f789adc69,,,,,,,,,,,,,,,,,,,,,,,,,,,,,,,,,,,,1142.5503,1149.9288,0.0,0.0,0.0,0.0,1.0,SoundStimuli/OldTownRoad_LilNasX_Original5S.wav,,,,,,,,,,,,,,,,,,,,,,,,,,,,,,,,,,,,,,,,,,,,,,,,,,,,,,,,,
,,,,,524677,1,2024-06-17_09h55.51.946,experiment,2024.1.5,Win32,60.60606061,667045947eb812cbdacbf325,66704e48ab4a651f789adc69,,,,,,,,,,,,,,,,,,,,,,,,,,,,,,,,,,,,1149.9467,1156.4615,0.0,1.0,1.0,1.0,1.0,SoundStimuli/OldTownRoad_LilNasX_Cover5S.wav,,,,,,,,,,,,,,,,,,,,,,,,,,,,,,,,,,,,,,,,,,,,,,,,,,,,,,,,,
,,,,,524677,1,2024-06-17_09h55.51.946,experiment,2024.1.5,Win32,60.60606061,667045947eb812cbdacbf325,66704e48ab4a651f789adc69,,,,,,,,,,,,,,,,,,,,,,,,,,,,,,,,,,,,,,,,,,,,1156.4617,1160.8159,5.172222137,4.3256,0.0,12.0,12.0,20.0,1.0,song_indices/OldTownRoad_LilNasX.csv,,,,,,,,,,,,,,,,,,,,,,,,,,,,,,,,,,,,,,,,,,,,,,,
,,,,,524677,1,2024-06-17_09h55.51.946,experiment,2024.1.5,Win32,60.60606061,667045947eb812cbdacbf325,66704e48ab4a651f789adc69,,,,,,,,,,,,,,,,,,,,,,,,,,,,,,,,,,,,1160.8185,1168.9489,0.0,0.0,0.0,1.0,1.0,SoundStimuli/AnotherOneBitesTheDust_Queen_Cover5S.wav,,,,,,,,,,,,,,,,,,,,,,,,,,,,,,,,,,,,,,,,,,,,,,,,,,,,,,,,,
,,,,,524677,1,2024-06-17_09h55.51.946,experiment,2024.1.5,Win32,60.60606061,667045947eb812cbdacbf325,66704e48ab4a651f789adc69,,,,,,,,,,,,,,,,,,,,,,,,,,,,,,,,,,,,1168.9699,1174.9987,0.0,1.0,1.0,0.0,1.0,SoundStimuli/AnotherOneBitesTheDust_Queen_Original5S.wav,,,,,,,,,,,,,,,,,,,,,,,,,,,,,,,,,,,,,,,,,,,,,,,,,,,,,,,,,
,,,,,524677,1,2024-06-17_09h55.51.946,experiment,2024.1.5,Win32,60.60606061,667045947eb812cbdacbf325,66704e48ab4a651f789adc69,,,,,,,,,,,,,,,,,,,,,,,,,,,,,,,,,,,,,,,,,,,,1174.9991,1177.8198,1.044444402,2.7912,0.0,13.0,13.0,9.0,1.0,song_indices/AnotherOneBitesTheDust_Queen.csv,,,,,,,,,,,,,,,,,,,,,,,,,,,,,,,,,,,,,,,,,,,,,,,
,,,,,524677,1,2024-06-17_09h55.51.946,experiment,2024.1.5,Win32,60.60606061,667045947eb812cbdacbf325,66704e48ab4a651f789adc69,,,,,,,,,,,,,,,,,,,,,,,,,,,,,,,,,,,,1177.8212,1182.2241,0.0,0.0,0.0,1.0,1.0,SoundStimuli/LikeARollingStone_BobDylan_Cover5S.wav,,,,,,,,,,,,,,,,,,,,,,,,,,,,,,,,,,,,,,,,,,,,,,,,,,,,,,,,,
,,,,,524677,1,2024-06-17_09h55.51.946,experiment,2024.1.5,Win32,60.60606061,667045947eb812cbdacbf325,66704e48ab4a651f789adc69,,,,,,,,,,,,,,,,,,,,,,,,,,,,,,,,,,,,1182.2429,1188.3908,0.0,1.0,1.0,0.0,1.0,SoundStimuli/LikeARollingStone_BobDylan_Original5S.wav,,,,,,,,,,,,,,,,,,,,,,,,,,,,,,,,,,,,,,,,,,,,,,,,,,,,,,,,,
,,,,,524677,1,2024-06-17_09h55.51.946,experiment,2024.1.5,Win32,60.60606061,667045947eb812cbdacbf325,66704e48ab4a651f789adc69,,,,,,,,,,,,,,,,,,,,,,,,,,,,,,,,,,,,,,,,,,,,1188.391,1192.1801,1.538888931,3.7595,0.0,14.0,14.0,12.0,1.0,song_indices/LikeARollingStone_BobDylan.csv,,,,,,,,,,,,,,,,,,,,,,,,,,,,,,,,,,,,,,,,,,,,,,,
,,,,,524677,1,2024-06-17_09h55.51.946,experiment,2024.1.5,Win32,60.60606061,667045947eb812cbdacbf325,66704e48ab4a651f789adc69,,,,,,,,,,,,,,,,,,,,,,,,,,,,,,,,,,,,1192.1829,1199.6929,0.0,0.0,0.0,1.0,1.0,SoundStimuli/BadDay_DanielPowter_Cover5S.wav,,,,,,,,,,,,,,,,,,,,,,,,,,,,,,,,,,,,,,,,,,,,,,,,,,,,,,,,,
,,,,,524677,1,2024-06-17_09h55.51.946,experiment,2024.1.5,Win32,60.60606061,667045947eb812cbdacbf325,66704e48ab4a651f789adc69,,,,,,,,,,,,,,,,,,,,,,,,,,,,,,,,,,,,1199.7133,1206.1757,0.0,1.0,1.0,0.0,1.0,SoundStimuli/BadDay_DanielPowter_Original5S.wav,,,,,,,,,,,,,,,,,,,,,,,,,,,,,,,,,,,,,,,,,,,,,,,,,,,,,,,,,
,,,,,524677,1,2024-06-17_09h55.51.946,experiment,2024.1.5,Win32,60.60606061,667045947eb812cbdacbf325,66704e48ab4a651f789adc69,,,,,,,,,,,,,,,,,,,,,,,,,,,,,,,,,,,,,,,,,,,,1206.1761,1208.4361,3.516666836,2.2331,0.0,15.0,15.0,22.0,1.0,song_indices/BadDay_DanielPowter.csv,,,,,,,,,,,,,,,,,,,,,,,,,,,,,,,,,,,,,,,,,,,,,,,
,,,,,524677,1,2024-06-17_09h55.51.946,experiment,2024.1.5,Win32,60.60606061,667045947eb812cbdacbf325,66704e48ab4a651f789adc69,,,,,,,,,,,,,,,,,,,,,,,,,,,,,,,,,,,,1208.4384,1217.2953,0.0,0.0,0.0,0.0,1.0,SoundStimuli/Perfect_EdSheeran_Original5S.wav,,,,,,,,,,,,,,,,,,,,,,,,,,,,,,,,,,,,,,,,,,,,,,,,,,,,,,,,,
,,,,,524677,1,2024-06-17_09h55.51.946,experiment,2024.1.5,Win32,60.60606061,667045947eb812cbdacbf325,66704e48ab4a651f789adc69,,,,,,,,,,,,,,,,,,,,,,,,,,,,,,,,,,,,1217.3149,1225.5729,0.0,1.0,1.0,1.0,1.0,SoundStimuli/Perfect_EdSheeran_Cover5S.wav,,,,,,,,,,,,,,,,,,,,,,,,,,,,,,,,,,,,,,,,,,,,,,,,,,,,,,,,,
,,,,,524677,1,2024-06-17_09h55.51.946,experiment,2024.1.5,Win32,60.60606061,667045947eb812cbdacbf325,66704e48ab4a651f789adc69,,,,,,,,,,,,,,,,,,,,,,,,,,,,,,,,,,,,,,,,,,,,1225.5733,1227.7999,4.900000254,2.1971,0.0,16.0,16.0,0.0,1.0,song_indices/Perfect_EdSheeran.csv,,,,,,,,,,,,,,,,,,,,,,,,,,,,,,,,,,,,,,,,,,,,,,,
,,,,,524677,1,2024-06-17_09h55.51.946,experiment,2024.1.5,Win32,60.60606061,667045947eb812cbdacbf325,66704e48ab4a651f789adc69,,,,,,,,,,,,,,,,,,,,,,,,,,,,,,,,,,,,1227.8021,1233.4012,0.0,0.0,0.0,0.0,1.0,SoundStimuli/IWannaDanceWithSomebody_WhitneyHouston_Original5S.wav,,,,,,,,,,,,,,,,,,,,,,,,,,,,,,,,,,,,,,,,,,,,,,,,,,,,,,,,,
,,,,,524677,1,2024-06-17_09h55.51.946,experiment,2024.1.5,Win32,60.60606061,667045947eb812cbdacbf325,66704e48ab4a651f789adc69,,,,,,,,,,,,,,,,,,,,,,,,,,,,,,,,,,,,1233.421,1240.2495,0.0,1.0,1.0,1.0,1.0,SoundStimuli/IWannaDanceWithSomebody_WhitneyHouston_Cover5S.wav,,,,,,,,,,,,,,,,,,,,,,,,,,,,,,,,,,,,,,,,,,,,,,,,,,,,,,,,,
,,,,,524677,1,2024-06-17_09h55.51.946,experiment,2024.1.5,Win32,60.60606061,667045947eb812cbdacbf325,66704e48ab4a651f789adc69,,,,,,,,,,,,,,,,,,,,,,,,,,,,,,,,,,,,,,,,,,,,1240.2497,1242.6095,1.172222349,2.332,0.0,17.0,17.0,13.0,1.0,song_indices/IWannaDanceWithSomebody_WhitneyHouston.csv,,,,,,,,,,,,,,,,,,,,,,,,,,,,,,,,,,,,,,,,,,,,,,,
,,,,,524677,1,2024-06-17_09h55.51.946,experiment,2024.1.5,Win32,60.60606061,667045947eb812cbdacbf325,66704e48ab4a651f789adc69,,,,,,,,,,,,,,,,,,,,,,,,,,,,,,,,,,,,1242.612,1250.1224,0.0,0.0,0.0,1.0,1.0,SoundStimuli/EndlessLove_DianaRossLionelRichie_Cover5S.wav,,,,,,,,,,,,,,,,,,,,,,,,,,,,,,,,,,,,,,,,,,,,,,,,,,,,,,,,,
,,,,,524677,1,2024-06-17_09h55.51.946,experiment,2024.1.5,Win32,60.60606061,667045947eb812cbdacbf325,66704e48ab4a651f789adc69,,,,,,,,,,,,,,,,,,,,,,,,,,,,,,,,,,,,1250.1427,1256.4718,0.0,1.0,1.0,0.0,1.0,SoundStimuli/EndlessLove_DianaRossLionelRichie_Original5S.wav,,,,,,,,,,,,,,,,,,,,,,,,,,,,,,,,,,,,,,,,,,,,,,,,,,,,,,,,,
,,,,,524677,1,2024-06-17_09h55.51.946,experiment,2024.1.5,Win32,60.60606061,667045947eb812cbdacbf325,66704e48ab4a651f789adc69,,,,,,,,,,,,,,,,,,,,,,,,,,,,,,,,,,,,,,,,,,,,1256.4722,1258.6657,6.944444444,2.1649,0.0,18.0,18.0,3.0,1.0,song_indices/EndlessLove_DianaRossLionelRichie.csv,,,,,,,,,,,,,,,,,,,,,,,,,,,,,,,,,,,,,,,,,,,,,,,
,,,,,524677,1,2024-06-17_09h55.51.946,experiment,2024.1.5,Win32,60.60606061,667045947eb812cbdacbf325,66704e48ab4a651f789adc69,,,,,,,,,,,,,,,,,,,,,,,,,,,,,,,,,,,,1258.6688,1263.3699,0.0,0.0,0.0,1.0,1.0,SoundStimuli/AChangeIsGonnaCome_SamCooke_Cover5S.wav,,,,,,,,,,,,,,,,,,,,,,,,,,,,,,,,,,,,,,,,,,,,,,,,,,,,,,,,,
,,,,,524677,1,2024-06-17_09h55.51.946,experiment,2024.1.5,Win32,60.60606061,667045947eb812cbdacbf325,66704e48ab4a651f789adc69,,,,,,,,,,,,,,,,,,,,,,,,,,,,,,,,,,,,1263.3889,1269.4245,0.0,1.0,1.0,0.0,1.0,SoundStimuli/AChangeIsGonnaCome_SamCooke_Original5S.wav,,,,,,,,,,,,,,,,,,,,,,,,,,,,,,,,,,,,,,,,,,,,,,,,,,,,,,,,,
,,,,,524677,1,2024-06-17_09h55.51.946,experiment,2024.1.5,Win32,60.60606061,667045947eb812cbdacbf325,66704e48ab4a651f789adc69,,,,,,,,,,,,,,,,,,,,,,,,,,,,,,,,,,,,,,,,,,,,1269.4246,1271.9126,6.655555725,2.4595,0.0,19.0,19.0,17.0,1.0,song_indices/AChangeIsGonnaCome_SamCooke.csv,,,,,,,,,,,,,,,,,,,,,,,,,,,,,,,,,,,,,,,,,,,,,,,
,,,,,524677,1,2024-06-17_09h55.51.946,experiment,2024.1.5,Win32,60.60606061,667045947eb812cbdacbf325,66704e48ab4a651f789adc69,,,,,,,,,,,,,,,,,,,,,,,,,,,,,,,,,,,,1271.9146,1277.9465,0.0,0.0,0.0,0.0,1.0,SoundStimuli/StayinAlive_BeeGees_Original5S.wav,,,,,,,,,,,,,,,,,,,,,,,,,,,,,,,,,,,,,,,,,,,,,,,,,,,,,,,,,
,,,,,524677,1,2024-06-17_09h55.51.946,experiment,2024.1.5,Win32,60.60606061,667045947eb812cbdacbf325,66704e48ab4a651f789adc69,,,,,,,,,,,,,,,,,,,,,,,,,,,,,,,,,,,,1277.9644,1283.7975,0.0,1.0,1.0,1.0,1.0,SoundStimuli/StayinAlive_BeeGees_Cover5S.wav,,,,,,,,,,,,,,,,,,,,,,,,,,,,,,,,,,,,,,,,,,,,,,,,,,,,,,,,,
,,,,,524677,1,2024-06-17_09h55.51.946,experiment,2024.1.5,Win32,60.60606061,667045947eb812cbdacbf325,66704e48ab4a651f789adc69,,,,,,,,,,,,,,,,,,,,,,,,,,,,,,,,,,,,,,,,,,,,1283.7978,1286.2742,6.394444784,2.4487,0.0,20.0,20.0,2.0,1.0,song_indices/StayinAlive_BeeGees.csv,,,,,,,,,,,,,,,,,,,,,,,,,,,,,,,,,,,,,,,,,,,,,,,
,,,,,524677,1,2024-06-17_09h55.51.946,experiment,2024.1.5,Win32,60.60606061,667045947eb812cbdacbf325,66704e48ab4a651f789adc69,,,,,,,,,,,,,,,,,,,,,,,,,,,,,,,,,,,,1286.2764,1292.2408,0.0,0.0,0.0,0.0,1.0,SoundStimuli/BohemianRhapsody_Queen_Original5S.wav,,,,,,,,,,,,,,,,,,,,,,,,,,,,,,,,,,,,,,,,,,,,,,,,,,,,,,,,,
,,,,,524677,1,2024-06-17_09h55.51.946,experiment,2024.1.5,Win32,60.60606061,667045947eb812cbdacbf325,66704e48ab4a651f789adc69,,,,,,,,,,,,,,,,,,,,,,,,,,,,,,,,,,,,1292.2598,1296.3298,0.0,1.0,1.0,1.0,1.0,SoundStimuli/BohemianRhapsody_Queen_Cover5S.wav,,,,,,,,,,,,,,,,,,,,,,,,,,,,,,,,,,,,,,,,,,,,,,,,,,,,,,,,,
,,,,,524677,1,2024-06-17_09h55.51.946,experiment,2024.1.5,Win32,60.60606061,667045947eb812cbdacbf325,66704e48ab4a651f789adc69,,,,,,,,,,,,,,,,,,,,,,,,,,,,,,,,,,,,,,,,,,,,1296.33,1299.5047,1.038888931,3.1492,0.0,21.0,21.0,18.0,1.0,song_indices/BohemianRhapsody_Queen.csv,,,,,,,,,,,,,,,,,,,,,,,,,,,,,,,,,,,,,,,,,,,,,,,
,,,,,524677,1,2024-06-17_09h55.51.946,experiment,2024.1.5,Win32,60.60606061,667045947eb812cbdacbf325,66704e48ab4a651f789adc69,,,,,,,,,,,,,,,,,,,,,,,,,,,,,,,,,,,,1299.5066,1305.4552,0.0,0.0,0.0,1.0,1.0,SoundStimuli/IllMakeLoveToYou_BoyzIIMen_Cover5S.wav,,,,,,,,,,,,,,,,,,,,,,,,,,,,,,,,,,,,,,,,,,,,,,,,,,,,,,,,,
,,,,,524677,1,2024-06-17_09h55.51.946,experiment,2024.1.5,Win32,60.60606061,667045947eb812cbdacbf325,66704e48ab4a651f789adc69,,,,,,,,,,,,,,,,,,,,,,,,,,,,,,,,,,,,1305.4743,1311.5545,0.0,1.0,1.0,0.0,1.0,SoundStimuli/IllMakeLoveToYou_BoyzIIMen_Original5S.wav,,,,,,,,,,,,,,,,,,,,,,,,,,,,,,,,,,,,,,,,,,,,,,,,,,,,,,,,,
,,,,,524677,1,2024-06-17_09h55.51.946,experiment,2024.1.5,Win32,60.60606061,667045947eb812cbdacbf325,66704e48ab4a651f789adc69,,,,,,,,,,,,,,,,,,,,,,,,,,,,,,,,,,,,,,,,,,,,1311.5547,1313.9709,6.566666497,2.3964,0.0,22.0,22.0,6.0,1.0,song_indices/IllMakeLoveToYou_BoyzIIMen.csv,,,,,,,,,,,,,,,,,,,,,,,,,,,,,,,,,,,,,,,,,,,,,,,
,,,,,524677,1,2024-06-17_09h55.51.946,experiment,2024.1.5,Win32,60.60606061,667045947eb812cbdacbf325,66704e48ab4a651f789adc69,,,,,,,,,,,,,,,,,,,,,,,,,,,,,,,,,,,,,,,,,,,,,,,,,,,,,,1313.9714,1313.9715,,,,0.0,2.0,2.0,0.0,1.0,choose_song_b1.csv,,,,,,,,,,,,,,,,,,,,,,,,,,,,,,,,,,,,
,,,,,524677,1,2024-06-17_09h55.51.946,experiment,2024.1.5,Win32,60.60606061,667045947eb812cbdacbf325,66704e48ab4a651f789adc69,,,,,,,,,,,,,,,,,,,,,,,,,,,,,,,,,,,,,,,,,,,,,,,,,,,,,,,,,,,,,,,,,50.0,Item 2,I took piano lessons from age 10-16.,Item 3,"sirius xm, youtube, spotify",5.0,7.0,"driving, exercising, cleaning, cooking, ",Rarely,Sometimes,Often,Often,Sometimes,Never,Rarely,Rarely,Sometimes,Rarely,Never,Never,Never,Rarely,Sometimes,Sometimes,retro,retro 80s,90s pop,classical,"I've learned to like country music, mainly because country music has gotten better.",0.0,0.0,0.0,0.0,1.0,,
,,,,,524677,1,2024-06-17_09h55.51.946,experiment,2024.1.5,Win32,60.60606061,667045947eb812cbdacbf325,66704e48ab4a651f789adc69,,,,,,,,,,,,,,,,,,,,,,,,,,,,,,,,,,,,,,,,,,,,,,,,,,,,,,,,,,,,,,,,,,,,,,,,,,,,,,,,,,,,,,,,,,,,,,,,,,,1635.9061,1638.2473
