welcome.started,welcome.stopped,space_to_continue.keys,space_to_continue.rt,space_to_continue.duration,participant,session,date,expName,psychopyVersion,OS,frameRate,STUDY_ID,SESSION_ID,consent.consent,consent.consent_recontact,consent_check.started,consent_check.stopped,calibration_ready.started,calibration_ready.stopped,cal_ready.keys,cal_ready.rt,cal_ready.duration,calibration.started,calibration.stopped,mouse.x,mouse.y,mouse.leftButton,mouse.midButton,mouse.rightButton,mouse.time,mouse.clicked_name,move_on.keys,move_on.rt,move_on.duration,instructions.started,instructions.stopped,next.keys,next.rt,next.duration,practice_trial.started,practice_trial.stopped,practice_slider.response,practice_slider.rt,ready.started,ready.stopped,key_resp.keys,key_resp.rt,key_resp.duration,play_sound.started,play_sound.stopped,trials.thisRepN,trials.thisTrialN,trials.thisN,trials.thisIndex,trials.ran,orig_or_cover,rating.started,rating.stopped,slider.response,slider.rt,songs.thisRepN,songs.thisTrialN,songs.thisN,songs.thisIndex,songs.ran,song_id,short_break.started,short_break.stopped,space_to_move_on.keys,space_to_move_on.rt,space_to_move_on.duration,blocks.thisRepN,blocks.thisTrialN,blocks.thisN,blocks.thisIndex,blocks.ran,block,survey.age,survey.musician,survey.music_making,survey.listen_time,survey.medium,survey.music_seeking,survey.music_choice,survey.activities,survey.question1.A cappella,survey.question1.Folk/indie,survey.question1.R&B,survey.question1.Country,survey.question1.Reggae,survey.question1.Pop,survey.question1.Alternative rock,survey.question1.Classic rock,survey.question1.Jazz,survey.question1.Ambient,survey.question1.Hip hop,survey.question1.Classical,survey.question1.Electronic (EDM),survey.question1.Latin,survey.question1.Metal,survey.question1.Disco,survey.other_genres,survey.genres_ranked.text1,survey.genres_ranked.text2,survey.genres_ranked.text3,survey.habit_change,survey.habits,experiment.thisRepN,experiment.thisTrialN,experiment.thisN,experiment.thisIndex,experiment.ran,goodbye.started,goodbye.stopped
0.0,1.711,space,1.692,,616905,1,2024-06-17_11h08.08.987,experiment,2024.1.5,Win32,59.88023952,667045947eb812cbdacbf325,66704e028456b0e5b179856c,,,,,,,,,,,,,,,,,,,,,,,,,,,,,,,,,,,,,,,,,,,,,,,,,,,,,,,,,,,,,,,,,,,,,,,,,,,,,,,,,,,,,,,,,,,,,,,,,,,,,
,,,,,616905,1,2024-06-17_11h08.08.987,experiment,2024.1.5,Win32,59.88023952,667045947eb812cbdacbf325,66704e028456b0e5b179856c,yes,no,,,,,,,,,,,,,,,,,,,,,,,,,,,,,,,,,,,,,,,,,,,,,,,,,,,,,,,,,,,,,,,,,,,,,,,,,,,,,,,,,,,,,,,,,,,,,,,,,,,
,,,,,616905,1,2024-06-17_11h08.08.987,experiment,2024.1.5,Win32,59.88023952,667045947eb812cbdacbf325,66704e028456b0e5b179856c,,,25.931,25.931,,,,,,,,,,,,,,,,,,,,,,,,,,,,,,,,,,,,,,,,,,,,,,,,,,,,,,,,,,,,,,,,,,,,,,,,,,,,,,,,,,,,,,,,,,,,,,,,,
,,,,,616905,1,2024-06-17_11h08.08.987,experiment,2024.1.5,Win32,59.88023952,667045947eb812cbdacbf325,66704e028456b0e5b179856c,,,,,25.932,27.047,space,1.091,,27.047,38.892,"[0.007407407407407408,0.04722222222222222]","[-0.4287037037037037,-0.26851851851851855]","[1,1]","[0,0]","[0,0]","[1.024000000000001,10.533000000000001]","[""play_button""]",right,1.822,,38.893,40.412,space,1.477,,40.412,56.206,6.0,15.774,56.206,58.83,space,2.604,,58.859,65.149,0.0,0.0,0.0,0.0,1.0,SoundStimuli/LetsGetItOn_MarvinGaye_Original5S.wav,,,,,,,,,,,,,,,,,,,,,,,,,,,,,,,,,,,,,,,,,,,,,,,,,,,,,,,,,,
,,,,,616905,1,2024-06-17_11h08.08.987,experiment,2024.1.5,Win32,59.88023952,667045947eb812cbdacbf325,66704e028456b0e5b179856c,,,,,,,,,,,,,,,,,,,,,,,,,,,,,,,,,,,,65.157,71.804,0.0,1.0,1.0,1.0,1.0,SoundStimuli/LetsGetItOn_MarvinGaye_Cover5S.wav,,,,,,,,,,,,,,,,,,,,,,,,,,,,,,,,,,,,,,,,,,,,,,,,,,,,,,,,,,
,,,,,616905,1,2024-06-17_11h08.08.987,experiment,2024.1.5,Win32,59.88023952,667045947eb812cbdacbf325,66704e028456b0e5b179856c,,,,,,,,,,,,,,,,,,,,,,,,,,,,,,,,,,,,,,,,,,,,71.808,73.614,4.972222222,1.799,0.0,0.0,0.0,20.0,1.0,song_indices/LetsGetItOn_MarvinGaye.csv,,,,,,,,,,,,,,,,,,,,,,,,,,,,,,,,,,,,,,,,,,,,,,,,
,,,,,616905,1,2024-06-17_11h08.08.987,experiment,2024.1.5,Win32,59.88023952,667045947eb812cbdacbf325,66704e028456b0e5b179856c,,,,,,,,,,,,,,,,,,,,,,,,,,,,,,,,,,,,73.62,80.412,0.0,0.0,0.0,1.0,1.0,SoundStimuli/SomebodyThatIUsedtoKnow_Gotye_Cover5S.wav,,,,,,,,,,,,,,,,,,,,,,,,,,,,,,,,,,,,,,,,,,,,,,,,,,,,,,,,,,
,,,,,616905,1,2024-06-17_11h08.08.987,experiment,2024.1.5,Win32,59.88023952,667045947eb812cbdacbf325,66704e028456b0e5b179856c,,,,,,,,,,,,,,,,,,,,,,,,,,,,,,,,,,,,80.416,87.653,0.0,1.0,1.0,0.0,1.0,SoundStimuli/SomebodyThatIUsedtoKnow_Gotye_Original5S.wav,,,,,,,,,,,,,,,,,,,,,,,,,,,,,,,,,,,,,,,,,,,,,,,,,,,,,,,,,,
,,,,,616905,1,2024-06-17_11h08.08.987,experiment,2024.1.5,Win32,59.88023952,667045947eb812cbdacbf325,66704e028456b0e5b179856c,,,,,,,,,,,,,,,,,,,,,,,,,,,,,,,,,,,,,,,,,,,,87.656,89.696,4.988888889,2.036,0.0,1.0,1.0,7.0,1.0,song_indices/SomebodyThatIUsedtoKnow_Gotye.csv,,,,,,,,,,,,,,,,,,,,,,,,,,,,,,,,,,,,,,,,,,,,,,,,
,,,,,616905,1,2024-06-17_11h08.08.987,experiment,2024.1.5,Win32,59.88023952,667045947eb812cbdacbf325,66704e028456b0e5b179856c,,,,,,,,,,,,,,,,,,,,,,,,,,,,,,,,,,,,89.701,95.732,0.0,0.0,0.0,0.0,1.0,SoundStimuli/HowDoILive_LeAnnRimes_Original5S.wav,,,,,,,,,,,,,,,,,,,,,,,,,,,,,,,,,,,,,,,,,,,,,,,,,,,,,,,,,,
,,,,,616905,1,2024-06-17_11h08.08.987,experiment,2024.1.5,Win32,59.88023952,667045947eb812cbdacbf325,66704e028456b0e5b179856c,,,,,,,,,,,,,,,,,,,,,,,,,,,,,,,,,,,,95.738,101.218,0.0,1.0,1.0,1.0,1.0,SoundStimuli/HowDoILive_LeAnnRimes_Cover5S.wav,,,,,,,,,,,,,,,,,,,,,,,,,,,,,,,,,,,,,,,,,,,,,,,,,,,,,,,,,,
,,,,,616905,1,2024-06-17_11h08.08.987,experiment,2024.1.5,Win32,59.88023952,667045947eb812cbdacbf325,66704e028456b0e5b179856c,,,,,,,,,,,,,,,,,,,,,,,,,,,,,,,,,,,,,,,,,,,,101.218,103.028,5.955555556,1.802,0.0,2.0,2.0,17.0,1.0,song_indices/HowDoILive_LeAnnRimes.csv,,,,,,,,,,,,,,,,,,,,,,,,,,,,,,,,,,,,,,,,,,,,,,,,
,,,,,616905,1,2024-06-17_11h08.08.987,experiment,2024.1.5,Win32,59.88023952,667045947eb812cbdacbf325,66704e028456b0e5b179856c,,,,,,,,,,,,,,,,,,,,,,,,,,,,,,,,,,,,103.032,108.541,0.0,0.0,0.0,1.0,1.0,SoundStimuli/LeFreak_Chic_Cover5S.wav,,,,,,,,,,,,,,,,,,,,,,,,,,,,,,,,,,,,,,,,,,,,,,,,,,,,,,,,,,
,,,,,616905,1,2024-06-17_11h08.08.987,experiment,2024.1.5,Win32,59.88023952,667045947eb812cbdacbf325,66704e028456b0e5b179856c,,,,,,,,,,,,,,,,,,,,,,,,,,,,,,,,,,,,108.544,114.582,0.0,1.0,1.0,0.0,1.0,SoundStimuli/LeFreak_Chic_Original5S.wav,,,,,,,,,,,,,,,,,,,,,,,,,,,,,,,,,,,,,,,,,,,,,,,,,,,,,,,,,,
,,,,,616905,1,2024-06-17_11h08.08.987,experiment,2024.1.5,Win32,59.88023952,667045947eb812cbdacbf325,66704e028456b0e5b179856c,,,,,,,,,,,,,,,,,,,,,,,,,,,,,,,,,,,,,,,,,,,,114.584,115.919,5.038888889,1.331,0.0,3.0,3.0,11.0,1.0,song_indices/LeFreak_Chic.csv,,,,,,,,,,,,,,,,,,,,,,,,,,,,,,,,,,,,,,,,,,,,,,,,
,,,,,616905,1,2024-06-17_11h08.08.987,experiment,2024.1.5,Win32,59.88023952,667045947eb812cbdacbf325,66704e028456b0e5b179856c,,,,,,,,,,,,,,,,,,,,,,,,,,,,,,,,,,,,115.927,122.371,0.0,0.0,0.0,1.0,1.0,SoundStimuli/YouLightUpMyLife_DebbyBoone_Cover5S.wav,,,,,,,,,,,,,,,,,,,,,,,,,,,,,,,,,,,,,,,,,,,,,,,,,,,,,,,,,,
,,,,,616905,1,2024-06-17_11h08.08.987,experiment,2024.1.5,Win32,59.88023952,667045947eb812cbdacbf325,66704e028456b0e5b179856c,,,,,,,,,,,,,,,,,,,,,,,,,,,,,,,,,,,,122.373,128.463,0.0,1.0,1.0,0.0,1.0,SoundStimuli/YouLightUpMyLife_DebbyBoone_Original5S.wav,,,,,,,,,,,,,,,,,,,,,,,,,,,,,,,,,,,,,,,,,,,,,,,,,,,,,,,,,,
,,,,,616905,1,2024-06-17_11h08.08.987,experiment,2024.1.5,Win32,59.88023952,667045947eb812cbdacbf325,66704e028456b0e5b179856c,,,,,,,,,,,,,,,,,,,,,,,,,,,,,,,,,,,,,,,,,,,,128.467,129.856,6.988888889,1.381,0.0,4.0,4.0,4.0,1.0,song_indices/YouLightUpMyLife_DebbyBoone.csv,,,,,,,,,,,,,,,,,,,,,,,,,,,,,,,,,,,,,,,,,,,,,,,,
,,,,,616905,1,2024-06-17_11h08.08.987,experiment,2024.1.5,Win32,59.88023952,667045947eb812cbdacbf325,66704e028456b0e5b179856c,,,,,,,,,,,,,,,,,,,,,,,,,,,,,,,,,,,,129.86,136.603,0.0,0.0,0.0,0.0,1.0,SoundStimuli/BlurredLines_RobinThicke_Original5S.wav,,,,,,,,,,,,,,,,,,,,,,,,,,,,,,,,,,,,,,,,,,,,,,,,,,,,,,,,,,
,,,,,616905,1,2024-06-17_11h08.08.987,experiment,2024.1.5,Win32,59.88023952,667045947eb812cbdacbf325,66704e028456b0e5b179856c,,,,,,,,,,,,,,,,,,,,,,,,,,,,,,,,,,,,136.609,143.709,0.0,1.0,1.0,1.0,1.0,SoundStimuli/BlurredLines_RobinThicke_Cover5S.wav,,,,,,,,,,,,,,,,,,,,,,,,,,,,,,,,,,,,,,,,,,,,,,,,,,,,,,,,,,
,,,,,616905,1,2024-06-17_11h08.08.987,experiment,2024.1.5,Win32,59.88023952,667045947eb812cbdacbf325,66704e028456b0e5b179856c,,,,,,,,,,,,,,,,,,,,,,,,,,,,,,,,,,,,,,,,,,,,143.71,147.057,6.072222222,3.343,0.0,5.0,5.0,9.0,1.0,song_indices/BlurredLines_RobinThicke.csv,,,,,,,,,,,,,,,,,,,,,,,,,,,,,,,,,,,,,,,,,,,,,,,,
,,,,,616905,1,2024-06-17_11h08.08.987,experiment,2024.1.5,Win32,59.88023952,667045947eb812cbdacbf325,66704e028456b0e5b179856c,,,,,,,,,,,,,,,,,,,,,,,,,,,,,,,,,,,,147.059,153.119,0.0,0.0,0.0,0.0,1.0,SoundStimuli/TossinAndTurnin_BobbyLewis_Original5S.wav,,,,,,,,,,,,,,,,,,,,,,,,,,,,,,,,,,,,,,,,,,,,,,,,,,,,,,,,,,
,,,,,616905,1,2024-06-17_11h08.08.987,experiment,2024.1.5,Win32,59.88023952,667045947eb812cbdacbf325,66704e028456b0e5b179856c,,,,,,,,,,,,,,,,,,,,,,,,,,,,,,,,,,,,153.123,159.247,0.0,1.0,1.0,1.0,1.0,SoundStimuli/TossinAndTurnin_BobbyLewis_Cover5S.wav,,,,,,,,,,,,,,,,,,,,,,,,,,,,,,,,,,,,,,,,,,,,,,,,,,,,,,,,,,
,,,,,616905,1,2024-06-17_11h08.08.987,experiment,2024.1.5,Win32,59.88023952,667045947eb812cbdacbf325,66704e028456b0e5b179856c,,,,,,,,,,,,,,,,,,,,,,,,,,,,,,,,,,,,,,,,,,,,159.251,160.987,3.011111111,1.73,0.0,6.0,6.0,13.0,1.0,song_indices/TossinAndTurnin_BobbyLewis.csv,,,,,,,,,,,,,,,,,,,,,,,,,,,,,,,,,,,,,,,,,,,,,,,,
,,,,,616905,1,2024-06-17_11h08.08.987,experiment,2024.1.5,Win32,59.88023952,667045947eb812cbdacbf325,66704e028456b0e5b179856c,,,,,,,,,,,,,,,,,,,,,,,,,,,,,,,,,,,,160.99,168.267,0.0,0.0,0.0,1.0,1.0,SoundStimuli/FlashdanceWhatAFeeling_IreneCara_Cover5S.wav,,,,,,,,,,,,,,,,,,,,,,,,,,,,,,,,,,,,,,,,,,,,,,,,,,,,,,,,,,
,,,,,616905,1,2024-06-17_11h08.08.987,experiment,2024.1.5,Win32,59.88023952,667045947eb812cbdacbf325,66704e028456b0e5b179856c,,,,,,,,,,,,,,,,,,,,,,,,,,,,,,,,,,,,168.27,174.64,0.0,1.0,1.0,0.0,1.0,SoundStimuli/FlashdanceWhatAFeeling_IreneCara_Original5S.wav,,,,,,,,,,,,,,,,,,,,,,,,,,,,,,,,,,,,,,,,,,,,,,,,,,,,,,,,,,
,,,,,616905,1,2024-06-17_11h08.08.987,experiment,2024.1.5,Win32,59.88023952,667045947eb812cbdacbf325,66704e028456b0e5b179856c,,,,,,,,,,,,,,,,,,,,,,,,,,,,,,,,,,,,,,,,,,,,174.642,177.418,6.955555556,2.769,0.0,7.0,7.0,18.0,1.0,song_indices/FlashdanceWhatAFeeling_IreneCara.csv,,,,,,,,,,,,,,,,,,,,,,,,,,,,,,,,,,,,,,,,,,,,,,,,
,,,,,616905,1,2024-06-17_11h08.08.987,experiment,2024.1.5,Win32,59.88023952,667045947eb812cbdacbf325,66704e028456b0e5b179856c,,,,,,,,,,,,,,,,,,,,,,,,,,,,,,,,,,,,177.423,183.134,0.0,0.0,0.0,1.0,1.0,SoundStimuli/Levitating_DuaLipa_Cover5S.wav,,,,,,,,,,,,,,,,,,,,,,,,,,,,,,,,,,,,,,,,,,,,,,,,,,,,,,,,,,
,,,,,616905,1,2024-06-17_11h08.08.987,experiment,2024.1.5,Win32,59.88023952,667045947eb812cbdacbf325,66704e028456b0e5b179856c,,,,,,,,,,,,,,,,,,,,,,,,,,,,,,,,,,,,183.138,189.141,0.0,1.0,1.0,0.0,1.0,SoundStimuli/Levitating_DuaLipa_Original5S.wav,,,,,,,,,,,,,,,,,,,,,,,,,,,,,,,,,,,,,,,,,,,,,,,,,,,,,,,,,,
,,,,,616905,1,2024-06-17_11h08.08.987,experiment,2024.1.5,Win32,59.88023952,667045947eb812cbdacbf325,66704e028456b0e5b179856c,,,,,,,,,,,,,,,,,,,,,,,,,,,,,,,,,,,,,,,,,,,,189.142,190.282,3.916666667,1.134,0.0,8.0,8.0,10.0,1.0,song_indices/Levitating_DuaLipa.csv,,,,,,,,,,,,,,,,,,,,,,,,,,,,,,,,,,,,,,,,,,,,,,,,
,,,,,616905,1,2024-06-17_11h08.08.987,experiment,2024.1.5,Win32,59.88023952,667045947eb812cbdacbf325,66704e028456b0e5b179856c,,,,,,,,,,,,,,,,,,,,,,,,,,,,,,,,,,,,190.285,196.497,0.0,0.0,0.0,0.0,1.0,SoundStimuli/TikTok_Kesha_Original5S.wav,,,,,,,,,,,,,,,,,,,,,,,,,,,,,,,,,,,,,,,,,,,,,,,,,,,,,,,,,,
,,,,,616905,1,2024-06-17_11h08.08.987,experiment,2024.1.5,Win32,59.88023952,667045947eb812cbdacbf325,66704e028456b0e5b179856c,,,,,,,,,,,,,,,,,,,,,,,,,,,,,,,,,,,,196.505,204.037,0.0,1.0,1.0,1.0,1.0,SoundStimuli/TikTok_Kesha_Cover5S.wav,,,,,,,,,,,,,,,,,,,,,,,,,,,,,,,,,,,,,,,,,,,,,,,,,,,,,,,,,,
,,,,,616905,1,2024-06-17_11h08.08.987,experiment,2024.1.5,Win32,59.88023952,667045947eb812cbdacbf325,66704e028456b0e5b179856c,,,,,,,,,,,,,,,,,,,,,,,,,,,,,,,,,,,,,,,,,,,,204.04,206.314,1.922222222,2.264,0.0,9.0,9.0,3.0,1.0,song_indices/TikTok_Kesha.csv,,,,,,,,,,,,,,,,,,,,,,,,,,,,,,,,,,,,,,,,,,,,,,,,
,,,,,616905,1,2024-06-17_11h08.08.987,experiment,2024.1.5,Win32,59.88023952,667045947eb812cbdacbf325,66704e028456b0e5b179856c,,,,,,,,,,,,,,,,,,,,,,,,,,,,,,,,,,,,206.319,212.813,0.0,0.0,0.0,0.0,1.0,SoundStimuli/Dreams_FleetwoodMac_Original5S.wav,,,,,,,,,,,,,,,,,,,,,,,,,,,,,,,,,,,,,,,,,,,,,,,,,,,,,,,,,,
,,,,,616905,1,2024-06-17_11h08.08.987,experiment,2024.1.5,Win32,59.88023952,667045947eb812cbdacbf325,66704e028456b0e5b179856c,,,,,,,,,,,,,,,,,,,,,,,,,,,,,,,,,,,,212.817,220.653,0.0,1.0,1.0,1.0,1.0,SoundStimuli/Dreams_FleetwoodMac_Cover5S.wav,,,,,,,,,,,,,,,,,,,,,,,,,,,,,,,,,,,,,,,,,,,,,,,,,,,,,,,,,,
,,,,,616905,1,2024-06-17_11h08.08.987,experiment,2024.1.5,Win32,59.88023952,667045947eb812cbdacbf325,66704e028456b0e5b179856c,,,,,,,,,,,,,,,,,,,,,,,,,,,,,,,,,,,,,,,,,,,,220.654,223.727,3.005555556,3.066,0.0,10.0,10.0,1.0,1.0,song_indices/Dreams_FleetwoodMac.csv,,,,,,,,,,,,,,,,,,,,,,,,,,,,,,,,,,,,,,,,,,,,,,,,
,,,,,616905,1,2024-06-17_11h08.08.987,experiment,2024.1.5,Win32,59.88023952,667045947eb812cbdacbf325,66704e028456b0e5b179856c,,,,,,,,,,,,,,,,,,,,,,,,,,,,,,,,,,,,223.729,229.899,0.0,0.0,0.0,0.0,1.0,SoundStimuli/TheSign_AceOfBase_Original5S.wav,,,,,,,,,,,,,,,,,,,,,,,,,,,,,,,,,,,,,,,,,,,,,,,,,,,,,,,,,,
,,,,,616905,1,2024-06-17_11h08.08.987,experiment,2024.1.5,Win32,59.88023952,667045947eb812cbdacbf325,66704e028456b0e5b179856c,,,,,,,,,,,,,,,,,,,,,,,,,,,,,,,,,,,,229.907,235.919,0.0,1.0,1.0,1.0,1.0,SoundStimuli/TheSign_AceOfBase_Cover5S.wav,,,,,,,,,,,,,,,,,,,,,,,,,,,,,,,,,,,,,,,,,,,,,,,,,,,,,,,,,,
,,,,,616905,1,2024-06-17_11h08.08.987,experiment,2024.1.5,Win32,59.88023952,667045947eb812cbdacbf325,66704e028456b0e5b179856c,,,,,,,,,,,,,,,,,,,,,,,,,,,,,,,,,,,,,,,,,,,,235.922,237.061,4.988888889,1.133,0.0,11.0,11.0,5.0,1.0,song_indices/TheSign_AceOfBase.csv,,,,,,,,,,,,,,,,,,,,,,,,,,,,,,,,,,,,,,,,,,,,,,,,
,,,,,616905,1,2024-06-17_11h08.08.987,experiment,2024.1.5,Win32,59.88023952,667045947eb812cbdacbf325,66704e028456b0e5b179856c,,,,,,,,,,,,,,,,,,,,,,,,,,,,,,,,,,,,237.067,243.259,0.0,0.0,0.0,0.0,1.0,SoundStimuli/SaveYourTears_TheWeekndArianaGrande_Original5S.wav,,,,,,,,,,,,,,,,,,,,,,,,,,,,,,,,,,,,,,,,,,,,,,,,,,,,,,,,,,
,,,,,616905,1,2024-06-17_11h08.08.987,experiment,2024.1.5,Win32,59.88023952,667045947eb812cbdacbf325,66704e028456b0e5b179856c,,,,,,,,,,,,,,,,,,,,,,,,,,,,,,,,,,,,243.262,249.148,0.0,1.0,1.0,1.0,1.0,SoundStimuli/SaveYourTears_TheWeekndArianaGrande_Cover5S.wav,,,,,,,,,,,,,,,,,,,,,,,,,,,,,,,,,,,,,,,,,,,,,,,,,,,,,,,,,,
,,,,,616905,1,2024-06-17_11h08.08.987,experiment,2024.1.5,Win32,59.88023952,667045947eb812cbdacbf325,66704e028456b0e5b179856c,,,,,,,,,,,,,,,,,,,,,,,,,,,,,,,,,,,,,,,,,,,,249.152,251.373,2.977777778,2.215,0.0,12.0,12.0,12.0,1.0,song_indices/SaveYourTears_TheWeekndArianaGrande.csv,,,,,,,,,,,,,,,,,,,,,,,,,,,,,,,,,,,,,,,,,,,,,,,,
,,,,,616905,1,2024-06-17_11h08.08.987,experiment,2024.1.5,Win32,59.88023952,667045947eb812cbdacbf325,66704e028456b0e5b179856c,,,,,,,,,,,,,,,,,,,,,,,,,,,,,,,,,,,,251.378,257.456,0.0,0.0,0.0,0.0,1.0,SoundStimuli/Weak_SWV_Original5S.wav,,,,,,,,,,,,,,,,,,,,,,,,,,,,,,,,,,,,,,,,,,,,,,,,,,,,,,,,,,
,,,,,616905,1,2024-06-17_11h08.08.987,experiment,2024.1.5,Win32,59.88023952,667045947eb812cbdacbf325,66704e028456b0e5b179856c,,,,,,,,,,,,,,,,,,,,,,,,,,,,,,,,,,,,257.458,263.954,0.0,1.0,1.0,1.0,1.0,SoundStimuli/Weak_SWV_Cover5S.wav,,,,,,,,,,,,,,,,,,,,,,,,,,,,,,,,,,,,,,,,,,,,,,,,,,,,,,,,,,
,,,,,616905,1,2024-06-17_11h08.08.987,experiment,2024.1.5,Win32,59.88023952,667045947eb812cbdacbf325,66704e028456b0e5b179856c,,,,,,,,,,,,,,,,,,,,,,,,,,,,,,,,,,,,,,,,,,,,263.954,266.227,1.988888889,2.268,0.0,13.0,13.0,6.0,1.0,song_indices/Weak_SWV.csv,,,,,,,,,,,,,,,,,,,,,,,,,,,,,,,,,,,,,,,,,,,,,,,,
,,,,,616905,1,2024-06-17_11h08.08.987,experiment,2024.1.5,Win32,59.88023952,667045947eb812cbdacbf325,66704e028456b0e5b179856c,,,,,,,,,,,,,,,,,,,,,,,,,,,,,,,,,,,,266.231,273.023,0.0,0.0,0.0,1.0,1.0,SoundStimuli/BlindingLights_TheWeeknd_Cover5S.wav,,,,,,,,,,,,,,,,,,,,,,,,,,,,,,,,,,,,,,,,,,,,,,,,,,,,,,,,,,
,,,,,616905,1,2024-06-17_11h08.08.987,experiment,2024.1.5,Win32,59.88023952,667045947eb812cbdacbf325,66704e028456b0e5b179856c,,,,,,,,,,,,,,,,,,,,,,,,,,,,,,,,,,,,273.026,279.513,0.0,1.0,1.0,0.0,1.0,SoundStimuli/BlindingLights_TheWeeknd_Original5S.wav,,,,,,,,,,,,,,,,,,,,,,,,,,,,,,,,,,,,,,,,,,,,,,,,,,,,,,,,,,
,,,,,616905,1,2024-06-17_11h08.08.987,experiment,2024.1.5,Win32,59.88023952,667045947eb812cbdacbf325,66704e028456b0e5b179856c,,,,,,,,,,,,,,,,,,,,,,,,,,,,,,,,,,,,,,,,,,,,279.514,280.705,5.933333333,1.185,0.0,14.0,14.0,21.0,1.0,song_indices/BlindingLights_TheWeeknd.csv,,,,,,,,,,,,,,,,,,,,,,,,,,,,,,,,,,,,,,,,,,,,,,,,
,,,,,616905,1,2024-06-17_11h08.08.987,experiment,2024.1.5,Win32,59.88023952,667045947eb812cbdacbf325,66704e028456b0e5b179856c,,,,,,,,,,,,,,,,,,,,,,,,,,,,,,,,,,,,280.708,287.696,0.0,0.0,0.0,1.0,1.0,SoundStimuli/Dilemma_NellyKellyRowland_Cover5S.wav,,,,,,,,,,,,,,,,,,,,,,,,,,,,,,,,,,,,,,,,,,,,,,,,,,,,,,,,,,
,,,,,616905,1,2024-06-17_11h08.08.987,experiment,2024.1.5,Win32,59.88023952,667045947eb812cbdacbf325,66704e028456b0e5b179856c,,,,,,,,,,,,,,,,,,,,,,,,,,,,,,,,,,,,287.697,293.893,0.0,1.0,1.0,0.0,1.0,SoundStimuli/Dilemma_NellyKellyRowland_Original5S.wav,,,,,,,,,,,,,,,,,,,,,,,,,,,,,,,,,,,,,,,,,,,,,,,,,,,,,,,,,,
,,,,,616905,1,2024-06-17_11h08.08.987,experiment,2024.1.5,Win32,59.88023952,667045947eb812cbdacbf325,66704e028456b0e5b179856c,,,,,,,,,,,,,,,,,,,,,,,,,,,,,,,,,,,,,,,,,,,,293.893,295.234,4.977777778,1.333,0.0,15.0,15.0,2.0,1.0,song_indices/Dilemma_NellyKellyRowland.csv,,,,,,,,,,,,,,,,,,,,,,,,,,,,,,,,,,,,,,,,,,,,,,,,
,,,,,616905,1,2024-06-17_11h08.08.987,experiment,2024.1.5,Win32,59.88023952,667045947eb812cbdacbf325,66704e028456b0e5b179856c,,,,,,,,,,,,,,,,,,,,,,,,,,,,,,,,,,,,295.239,301.376,0.0,0.0,0.0,0.0,1.0,SoundStimuli/Superstition_StevieWonder_Original5S.wav,,,,,,,,,,,,,,,,,,,,,,,,,,,,,,,,,,,,,,,,,,,,,,,,,,,,,,,,,,
,,,,,616905,1,2024-06-17_11h08.08.987,experiment,2024.1.5,Win32,59.88023952,667045947eb812cbdacbf325,66704e028456b0e5b179856c,,,,,,,,,,,,,,,,,,,,,,,,,,,,,,,,,,,,301.379,306.673,0.0,1.0,1.0,1.0,1.0,SoundStimuli/Superstition_StevieWonder_Cover5S.wav,,,,,,,,,,,,,,,,,,,,,,,,,,,,,,,,,,,,,,,,,,,,,,,,,,,,,,,,,,
,,,,,616905,1,2024-06-17_11h08.08.987,experiment,2024.1.5,Win32,59.88023952,667045947eb812cbdacbf325,66704e028456b0e5b179856c,,,,,,,,,,,,,,,,,,,,,,,,,,,,,,,,,,,,,,,,,,,,306.673,309.299,4.95,2.62,0.0,16.0,16.0,15.0,1.0,song_indices/Superstition_StevieWonder.csv,,,,,,,,,,,,,,,,,,,,,,,,,,,,,,,,,,,,,,,,,,,,,,,,
,,,,,616905,1,2024-06-17_11h08.08.987,experiment,2024.1.5,Win32,59.88023952,667045947eb812cbdacbf325,66704e028456b0e5b179856c,,,,,,,,,,,,,,,,,,,,,,,,,,,,,,,,,,,,309.304,315.164,0.0,0.0,0.0,0.0,1.0,SoundStimuli/Irreplaceable_Beyonce_Original5S.wav,,,,,,,,,,,,,,,,,,,,,,,,,,,,,,,,,,,,,,,,,,,,,,,,,,,,,,,,,,
,,,,,616905,1,2024-06-17_11h08.08.987,experiment,2024.1.5,Win32,59.88023952,667045947eb812cbdacbf325,66704e028456b0e5b179856c,,,,,,,,,,,,,,,,,,,,,,,,,,,,,,,,,,,,315.169,321.087,0.0,1.0,1.0,1.0,1.0,SoundStimuli/Irreplaceable_Beyonce_Cover5S.wav,,,,,,,,,,,,,,,,,,,,,,,,,,,,,,,,,,,,,,,,,,,,,,,,,,,,,,,,,,
,,,,,616905,1,2024-06-17_11h08.08.987,experiment,2024.1.5,Win32,59.88023952,667045947eb812cbdacbf325,66704e028456b0e5b179856c,,,,,,,,,,,,,,,,,,,,,,,,,,,,,,,,,,,,,,,,,,,,321.088,324.542,5.066666667,3.449,0.0,17.0,17.0,19.0,1.0,song_indices/Irreplaceable_Beyonce.csv,,,,,,,,,,,,,,,,,,,,,,,,,,,,,,,,,,,,,,,,,,,,,,,,
,,,,,616905,1,2024-06-17_11h08.08.987,experiment,2024.1.5,Win32,59.88023952,667045947eb812cbdacbf325,66704e028456b0e5b179856c,,,,,,,,,,,,,,,,,,,,,,,,,,,,,,,,,,,,324.551,331.614,0.0,0.0,0.0,1.0,1.0,SoundStimuli/ComeAndGetYourLove_Redbone_Cover5S.wav,,,,,,,,,,,,,,,,,,,,,,,,,,,,,,,,,,,,,,,,,,,,,,,,,,,,,,,,,,
,,,,,616905,1,2024-06-17_11h08.08.987,experiment,2024.1.5,Win32,59.88023952,667045947eb812cbdacbf325,66704e028456b0e5b179856c,,,,,,,,,,,,,,,,,,,,,,,,,,,,,,,,,,,,331.617,337.724,0.0,1.0,1.0,0.0,1.0,SoundStimuli/ComeAndGetYourLove_Redbone_Original5S.wav,,,,,,,,,,,,,,,,,,,,,,,,,,,,,,,,,,,,,,,,,,,,,,,,,,,,,,,,,,
,,,,,616905,1,2024-06-17_11h08.08.987,experiment,2024.1.5,Win32,59.88023952,667045947eb812cbdacbf325,66704e028456b0e5b179856c,,,,,,,,,,,,,,,,,,,,,,,,,,,,,,,,,,,,,,,,,,,,337.725,338.615,4.016666667,0.885,0.0,18.0,18.0,22.0,1.0,song_indices/ComeAndGetYourLove_Redbone.csv,,,,,,,,,,,,,,,,,,,,,,,,,,,,,,,,,,,,,,,,,,,,,,,,
,,,,,616905,1,2024-06-17_11h08.08.987,experiment,2024.1.5,Win32,59.88023952,667045947eb812cbdacbf325,66704e028456b0e5b179856c,,,,,,,,,,,,,,,,,,,,,,,,,,,,,,,,,,,,338.618,344.544,0.0,0.0,0.0,0.0,1.0,SoundStimuli/Respect_ArethaFranklin_Original5S.wav,,,,,,,,,,,,,,,,,,,,,,,,,,,,,,,,,,,,,,,,,,,,,,,,,,,,,,,,,,
,,,,,616905,1,2024-06-17_11h08.08.987,experiment,2024.1.5,Win32,59.88023952,667045947eb812cbdacbf325,66704e028456b0e5b179856c,,,,,,,,,,,,,,,,,,,,,,,,,,,,,,,,,,,,344.546,350.617,0.0,1.0,1.0,1.0,1.0,SoundStimuli/Respect_ArethaFranklin_Cover5S.wav,,,,,,,,,,,,,,,,,,,,,,,,,,,,,,,,,,,,,,,,,,,,,,,,,,,,,,,,,,
,,,,,616905,1,2024-06-17_11h08.08.987,experiment,2024.1.5,Win32,59.88023952,667045947eb812cbdacbf325,66704e028456b0e5b179856c,,,,,,,,,,,,,,,,,,,,,,,,,,,,,,,,,,,,,,,,,,,,350.619,351.711,2.966666667,1.089,0.0,19.0,19.0,0.0,1.0,song_indices/Respect_ArethaFranklin.csv,,,,,,,,,,,,,,,,,,,,,,,,,,,,,,,,,,,,,,,,,,,,,,,,
,,,,,616905,1,2024-06-17_11h08.08.987,experiment,2024.1.5,Win32,59.88023952,667045947eb812cbdacbf325,66704e028456b0e5b179856c,,,,,,,,,,,,,,,,,,,,,,,,,,,,,,,,,,,,351.713,357.807,0.0,0.0,0.0,0.0,1.0,SoundStimuli/UnbreakMyHeart_ToniBraxton_Original5S.wav,,,,,,,,,,,,,,,,,,,,,,,,,,,,,,,,,,,,,,,,,,,,,,,,,,,,,,,,,,
,,,,,616905,1,2024-06-17_11h08.08.987,experiment,2024.1.5,Win32,59.88023952,667045947eb812cbdacbf325,66704e028456b0e5b179856c,,,,,,,,,,,,,,,,,,,,,,,,,,,,,,,,,,,,357.809,361.781,0.0,1.0,1.0,1.0,1.0,SoundStimuli/UnbreakMyHeart_ToniBraxton_Cover5S.wav,,,,,,,,,,,,,,,,,,,,,,,,,,,,,,,,,,,,,,,,,,,,,,,,,,,,,,,,,,
,,,,,616905,1,2024-06-17_11h08.08.987,experiment,2024.1.5,Win32,59.88023952,667045947eb812cbdacbf325,66704e028456b0e5b179856c,,,,,,,,,,,,,,,,,,,,,,,,,,,,,,,,,,,,,,,,,,,,361.781,365.254,2.988888889,3.465,0.0,20.0,20.0,16.0,1.0,song_indices/UnbreakMyHeart_ToniBraxton.csv,,,,,,,,,,,,,,,,,,,,,,,,,,,,,,,,,,,,,,,,,,,,,,,,
,,,,,616905,1,2024-06-17_11h08.08.987,experiment,2024.1.5,Win32,59.88023952,667045947eb812cbdacbf325,66704e028456b0e5b179856c,,,,,,,,,,,,,,,,,,,,,,,,,,,,,,,,,,,,365.259,372.692,0.0,0.0,0.0,0.0,1.0,SoundStimuli/Kiss_Prince_Original5S.wav,,,,,,,,,,,,,,,,,,,,,,,,,,,,,,,,,,,,,,,,,,,,,,,,,,,,,,,,,,
,,,,,616905,1,2024-06-17_11h08.08.987,experiment,2024.1.5,Win32,59.88023952,667045947eb812cbdacbf325,66704e028456b0e5b179856c,,,,,,,,,,,,,,,,,,,,,,,,,,,,,,,,,,,,372.698,378.978,0.0,1.0,1.0,1.0,1.0,SoundStimuli/Kiss_Prince_Cover5S.wav,,,,,,,,,,,,,,,,,,,,,,,,,,,,,,,,,,,,,,,,,,,,,,,,,,,,,,,,,,
,,,,,616905,1,2024-06-17_11h08.08.987,experiment,2024.1.5,Win32,59.88023952,667045947eb812cbdacbf325,66704e028456b0e5b179856c,,,,,,,,,,,,,,,,,,,,,,,,,,,,,,,,,,,,,,,,,,,,378.979,379.703,2.033333333,0.717,0.0,21.0,21.0,14.0,1.0,song_indices/Kiss_Prince.csv,,,,,,,,,,,,,,,,,,,,,,,,,,,,,,,,,,,,,,,,,,,,,,,,
,,,,,616905,1,2024-06-17_11h08.08.987,experiment,2024.1.5,Win32,59.88023952,667045947eb812cbdacbf325,66704e028456b0e5b179856c,,,,,,,,,,,,,,,,,,,,,,,,,,,,,,,,,,,,379.707,386.552,0.0,0.0,0.0,1.0,1.0,SoundStimuli/PokerFace_LadyGaga_Cover5S.wav,,,,,,,,,,,,,,,,,,,,,,,,,,,,,,,,,,,,,,,,,,,,,,,,,,,,,,,,,,
,,,,,616905,1,2024-06-17_11h08.08.987,experiment,2024.1.5,Win32,59.88023952,667045947eb812cbdacbf325,66704e028456b0e5b179856c,,,,,,,,,,,,,,,,,,,,,,,,,,,,,,,,,,,,386.555,393.576,0.0,1.0,1.0,0.0,1.0,SoundStimuli/PokerFace_LadyGaga_Original5S.wav,,,,,,,,,,,,,,,,,,,,,,,,,,,,,,,,,,,,,,,,,,,,,,,,,,,,,,,,,,
,,,,,616905,1,2024-06-17_11h08.08.987,experiment,2024.1.5,Win32,59.88023952,667045947eb812cbdacbf325,66704e028456b0e5b179856c,,,,,,,,,,,,,,,,,,,,,,,,,,,,,,,,,,,,,,,,,,,,393.578,395.02,1.044444444,1.434,0.0,22.0,22.0,23.0,1.0,song_indices/PokerFace_LadyGaga.csv,,,,,,,,,,,,,,,,,,,,,,,,,,,,,,,,,,,,,,,,,,,,,,,,
,,,,,616905,1,2024-06-17_11h08.08.987,experiment,2024.1.5,Win32,59.88023952,667045947eb812cbdacbf325,66704e028456b0e5b179856c,,,,,,,,,,,,,,,,,,,,,,,,,,,,,,,,,,,,395.023,401.134,0.0,0.0,0.0,0.0,1.0,SoundStimuli/JoyToTheWorld_ThreeDogNight_Original5S.wav,,,,,,,,,,,,,,,,,,,,,,,,,,,,,,,,,,,,,,,,,,,,,,,,,,,,,,,,,,
,,,,,616905,1,2024-06-17_11h08.08.987,experiment,2024.1.5,Win32,59.88023952,667045947eb812cbdacbf325,66704e028456b0e5b179856c,,,,,,,,,,,,,,,,,,,,,,,,,,,,,,,,,,,,401.136,406.277,0.0,1.0,1.0,1.0,1.0,SoundStimuli/JoyToTheWorld_ThreeDogNight_Cover5S.wav,,,,,,,,,,,,,,,,,,,,,,,,,,,,,,,,,,,,,,,,,,,,,,,,,,,,,,,,,,
,,,,,616905,1,2024-06-17_11h08.08.987,experiment,2024.1.5,Win32,59.88023952,667045947eb812cbdacbf325,66704e028456b0e5b179856c,,,,,,,,,,,,,,,,,,,,,,,,,,,,,,,,,,,,,,,,,,,,406.281,409.873,5.133333333,3.586,0.0,23.0,23.0,8.0,1.0,song_indices/JoyToTheWorld_ThreeDogNight.csv,,,,,,,,,,,,,,,,,,,,,,,,,,,,,,,,,,,,,,,,,,,,,,,,
,,,,,616905,1,2024-06-17_11h08.08.987,experiment,2024.1.5,Win32,59.88023952,667045947eb812cbdacbf325,66704e028456b0e5b179856c,,,,,,,,,,,,,,,,,,,,,,,,,,,,,,,,,,,,,,,,,,,,,,,,,,,,,,409.873,415.134,space,5.226,,0.0,0.0,0.0,2.0,1.0,choose_song_b3.csv,,,,,,,,,,,,,,,,,,,,,,,,,,,,,,,,,,,,,
,,,,,616905,1,2024-06-17_11h08.08.987,experiment,2024.1.5,Win32,59.88023952,667045947eb812cbdacbf325,66704e028456b0e5b179856c,,,,,,,,,,,,,,,,,,,,,,,,,,,,,,,,,,,,415.146,422.372,0.0,0.0,0.0,0.0,1.0,SoundStimuli/UptownFunk_MarkRonson_Original5S.wav,,,,,,,,,,,,,,,,,,,,,,,,,,,,,,,,,,,,,,,,,,,,,,,,,,,,,,,,,,
,,,,,616905,1,2024-06-17_11h08.08.987,experiment,2024.1.5,Win32,59.88023952,667045947eb812cbdacbf325,66704e028456b0e5b179856c,,,,,,,,,,,,,,,,,,,,,,,,,,,,,,,,,,,,422.374,429.399,0.0,1.0,1.0,1.0,1.0,SoundStimuli/UptownFunk_MarkRonson_Cover5S.wav,,,,,,,,,,,,,,,,,,,,,,,,,,,,,,,,,,,,,,,,,,,,,,,,,,,,,,,,,,
,,,,,616905,1,2024-06-17_11h08.08.987,experiment,2024.1.5,Win32,59.88023952,667045947eb812cbdacbf325,66704e028456b0e5b179856c,,,,,,,,,,,,,,,,,,,,,,,,,,,,,,,,,,,,,,,,,,,,429.401,430.62,6.972222222,1.213,0.0,0.0,0.0,15.0,1.0,song_indices/UptownFunk_MarkRonson.csv,,,,,,,,,,,,,,,,,,,,,,,,,,,,,,,,,,,,,,,,,,,,,,,,
,,,,,616905,1,2024-06-17_11h08.08.987,experiment,2024.1.5,Win32,59.88023952,667045947eb812cbdacbf325,66704e028456b0e5b179856c,,,,,,,,,,,,,,,,,,,,,,,,,,,,,,,,,,,,430.625,438.341,0.0,0.0,0.0,0.0,1.0,SoundStimuli/NoOne_AliciaKeys_Original5S.wav,,,,,,,,,,,,,,,,,,,,,,,,,,,,,,,,,,,,,,,,,,,,,,,,,,,,,,,,,,
,,,,,616905,1,2024-06-17_11h08.08.987,experiment,2024.1.5,Win32,59.88023952,667045947eb812cbdacbf325,66704e028456b0e5b179856c,,,,,,,,,,,,,,,,,,,,,,,,,,,,,,,,,,,,438.349,444.56,0.0,1.0,1.0,1.0,1.0,SoundStimuli/NoOne_AliciaKeys_Cover5S.wav,,,,,,,,,,,,,,,,,,,,,,,,,,,,,,,,,,,,,,,,,,,,,,,,,,,,,,,,,,
,,,,,616905,1,2024-06-17_11h08.08.987,experiment,2024.1.5,Win32,59.88023952,667045947eb812cbdacbf325,66704e028456b0e5b179856c,,,,,,,,,,,,,,,,,,,,,,,,,,,,,,,,,,,,,,,,,,,,444.562,445.536,3.0,0.966,0.0,1.0,1.0,19.0,1.0,song_indices/NoOne_AliciaKeys.csv,,,,,,,,,,,,,,,,,,,,,,,,,,,,,,,,,,,,,,,,,,,,,,,,
,,,,,616905,1,2024-06-17_11h08.08.987,experiment,2024.1.5,Win32,59.88023952,667045947eb812cbdacbf325,66704e028456b0e5b179856c,,,,,,,,,,,,,,,,,,,,,,,,,,,,,,,,,,,,445.542,451.7,0.0,0.0,0.0,0.0,1.0,SoundStimuli/Fallin_AliciaKeys_Original5S.wav,,,,,,,,,,,,,,,,,,,,,,,,,,,,,,,,,,,,,,,,,,,,,,,,,,,,,,,,,,
,,,,,616905,1,2024-06-17_11h08.08.987,experiment,2024.1.5,Win32,59.88023952,667045947eb812cbdacbf325,66704e028456b0e5b179856c,,,,,,,,,,,,,,,,,,,,,,,,,,,,,,,,,,,,451.704,458.141,0.0,1.0,1.0,1.0,1.0,SoundStimuli/Fallin_AliciaKeys_Cover5S.wav,,,,,,,,,,,,,,,,,,,,,,,,,,,,,,,,,,,,,,,,,,,,,,,,,,,,,,,,,,
,,,,,616905,1,2024-06-17_11h08.08.987,experiment,2024.1.5,Win32,59.88023952,667045947eb812cbdacbf325,66704e028456b0e5b179856c,,,,,,,,,,,,,,,,,,,,,,,,,,,,,,,,,,,,,,,,,,,,458.144,459.836,3.022222222,1.689,0.0,2.0,2.0,12.0,1.0,song_indices/Fallin_AliciaKeys.csv,,,,,,,,,,,,,,,,,,,,,,,,,,,,,,,,,,,,,,,,,,,,,,,,
,,,,,616905,1,2024-06-17_11h08.08.987,experiment,2024.1.5,Win32,59.88023952,667045947eb812cbdacbf325,66704e028456b0e5b179856c,,,,,,,,,,,,,,,,,,,,,,,,,,,,,,,,,,,,459.838,465.904,0.0,0.0,0.0,1.0,1.0,SoundStimuli/RockWithYou_MichaelJackson_Cover5S.wav,,,,,,,,,,,,,,,,,,,,,,,,,,,,,,,,,,,,,,,,,,,,,,,,,,,,,,,,,,
,,,,,616905,1,2024-06-17_11h08.08.987,experiment,2024.1.5,Win32,59.88023952,667045947eb812cbdacbf325,66704e028456b0e5b179856c,,,,,,,,,,,,,,,,,,,,,,,,,,,,,,,,,,,,465.905,472.241,0.0,1.0,1.0,0.0,1.0,SoundStimuli/RockWithYou_MichaelJackson_Original5S.wav,,,,,,,,,,,,,,,,,,,,,,,,,,,,,,,,,,,,,,,,,,,,,,,,,,,,,,,,,,
,,,,,616905,1,2024-06-17_11h08.08.987,experiment,2024.1.5,Win32,59.88023952,667045947eb812cbdacbf325,66704e028456b0e5b179856c,,,,,,,,,,,,,,,,,,,,,,,,,,,,,,,,,,,,,,,,,,,,472.243,473.76,4.0,1.508,0.0,3.0,3.0,16.0,1.0,song_indices/RockWithYou_MichaelJackson.csv,,,,,,,,,,,,,,,,,,,,,,,,,,,,,,,,,,,,,,,,,,,,,,,,
,,,,,616905,1,2024-06-17_11h08.08.987,experiment,2024.1.5,Win32,59.88023952,667045947eb812cbdacbf325,66704e028456b0e5b179856c,,,,,,,,,,,,,,,,,,,,,,,,,,,,,,,,,,,,473.768,479.863,0.0,0.0,0.0,0.0,1.0,SoundStimuli/GimmeShelter_RollingStones_Original5S.wav,,,,,,,,,,,,,,,,,,,,,,,,,,,,,,,,,,,,,,,,,,,,,,,,,,,,,,,,,,
,,,,,616905,1,2024-06-17_11h08.08.987,experiment,2024.1.5,Win32,59.88023952,667045947eb812cbdacbf325,66704e028456b0e5b179856c,,,,,,,,,,,,,,,,,,,,,,,,,,,,,,,,,,,,479.867,486.085,0.0,1.0,1.0,1.0,1.0,SoundStimuli/GimmeShelter_RollingStones_Cover5S.wav,,,,,,,,,,,,,,,,,,,,,,,,,,,,,,,,,,,,,,,,,,,,,,,,,,,,,,,,,,
,,,,,616905,1,2024-06-17_11h08.08.987,experiment,2024.1.5,Win32,59.88023952,667045947eb812cbdacbf325,66704e028456b0e5b179856c,,,,,,,,,,,,,,,,,,,,,,,,,,,,,,,,,,,,,,,,,,,,486.087,490.832,3.977777778,4.741,0.0,4.0,4.0,20.0,1.0,song_indices/GimmeShelter_RollingStones.csv,,,,,,,,,,,,,,,,,,,,,,,,,,,,,,,,,,,,,,,,,,,,,,,,
,,,,,616905,1,2024-06-17_11h08.08.987,experiment,2024.1.5,Win32,59.88023952,667045947eb812cbdacbf325,66704e028456b0e5b179856c,,,,,,,,,,,,,,,,,,,,,,,,,,,,,,,,,,,,490.837,496.73,0.0,0.0,0.0,0.0,1.0,SoundStimuli/EyeOfTheTiger_Survivor_Original5S.wav,,,,,,,,,,,,,,,,,,,,,,,,,,,,,,,,,,,,,,,,,,,,,,,,,,,,,,,,,,
,,,,,616905,1,2024-06-17_11h08.08.987,experiment,2024.1.5,Win32,59.88023952,667045947eb812cbdacbf325,66704e028456b0e5b179856c,,,,,,,,,,,,,,,,,,,,,,,,,,,,,,,,,,,,496.731,502.854,0.0,1.0,1.0,1.0,1.0,SoundStimuli/EyeOfTheTiger_Survivor_Cover5S.wav,,,,,,,,,,,,,,,,,,,,,,,,,,,,,,,,,,,,,,,,,,,,,,,,,,,,,,,,,,
,,,,,616905,1,2024-06-17_11h08.08.987,experiment,2024.1.5,Win32,59.88023952,667045947eb812cbdacbf325,66704e028456b0e5b179856c,,,,,,,,,,,,,,,,,,,,,,,,,,,,,,,,,,,,,,,,,,,,502.857,504.849,5.038888889,1.982,0.0,5.0,5.0,11.0,1.0,song_indices/EyeOfTheTiger_Survivor.csv,,,,,,,,,,,,,,,,,,,,,,,,,,,,,,,,,,,,,,,,,,,,,,,,
,,,,,616905,1,2024-06-17_11h08.08.987,experiment,2024.1.5,Win32,59.88023952,667045947eb812cbdacbf325,66704e028456b0e5b179856c,,,,,,,,,,,,,,,,,,,,,,,,,,,,,,,,,,,,504.852,510.828,0.0,0.0,0.0,0.0,1.0,SoundStimuli/IWalkTheLine_JohnnyCash_Original5S.wav,,,,,,,,,,,,,,,,,,,,,,,,,,,,,,,,,,,,,,,,,,,,,,,,,,,,,,,,,,
,,,,,616905,1,2024-06-17_11h08.08.987,experiment,2024.1.5,Win32,59.88023952,667045947eb812cbdacbf325,66704e028456b0e5b179856c,,,,,,,,,,,,,,,,,,,,,,,,,,,,,,,,,,,,510.832,517.985,0.0,1.0,1.0,1.0,1.0,SoundStimuli/IWalkTheLine_JohnnyCash_Cover5S.wav,,,,,,,,,,,,,,,,,,,,,,,,,,,,,,,,,,,,,,,,,,,,,,,,,,,,,,,,,,
,,,,,616905,1,2024-06-17_11h08.08.987,experiment,2024.1.5,Win32,59.88023952,667045947eb812cbdacbf325,66704e028456b0e5b179856c,,,,,,,,,,,,,,,,,,,,,,,,,,,,,,,,,,,,,,,,,,,,517.987,519.162,1.016666667,1.166,0.0,6.0,6.0,17.0,1.0,song_indices/IWalkTheLine_JohnnyCash.csv,,,,,,,,,,,,,,,,,,,,,,,,,,,,,,,,,,,,,,,,,,,,,,,,
,,,,,616905,1,2024-06-17_11h08.08.987,experiment,2024.1.5,Win32,59.88023952,667045947eb812cbdacbf325,66704e028456b0e5b179856c,,,,,,,,,,,,,,,,,,,,,,,,,,,,,,,,,,,,519.164,525.91,0.0,0.0,0.0,0.0,1.0,SoundStimuli/PartyRockAnthem_LMFAO_Original5S.wav,,,,,,,,,,,,,,,,,,,,,,,,,,,,,,,,,,,,,,,,,,,,,,,,,,,,,,,,,,
,,,,,616905,1,2024-06-17_11h08.08.987,experiment,2024.1.5,Win32,59.88023952,667045947eb812cbdacbf325,66704e028456b0e5b179856c,,,,,,,,,,,,,,,,,,,,,,,,,,,,,,,,,,,,525.913,532.7,0.0,1.0,1.0,1.0,1.0,SoundStimuli/PartyRockAnthem_LMFAO_Cover5S.wav,,,,,,,,,,,,,,,,,,,,,,,,,,,,,,,,,,,,,,,,,,,,,,,,,,,,,,,,,,
,,,,,616905,1,2024-06-17_11h08.08.987,experiment,2024.1.5,Win32,59.88023952,667045947eb812cbdacbf325,66704e028456b0e5b179856c,,,,,,,,,,,,,,,,,,,,,,,,,,,,,,,,,,,,,,,,,,,,532.702,533.99,4.9,1.283,0.0,7.0,7.0,2.0,1.0,song_indices/PartyRockAnthem_LMFAO.csv,,,,,,,,,,,,,,,,,,,,,,,,,,,,,,,,,,,,,,,,,,,,,,,,
,,,,,616905,1,2024-06-17_11h08.08.987,experiment,2024.1.5,Win32,59.88023952,667045947eb812cbdacbf325,66704e028456b0e5b179856c,,,,,,,,,,,,,,,,,,,,,,,,,,,,,,,,,,,,533.995,540.326,0.0,0.0,0.0,1.0,1.0,SoundStimuli/Stronger_KanyeWest_Cover5S.wav,,,,,,,,,,,,,,,,,,,,,,,,,,,,,,,,,,,,,,,,,,,,,,,,,,,,,,,,,,
,,,,,616905,1,2024-06-17_11h08.08.987,experiment,2024.1.5,Win32,59.88023952,667045947eb812cbdacbf325,66704e028456b0e5b179856c,,,,,,,,,,,,,,,,,,,,,,,,,,,,,,,,,,,,540.333,546.384,0.0,1.0,1.0,0.0,1.0,SoundStimuli/Stronger_KanyeWest_Original5S.wav,,,,,,,,,,,,,,,,,,,,,,,,,,,,,,,,,,,,,,,,,,,,,,,,,,,,,,,,,,
,,,,,616905,1,2024-06-17_11h08.08.987,experiment,2024.1.5,Win32,59.88023952,667045947eb812cbdacbf325,66704e028456b0e5b179856c,,,,,,,,,,,,,,,,,,,,,,,,,,,,,,,,,,,,,,,,,,,,546.384,547.401,1.972222222,1.01,0.0,8.0,8.0,9.0,1.0,song_indices/Stronger_KanyeWest.csv,,,,,,,,,,,,,,,,,,,,,,,,,,,,,,,,,,,,,,,,,,,,,,,,
,,,,,616905,1,2024-06-17_11h08.08.987,experiment,2024.1.5,Win32,59.88023952,667045947eb812cbdacbf325,66704e028456b0e5b179856c,,,,,,,,,,,,,,,,,,,,,,,,,,,,,,,,,,,,547.41,553.619,0.0,0.0,0.0,0.0,1.0,SoundStimuli/TheBattleOfNewOrleans_JohnnyHorton_Original5S.wav,,,,,,,,,,,,,,,,,,,,,,,,,,,,,,,,,,,,,,,,,,,,,,,,,,,,,,,,,,
,,,,,616905,1,2024-06-17_11h08.08.987,experiment,2024.1.5,Win32,59.88023952,667045947eb812cbdacbf325,66704e028456b0e5b179856c,,,,,,,,,,,,,,,,,,,,,,,,,,,,,,,,,,,,553.624,561.601,0.0,1.0,1.0,1.0,1.0,SoundStimuli/TheBattleOfNewOrleans_JohnnyHorton_Cover5S.wav,,,,,,,,,,,,,,,,,,,,,,,,,,,,,,,,,,,,,,,,,,,,,,,,,,,,,,,,,,
,,,,,616905,1,2024-06-17_11h08.08.987,experiment,2024.1.5,Win32,59.88023952,667045947eb812cbdacbf325,66704e028456b0e5b179856c,,,,,,,,,,,,,,,,,,,,,,,,,,,,,,,,,,,,,,,,,,,,561.604,563.784,3.033333333,2.174,0.0,9.0,9.0,4.0,1.0,song_indices/TheBattleOfNewOrleans_JohnnyHorton.csv,,,,,,,,,,,,,,,,,,,,,,,,,,,,,,,,,,,,,,,,,,,,,,,,
,,,,,616905,1,2024-06-17_11h08.08.987,experiment,2024.1.5,Win32,59.88023952,667045947eb812cbdacbf325,66704e028456b0e5b179856c,,,,,,,,,,,,,,,,,,,,,,,,,,,,,,,,,,,,563.791,572.709,0.0,0.0,0.0,1.0,1.0,SoundStimuli/HeyYa_Outkast_Cover5S.wav,,,,,,,,,,,,,,,,,,,,,,,,,,,,,,,,,,,,,,,,,,,,,,,,,,,,,,,,,,
,,,,,616905,1,2024-06-17_11h08.08.987,experiment,2024.1.5,Win32,59.88023952,667045947eb812cbdacbf325,66704e028456b0e5b179856c,,,,,,,,,,,,,,,,,,,,,,,,,,,,,,,,,,,,572.716,578.995,0.0,1.0,1.0,0.0,1.0,SoundStimuli/HeyYa_Outkast_Original5S.wav,,,,,,,,,,,,,,,,,,,,,,,,,,,,,,,,,,,,,,,,,,,,,,,,,,,,,,,,,,
,,,,,616905,1,2024-06-17_11h08.08.987,experiment,2024.1.5,Win32,59.88023952,667045947eb812cbdacbf325,66704e028456b0e5b179856c,,,,,,,,,,,,,,,,,,,,,,,,,,,,,,,,,,,,,,,,,,,,578.997,579.921,1.938888889,0.914,0.0,10.0,10.0,22.0,1.0,song_indices/HeyYa_Outkast.csv,,,,,,,,,,,,,,,,,,,,,,,,,,,,,,,,,,,,,,,,,,,,,,,,
,,,,,616905,1,2024-06-17_11h08.08.987,experiment,2024.1.5,Win32,59.88023952,667045947eb812cbdacbf325,66704e028456b0e5b179856c,,,,,,,,,,,,,,,,,,,,,,,,,,,,,,,,,,,,579.926,586.119,0.0,0.0,0.0,0.0,1.0,SoundStimuli/NoScrubs_TLC_Original5S.wav,,,,,,,,,,,,,,,,,,,,,,,,,,,,,,,,,,,,,,,,,,,,,,,,,,,,,,,,,,
,,,,,616905,1,2024-06-17_11h08.08.987,experiment,2024.1.5,Win32,59.88023952,667045947eb812cbdacbf325,66704e028456b0e5b179856c,,,,,,,,,,,,,,,,,,,,,,,,,,,,,,,,,,,,586.122,592.258,0.0,1.0,1.0,1.0,1.0,SoundStimuli/NoScrubs_TLC_Cover5S.wav,,,,,,,,,,,,,,,,,,,,,,,,,,,,,,,,,,,,,,,,,,,,,,,,,,,,,,,,,,
,,,,,616905,1,2024-06-17_11h08.08.987,experiment,2024.1.5,Win32,59.88023952,667045947eb812cbdacbf325,66704e028456b0e5b179856c,,,,,,,,,,,,,,,,,,,,,,,,,,,,,,,,,,,,,,,,,,,,592.26,594.552,4.8,2.286,0.0,11.0,11.0,14.0,1.0,song_indices/NoScrubs_TLC.csv,,,,,,,,,,,,,,,,,,,,,,,,,,,,,,,,,,,,,,,,,,,,,,,,
,,,,,616905,1,2024-06-17_11h08.08.987,experiment,2024.1.5,Win32,59.88023952,667045947eb812cbdacbf325,66704e028456b0e5b179856c,,,,,,,,,,,,,,,,,,,,,,,,,,,,,,,,,,,,594.557,600.817,0.0,0.0,0.0,0.0,1.0,SoundStimuli/ItsAllInTheGame_TommyEdwards_Original5S.wav,,,,,,,,,,,,,,,,,,,,,,,,,,,,,,,,,,,,,,,,,,,,,,,,,,,,,,,,,,
,,,,,616905,1,2024-06-17_11h08.08.987,experiment,2024.1.5,Win32,59.88023952,667045947eb812cbdacbf325,66704e028456b0e5b179856c,,,,,,,,,,,,,,,,,,,,,,,,,,,,,,,,,,,,600.82,607.059,0.0,1.0,1.0,1.0,1.0,SoundStimuli/ItsAllInTheGame_TommyEdwards_Cover5S.wav,,,,,,,,,,,,,,,,,,,,,,,,,,,,,,,,,,,,,,,,,,,,,,,,,,,,,,,,,,
,,,,,616905,1,2024-06-17_11h08.08.987,experiment,2024.1.5,Win32,59.88023952,667045947eb812cbdacbf325,66704e028456b0e5b179856c,,,,,,,,,,,,,,,,,,,,,,,,,,,,,,,,,,,,,,,,,,,,607.062,608.764,3.355555556,1.694,0.0,12.0,12.0,13.0,1.0,song_indices/ItsAllInTheGame_TommyEdwards.csv,,,,,,,,,,,,,,,,,,,,,,,,,,,,,,,,,,,,,,,,,,,,,,,,
,,,,,616905,1,2024-06-17_11h08.08.987,experiment,2024.1.5,Win32,59.88023952,667045947eb812cbdacbf325,66704e028456b0e5b179856c,,,,,,,,,,,,,,,,,,,,,,,,,,,,,,,,,,,,608.771,615.147,0.0,0.0,0.0,0.0,1.0,SoundStimuli/IWillAlwaysLoveYou_WhitneyHouston_Original5S.wav,,,,,,,,,,,,,,,,,,,,,,,,,,,,,,,,,,,,,,,,,,,,,,,,,,,,,,,,,,
,,,,,616905,1,2024-06-17_11h08.08.987,experiment,2024.1.5,Win32,59.88023952,667045947eb812cbdacbf325,66704e028456b0e5b179856c,,,,,,,,,,,,,,,,,,,,,,,,,,,,,,,,,,,,615.153,621.003,0.0,1.0,1.0,1.0,1.0,SoundStimuli/IWillAlwaysLoveYou_WhitneyHouston_Cover5S.wav,,,,,,,,,,,,,,,,,,,,,,,,,,,,,,,,,,,,,,,,,,,,,,,,,,,,,,,,,,
,,,,,616905,1,2024-06-17_11h08.08.987,experiment,2024.1.5,Win32,59.88023952,667045947eb812cbdacbf325,66704e028456b0e5b179856c,,,,,,,,,,,,,,,,,,,,,,,,,,,,,,,,,,,,,,,,,,,,621.005,622.85,6.955555556,1.843,0.0,13.0,13.0,10.0,1.0,song_indices/IWillAlwaysLoveYou_WhitneyHouston.csv,,,,,,,,,,,,,,,,,,,,,,,,,,,,,,,,,,,,,,,,,,,,,,,,
,,,,,616905,1,2024-06-17_11h08.08.987,experiment,2024.1.5,Win32,59.88023952,667045947eb812cbdacbf325,66704e028456b0e5b179856c,,,,,,,,,,,,,,,,,,,,,,,,,,,,,,,,,,,,622.852,628.912,0.0,0.0,0.0,0.0,1.0,SoundStimuli/GoodGollyMissMolly_LittleRichard_Original5S.wav,,,,,,,,,,,,,,,,,,,,,,,,,,,,,,,,,,,,,,,,,,,,,,,,,,,,,,,,,,
,,,,,616905,1,2024-06-17_11h08.08.987,experiment,2024.1.5,Win32,59.88023952,667045947eb812cbdacbf325,66704e028456b0e5b179856c,,,,,,,,,,,,,,,,,,,,,,,,,,,,,,,,,,,,628.914,635.268,0.0,1.0,1.0,1.0,1.0,SoundStimuli/GoodGollyMissMolly_LittleRichard_Cover5S.wav,,,,,,,,,,,,,,,,,,,,,,,,,,,,,,,,,,,,,,,,,,,,,,,,,,,,,,,,,,
,,,,,616905,1,2024-06-17_11h08.08.987,experiment,2024.1.5,Win32,59.88023952,667045947eb812cbdacbf325,66704e028456b0e5b179856c,,,,,,,,,,,,,,,,,,,,,,,,,,,,,,,,,,,,,,,,,,,,635.268,638.062,3.783333333,2.791,0.0,14.0,14.0,0.0,1.0,song_indices/GoodGollyMissMolly_LittleRichard.csv,,,,,,,,,,,,,,,,,,,,,,,,,,,,,,,,,,,,,,,,,,,,,,,,
,,,,,616905,1,2024-06-17_11h08.08.987,experiment,2024.1.5,Win32,59.88023952,667045947eb812cbdacbf325,66704e028456b0e5b179856c,,,,,,,,,,,,,,,,,,,,,,,,,,,,,,,,,,,,638.067,644.262,0.0,0.0,0.0,0.0,1.0,SoundStimuli/SmellsLikeTeenSpirit_Nirvana_Original5S.wav,,,,,,,,,,,,,,,,,,,,,,,,,,,,,,,,,,,,,,,,,,,,,,,,,,,,,,,,,,
,,,,,616905,1,2024-06-17_11h08.08.987,experiment,2024.1.5,Win32,59.88023952,667045947eb812cbdacbf325,66704e028456b0e5b179856c,,,,,,,,,,,,,,,,,,,,,,,,,,,,,,,,,,,,644.27,650.036,0.0,1.0,1.0,1.0,1.0,SoundStimuli/SmellsLikeTeenSpirit_Nirvana_Cover5S.wav,,,,,,,,,,,,,,,,,,,,,,,,,,,,,,,,,,,,,,,,,,,,,,,,,,,,,,,,,,
,,,,,616905,1,2024-06-17_11h08.08.987,experiment,2024.1.5,Win32,59.88023952,667045947eb812cbdacbf325,66704e028456b0e5b179856c,,,,,,,,,,,,,,,,,,,,,,,,,,,,,,,,,,,,,,,,,,,,650.037,652.476,6.722222222,2.433,0.0,15.0,15.0,8.0,1.0,song_indices/SmellsLikeTeenSpirit_Nirvana.csv,,,,,,,,,,,,,,,,,,,,,,,,,,,,,,,,,,,,,,,,,,,,,,,,
,,,,,616905,1,2024-06-17_11h08.08.987,experiment,2024.1.5,Win32,59.88023952,667045947eb812cbdacbf325,66704e028456b0e5b179856c,,,,,,,,,,,,,,,,,,,,,,,,,,,,,,,,,,,,652.482,658.692,0.0,0.0,0.0,0.0,1.0,SoundStimuli/TheBoyIsMine_BrandyMonica_Original5S.wav,,,,,,,,,,,,,,,,,,,,,,,,,,,,,,,,,,,,,,,,,,,,,,,,,,,,,,,,,,
,,,,,616905,1,2024-06-17_11h08.08.987,experiment,2024.1.5,Win32,59.88023952,667045947eb812cbdacbf325,66704e028456b0e5b179856c,,,,,,,,,,,,,,,,,,,,,,,,,,,,,,,,,,,,658.695,664.647,0.0,1.0,1.0,1.0,1.0,SoundStimuli/TheBoyIsMine_BrandyMonica_Cover5S.wav,,,,,,,,,,,,,,,,,,,,,,,,,,,,,,,,,,,,,,,,,,,,,,,,,,,,,,,,,,
,,,,,616905,1,2024-06-17_11h08.08.987,experiment,2024.1.5,Win32,59.88023952,667045947eb812cbdacbf325,66704e028456b0e5b179856c,,,,,,,,,,,,,,,,,,,,,,,,,,,,,,,,,,,,,,,,,,,,664.648,666.32,5.794444444,1.667,0.0,16.0,16.0,6.0,1.0,song_indices/TheBoyIsMine_BrandyMonica.csv,,,,,,,,,,,,,,,,,,,,,,,,,,,,,,,,,,,,,,,,,,,,,,,,
,,,,,616905,1,2024-06-17_11h08.08.987,experiment,2024.1.5,Win32,59.88023952,667045947eb812cbdacbf325,66704e028456b0e5b179856c,,,,,,,,,,,,,,,,,,,,,,,,,,,,,,,,,,,,666.327,672.789,0.0,0.0,0.0,0.0,1.0,SoundStimuli/ShapeofYou_EdSheeran_Original5S.wav,,,,,,,,,,,,,,,,,,,,,,,,,,,,,,,,,,,,,,,,,,,,,,,,,,,,,,,,,,
,,,,,616905,1,2024-06-17_11h08.08.987,experiment,2024.1.5,Win32,59.88023952,667045947eb812cbdacbf325,66704e028456b0e5b179856c,,,,,,,,,,,,,,,,,,,,,,,,,,,,,,,,,,,,672.791,679.097,0.0,1.0,1.0,1.0,1.0,SoundStimuli/ShapeofYou_EdSheeran_Cover5S.wav,,,,,,,,,,,,,,,,,,,,,,,,,,,,,,,,,,,,,,,,,,,,,,,,,,,,,,,,,,
,,,,,616905,1,2024-06-17_11h08.08.987,experiment,2024.1.5,Win32,59.88023952,667045947eb812cbdacbf325,66704e028456b0e5b179856c,,,,,,,,,,,,,,,,,,,,,,,,,,,,,,,,,,,,,,,,,,,,679.101,682.319,4.205555556,3.211,0.0,17.0,17.0,21.0,1.0,song_indices/ShapeofYou_EdSheeran.csv,,,,,,,,,,,,,,,,,,,,,,,,,,,,,,,,,,,,,,,,,,,,,,,,
,,,,,616905,1,2024-06-17_11h08.08.987,experiment,2024.1.5,Win32,59.88023952,667045947eb812cbdacbf325,66704e028456b0e5b179856c,,,,,,,,,,,,,,,,,,,,,,,,,,,,,,,,,,,,682.328,688.338,0.0,0.0,0.0,1.0,1.0,SoundStimuli/StandByMe_BenEKing_Cover5S.wav,,,,,,,,,,,,,,,,,,,,,,,,,,,,,,,,,,,,,,,,,,,,,,,,,,,,,,,,,,
,,,,,616905,1,2024-06-17_11h08.08.987,experiment,2024.1.5,Win32,59.88023952,667045947eb812cbdacbf325,66704e028456b0e5b179856c,,,,,,,,,,,,,,,,,,,,,,,,,,,,,,,,,,,,688.343,694.26,0.0,1.0,1.0,0.0,1.0,SoundStimuli/StandByMe_BenEKing_Original5S.wav,,,,,,,,,,,,,,,,,,,,,,,,,,,,,,,,,,,,,,,,,,,,,,,,,,,,,,,,,,
,,,,,616905,1,2024-06-17_11h08.08.987,experiment,2024.1.5,Win32,59.88023952,667045947eb812cbdacbf325,66704e028456b0e5b179856c,,,,,,,,,,,,,,,,,,,,,,,,,,,,,,,,,,,,,,,,,,,,694.262,700.971,5.333333333,6.702,0.0,18.0,18.0,1.0,1.0,song_indices/StandByMe_BenEKing.csv,,,,,,,,,,,,,,,,,,,,,,,,,,,,,,,,,,,,,,,,,,,,,,,,
,,,,,616905,1,2024-06-17_11h08.08.987,experiment,2024.1.5,Win32,59.88023952,667045947eb812cbdacbf325,66704e028456b0e5b179856c,,,,,,,,,,,,,,,,,,,,,,,,,,,,,,,,,,,,700.978,708.325,0.0,0.0,0.0,1.0,1.0,SoundStimuli/Happy_PharellWilliams_Cover5S.wav,,,,,,,,,,,,,,,,,,,,,,,,,,,,,,,,,,,,,,,,,,,,,,,,,,,,,,,,,,
,,,,,616905,1,2024-06-17_11h08.08.987,experiment,2024.1.5,Win32,59.88023952,667045947eb812cbdacbf325,66704e028456b0e5b179856c,,,,,,,,,,,,,,,,,,,,,,,,,,,,,,,,,,,,708.334,715.683,0.0,1.0,1.0,0.0,1.0,SoundStimuli/Happy_PharellWilliams_Original5S.wav,,,,,,,,,,,,,,,,,,,,,,,,,,,,,,,,,,,,,,,,,,,,,,,,,,,,,,,,,,
,,,,,616905,1,2024-06-17_11h08.08.987,experiment,2024.1.5,Win32,59.88023952,667045947eb812cbdacbf325,66704e028456b0e5b179856c,,,,,,,,,,,,,,,,,,,,,,,,,,,,,,,,,,,,,,,,,,,,715.685,717.238,4.994444444,1.544,0.0,19.0,19.0,7.0,1.0,song_indices/Happy_PharellWilliams.csv,,,,,,,,,,,,,,,,,,,,,,,,,,,,,,,,,,,,,,,,,,,,,,,,
,,,,,616905,1,2024-06-17_11h08.08.987,experiment,2024.1.5,Win32,59.88023952,667045947eb812cbdacbf325,66704e028456b0e5b179856c,,,,,,,,,,,,,,,,,,,,,,,,,,,,,,,,,,,,717.246,723.773,0.0,0.0,0.0,0.0,1.0,SoundStimuli/CrazyInLove_BeyonceFtJayZ_Original5S.wav,,,,,,,,,,,,,,,,,,,,,,,,,,,,,,,,,,,,,,,,,,,,,,,,,,,,,,,,,,
,,,,,616905,1,2024-06-17_11h08.08.987,experiment,2024.1.5,Win32,59.88023952,667045947eb812cbdacbf325,66704e028456b0e5b179856c,,,,,,,,,,,,,,,,,,,,,,,,,,,,,,,,,,,,723.778,734.033,0.0,1.0,1.0,1.0,1.0,SoundStimuli/CrazyInLove_BeyonceFtJayZ_Cover5S.wav,,,,,,,,,,,,,,,,,,,,,,,,,,,,,,,,,,,,,,,,,,,,,,,,,,,,,,,,,,
,,,,,616905,1,2024-06-17_11h08.08.987,experiment,2024.1.5,Win32,59.88023952,667045947eb812cbdacbf325,66704e028456b0e5b179856c,,,,,,,,,,,,,,,,,,,,,,,,,,,,,,,,,,,,,,,,,,,,734.036,735.192,2.85,1.148,0.0,20.0,20.0,3.0,1.0,song_indices/CrazyInLove_BeyonceFtJayZ.csv,,,,,,,,,,,,,,,,,,,,,,,,,,,,,,,,,,,,,,,,,,,,,,,,
,,,,,616905,1,2024-06-17_11h08.08.987,experiment,2024.1.5,Win32,59.88023952,667045947eb812cbdacbf325,66704e028456b0e5b179856c,,,,,,,,,,,,,,,,,,,,,,,,,,,,,,,,,,,,735.196,740.89,0.0,0.0,0.0,1.0,1.0,SoundStimuli/BetteDavisEyes_KimCarnes_Cover5S.wav,,,,,,,,,,,,,,,,,,,,,,,,,,,,,,,,,,,,,,,,,,,,,,,,,,,,,,,,,,
,,,,,616905,1,2024-06-17_11h08.08.987,experiment,2024.1.5,Win32,59.88023952,667045947eb812cbdacbf325,66704e028456b0e5b179856c,,,,,,,,,,,,,,,,,,,,,,,,,,,,,,,,,,,,740.893,747.117,0.0,1.0,1.0,0.0,1.0,SoundStimuli/BetteDavisEyes_KimCarnes_Original5S.wav,,,,,,,,,,,,,,,,,,,,,,,,,,,,,,,,,,,,,,,,,,,,,,,,,,,,,,,,,,
,,,,,616905,1,2024-06-17_11h08.08.987,experiment,2024.1.5,Win32,59.88023952,667045947eb812cbdacbf325,66704e028456b0e5b179856c,,,,,,,,,,,,,,,,,,,,,,,,,,,,,,,,,,,,,,,,,,,,747.12,749.886,4.194444444,2.76,0.0,21.0,21.0,5.0,1.0,song_indices/BetteDavisEyes_KimCarnes.csv,,,,,,,,,,,,,,,,,,,,,,,,,,,,,,,,,,,,,,,,,,,,,,,,
,,,,,616905,1,2024-06-17_11h08.08.987,experiment,2024.1.5,Win32,59.88023952,667045947eb812cbdacbf325,66704e028456b0e5b179856c,,,,,,,,,,,,,,,,,,,,,,,,,,,,,,,,,,,,749.895,755.955,0.0,0.0,0.0,0.0,1.0,SoundStimuli/GetUrFreakOn_MissyElliot_Original5S.wav,,,,,,,,,,,,,,,,,,,,,,,,,,,,,,,,,,,,,,,,,,,,,,,,,,,,,,,,,,
,,,,,616905,1,2024-06-17_11h08.08.987,experiment,2024.1.5,Win32,59.88023952,667045947eb812cbdacbf325,66704e028456b0e5b179856c,,,,,,,,,,,,,,,,,,,,,,,,,,,,,,,,,,,,755.96,762.545,0.0,1.0,1.0,1.0,1.0,SoundStimuli/GetUrFreakOn_MissyElliot_Cover5S.wav,,,,,,,,,,,,,,,,,,,,,,,,,,,,,,,,,,,,,,,,,,,,,,,,,,,,,,,,,,
,,,,,616905,1,2024-06-17_11h08.08.987,experiment,2024.1.5,Win32,59.88023952,667045947eb812cbdacbf325,66704e028456b0e5b179856c,,,,,,,,,,,,,,,,,,,,,,,,,,,,,,,,,,,,,,,,,,,,762.547,763.737,3.127777778,1.185,0.0,22.0,22.0,18.0,1.0,song_indices/GetUrFreakOn_MissyElliot.csv,,,,,,,,,,,,,,,,,,,,,,,,,,,,,,,,,,,,,,,,,,,,,,,,
,,,,,616905,1,2024-06-17_11h08.08.987,experiment,2024.1.5,Win32,59.88023952,667045947eb812cbdacbf325,66704e028456b0e5b179856c,,,,,,,,,,,,,,,,,,,,,,,,,,,,,,,,,,,,,,,,,,,,,,,,,,,,,,763.738,766.023,space,2.259,,0.0,1.0,1.0,1.0,1.0,choose_song_b2.csv,,,,,,,,,,,,,,,,,,,,,,,,,,,,,,,,,,,,,
,,,,,616905,1,2024-06-17_11h08.08.987,experiment,2024.1.5,Win32,59.88023952,667045947eb812cbdacbf325,66704e028456b0e5b179856c,,,,,,,,,,,,,,,,,,,,,,,,,,,,,,,,,,,,766.029,772.038,0.0,0.0,0.0,0.0,1.0,SoundStimuli/StayinAlive_BeeGees_Original5S.wav,,,,,,,,,,,,,,,,,,,,,,,,,,,,,,,,,,,,,,,,,,,,,,,,,,,,,,,,,,
,,,,,616905,1,2024-06-17_11h08.08.987,experiment,2024.1.5,Win32,59.88023952,667045947eb812cbdacbf325,66704e028456b0e5b179856c,,,,,,,,,,,,,,,,,,,,,,,,,,,,,,,,,,,,772.039,777.878,0.0,1.0,1.0,1.0,1.0,SoundStimuli/StayinAlive_BeeGees_Cover5S.wav,,,,,,,,,,,,,,,,,,,,,,,,,,,,,,,,,,,,,,,,,,,,,,,,,,,,,,,,,,
,,,,,616905,1,2024-06-17_11h08.08.987,experiment,2024.1.5,Win32,59.88023952,667045947eb812cbdacbf325,66704e028456b0e5b179856c,,,,,,,,,,,,,,,,,,,,,,,,,,,,,,,,,,,,,,,,,,,,777.879,780.903,4.1,3.017,0.0,0.0,0.0,2.0,1.0,song_indices/StayinAlive_BeeGees.csv,,,,,,,,,,,,,,,,,,,,,,,,,,,,,,,,,,,,,,,,,,,,,,,,
,,,,,616905,1,2024-06-17_11h08.08.987,experiment,2024.1.5,Win32,59.88023952,667045947eb812cbdacbf325,66704e028456b0e5b179856c,,,,,,,,,,,,,,,,,,,,,,,,,,,,,,,,,,,,780.908,789.024,0.0,0.0,0.0,1.0,1.0,SoundStimuli/AnotherOneBitesTheDust_Queen_Cover5S.wav,,,,,,,,,,,,,,,,,,,,,,,,,,,,,,,,,,,,,,,,,,,,,,,,,,,,,,,,,,
,,,,,616905,1,2024-06-17_11h08.08.987,experiment,2024.1.5,Win32,59.88023952,667045947eb812cbdacbf325,66704e028456b0e5b179856c,,,,,,,,,,,,,,,,,,,,,,,,,,,,,,,,,,,,789.032,795.062,0.0,1.0,1.0,0.0,1.0,SoundStimuli/AnotherOneBitesTheDust_Queen_Original5S.wav,,,,,,,,,,,,,,,,,,,,,,,,,,,,,,,,,,,,,,,,,,,,,,,,,,,,,,,,,,
,,,,,616905,1,2024-06-17_11h08.08.987,experiment,2024.1.5,Win32,59.88023952,667045947eb812cbdacbf325,66704e028456b0e5b179856c,,,,,,,,,,,,,,,,,,,,,,,,,,,,,,,,,,,,,,,,,,,,795.064,796.1,3.327777778,1.029,0.0,1.0,1.0,9.0,1.0,song_indices/AnotherOneBitesTheDust_Queen.csv,,,,,,,,,,,,,,,,,,,,,,,,,,,,,,,,,,,,,,,,,,,,,,,,
,,,,,616905,1,2024-06-17_11h08.08.987,experiment,2024.1.5,Win32,59.88023952,667045947eb812cbdacbf325,66704e028456b0e5b179856c,,,,,,,,,,,,,,,,,,,,,,,,,,,,,,,,,,,,796.107,800.824,0.0,0.0,0.0,1.0,1.0,SoundStimuli/AChangeIsGonnaCome_SamCooke_Cover5S.wav,,,,,,,,,,,,,,,,,,,,,,,,,,,,,,,,,,,,,,,,,,,,,,,,,,,,,,,,,,
,,,,,616905,1,2024-06-17_11h08.08.987,experiment,2024.1.5,Win32,59.88023952,667045947eb812cbdacbf325,66704e028456b0e5b179856c,,,,,,,,,,,,,,,,,,,,,,,,,,,,,,,,,,,,800.827,806.856,0.0,1.0,1.0,0.0,1.0,SoundStimuli/AChangeIsGonnaCome_SamCooke_Original5S.wav,,,,,,,,,,,,,,,,,,,,,,,,,,,,,,,,,,,,,,,,,,,,,,,,,,,,,,,,,,
,,,,,616905,1,2024-06-17_11h08.08.987,experiment,2024.1.5,Win32,59.88023952,667045947eb812cbdacbf325,66704e028456b0e5b179856c,,,,,,,,,,,,,,,,,,,,,,,,,,,,,,,,,,,,,,,,,,,,806.857,808.185,5.666666667,1.321,0.0,2.0,2.0,17.0,1.0,song_indices/AChangeIsGonnaCome_SamCooke.csv,,,,,,,,,,,,,,,,,,,,,,,,,,,,,,,,,,,,,,,,,,,,,,,,
,,,,,616905,1,2024-06-17_11h08.08.987,experiment,2024.1.5,Win32,59.88023952,667045947eb812cbdacbf325,66704e028456b0e5b179856c,,,,,,,,,,,,,,,,,,,,,,,,,,,,,,,,,,,,808.187,815.682,0.0,0.0,0.0,1.0,1.0,SoundStimuli/BadDay_DanielPowter_Cover5S.wav,,,,,,,,,,,,,,,,,,,,,,,,,,,,,,,,,,,,,,,,,,,,,,,,,,,,,,,,,,
,,,,,616905,1,2024-06-17_11h08.08.987,experiment,2024.1.5,Win32,59.88023952,667045947eb812cbdacbf325,66704e028456b0e5b179856c,,,,,,,,,,,,,,,,,,,,,,,,,,,,,,,,,,,,815.682,822.124,0.0,1.0,1.0,0.0,1.0,SoundStimuli/BadDay_DanielPowter_Original5S.wav,,,,,,,,,,,,,,,,,,,,,,,,,,,,,,,,,,,,,,,,,,,,,,,,,,,,,,,,,,
,,,,,616905,1,2024-06-17_11h08.08.987,experiment,2024.1.5,Win32,59.88023952,667045947eb812cbdacbf325,66704e028456b0e5b179856c,,,,,,,,,,,,,,,,,,,,,,,,,,,,,,,,,,,,,,,,,,,,822.128,830.805,3.861111111,8.666,0.0,3.0,3.0,22.0,1.0,song_indices/BadDay_DanielPowter.csv,,,,,,,,,,,,,,,,,,,,,,,,,,,,,,,,,,,,,,,,,,,,,,,,
,,,,,616905,1,2024-06-17_11h08.08.987,experiment,2024.1.5,Win32,59.88023952,667045947eb812cbdacbf325,66704e028456b0e5b179856c,,,,,,,,,,,,,,,,,,,,,,,,,,,,,,,,,,,,830.811,838.472,0.0,0.0,0.0,1.0,1.0,SoundStimuli/MyGirl_TheTemptations_Cover5S.wav,,,,,,,,,,,,,,,,,,,,,,,,,,,,,,,,,,,,,,,,,,,,,,,,,,,,,,,,,,
,,,,,616905,1,2024-06-17_11h08.08.987,experiment,2024.1.5,Win32,59.88023952,667045947eb812cbdacbf325,66704e028456b0e5b179856c,,,,,,,,,,,,,,,,,,,,,,,,,,,,,,,,,,,,838.475,844.862,0.0,1.0,1.0,0.0,1.0,SoundStimuli/MyGirl_TheTemptations_Original5S.wav,,,,,,,,,,,,,,,,,,,,,,,,,,,,,,,,,,,,,,,,,,,,,,,,,,,,,,,,,,
,,,,,616905,1,2024-06-17_11h08.08.987,experiment,2024.1.5,Win32,59.88023952,667045947eb812cbdacbf325,66704e028456b0e5b179856c,,,,,,,,,,,,,,,,,,,,,,,,,,,,,,,,,,,,,,,,,,,,844.864,846.737,3.938888889,1.865,0.0,4.0,4.0,15.0,1.0,song_indices/MyGirl_TheTemptations.csv,,,,,,,,,,,,,,,,,,,,,,,,,,,,,,,,,,,,,,,,,,,,,,,,
,,,,,616905,1,2024-06-17_11h08.08.987,experiment,2024.1.5,Win32,59.88023952,667045947eb812cbdacbf325,66704e028456b0e5b179856c,,,,,,,,,,,,,,,,,,,,,,,,,,,,,,,,,,,,846.741,852.971,0.0,0.0,0.0,0.0,1.0,SoundStimuli/GodOnlyKnows_TheBeachBoys_Original5S.wav,,,,,,,,,,,,,,,,,,,,,,,,,,,,,,,,,,,,,,,,,,,,,,,,,,,,,,,,,,
,,,,,616905,1,2024-06-17_11h08.08.987,experiment,2024.1.5,Win32,59.88023952,667045947eb812cbdacbf325,66704e028456b0e5b179856c,,,,,,,,,,,,,,,,,,,,,,,,,,,,,,,,,,,,852.979,859.843,0.0,1.0,1.0,1.0,1.0,SoundStimuli/GodOnlyKnows_TheBeachBoys_Cover5S.wav,,,,,,,,,,,,,,,,,,,,,,,,,,,,,,,,,,,,,,,,,,,,,,,,,,,,,,,,,,
,,,,,616905,1,2024-06-17_11h08.08.987,experiment,2024.1.5,Win32,59.88023952,667045947eb812cbdacbf325,66704e028456b0e5b179856c,,,,,,,,,,,,,,,,,,,,,,,,,,,,,,,,,,,,,,,,,,,,859.845,862.039,3.166666667,2.186,0.0,5.0,5.0,8.0,1.0,song_indices/GodOnlyKnows_TheBeachBoys.csv,,,,,,,,,,,,,,,,,,,,,,,,,,,,,,,,,,,,,,,,,,,,,,,,
,,,,,616905,1,2024-06-17_11h08.08.987,experiment,2024.1.5,Win32,59.88023952,667045947eb812cbdacbf325,66704e028456b0e5b179856c,,,,,,,,,,,,,,,,,,,,,,,,,,,,,,,,,,,,862.042,868.167,0.0,0.0,0.0,0.0,1.0,SoundStimuli/MackTheKnife_BobbyDarin_Original5S.wav,,,,,,,,,,,,,,,,,,,,,,,,,,,,,,,,,,,,,,,,,,,,,,,,,,,,,,,,,,
,,,,,616905,1,2024-06-17_11h08.08.987,experiment,2024.1.5,Win32,59.88023952,667045947eb812cbdacbf325,66704e028456b0e5b179856c,,,,,,,,,,,,,,,,,,,,,,,,,,,,,,,,,,,,868.17,874.425,0.0,1.0,1.0,1.0,1.0,SoundStimuli/MackTheKnife_BobbyDarin_Cover5S.wav,,,,,,,,,,,,,,,,,,,,,,,,,,,,,,,,,,,,,,,,,,,,,,,,,,,,,,,,,,
,,,,,616905,1,2024-06-17_11h08.08.987,experiment,2024.1.5,Win32,59.88023952,667045947eb812cbdacbf325,66704e028456b0e5b179856c,,,,,,,,,,,,,,,,,,,,,,,,,,,,,,,,,,,,,,,,,,,,874.428,875.449,1.833333333,1.015,0.0,6.0,6.0,21.0,1.0,song_indices/MackTheKnife_BobbyDarin.csv,,,,,,,,,,,,,,,,,,,,,,,,,,,,,,,,,,,,,,,,,,,,,,,,
,,,,,616905,1,2024-06-17_11h08.08.987,experiment,2024.1.5,Win32,59.88023952,667045947eb812cbdacbf325,66704e028456b0e5b179856c,,,,,,,,,,,,,,,,,,,,,,,,,,,,,,,,,,,,875.452,881.965,0.0,0.0,0.0,1.0,1.0,SoundStimuli/OldTownRoad_LilNasX_Cover5S.wav,,,,,,,,,,,,,,,,,,,,,,,,,,,,,,,,,,,,,,,,,,,,,,,,,,,,,,,,,,
,,,,,616905,1,2024-06-17_11h08.08.987,experiment,2024.1.5,Win32,59.88023952,667045947eb812cbdacbf325,66704e028456b0e5b179856c,,,,,,,,,,,,,,,,,,,,,,,,,,,,,,,,,,,,881.967,889.358,0.0,1.0,1.0,0.0,1.0,SoundStimuli/OldTownRoad_LilNasX_Original5S.wav,,,,,,,,,,,,,,,,,,,,,,,,,,,,,,,,,,,,,,,,,,,,,,,,,,,,,,,,,,
,,,,,616905,1,2024-06-17_11h08.08.987,experiment,2024.1.5,Win32,59.88023952,667045947eb812cbdacbf325,66704e028456b0e5b179856c,,,,,,,,,,,,,,,,,,,,,,,,,,,,,,,,,,,,,,,,,,,,889.361,891.085,6.033333333,1.711,0.0,7.0,7.0,20.0,1.0,song_indices/OldTownRoad_LilNasX.csv,,,,,,,,,,,,,,,,,,,,,,,,,,,,,,,,,,,,,,,,,,,,,,,,
,,,,,616905,1,2024-06-17_11h08.08.987,experiment,2024.1.5,Win32,59.88023952,667045947eb812cbdacbf325,66704e028456b0e5b179856c,,,,,,,,,,,,,,,,,,,,,,,,,,,,,,,,,,,,891.087,896.863,0.0,0.0,0.0,0.0,1.0,SoundStimuli/IWantToHoldYourHand_TheBeatles_Original5S.wav,,,,,,,,,,,,,,,,,,,,,,,,,,,,,,,,,,,,,,,,,,,,,,,,,,,,,,,,,,
,,,,,616905,1,2024-06-17_11h08.08.987,experiment,2024.1.5,Win32,59.88023952,667045947eb812cbdacbf325,66704e028456b0e5b179856c,,,,,,,,,,,,,,,,,,,,,,,,,,,,,,,,,,,,896.866,902.902,0.0,1.0,1.0,1.0,1.0,SoundStimuli/IWantToHoldYourHand_TheBeatles_Cover5S.wav,,,,,,,,,,,,,,,,,,,,,,,,,,,,,,,,,,,,,,,,,,,,,,,,,,,,,,,,,,
,,,,,616905,1,2024-06-17_11h08.08.987,experiment,2024.1.5,Win32,59.88023952,667045947eb812cbdacbf325,66704e028456b0e5b179856c,,,,,,,,,,,,,,,,,,,,,,,,,,,,,,,,,,,,,,,,,,,,902.904,906.463,3.538888889,3.555,0.0,8.0,8.0,19.0,1.0,song_indices/IWantToHoldYourHand_TheBeatles.csv,,,,,,,,,,,,,,,,,,,,,,,,,,,,,,,,,,,,,,,,,,,,,,,,
,,,,,616905,1,2024-06-17_11h08.08.987,experiment,2024.1.5,Win32,59.88023952,667045947eb812cbdacbf325,66704e028456b0e5b179856c,,,,,,,,,,,,,,,,,,,,,,,,,,,,,,,,,,,,906.467,915.065,0.0,0.0,0.0,1.0,1.0,SoundStimuli/HeatWaves_GlassAnimals_Cover5S.wav,,,,,,,,,,,,,,,,,,,,,,,,,,,,,,,,,,,,,,,,,,,,,,,,,,,,,,,,,,
,,,,,616905,1,2024-06-17_11h08.08.987,experiment,2024.1.5,Win32,59.88023952,667045947eb812cbdacbf325,66704e028456b0e5b179856c,,,,,,,,,,,,,,,,,,,,,,,,,,,,,,,,,,,,915.066,921.156,0.0,1.0,1.0,0.0,1.0,SoundStimuli/HeatWaves_GlassAnimals_Original5S.wav,,,,,,,,,,,,,,,,,,,,,,,,,,,,,,,,,,,,,,,,,,,,,,,,,,,,,,,,,,
,,,,,616905,1,2024-06-17_11h08.08.987,experiment,2024.1.5,Win32,59.88023952,667045947eb812cbdacbf325,66704e028456b0e5b179856c,,,,,,,,,,,,,,,,,,,,,,,,,,,,,,,,,,,,,,,,,,,,921.16,925.764,4.688888889,4.595,0.0,9.0,9.0,10.0,1.0,song_indices/HeatWaves_GlassAnimals.csv,,,,,,,,,,,,,,,,,,,,,,,,,,,,,,,,,,,,,,,,,,,,,,,,
,,,,,616905,1,2024-06-17_11h08.08.987,experiment,2024.1.5,Win32,59.88023952,667045947eb812cbdacbf325,66704e028456b0e5b179856c,,,,,,,,,,,,,,,,,,,,,,,,,,,,,,,,,,,,925.77,931.982,0.0,0.0,0.0,0.0,1.0,SoundStimuli/Smooth_SantanaRobThomas_Original5S.wav,,,,,,,,,,,,,,,,,,,,,,,,,,,,,,,,,,,,,,,,,,,,,,,,,,,,,,,,,,
,,,,,616905,1,2024-06-17_11h08.08.987,experiment,2024.1.5,Win32,59.88023952,667045947eb812cbdacbf325,66704e028456b0e5b179856c,,,,,,,,,,,,,,,,,,,,,,,,,,,,,,,,,,,,931.989,938.122,0.0,1.0,1.0,1.0,1.0,SoundStimuli/Smooth_SantanaRobThomas_Cover5S.wav,,,,,,,,,,,,,,,,,,,,,,,,,,,,,,,,,,,,,,,,,,,,,,,,,,,,,,,,,,
,,,,,616905,1,2024-06-17_11h08.08.987,experiment,2024.1.5,Win32,59.88023952,667045947eb812cbdacbf325,66704e028456b0e5b179856c,,,,,,,,,,,,,,,,,,,,,,,,,,,,,,,,,,,,,,,,,,,,938.123,939.612,6.4,1.48,0.0,10.0,10.0,4.0,1.0,song_indices/Smooth_SantanaRobThomas.csv,,,,,,,,,,,,,,,,,,,,,,,,,,,,,,,,,,,,,,,,,,,,,,,,
,,,,,616905,1,2024-06-17_11h08.08.987,experiment,2024.1.5,Win32,59.88023952,667045947eb812cbdacbf325,66704e028456b0e5b179856c,,,,,,,,,,,,,,,,,,,,,,,,,,,,,,,,,,,,939.617,945.912,0.0,0.0,0.0,0.0,1.0,SoundStimuli/Mood_24kGoldnianndior_Original5S.wav,,,,,,,,,,,,,,,,,,,,,,,,,,,,,,,,,,,,,,,,,,,,,,,,,,,,,,,,,,
,,,,,616905,1,2024-06-17_11h08.08.987,experiment,2024.1.5,Win32,59.88023952,667045947eb812cbdacbf325,66704e028456b0e5b179856c,,,,,,,,,,,,,,,,,,,,,,,,,,,,,,,,,,,,945.914,954.208,0.0,1.0,1.0,1.0,1.0,SoundStimuli/Mood_24kGoldnianndior_Cover5S.wav,,,,,,,,,,,,,,,,,,,,,,,,,,,,,,,,,,,,,,,,,,,,,,,,,,,,,,,,,,
,,,,,616905,1,2024-06-17_11h08.08.987,experiment,2024.1.5,Win32,59.88023952,667045947eb812cbdacbf325,66704e028456b0e5b179856c,,,,,,,,,,,,,,,,,,,,,,,,,,,,,,,,,,,,,,,,,,,,954.21,957.401,3.211111111,3.184,0.0,11.0,11.0,5.0,1.0,song_indices/Mood_24kGoldnianndior.csv,,,,,,,,,,,,,,,,,,,,,,,,,,,,,,,,,,,,,,,,,,,,,,,,
,,,,,616905,1,2024-06-17_11h08.08.987,experiment,2024.1.5,Win32,59.88023952,667045947eb812cbdacbf325,66704e028456b0e5b179856c,,,,,,,,,,,,,,,,,,,,,,,,,,,,,,,,,,,,957.406,961.797,0.0,0.0,0.0,1.0,1.0,SoundStimuli/LikeARollingStone_BobDylan_Cover5S.wav,,,,,,,,,,,,,,,,,,,,,,,,,,,,,,,,,,,,,,,,,,,,,,,,,,,,,,,,,,
,,,,,616905,1,2024-06-17_11h08.08.987,experiment,2024.1.5,Win32,59.88023952,667045947eb812cbdacbf325,66704e028456b0e5b179856c,,,,,,,,,,,,,,,,,,,,,,,,,,,,,,,,,,,,961.804,967.951,0.0,1.0,1.0,0.0,1.0,SoundStimuli/LikeARollingStone_BobDylan_Original5S.wav,,,,,,,,,,,,,,,,,,,,,,,,,,,,,,,,,,,,,,,,,,,,,,,,,,,,,,,,,,
,,,,,616905,1,2024-06-17_11h08.08.987,experiment,2024.1.5,Win32,59.88023952,667045947eb812cbdacbf325,66704e028456b0e5b179856c,,,,,,,,,,,,,,,,,,,,,,,,,,,,,,,,,,,,,,,,,,,,967.953,971.428,4.144444444,3.47,0.0,12.0,12.0,12.0,1.0,song_indices/LikeARollingStone_BobDylan.csv,,,,,,,,,,,,,,,,,,,,,,,,,,,,,,,,,,,,,,,,,,,,,,,,
,,,,,616905,1,2024-06-17_11h08.08.987,experiment,2024.1.5,Win32,59.88023952,667045947eb812cbdacbf325,66704e028456b0e5b179856c,,,,,,,,,,,,,,,,,,,,,,,,,,,,,,,,,,,,971.433,977.744,0.0,0.0,0.0,0.0,1.0,SoundStimuli/BridgeOverTroubledWater_SimonAndGarfunkel_Original5S.wav,,,,,,,,,,,,,,,,,,,,,,,,,,,,,,,,,,,,,,,,,,,,,,,,,,,,,,,,,,
,,,,,616905,1,2024-06-17_11h08.08.987,experiment,2024.1.5,Win32,59.88023952,667045947eb812cbdacbf325,66704e028456b0e5b179856c,,,,,,,,,,,,,,,,,,,,,,,,,,,,,,,,,,,,977.746,984.45,0.0,1.0,1.0,1.0,1.0,SoundStimuli/BridgeOverTroubledWater_SimonAndGarfunkel_Cover5S.wav,,,,,,,,,,,,,,,,,,,,,,,,,,,,,,,,,,,,,,,,,,,,,,,,,,,,,,,,,,
,,,,,616905,1,2024-06-17_11h08.08.987,experiment,2024.1.5,Win32,59.88023952,667045947eb812cbdacbf325,66704e028456b0e5b179856c,,,,,,,,,,,,,,,,,,,,,,,,,,,,,,,,,,,,,,,,,,,,984.45,989.999,4.194444444,5.54,0.0,13.0,13.0,1.0,1.0,song_indices/BridgeOverTroubledWater_SimonAndGarfunkel.csv,,,,,,,,,,,,,,,,,,,,,,,,,,,,,,,,,,,,,,,,,,,,,,,,
,,,,,616905,1,2024-06-17_11h08.08.987,experiment,2024.1.5,Win32,59.88023952,667045947eb812cbdacbf325,66704e028456b0e5b179856c,,,,,,,,,,,,,,,,,,,,,,,,,,,,,,,,,,,,990.004,998.247,0.0,0.0,0.0,1.0,1.0,SoundStimuli/Perfect_EdSheeran_Cover5S.wav,,,,,,,,,,,,,,,,,,,,,,,,,,,,,,,,,,,,,,,,,,,,,,,,,,,,,,,,,,
,,,,,616905,1,2024-06-17_11h08.08.987,experiment,2024.1.5,Win32,59.88023952,667045947eb812cbdacbf325,66704e028456b0e5b179856c,,,,,,,,,,,,,,,,,,,,,,,,,,,,,,,,,,,,998.251,1007.106,0.0,1.0,1.0,0.0,1.0,SoundStimuli/Perfect_EdSheeran_Original5S.wav,,,,,,,,,,,,,,,,,,,,,,,,,,,,,,,,,,,,,,,,,,,,,,,,,,,,,,,,,,
,,,,,616905,1,2024-06-17_11h08.08.987,experiment,2024.1.5,Win32,59.88023952,667045947eb812cbdacbf325,66704e028456b0e5b179856c,,,,,,,,,,,,,,,,,,,,,,,,,,,,,,,,,,,,,,,,,,,,1007.109,1007.969,4.872222222,0.855,0.0,14.0,14.0,0.0,1.0,song_indices/Perfect_EdSheeran.csv,,,,,,,,,,,,,,,,,,,,,,,,,,,,,,,,,,,,,,,,,,,,,,,,
,,,,,616905,1,2024-06-17_11h08.08.987,experiment,2024.1.5,Win32,59.88023952,667045947eb812cbdacbf325,66704e028456b0e5b179856c,,,,,,,,,,,,,,,,,,,,,,,,,,,,,,,,,,,,1007.972,1013.929,0.0,0.0,0.0,0.0,1.0,SoundStimuli/BohemianRhapsody_Queen_Original5S.wav,,,,,,,,,,,,,,,,,,,,,,,,,,,,,,,,,,,,,,,,,,,,,,,,,,,,,,,,,,
,,,,,616905,1,2024-06-17_11h08.08.987,experiment,2024.1.5,Win32,59.88023952,667045947eb812cbdacbf325,66704e028456b0e5b179856c,,,,,,,,,,,,,,,,,,,,,,,,,,,,,,,,,,,,1013.932,1018.001,0.0,1.0,1.0,1.0,1.0,SoundStimuli/BohemianRhapsody_Queen_Cover5S.wav,,,,,,,,,,,,,,,,,,,,,,,,,,,,,,,,,,,,,,,,,,,,,,,,,,,,,,,,,,
,,,,,616905,1,2024-06-17_11h08.08.987,experiment,2024.1.5,Win32,59.88023952,667045947eb812cbdacbf325,66704e028456b0e5b179856c,,,,,,,,,,,,,,,,,,,,,,,,,,,,,,,,,,,,,,,,,,,,1018.002,1019.901,2.216666667,1.895,0.0,15.0,15.0,18.0,1.0,song_indices/BohemianRhapsody_Queen.csv,,,,,,,,,,,,,,,,,,,,,,,,,,,,,,,,,,,,,,,,,,,,,,,,
,,,,,616905,1,2024-06-17_11h08.08.987,experiment,2024.1.5,Win32,59.88023952,667045947eb812cbdacbf325,66704e028456b0e5b179856c,,,,,,,,,,,,,,,,,,,,,,,,,,,,,,,,,,,,1019.913,1025.509,0.0,0.0,0.0,0.0,1.0,SoundStimuli/IWannaDanceWithSomebody_WhitneyHouston_Original5S.wav,,,,,,,,,,,,,,,,,,,,,,,,,,,,,,,,,,,,,,,,,,,,,,,,,,,,,,,,,,
,,,,,616905,1,2024-06-17_11h08.08.987,experiment,2024.1.5,Win32,59.88023952,667045947eb812cbdacbf325,66704e028456b0e5b179856c,,,,,,,,,,,,,,,,,,,,,,,,,,,,,,,,,,,,1025.515,1032.356,0.0,1.0,1.0,1.0,1.0,SoundStimuli/IWannaDanceWithSomebody_WhitneyHouston_Cover5S.wav,,,,,,,,,,,,,,,,,,,,,,,,,,,,,,,,,,,,,,,,,,,,,,,,,,,,,,,,,,
,,,,,616905,1,2024-06-17_11h08.08.987,experiment,2024.1.5,Win32,59.88023952,667045947eb812cbdacbf325,66704e028456b0e5b179856c,,,,,,,,,,,,,,,,,,,,,,,,,,,,,,,,,,,,,,,,,,,,1032.358,1033.392,1.922222222,1.025,0.0,16.0,16.0,13.0,1.0,song_indices/IWannaDanceWithSomebody_WhitneyHouston.csv,,,,,,,,,,,,,,,,,,,,,,,,,,,,,,,,,,,,,,,,,,,,,,,,
,,,,,616905,1,2024-06-17_11h08.08.987,experiment,2024.1.5,Win32,59.88023952,667045947eb812cbdacbf325,66704e028456b0e5b179856c,,,,,,,,,,,,,,,,,,,,,,,,,,,,,,,,,,,,1033.397,1039.472,0.0,0.0,0.0,0.0,1.0,SoundStimuli/IllMakeLoveToYou_BoyzIIMen_Original5S.wav,,,,,,,,,,,,,,,,,,,,,,,,,,,,,,,,,,,,,,,,,,,,,,,,,,,,,,,,,,
,,,,,616905,1,2024-06-17_11h08.08.987,experiment,2024.1.5,Win32,59.88023952,667045947eb812cbdacbf325,66704e028456b0e5b179856c,,,,,,,,,,,,,,,,,,,,,,,,,,,,,,,,,,,,1039.474,1045.428,0.0,1.0,1.0,1.0,1.0,SoundStimuli/IllMakeLoveToYou_BoyzIIMen_Cover5S.wav,,,,,,,,,,,,,,,,,,,,,,,,,,,,,,,,,,,,,,,,,,,,,,,,,,,,,,,,,,
,,,,,616905,1,2024-06-17_11h08.08.987,experiment,2024.1.5,Win32,59.88023952,667045947eb812cbdacbf325,66704e028456b0e5b179856c,,,,,,,,,,,,,,,,,,,,,,,,,,,,,,,,,,,,,,,,,,,,1045.429,1056.644,3.555555556,11.21,0.0,17.0,17.0,6.0,1.0,song_indices/IllMakeLoveToYou_BoyzIIMen.csv,,,,,,,,,,,,,,,,,,,,,,,,,,,,,,,,,,,,,,,,,,,,,,,,
,,,,,616905,1,2024-06-17_11h08.08.987,experiment,2024.1.5,Win32,59.88023952,667045947eb812cbdacbf325,66704e028456b0e5b179856c,,,,,,,,,,,,,,,,,,,,,,,,,,,,,,,,,,,,1056.65,1063.669,0.0,0.0,0.0,1.0,1.0,SoundStimuli/StrawberryFieldsForever_TheBeatles_Cover5S.wav,,,,,,,,,,,,,,,,,,,,,,,,,,,,,,,,,,,,,,,,,,,,,,,,,,,,,,,,,,
,,,,,616905,1,2024-06-17_11h08.08.987,experiment,2024.1.5,Win32,59.88023952,667045947eb812cbdacbf325,66704e028456b0e5b179856c,,,,,,,,,,,,,,,,,,,,,,,,,,,,,,,,,,,,1063.675,1069.802,0.0,1.0,1.0,0.0,1.0,SoundStimuli/StrawberryFieldsForever_TheBeatles_Original5S.wav,,,,,,,,,,,,,,,,,,,,,,,,,,,,,,,,,,,,,,,,,,,,,,,,,,,,,,,,,,
,,,,,616905,1,2024-06-17_11h08.08.987,experiment,2024.1.5,Win32,59.88023952,667045947eb812cbdacbf325,66704e028456b0e5b179856c,,,,,,,,,,,,,,,,,,,,,,,,,,,,,,,,,,,,,,,,,,,,1069.805,1076.087,3.466666667,6.276,0.0,18.0,18.0,14.0,1.0,song_indices/StrawberryFieldsForever_TheBeatles.csv,,,,,,,,,,,,,,,,,,,,,,,,,,,,,,,,,,,,,,,,,,,,,,,,
,,,,,616905,1,2024-06-17_11h08.08.987,experiment,2024.1.5,Win32,59.88023952,667045947eb812cbdacbf325,66704e028456b0e5b179856c,,,,,,,,,,,,,,,,,,,,,,,,,,,,,,,,,,,,1076.09,1083.767,0.0,0.0,0.0,1.0,1.0,SoundStimuli/LivinOnAPrayer_BonJovi_Cover5S.wav,,,,,,,,,,,,,,,,,,,,,,,,,,,,,,,,,,,,,,,,,,,,,,,,,,,,,,,,,,
,,,,,616905,1,2024-06-17_11h08.08.987,experiment,2024.1.5,Win32,59.88023952,667045947eb812cbdacbf325,66704e028456b0e5b179856c,,,,,,,,,,,,,,,,,,,,,,,,,,,,,,,,,,,,1083.77,1090.023,0.0,1.0,1.0,0.0,1.0,SoundStimuli/LivinOnAPrayer_BonJovi_Original5S.wav,,,,,,,,,,,,,,,,,,,,,,,,,,,,,,,,,,,,,,,,,,,,,,,,,,,,,,,,,,
,,,,,616905,1,2024-06-17_11h08.08.987,experiment,2024.1.5,Win32,59.88023952,667045947eb812cbdacbf325,66704e028456b0e5b179856c,,,,,,,,,,,,,,,,,,,,,,,,,,,,,,,,,,,,,,,,,,,,1090.023,1090.927,2.533333333,0.898,0.0,19.0,19.0,16.0,1.0,song_indices/LivinOnAPrayer_BonJovi.csv,,,,,,,,,,,,,,,,,,,,,,,,,,,,,,,,,,,,,,,,,,,,,,,,
,,,,,616905,1,2024-06-17_11h08.08.987,experiment,2024.1.5,Win32,59.88023952,667045947eb812cbdacbf325,66704e028456b0e5b179856c,,,,,,,,,,,,,,,,,,,,,,,,,,,,,,,,,,,,1090.933,1097.517,0.0,0.0,0.0,1.0,1.0,SoundStimuli/Despacito_LuisFonsiDaddyYankee_Cover5S.wav,,,,,,,,,,,,,,,,,,,,,,,,,,,,,,,,,,,,,,,,,,,,,,,,,,,,,,,,,,
,,,,,616905,1,2024-06-17_11h08.08.987,experiment,2024.1.5,Win32,59.88023952,667045947eb812cbdacbf325,66704e028456b0e5b179856c,,,,,,,,,,,,,,,,,,,,,,,,,,,,,,,,,,,,1097.524,1104.07,0.0,1.0,1.0,0.0,1.0,SoundStimuli/Despacito_LuisFonsiDaddyYankee_Original5S.wav,,,,,,,,,,,,,,,,,,,,,,,,,,,,,,,,,,,,,,,,,,,,,,,,,,,,,,,,,,
,,,,,616905,1,2024-06-17_11h08.08.987,experiment,2024.1.5,Win32,59.88023952,667045947eb812cbdacbf325,66704e028456b0e5b179856c,,,,,,,,,,,,,,,,,,,,,,,,,,,,,,,,,,,,,,,,,,,,1104.073,1106.46,4.255555556,2.381,0.0,20.0,20.0,11.0,1.0,song_indices/Despacito_LuisFonsiDaddyYankee.csv,,,,,,,,,,,,,,,,,,,,,,,,,,,,,,,,,,,,,,,,,,,,,,,,
,,,,,616905,1,2024-06-17_11h08.08.987,experiment,2024.1.5,Win32,59.88023952,667045947eb812cbdacbf325,66704e028456b0e5b179856c,,,,,,,,,,,,,,,,,,,,,,,,,,,,,,,,,,,,1106.468,1112.795,0.0,0.0,0.0,0.0,1.0,SoundStimuli/EndlessLove_DianaRossLionelRichie_Original5S.wav,,,,,,,,,,,,,,,,,,,,,,,,,,,,,,,,,,,,,,,,,,,,,,,,,,,,,,,,,,
,,,,,616905,1,2024-06-17_11h08.08.987,experiment,2024.1.5,Win32,59.88023952,667045947eb812cbdacbf325,66704e028456b0e5b179856c,,,,,,,,,,,,,,,,,,,,,,,,,,,,,,,,,,,,1112.797,1120.286,0.0,1.0,1.0,1.0,1.0,SoundStimuli/EndlessLove_DianaRossLionelRichie_Cover5S.wav,,,,,,,,,,,,,,,,,,,,,,,,,,,,,,,,,,,,,,,,,,,,,,,,,,,,,,,,,,
,,,,,616905,1,2024-06-17_11h08.08.987,experiment,2024.1.5,Win32,59.88023952,667045947eb812cbdacbf325,66704e028456b0e5b179856c,,,,,,,,,,,,,,,,,,,,,,,,,,,,,,,,,,,,,,,,,,,,1120.287,1121.228,5.555555556,0.935,0.0,21.0,21.0,3.0,1.0,song_indices/EndlessLove_DianaRossLionelRichie.csv,,,,,,,,,,,,,,,,,,,,,,,,,,,,,,,,,,,,,,,,,,,,,,,,
,,,,,616905,1,2024-06-17_11h08.08.987,experiment,2024.1.5,Win32,59.88023952,667045947eb812cbdacbf325,66704e028456b0e5b179856c,,,,,,,,,,,,,,,,,,,,,,,,,,,,,,,,,,,,1121.231,1127.41,0.0,0.0,0.0,0.0,1.0,SoundStimuli/LikeAPrayer_Madonna_Original5S.wav,,,,,,,,,,,,,,,,,,,,,,,,,,,,,,,,,,,,,,,,,,,,,,,,,,,,,,,,,,
,,,,,616905,1,2024-06-17_11h08.08.987,experiment,2024.1.5,Win32,59.88023952,667045947eb812cbdacbf325,66704e028456b0e5b179856c,,,,,,,,,,,,,,,,,,,,,,,,,,,,,,,,,,,,1127.412,1133.636,0.0,1.0,1.0,1.0,1.0,SoundStimuli/LikeAPrayer_Madonna_Cover5S.wav,,,,,,,,,,,,,,,,,,,,,,,,,,,,,,,,,,,,,,,,,,,,,,,,,,,,,,,,,,
,,,,,616905,1,2024-06-17_11h08.08.987,experiment,2024.1.5,Win32,59.88023952,667045947eb812cbdacbf325,66704e028456b0e5b179856c,,,,,,,,,,,,,,,,,,,,,,,,,,,,,,,,,,,,,,,,,,,,1133.638,1134.673,6.055555556,1.026,0.0,22.0,22.0,7.0,1.0,song_indices/LikeAPrayer_Madonna.csv,,,,,,,,,,,,,,,,,,,,,,,,,,,,,,,,,,,,,,,,,,,,,,,,
,,,,,616905,1,2024-06-17_11h08.08.987,experiment,2024.1.5,Win32,59.88023952,667045947eb812cbdacbf325,66704e028456b0e5b179856c,,,,,,,,,,,,,,,,,,,,,,,,,,,,,,,,,,,,,,,,,,,,,,,,,,,,,,1134.674,1134.674,,,,0.0,2.0,2.0,0.0,1.0,choose_song_b1.csv,,,,,,,,,,,,,,,,,,,,,,,,,,,,,,,,,,,,,
,,,,,616905,1,2024-06-17_11h08.08.987,experiment,2024.1.5,Win32,59.88023952,667045947eb812cbdacbf325,66704e028456b0e5b179856c,,,,,,,,,,,,,,,,,,,,,,,,,,,,,,,,,,,,,,,,,,,,,,,,,,,,,,,,,,,,,,,,,33.0,Item 2,"took viola from age 10-11 through school, played french horn age 13-15 from school, and in school choir for 5 years. No longer play any instruments, still sing occasionally in private, but not a musician.",Item 3,"Youtube, personal album collection, public library music rentals.",5.0,6.0,"driving, washing dishes, house cleaning, hanging out with friends and family, working on art projects, paying bills and other personal finance tasks, taking a shower/bath.",Sometimes,Sometimes,Sometimes,Rarely,Never,Often,Often,Often,Often,Sometimes,Often,Sometimes,Rarely,Rarely,Sometimes,Rarely,"French music, K-Pop (Korean), J-Pop (Japanese), anime themes, video game music, film soundtracks.",Jazz,Ambient,Alternative Rock,"When I was growing up I mainly listened to classic rock, 80s rock, and classical music because that's what the adults around me enjoyed. I have expanded the types of genres that I expose myself to over the years and enjoy listening to and exploring new types of music.","I like to listen to particular types of music while doing different activities to set the mood. For example, if I'm doing something where I need to focus, like writing or paying bills, I will listen to relaxing instrumental music like light jazz, classical, or bossa nova. But if I'm doing a more physically active activity I like to listen to more upbeat music, like pop or hip hop. I like listening to singer/songwriter music while I shower so I can sing along.",0.0,0.0,0.0,0.0,1.0,,
,,,,,616905,1,2024-06-17_11h08.08.987,experiment,2024.1.5,Win32,59.88023952,667045947eb812cbdacbf325,66704e028456b0e5b179856c,,,,,,,,,,,,,,,,,,,,,,,,,,,,,,,,,,,,,,,,,,,,,,,,,,,,,,,,,,,,,,,,,,,,,,,,,,,,,,,,,,,,,,,,,,,,,,,,,,,,2061.958,2064.149
