welcome.started,welcome.stopped,space_to_continue.keys,space_to_continue.rt,space_to_continue.duration,participant,session,date,expName,psychopyVersion,OS,frameRate,STUDY_ID,SESSION_ID,consent.consent,consent.consent_recontact,consent_check.started,consent_check.stopped,calibration_ready.started,calibration_ready.stopped,cal_ready.keys,cal_ready.rt,cal_ready.duration,calibration.started,calibration.stopped,mouse.x,mouse.y,mouse.leftButton,mouse.midButton,mouse.rightButton,mouse.time,mouse.clicked_name,move_on.keys,move_on.rt,move_on.duration,instructions.started,instructions.stopped,next.keys,next.rt,next.duration,practice_trial.started,practice_trial.stopped,practice_slider.response,practice_slider.rt,ready.started,ready.stopped,key_resp.keys,key_resp.rt,key_resp.duration,play_sound.started,play_sound.stopped,trials.thisRepN,trials.thisTrialN,trials.thisN,trials.thisIndex,trials.ran,orig_or_cover,rating.started,rating.stopped,slider.response,slider.rt,songs.thisRepN,songs.thisTrialN,songs.thisN,songs.thisIndex,songs.ran,song_id,short_break.started,short_break.stopped,space_to_move_on.keys,space_to_move_on.rt,space_to_move_on.duration,blocks.thisRepN,blocks.thisTrialN,blocks.thisN,blocks.thisIndex,blocks.ran,block,survey.age,survey.musician,survey.music_making,survey.listen_time,survey.medium,survey.music_seeking,survey.music_choice,survey.activities,survey.question1.Pop,survey.question1.Jazz,survey.question1.Classical,survey.question1.Ambient,survey.question1.Disco,survey.question1.Latin,survey.question1.R&B,survey.question1.Alternative rock,survey.question1.Metal,survey.question1.Reggae,survey.question1.Country,survey.question1.Classic rock,survey.question1.A cappella,survey.question1.Folk/indie,survey.question1.Hip hop,survey.question1.Electronic (EDM),survey.other_genres,survey.genres_ranked.text1,survey.genres_ranked.text2,survey.genres_ranked.text3,survey.habit_change,survey.habits,experiment.thisRepN,experiment.thisTrialN,experiment.thisN,experiment.thisIndex,experiment.ran,goodbye.started,goodbye.stopped
0.0002,1.119,space,1.1042,,620160,1,2024-06-14_09h31.56.915,experiment,2024.1.5,MacIntel,59.88023952,666b5f73dbba3f0cd916b177,666c70447365c4a932ef8fae,,,,,,,,,,,,,,,,,,,,,,,,,,,,,,,,,,,,,,,,,,,,,,,,,,,,,,,,,,,,,,,,,,,,,,,,,,,,,,,,,,,,,,,,,,,,,,,,,,,,,
,,,,,620160,1,2024-06-14_09h31.56.915,experiment,2024.1.5,MacIntel,59.88023952,666b5f73dbba3f0cd916b177,666c70447365c4a932ef8fae,yes,yes,,,,,,,,,,,,,,,,,,,,,,,,,,,,,,,,,,,,,,,,,,,,,,,,,,,,,,,,,,,,,,,,,,,,,,,,,,,,,,,,,,,,,,,,,,,,,,,,,,,
,,,,,620160,1,2024-06-14_09h31.56.915,experiment,2024.1.5,MacIntel,59.88023952,666b5f73dbba3f0cd916b177,666c70447365c4a932ef8fae,,,17.6768,17.677,,,,,,,,,,,,,,,,,,,,,,,,,,,,,,,,,,,,,,,,,,,,,,,,,,,,,,,,,,,,,,,,,,,,,,,,,,,,,,,,,,,,,,,,,,,,,,,,,
,,,,,620160,1,2024-06-14_09h31.56.915,experiment,2024.1.5,MacIntel,59.88023952,666b5f73dbba3f0cd916b177,666c70447365c4a932ef8fae,,,,,17.6784,31.8688,space,14.1669,,31.8689,43.0023,[-0.032528076171875],[-0.44173882378472223],[1],[0],[0],[8.511799999952316],[],right,1.1168,,43.0027,53.8197,space,10.8009,,53.82,69.3186,6.998602702,15.4842,69.3188,71.2016,space,1.866,,71.2224,79.5189,0.0,0.0,0.0,1.0,1.0,SoundStimuli/Mood_24kGoldnianndior_Cover5S.wav,,,,,,,,,,,,,,,,,,,,,,,,,,,,,,,,,,,,,,,,,,,,,,,,,,,,,,,,,,
,,,,,620160,1,2024-06-14_09h31.56.915,experiment,2024.1.5,MacIntel,59.88023952,666b5f73dbba3f0cd916b177,666c70447365c4a932ef8fae,,,,,,,,,,,,,,,,,,,,,,,,,,,,,,,,,,,,79.52,85.8178,0.0,1.0,1.0,0.0,1.0,SoundStimuli/Mood_24kGoldnianndior_Original5S.wav,,,,,,,,,,,,,,,,,,,,,,,,,,,,,,,,,,,,,,,,,,,,,,,,,,,,,,,,,,
,,,,,620160,1,2024-06-14_09h31.56.915,experiment,2024.1.5,MacIntel,59.88023952,666b5f73dbba3f0cd916b177,666c70447365c4a932ef8fae,,,,,,,,,,,,,,,,,,,,,,,,,,,,,,,,,,,,,,,,,,,,85.8282,90.5518,6.942859701,4.7191,0.0,0.0,0.0,5.0,1.0,song_indices/Mood_24kGoldnianndior.csv,,,,,,,,,,,,,,,,,,,,,,,,,,,,,,,,,,,,,,,,,,,,,,,,
,,,,,620160,1,2024-06-14_09h31.56.915,experiment,2024.1.5,MacIntel,59.88023952,666b5f73dbba3f0cd916b177,666c70447365c4a932ef8fae,,,,,,,,,,,,,,,,,,,,,,,,,,,,,,,,,,,,90.5538,97.3842,0.0,0.0,0.0,1.0,1.0,SoundStimuli/IWannaDanceWithSomebody_WhitneyHouston_Cover5S.wav,,,,,,,,,,,,,,,,,,,,,,,,,,,,,,,,,,,,,,,,,,,,,,,,,,,,,,,,,,
,,,,,620160,1,2024-06-14_09h31.56.915,experiment,2024.1.5,MacIntel,59.88023952,666b5f73dbba3f0cd916b177,666c70447365c4a932ef8fae,,,,,,,,,,,,,,,,,,,,,,,,,,,,,,,,,,,,97.3951,102.9842,0.0,1.0,1.0,0.0,1.0,SoundStimuli/IWannaDanceWithSomebody_WhitneyHouston_Original5S.wav,,,,,,,,,,,,,,,,,,,,,,,,,,,,,,,,,,,,,,,,,,,,,,,,,,,,,,,,,,
,,,,,620160,1,2024-06-14_09h31.56.915,experiment,2024.1.5,MacIntel,59.88023952,666b5f73dbba3f0cd916b177,666c70447365c4a932ef8fae,,,,,,,,,,,,,,,,,,,,,,,,,,,,,,,,,,,,,,,,,,,,102.9846,103.8007,6.942859701,0.8026,0.0,1.0,1.0,13.0,1.0,song_indices/IWannaDanceWithSomebody_WhitneyHouston.csv,,,,,,,,,,,,,,,,,,,,,,,,,,,,,,,,,,,,,,,,,,,,,,,,
,,,,,620160,1,2024-06-14_09h31.56.915,experiment,2024.1.5,MacIntel,59.88023952,666b5f73dbba3f0cd916b177,666c70447365c4a932ef8fae,,,,,,,,,,,,,,,,,,,,,,,,,,,,,,,,,,,,103.8017,110.5013,0.0,0.0,0.0,1.0,1.0,SoundStimuli/BridgeOverTroubledWater_SimonAndGarfunkel_Cover5S.wav,,,,,,,,,,,,,,,,,,,,,,,,,,,,,,,,,,,,,,,,,,,,,,,,,,,,,,,,,,
,,,,,620160,1,2024-06-14_09h31.56.915,experiment,2024.1.5,MacIntel,59.88023952,666b5f73dbba3f0cd916b177,666c70447365c4a932ef8fae,,,,,,,,,,,,,,,,,,,,,,,,,,,,,,,,,,,,110.5118,116.8174,0.0,1.0,1.0,0.0,1.0,SoundStimuli/BridgeOverTroubledWater_SimonAndGarfunkel_Original5S.wav,,,,,,,,,,,,,,,,,,,,,,,,,,,,,,,,,,,,,,,,,,,,,,,,,,,,,,,,,,
,,,,,620160,1,2024-06-14_09h31.56.915,experiment,2024.1.5,MacIntel,59.88023952,666b5f73dbba3f0cd916b177,666c70447365c4a932ef8fae,,,,,,,,,,,,,,,,,,,,,,,,,,,,,,,,,,,,,,,,,,,,116.8176,119.5679,2.985140381,2.7372,0.0,2.0,2.0,1.0,1.0,song_indices/BridgeOverTroubledWater_SimonAndGarfunkel.csv,,,,,,,,,,,,,,,,,,,,,,,,,,,,,,,,,,,,,,,,,,,,,,,,
,,,,,620160,1,2024-06-14_09h31.56.915,experiment,2024.1.5,MacIntel,59.88023952,666b5f73dbba3f0cd916b177,666c70447365c4a932ef8fae,,,,,,,,,,,,,,,,,,,,,,,,,,,,,,,,,,,,119.5689,125.6682,0.0,0.0,0.0,0.0,1.0,SoundStimuli/HeatWaves_GlassAnimals_Original5S.wav,,,,,,,,,,,,,,,,,,,,,,,,,,,,,,,,,,,,,,,,,,,,,,,,,,,,,,,,,,
,,,,,620160,1,2024-06-14_09h31.56.915,experiment,2024.1.5,MacIntel,59.88023952,666b5f73dbba3f0cd916b177,666c70447365c4a932ef8fae,,,,,,,,,,,,,,,,,,,,,,,,,,,,,,,,,,,,125.678,134.2678,0.0,1.0,1.0,1.0,1.0,SoundStimuli/HeatWaves_GlassAnimals_Cover5S.wav,,,,,,,,,,,,,,,,,,,,,,,,,,,,,,,,,,,,,,,,,,,,,,,,,,,,,,,,,,
,,,,,620160,1,2024-06-14_09h31.56.915,experiment,2024.1.5,MacIntel,59.88023952,666b5f73dbba3f0cd916b177,666c70447365c4a932ef8fae,,,,,,,,,,,,,,,,,,,,,,,,,,,,,,,,,,,,,,,,,,,,134.268,137.4341,1.996862996,3.1531,0.0,3.0,3.0,10.0,1.0,song_indices/HeatWaves_GlassAnimals.csv,,,,,,,,,,,,,,,,,,,,,,,,,,,,,,,,,,,,,,,,,,,,,,,,
,,,,,620160,1,2024-06-14_09h31.56.915,experiment,2024.1.5,MacIntel,59.88023952,666b5f73dbba3f0cd916b177,666c70447365c4a932ef8fae,,,,,,,,,,,,,,,,,,,,,,,,,,,,,,,,,,,,137.4349,143.4024,0.0,0.0,0.0,0.0,1.0,SoundStimuli/BohemianRhapsody_Queen_Original5S.wav,,,,,,,,,,,,,,,,,,,,,,,,,,,,,,,,,,,,,,,,,,,,,,,,,,,,,,,,,,
,,,,,620160,1,2024-06-14_09h31.56.915,experiment,2024.1.5,MacIntel,59.88023952,666b5f73dbba3f0cd916b177,666c70447365c4a932ef8fae,,,,,,,,,,,,,,,,,,,,,,,,,,,,,,,,,,,,143.4107,147.4843,0.0,1.0,1.0,1.0,1.0,SoundStimuli/BohemianRhapsody_Queen_Cover5S.wav,,,,,,,,,,,,,,,,,,,,,,,,,,,,,,,,,,,,,,,,,,,,,,,,,,,,,,,,,,
,,,,,620160,1,2024-06-14_09h31.56.915,experiment,2024.1.5,MacIntel,59.88023952,666b5f73dbba3f0cd916b177,666c70447365c4a932ef8fae,,,,,,,,,,,,,,,,,,,,,,,,,,,,,,,,,,,,,,,,,,,,147.4844,149.3002,1.006062419,1.8028,0.0,4.0,4.0,18.0,1.0,song_indices/BohemianRhapsody_Queen.csv,,,,,,,,,,,,,,,,,,,,,,,,,,,,,,,,,,,,,,,,,,,,,,,,
,,,,,620160,1,2024-06-14_09h31.56.915,experiment,2024.1.5,MacIntel,59.88023952,666b5f73dbba3f0cd916b177,666c70447365c4a932ef8fae,,,,,,,,,,,,,,,,,,,,,,,,,,,,,,,,,,,,149.3016,156.167,0.0,0.0,0.0,1.0,1.0,SoundStimuli/GodOnlyKnows_TheBeachBoys_Cover5S.wav,,,,,,,,,,,,,,,,,,,,,,,,,,,,,,,,,,,,,,,,,,,,,,,,,,,,,,,,,,
,,,,,620160,1,2024-06-14_09h31.56.915,experiment,2024.1.5,MacIntel,59.88023952,666b5f73dbba3f0cd916b177,666c70447365c4a932ef8fae,,,,,,,,,,,,,,,,,,,,,,,,,,,,,,,,,,,,156.1774,162.4175,0.0,1.0,1.0,0.0,1.0,SoundStimuli/GodOnlyKnows_TheBeachBoys_Original5S.wav,,,,,,,,,,,,,,,,,,,,,,,,,,,,,,,,,,,,,,,,,,,,,,,,,,,,,,,,,,
,,,,,620160,1,2024-06-14_09h31.56.915,experiment,2024.1.5,MacIntel,59.88023952,666b5f73dbba3f0cd916b177,666c70447365c4a932ef8fae,,,,,,,,,,,,,,,,,,,,,,,,,,,,,,,,,,,,,,,,,,,,162.4179,164.2508,5.006160482,1.8198,0.0,5.0,5.0,8.0,1.0,song_indices/GodOnlyKnows_TheBeachBoys.csv,,,,,,,,,,,,,,,,,,,,,,,,,,,,,,,,,,,,,,,,,,,,,,,,
,,,,,620160,1,2024-06-14_09h31.56.915,experiment,2024.1.5,MacIntel,59.88023952,666b5f73dbba3f0cd916b177,666c70447365c4a932ef8fae,,,,,,,,,,,,,,,,,,,,,,,,,,,,,,,,,,,,164.2522,170.8347,0.0,0.0,0.0,1.0,1.0,SoundStimuli/Despacito_LuisFonsiDaddyYankee_Cover5S.wav,,,,,,,,,,,,,,,,,,,,,,,,,,,,,,,,,,,,,,,,,,,,,,,,,,,,,,,,,,
,,,,,620160,1,2024-06-14_09h31.56.915,experiment,2024.1.5,MacIntel,59.88023952,666b5f73dbba3f0cd916b177,666c70447365c4a932ef8fae,,,,,,,,,,,,,,,,,,,,,,,,,,,,,,,,,,,,170.8456,177.4002,0.0,1.0,1.0,0.0,1.0,SoundStimuli/Despacito_LuisFonsiDaddyYankee_Original5S.wav,,,,,,,,,,,,,,,,,,,,,,,,,,,,,,,,,,,,,,,,,,,,,,,,,,,,,,,,,,
,,,,,620160,1,2024-06-14_09h31.56.915,experiment,2024.1.5,MacIntel,59.88023952,666b5f73dbba3f0cd916b177,666c70447365c4a932ef8fae,,,,,,,,,,,,,,,,,,,,,,,,,,,,,,,,,,,,,,,,,,,,177.4003,178.2841,5.96887207,0.8704,0.0,6.0,6.0,11.0,1.0,song_indices/Despacito_LuisFonsiDaddyYankee.csv,,,,,,,,,,,,,,,,,,,,,,,,,,,,,,,,,,,,,,,,,,,,,,,,
,,,,,620160,1,2024-06-14_09h31.56.915,experiment,2024.1.5,MacIntel,59.88023952,666b5f73dbba3f0cd916b177,666c70447365c4a932ef8fae,,,,,,,,,,,,,,,,,,,,,,,,,,,,,,,,,,,,178.2853,184.417,0.0,0.0,0.0,1.0,1.0,SoundStimuli/Smooth_SantanaRobThomas_Cover5S.wav,,,,,,,,,,,,,,,,,,,,,,,,,,,,,,,,,,,,,,,,,,,,,,,,,,,,,,,,,,
,,,,,620160,1,2024-06-14_09h31.56.915,experiment,2024.1.5,MacIntel,59.88023952,666b5f73dbba3f0cd916b177,666c70447365c4a932ef8fae,,,,,,,,,,,,,,,,,,,,,,,,,,,,,,,,,,,,184.4276,190.6336,0.0,1.0,1.0,0.0,1.0,SoundStimuli/Smooth_SantanaRobThomas_Original5S.wav,,,,,,,,,,,,,,,,,,,,,,,,,,,,,,,,,,,,,,,,,,,,,,,,,,,,,,,,,,
,,,,,620160,1,2024-06-14_09h31.56.915,experiment,2024.1.5,MacIntel,59.88023952,666b5f73dbba3f0cd916b177,666c70447365c4a932ef8fae,,,,,,,,,,,,,,,,,,,,,,,,,,,,,,,,,,,,,,,,,,,,190.6337,196.2832,6.951040039,5.6359,0.0,7.0,7.0,4.0,1.0,song_indices/Smooth_SantanaRobThomas.csv,,,,,,,,,,,,,,,,,,,,,,,,,,,,,,,,,,,,,,,,,,,,,,,,
,,,,,620160,1,2024-06-14_09h31.56.915,experiment,2024.1.5,MacIntel,59.88023952,666b5f73dbba3f0cd916b177,666c70447365c4a932ef8fae,,,,,,,,,,,,,,,,,,,,,,,,,,,,,,,,,,,,196.2856,202.2336,0.0,0.0,0.0,1.0,1.0,SoundStimuli/IllMakeLoveToYou_BoyzIIMen_Cover5S.wav,,,,,,,,,,,,,,,,,,,,,,,,,,,,,,,,,,,,,,,,,,,,,,,,,,,,,,,,,,
,,,,,620160,1,2024-06-14_09h31.56.915,experiment,2024.1.5,MacIntel,59.88023952,666b5f73dbba3f0cd916b177,666c70447365c4a932ef8fae,,,,,,,,,,,,,,,,,,,,,,,,,,,,,,,,,,,,202.244,208.316,0.0,1.0,1.0,0.0,1.0,SoundStimuli/IllMakeLoveToYou_BoyzIIMen_Original5S.wav,,,,,,,,,,,,,,,,,,,,,,,,,,,,,,,,,,,,,,,,,,,,,,,,,,,,,,,,,,
,,,,,620160,1,2024-06-14_09h31.56.915,experiment,2024.1.5,MacIntel,59.88023952,666b5f73dbba3f0cd916b177,666c70447365c4a932ef8fae,,,,,,,,,,,,,,,,,,,,,,,,,,,,,,,,,,,,,,,,,,,,208.3166,209.8179,6.982213542,1.4857,0.0,8.0,8.0,6.0,1.0,song_indices/IllMakeLoveToYou_BoyzIIMen.csv,,,,,,,,,,,,,,,,,,,,,,,,,,,,,,,,,,,,,,,,,,,,,,,,
,,,,,620160,1,2024-06-14_09h31.56.915,experiment,2024.1.5,MacIntel,59.88023952,666b5f73dbba3f0cd916b177,666c70447365c4a932ef8fae,,,,,,,,,,,,,,,,,,,,,,,,,,,,,,,,,,,,209.819,215.6159,0.0,0.0,0.0,0.0,1.0,SoundStimuli/IWantToHoldYourHand_TheBeatles_Original5S.wav,,,,,,,,,,,,,,,,,,,,,,,,,,,,,,,,,,,,,,,,,,,,,,,,,,,,,,,,,,
,,,,,620160,1,2024-06-14_09h31.56.915,experiment,2024.1.5,MacIntel,59.88023952,666b5f73dbba3f0cd916b177,666c70447365c4a932ef8fae,,,,,,,,,,,,,,,,,,,,,,,,,,,,,,,,,,,,215.6259,221.6498,0.0,1.0,1.0,1.0,1.0,SoundStimuli/IWantToHoldYourHand_TheBeatles_Cover5S.wav,,,,,,,,,,,,,,,,,,,,,,,,,,,,,,,,,,,,,,,,,,,,,,,,,,,,,,,,,,
,,,,,620160,1,2024-06-14_09h31.56.915,experiment,2024.1.5,MacIntel,59.88023952,666b5f73dbba3f0cd916b177,666c70447365c4a932ef8fae,,,,,,,,,,,,,,,,,,,,,,,,,,,,,,,,,,,,,,,,,,,,221.6499,223.2493,1.994388224,1.5857,0.0,9.0,9.0,19.0,1.0,song_indices/IWantToHoldYourHand_TheBeatles.csv,,,,,,,,,,,,,,,,,,,,,,,,,,,,,,,,,,,,,,,,,,,,,,,,
,,,,,620160,1,2024-06-14_09h31.56.915,experiment,2024.1.5,MacIntel,59.88023952,666b5f73dbba3f0cd916b177,666c70447365c4a932ef8fae,,,,,,,,,,,,,,,,,,,,,,,,,,,,,,,,,,,,223.2502,230.7494,0.0,0.0,0.0,1.0,1.0,SoundStimuli/BadDay_DanielPowter_Cover5S.wav,,,,,,,,,,,,,,,,,,,,,,,,,,,,,,,,,,,,,,,,,,,,,,,,,,,,,,,,,,
,,,,,620160,1,2024-06-14_09h31.56.915,experiment,2024.1.5,MacIntel,59.88023952,666b5f73dbba3f0cd916b177,666c70447365c4a932ef8fae,,,,,,,,,,,,,,,,,,,,,,,,,,,,,,,,,,,,230.7588,237.1991,0.0,1.0,1.0,0.0,1.0,SoundStimuli/BadDay_DanielPowter_Original5S.wav,,,,,,,,,,,,,,,,,,,,,,,,,,,,,,,,,,,,,,,,,,,,,,,,,,,,,,,,,,
,,,,,620160,1,2024-06-14_09h31.56.915,experiment,2024.1.5,MacIntel,59.88023952,666b5f73dbba3f0cd916b177,666c70447365c4a932ef8fae,,,,,,,,,,,,,,,,,,,,,,,,,,,,,,,,,,,,,,,,,,,,237.1997,239.5324,5.006518148,2.3193,0.0,10.0,10.0,22.0,1.0,song_indices/BadDay_DanielPowter.csv,,,,,,,,,,,,,,,,,,,,,,,,,,,,,,,,,,,,,,,,,,,,,,,,
,,,,,620160,1,2024-06-14_09h31.56.915,experiment,2024.1.5,MacIntel,59.88023952,666b5f73dbba3f0cd916b177,666c70447365c4a932ef8fae,,,,,,,,,,,,,,,,,,,,,,,,,,,,,,,,,,,,239.5333,247.7993,0.0,0.0,0.0,1.0,1.0,SoundStimuli/Perfect_EdSheeran_Cover5S.wav,,,,,,,,,,,,,,,,,,,,,,,,,,,,,,,,,,,,,,,,,,,,,,,,,,,,,,,,,,
,,,,,620160,1,2024-06-14_09h31.56.915,experiment,2024.1.5,MacIntel,59.88023952,666b5f73dbba3f0cd916b177,666c70447365c4a932ef8fae,,,,,,,,,,,,,,,,,,,,,,,,,,,,,,,,,,,,247.8095,256.6663,0.0,1.0,1.0,0.0,1.0,SoundStimuli/Perfect_EdSheeran_Original5S.wav,,,,,,,,,,,,,,,,,,,,,,,,,,,,,,,,,,,,,,,,,,,,,,,,,,,,,,,,,,
,,,,,620160,1,2024-06-14_09h31.56.915,experiment,2024.1.5,MacIntel,59.88023952,666b5f73dbba3f0cd916b177,666c70447365c4a932ef8fae,,,,,,,,,,,,,,,,,,,,,,,,,,,,,,,,,,,,,,,,,,,,256.6663,259.4325,6.980855306,2.7516,0.0,11.0,11.0,0.0,1.0,song_indices/Perfect_EdSheeran.csv,,,,,,,,,,,,,,,,,,,,,,,,,,,,,,,,,,,,,,,,,,,,,,,,
,,,,,620160,1,2024-06-14_09h31.56.915,experiment,2024.1.5,MacIntel,59.88023952,666b5f73dbba3f0cd916b177,666c70447365c4a932ef8fae,,,,,,,,,,,,,,,,,,,,,,,,,,,,,,,,,,,,259.4331,263.8326,0.0,0.0,0.0,1.0,1.0,SoundStimuli/LikeARollingStone_BobDylan_Cover5S.wav,,,,,,,,,,,,,,,,,,,,,,,,,,,,,,,,,,,,,,,,,,,,,,,,,,,,,,,,,,
,,,,,620160,1,2024-06-14_09h31.56.915,experiment,2024.1.5,MacIntel,59.88023952,666b5f73dbba3f0cd916b177,666c70447365c4a932ef8fae,,,,,,,,,,,,,,,,,,,,,,,,,,,,,,,,,,,,263.8418,269.982,0.0,1.0,1.0,0.0,1.0,SoundStimuli/LikeARollingStone_BobDylan_Original5S.wav,,,,,,,,,,,,,,,,,,,,,,,,,,,,,,,,,,,,,,,,,,,,,,,,,,,,,,,,,,
,,,,,620160,1,2024-06-14_09h31.56.915,experiment,2024.1.5,MacIntel,59.88023952,666b5f73dbba3f0cd916b177,666c70447365c4a932ef8fae,,,,,,,,,,,,,,,,,,,,,,,,,,,,,,,,,,,,,,,,,,,,269.9821,272.9823,6.989147949,2.9856,0.0,12.0,12.0,12.0,1.0,song_indices/LikeARollingStone_BobDylan.csv,,,,,,,,,,,,,,,,,,,,,,,,,,,,,,,,,,,,,,,,,,,,,,,,
,,,,,620160,1,2024-06-14_09h31.56.915,experiment,2024.1.5,MacIntel,59.88023952,666b5f73dbba3f0cd916b177,666c70447365c4a932ef8fae,,,,,,,,,,,,,,,,,,,,,,,,,,,,,,,,,,,,272.9839,279.032,0.0,0.0,0.0,0.0,1.0,SoundStimuli/AnotherOneBitesTheDust_Queen_Original5S.wav,,,,,,,,,,,,,,,,,,,,,,,,,,,,,,,,,,,,,,,,,,,,,,,,,,,,,,,,,,
,,,,,620160,1,2024-06-14_09h31.56.915,experiment,2024.1.5,MacIntel,59.88023952,666b5f73dbba3f0cd916b177,666c70447365c4a932ef8fae,,,,,,,,,,,,,,,,,,,,,,,,,,,,,,,,,,,,279.0408,287.165,0.0,1.0,1.0,1.0,1.0,SoundStimuli/AnotherOneBitesTheDust_Queen_Cover5S.wav,,,,,,,,,,,,,,,,,,,,,,,,,,,,,,,,,,,,,,,,,,,,,,,,,,,,,,,,,,
,,,,,620160,1,2024-06-14_09h31.56.915,experiment,2024.1.5,MacIntel,59.88023952,666b5f73dbba3f0cd916b177,666c70447365c4a932ef8fae,,,,,,,,,,,,,,,,,,,,,,,,,,,,,,,,,,,,,,,,,,,,287.1651,289.3827,6.967772624,2.2027,0.0,13.0,13.0,9.0,1.0,song_indices/AnotherOneBitesTheDust_Queen.csv,,,,,,,,,,,,,,,,,,,,,,,,,,,,,,,,,,,,,,,,,,,,,,,,
,,,,,620160,1,2024-06-14_09h31.56.915,experiment,2024.1.5,MacIntel,59.88023952,666b5f73dbba3f0cd916b177,666c70447365c4a932ef8fae,,,,,,,,,,,,,,,,,,,,,,,,,,,,,,,,,,,,289.384,295.517,0.0,0.0,0.0,0.0,1.0,SoundStimuli/StrawberryFieldsForever_TheBeatles_Original5S.wav,,,,,,,,,,,,,,,,,,,,,,,,,,,,,,,,,,,,,,,,,,,,,,,,,,,,,,,,,,
,,,,,620160,1,2024-06-14_09h31.56.915,experiment,2024.1.5,MacIntel,59.88023952,666b5f73dbba3f0cd916b177,666c70447365c4a932ef8fae,,,,,,,,,,,,,,,,,,,,,,,,,,,,,,,,,,,,295.5254,302.5485,0.0,1.0,1.0,1.0,1.0,SoundStimuli/StrawberryFieldsForever_TheBeatles_Cover5S.wav,,,,,,,,,,,,,,,,,,,,,,,,,,,,,,,,,,,,,,,,,,,,,,,,,,,,,,,,,,
,,,,,620160,1,2024-06-14_09h31.56.915,experiment,2024.1.5,MacIntel,59.88023952,666b5f73dbba3f0cd916b177,666c70447365c4a932ef8fae,,,,,,,,,,,,,,,,,,,,,,,,,,,,,,,,,,,,,,,,,,,,302.5485,304.0493,4.027317708,1.4863,0.0,14.0,14.0,14.0,1.0,song_indices/StrawberryFieldsForever_TheBeatles.csv,,,,,,,,,,,,,,,,,,,,,,,,,,,,,,,,,,,,,,,,,,,,,,,,
,,,,,620160,1,2024-06-14_09h31.56.915,experiment,2024.1.5,MacIntel,59.88023952,666b5f73dbba3f0cd916b177,666c70447365c4a932ef8fae,,,,,,,,,,,,,,,,,,,,,,,,,,,,,,,,,,,,304.0507,311.4312,0.0,0.0,0.0,0.0,1.0,SoundStimuli/OldTownRoad_LilNasX_Original5S.wav,,,,,,,,,,,,,,,,,,,,,,,,,,,,,,,,,,,,,,,,,,,,,,,,,,,,,,,,,,
,,,,,620160,1,2024-06-14_09h31.56.915,experiment,2024.1.5,MacIntel,59.88023952,666b5f73dbba3f0cd916b177,666c70447365c4a932ef8fae,,,,,,,,,,,,,,,,,,,,,,,,,,,,,,,,,,,,311.4405,317.9485,0.0,1.0,1.0,1.0,1.0,SoundStimuli/OldTownRoad_LilNasX_Cover5S.wav,,,,,,,,,,,,,,,,,,,,,,,,,,,,,,,,,,,,,,,,,,,,,,,,,,,,,,,,,,
,,,,,620160,1,2024-06-14_09h31.56.915,experiment,2024.1.5,MacIntel,59.88023952,666b5f73dbba3f0cd916b177,666c70447365c4a932ef8fae,,,,,,,,,,,,,,,,,,,,,,,,,,,,,,,,,,,,,,,,,,,,317.9486,321.5644,5.993835856,3.6021,0.0,15.0,15.0,20.0,1.0,song_indices/OldTownRoad_LilNasX.csv,,,,,,,,,,,,,,,,,,,,,,,,,,,,,,,,,,,,,,,,,,,,,,,,
,,,,,620160,1,2024-06-14_09h31.56.915,experiment,2024.1.5,MacIntel,59.88023952,666b5f73dbba3f0cd916b177,666c70447365c4a932ef8fae,,,,,,,,,,,,,,,,,,,,,,,,,,,,,,,,,,,,321.5654,327.8145,0.0,0.0,0.0,1.0,1.0,SoundStimuli/MackTheKnife_BobbyDarin_Cover5S.wav,,,,,,,,,,,,,,,,,,,,,,,,,,,,,,,,,,,,,,,,,,,,,,,,,,,,,,,,,,
,,,,,620160,1,2024-06-14_09h31.56.915,experiment,2024.1.5,MacIntel,59.88023952,666b5f73dbba3f0cd916b177,666c70447365c4a932ef8fae,,,,,,,,,,,,,,,,,,,,,,,,,,,,,,,,,,,,327.8238,333.9643,0.0,1.0,1.0,0.0,1.0,SoundStimuli/MackTheKnife_BobbyDarin_Original5S.wav,,,,,,,,,,,,,,,,,,,,,,,,,,,,,,,,,,,,,,,,,,,,,,,,,,,,,,,,,,
,,,,,620160,1,2024-06-14_09h31.56.915,experiment,2024.1.5,MacIntel,59.88023952,666b5f73dbba3f0cd916b177,666c70447365c4a932ef8fae,,,,,,,,,,,,,,,,,,,,,,,,,,,,,,,,,,,,,,,,,,,,333.9645,336.6348,4.018979085,2.6526,0.0,16.0,16.0,21.0,1.0,song_indices/MackTheKnife_BobbyDarin.csv,,,,,,,,,,,,,,,,,,,,,,,,,,,,,,,,,,,,,,,,,,,,,,,,
,,,,,620160,1,2024-06-14_09h31.56.915,experiment,2024.1.5,MacIntel,59.88023952,666b5f73dbba3f0cd916b177,666c70447365c4a932ef8fae,,,,,,,,,,,,,,,,,,,,,,,,,,,,,,,,,,,,336.6356,342.8816,0.0,0.0,0.0,0.0,1.0,SoundStimuli/LivinOnAPrayer_BonJovi_Original5S.wav,,,,,,,,,,,,,,,,,,,,,,,,,,,,,,,,,,,,,,,,,,,,,,,,,,,,,,,,,,
,,,,,620160,1,2024-06-14_09h31.56.915,experiment,2024.1.5,MacIntel,59.88023952,666b5f73dbba3f0cd916b177,666c70447365c4a932ef8fae,,,,,,,,,,,,,,,,,,,,,,,,,,,,,,,,,,,,342.8903,350.5643,0.0,1.0,1.0,1.0,1.0,SoundStimuli/LivinOnAPrayer_BonJovi_Cover5S.wav,,,,,,,,,,,,,,,,,,,,,,,,,,,,,,,,,,,,,,,,,,,,,,,,,,,,,,,,,,
,,,,,620160,1,2024-06-14_09h31.56.915,experiment,2024.1.5,MacIntel,59.88023952,666b5f73dbba3f0cd916b177,666c70447365c4a932ef8fae,,,,,,,,,,,,,,,,,,,,,,,,,,,,,,,,,,,,,,,,,,,,350.5648,354.0819,5.99506958,3.5021,0.0,17.0,17.0,16.0,1.0,song_indices/LivinOnAPrayer_BonJovi.csv,,,,,,,,,,,,,,,,,,,,,,,,,,,,,,,,,,,,,,,,,,,,,,,,
,,,,,620160,1,2024-06-14_09h31.56.915,experiment,2024.1.5,MacIntel,59.88023952,666b5f73dbba3f0cd916b177,666c70447365c4a932ef8fae,,,,,,,,,,,,,,,,,,,,,,,,,,,,,,,,,,,,354.0833,360.2807,0.0,0.0,0.0,0.0,1.0,SoundStimuli/LikeAPrayer_Madonna_Original5S.wav,,,,,,,,,,,,,,,,,,,,,,,,,,,,,,,,,,,,,,,,,,,,,,,,,,,,,,,,,,
,,,,,620160,1,2024-06-14_09h31.56.915,experiment,2024.1.5,MacIntel,59.88023952,666b5f73dbba3f0cd916b177,666c70447365c4a932ef8fae,,,,,,,,,,,,,,,,,,,,,,,,,,,,,,,,,,,,360.2911,366.4979,0.0,1.0,1.0,1.0,1.0,SoundStimuli/LikeAPrayer_Madonna_Cover5S.wav,,,,,,,,,,,,,,,,,,,,,,,,,,,,,,,,,,,,,,,,,,,,,,,,,,,,,,,,,,
,,,,,620160,1,2024-06-14_09h31.56.915,experiment,2024.1.5,MacIntel,59.88023952,666b5f73dbba3f0cd916b177,666c70447365c4a932ef8fae,,,,,,,,,,,,,,,,,,,,,,,,,,,,,,,,,,,,,,,,,,,,366.498,368.2643,6.969335938,1.7519,0.0,18.0,18.0,7.0,1.0,song_indices/LikeAPrayer_Madonna.csv,,,,,,,,,,,,,,,,,,,,,,,,,,,,,,,,,,,,,,,,,,,,,,,,
,,,,,620160,1,2024-06-14_09h31.56.915,experiment,2024.1.5,MacIntel,59.88023952,666b5f73dbba3f0cd916b177,666c70447365c4a932ef8fae,,,,,,,,,,,,,,,,,,,,,,,,,,,,,,,,,,,,368.2649,375.9309,0.0,0.0,0.0,1.0,1.0,SoundStimuli/MyGirl_TheTemptations_Cover5S.wav,,,,,,,,,,,,,,,,,,,,,,,,,,,,,,,,,,,,,,,,,,,,,,,,,,,,,,,,,,
,,,,,620160,1,2024-06-14_09h31.56.915,experiment,2024.1.5,MacIntel,59.88023952,666b5f73dbba3f0cd916b177,666c70447365c4a932ef8fae,,,,,,,,,,,,,,,,,,,,,,,,,,,,,,,,,,,,375.9414,382.3305,0.0,1.0,1.0,0.0,1.0,SoundStimuli/MyGirl_TheTemptations_Original5S.wav,,,,,,,,,,,,,,,,,,,,,,,,,,,,,,,,,,,,,,,,,,,,,,,,,,,,,,,,,,
,,,,,620160,1,2024-06-14_09h31.56.915,experiment,2024.1.5,MacIntel,59.88023952,666b5f73dbba3f0cd916b177,666c70447365c4a932ef8fae,,,,,,,,,,,,,,,,,,,,,,,,,,,,,,,,,,,,,,,,,,,,382.3308,383.9469,4.021282145,1.6043,0.0,19.0,19.0,15.0,1.0,song_indices/MyGirl_TheTemptations.csv,,,,,,,,,,,,,,,,,,,,,,,,,,,,,,,,,,,,,,,,,,,,,,,,
,,,,,620160,1,2024-06-14_09h31.56.915,experiment,2024.1.5,MacIntel,59.88023952,666b5f73dbba3f0cd916b177,666c70447365c4a932ef8fae,,,,,,,,,,,,,,,,,,,,,,,,,,,,,,,,,,,,383.9478,391.4495,0.0,0.0,0.0,1.0,1.0,SoundStimuli/EndlessLove_DianaRossLionelRichie_Cover5S.wav,,,,,,,,,,,,,,,,,,,,,,,,,,,,,,,,,,,,,,,,,,,,,,,,,,,,,,,,,,
,,,,,620160,1,2024-06-14_09h31.56.915,experiment,2024.1.5,MacIntel,59.88023952,666b5f73dbba3f0cd916b177,666c70447365c4a932ef8fae,,,,,,,,,,,,,,,,,,,,,,,,,,,,,,,,,,,,391.4585,397.7966,0.0,1.0,1.0,0.0,1.0,SoundStimuli/EndlessLove_DianaRossLionelRichie_Original5S.wav,,,,,,,,,,,,,,,,,,,,,,,,,,,,,,,,,,,,,,,,,,,,,,,,,,,,,,,,,,
,,,,,620160,1,2024-06-14_09h31.56.915,experiment,2024.1.5,MacIntel,59.88023952,666b5f73dbba3f0cd916b177,666c70447365c4a932ef8fae,,,,,,,,,,,,,,,,,,,,,,,,,,,,,,,,,,,,,,,,,,,,397.7969,399.6301,6.011883952,1.8197,0.0,20.0,20.0,3.0,1.0,song_indices/EndlessLove_DianaRossLionelRichie.csv,,,,,,,,,,,,,,,,,,,,,,,,,,,,,,,,,,,,,,,,,,,,,,,,
,,,,,620160,1,2024-06-14_09h31.56.915,experiment,2024.1.5,MacIntel,59.88023952,666b5f73dbba3f0cd916b177,666c70447365c4a932ef8fae,,,,,,,,,,,,,,,,,,,,,,,,,,,,,,,,,,,,399.6317,405.6824,0.0,0.0,0.0,0.0,1.0,SoundStimuli/AChangeIsGonnaCome_SamCooke_Original5S.wav,,,,,,,,,,,,,,,,,,,,,,,,,,,,,,,,,,,,,,,,,,,,,,,,,,,,,,,,,,
,,,,,620160,1,2024-06-14_09h31.56.915,experiment,2024.1.5,MacIntel,59.88023952,666b5f73dbba3f0cd916b177,666c70447365c4a932ef8fae,,,,,,,,,,,,,,,,,,,,,,,,,,,,,,,,,,,,405.6907,410.397,0.0,1.0,1.0,1.0,1.0,SoundStimuli/AChangeIsGonnaCome_SamCooke_Cover5S.wav,,,,,,,,,,,,,,,,,,,,,,,,,,,,,,,,,,,,,,,,,,,,,,,,,,,,,,,,,,
,,,,,620160,1,2024-06-14_09h31.56.915,experiment,2024.1.5,MacIntel,59.88023952,666b5f73dbba3f0cd916b177,666c70447365c4a932ef8fae,,,,,,,,,,,,,,,,,,,,,,,,,,,,,,,,,,,,,,,,,,,,410.3973,412.1988,6.988543294,1.7858,0.0,21.0,21.0,17.0,1.0,song_indices/AChangeIsGonnaCome_SamCooke.csv,,,,,,,,,,,,,,,,,,,,,,,,,,,,,,,,,,,,,,,,,,,,,,,,
,,,,,620160,1,2024-06-14_09h31.56.915,experiment,2024.1.5,MacIntel,59.88023952,666b5f73dbba3f0cd916b177,666c70447365c4a932ef8fae,,,,,,,,,,,,,,,,,,,,,,,,,,,,,,,,,,,,412.1994,418.23,0.0,0.0,0.0,0.0,1.0,SoundStimuli/StayinAlive_BeeGees_Original5S.wav,,,,,,,,,,,,,,,,,,,,,,,,,,,,,,,,,,,,,,,,,,,,,,,,,,,,,,,,,,
,,,,,620160,1,2024-06-14_09h31.56.915,experiment,2024.1.5,MacIntel,59.88023952,666b5f73dbba3f0cd916b177,666c70447365c4a932ef8fae,,,,,,,,,,,,,,,,,,,,,,,,,,,,,,,,,,,,418.2405,424.0656,0.0,1.0,1.0,1.0,1.0,SoundStimuli/StayinAlive_BeeGees_Cover5S.wav,,,,,,,,,,,,,,,,,,,,,,,,,,,,,,,,,,,,,,,,,,,,,,,,,,,,,,,,,,
,,,,,620160,1,2024-06-14_09h31.56.915,experiment,2024.1.5,MacIntel,59.88023952,666b5f73dbba3f0cd916b177,666c70447365c4a932ef8fae,,,,,,,,,,,,,,,,,,,,,,,,,,,,,,,,,,,,,,,,,,,,424.0657,425.2637,6.988543294,1.1853,0.0,22.0,22.0,2.0,1.0,song_indices/StayinAlive_BeeGees.csv,,,,,,,,,,,,,,,,,,,,,,,,,,,,,,,,,,,,,,,,,,,,,,,,
,,,,,620160,1,2024-06-14_09h31.56.915,experiment,2024.1.5,MacIntel,59.88023952,666b5f73dbba3f0cd916b177,666c70447365c4a932ef8fae,,,,,,,,,,,,,,,,,,,,,,,,,,,,,,,,,,,,,,,,,,,,,,,,,,,,,,425.264,426.6807,space,1.399,,0.0,0.0,0.0,0.0,1.0,choose_song_b1.csv,,,,,,,,,,,,,,,,,,,,,,,,,,,,,,,,,,,,,
,,,,,620160,1,2024-06-14_09h31.56.915,experiment,2024.1.5,MacIntel,59.88023952,666b5f73dbba3f0cd916b177,666c70447365c4a932ef8fae,,,,,,,,,,,,,,,,,,,,,,,,,,,,,,,,,,,,426.6831,432.763,0.0,0.0,0.0,0.0,1.0,SoundStimuli/YouLightUpMyLife_DebbyBoone_Original5S.wav,,,,,,,,,,,,,,,,,,,,,,,,,,,,,,,,,,,,,,,,,,,,,,,,,,,,,,,,,,
,,,,,620160,1,2024-06-14_09h31.56.915,experiment,2024.1.5,MacIntel,59.88023952,666b5f73dbba3f0cd916b177,666c70447365c4a932ef8fae,,,,,,,,,,,,,,,,,,,,,,,,,,,,,,,,,,,,432.7725,439.2136,0.0,1.0,1.0,1.0,1.0,SoundStimuli/YouLightUpMyLife_DebbyBoone_Cover5S.wav,,,,,,,,,,,,,,,,,,,,,,,,,,,,,,,,,,,,,,,,,,,,,,,,,,,,,,,,,,
,,,,,620160,1,2024-06-14_09h31.56.915,experiment,2024.1.5,MacIntel,59.88023952,666b5f73dbba3f0cd916b177,666c70447365c4a932ef8fae,,,,,,,,,,,,,,,,,,,,,,,,,,,,,,,,,,,,,,,,,,,,439.2137,440.9466,6.988543294,1.7198,0.0,0.0,0.0,4.0,1.0,song_indices/YouLightUpMyLife_DebbyBoone.csv,,,,,,,,,,,,,,,,,,,,,,,,,,,,,,,,,,,,,,,,,,,,,,,,
,,,,,620160,1,2024-06-14_09h31.56.915,experiment,2024.1.5,MacIntel,59.88023952,666b5f73dbba3f0cd916b177,666c70447365c4a932ef8fae,,,,,,,,,,,,,,,,,,,,,,,,,,,,,,,,,,,,440.9473,448.1813,0.0,0.0,0.0,0.0,1.0,SoundStimuli/SomebodyThatIUsedtoKnow_Gotye_Original5S.wav,,,,,,,,,,,,,,,,,,,,,,,,,,,,,,,,,,,,,,,,,,,,,,,,,,,,,,,,,,
,,,,,620160,1,2024-06-14_09h31.56.915,experiment,2024.1.5,MacIntel,59.88023952,666b5f73dbba3f0cd916b177,666c70447365c4a932ef8fae,,,,,,,,,,,,,,,,,,,,,,,,,,,,,,,,,,,,448.1904,454.9802,0.0,1.0,1.0,1.0,1.0,SoundStimuli/SomebodyThatIUsedtoKnow_Gotye_Cover5S.wav,,,,,,,,,,,,,,,,,,,,,,,,,,,,,,,,,,,,,,,,,,,,,,,,,,,,,,,,,,
,,,,,620160,1,2024-06-14_09h31.56.915,experiment,2024.1.5,MacIntel,59.88023952,666b5f73dbba3f0cd916b177,666c70447365c4a932ef8fae,,,,,,,,,,,,,,,,,,,,,,,,,,,,,,,,,,,,,,,,,,,,454.9803,456.4959,6.988543294,1.5029,0.0,1.0,1.0,7.0,1.0,song_indices/SomebodyThatIUsedtoKnow_Gotye.csv,,,,,,,,,,,,,,,,,,,,,,,,,,,,,,,,,,,,,,,,,,,,,,,,
,,,,,620160,1,2024-06-14_09h31.56.915,experiment,2024.1.5,MacIntel,59.88023952,666b5f73dbba3f0cd916b177,666c70447365c4a932ef8fae,,,,,,,,,,,,,,,,,,,,,,,,,,,,,,,,,,,,456.4968,462.5127,0.0,0.0,0.0,1.0,1.0,SoundStimuli/TheSign_AceOfBase_Cover5S.wav,,,,,,,,,,,,,,,,,,,,,,,,,,,,,,,,,,,,,,,,,,,,,,,,,,,,,,,,,,
,,,,,620160,1,2024-06-14_09h31.56.915,experiment,2024.1.5,MacIntel,59.88023952,666b5f73dbba3f0cd916b177,666c70447365c4a932ef8fae,,,,,,,,,,,,,,,,,,,,,,,,,,,,,,,,,,,,462.5226,468.6799,0.0,1.0,1.0,0.0,1.0,SoundStimuli/TheSign_AceOfBase_Original5S.wav,,,,,,,,,,,,,,,,,,,,,,,,,,,,,,,,,,,,,,,,,,,,,,,,,,,,,,,,,,
,,,,,620160,1,2024-06-14_09h31.56.915,experiment,2024.1.5,MacIntel,59.88023952,666b5f73dbba3f0cd916b177,666c70447365c4a932ef8fae,,,,,,,,,,,,,,,,,,,,,,,,,,,,,,,,,,,,,,,,,,,,468.6799,470.0458,2.951436768,1.3544,0.0,2.0,2.0,5.0,1.0,song_indices/TheSign_AceOfBase.csv,,,,,,,,,,,,,,,,,,,,,,,,,,,,,,,,,,,,,,,,,,,,,,,,
,,,,,620160,1,2024-06-14_09h31.56.915,experiment,2024.1.5,MacIntel,59.88023952,666b5f73dbba3f0cd916b177,666c70447365c4a932ef8fae,,,,,,,,,,,,,,,,,,,,,,,,,,,,,,,,,,,,470.0485,475.9463,0.0,0.0,0.0,1.0,1.0,SoundStimuli/SaveYourTears_TheWeekndArianaGrande_Cover5S.wav,,,,,,,,,,,,,,,,,,,,,,,,,,,,,,,,,,,,,,,,,,,,,,,,,,,,,,,,,,
,,,,,620160,1,2024-06-14_09h31.56.915,experiment,2024.1.5,MacIntel,59.88023952,666b5f73dbba3f0cd916b177,666c70447365c4a932ef8fae,,,,,,,,,,,,,,,,,,,,,,,,,,,,,,,,,,,,475.9555,482.147,0.0,1.0,1.0,0.0,1.0,SoundStimuli/SaveYourTears_TheWeekndArianaGrande_Original5S.wav,,,,,,,,,,,,,,,,,,,,,,,,,,,,,,,,,,,,,,,,,,,,,,,,,,,,,,,,,,
,,,,,620160,1,2024-06-14_09h31.56.915,experiment,2024.1.5,MacIntel,59.88023952,666b5f73dbba3f0cd916b177,666c70447365c4a932ef8fae,,,,,,,,,,,,,,,,,,,,,,,,,,,,,,,,,,,,,,,,,,,,482.1471,483.5623,2.95450887,1.4025,0.0,3.0,3.0,12.0,1.0,song_indices/SaveYourTears_TheWeekndArianaGrande.csv,,,,,,,,,,,,,,,,,,,,,,,,,,,,,,,,,,,,,,,,,,,,,,,,
,,,,,620160,1,2024-06-14_09h31.56.915,experiment,2024.1.5,MacIntel,59.88023952,666b5f73dbba3f0cd916b177,666c70447365c4a932ef8fae,,,,,,,,,,,,,,,,,,,,,,,,,,,,,,,,,,,,483.5633,488.6956,0.0,0.0,0.0,1.0,1.0,SoundStimuli/JoyToTheWorld_ThreeDogNight_Cover5S.wav,,,,,,,,,,,,,,,,,,,,,,,,,,,,,,,,,,,,,,,,,,,,,,,,,,,,,,,,,,
,,,,,620160,1,2024-06-14_09h31.56.915,experiment,2024.1.5,MacIntel,59.88023952,666b5f73dbba3f0cd916b177,666c70447365c4a932ef8fae,,,,,,,,,,,,,,,,,,,,,,,,,,,,,,,,,,,,488.7056,494.8124,0.0,1.0,1.0,0.0,1.0,SoundStimuli/JoyToTheWorld_ThreeDogNight_Original5S.wav,,,,,,,,,,,,,,,,,,,,,,,,,,,,,,,,,,,,,,,,,,,,,,,,,,,,,,,,,,
,,,,,620160,1,2024-06-14_09h31.56.915,experiment,2024.1.5,MacIntel,59.88023952,666b5f73dbba3f0cd916b177,666c70447365c4a932ef8fae,,,,,,,,,,,,,,,,,,,,,,,,,,,,,,,,,,,,,,,,,,,,494.8128,497.2121,5.017759603,2.389,0.0,4.0,4.0,8.0,1.0,song_indices/JoyToTheWorld_ThreeDogNight.csv,,,,,,,,,,,,,,,,,,,,,,,,,,,,,,,,,,,,,,,,,,,,,,,,
,,,,,620160,1,2024-06-14_09h31.56.915,experiment,2024.1.5,MacIntel,59.88023952,666b5f73dbba3f0cd916b177,666c70447365c4a932ef8fae,,,,,,,,,,,,,,,,,,,,,,,,,,,,,,,,,,,,497.2138,503.1454,0.0,0.0,0.0,0.0,1.0,SoundStimuli/Respect_ArethaFranklin_Original5S.wav,,,,,,,,,,,,,,,,,,,,,,,,,,,,,,,,,,,,,,,,,,,,,,,,,,,,,,,,,,
,,,,,620160,1,2024-06-14_09h31.56.915,experiment,2024.1.5,MacIntel,59.88023952,666b5f73dbba3f0cd916b177,666c70447365c4a932ef8fae,,,,,,,,,,,,,,,,,,,,,,,,,,,,,,,,,,,,503.1558,509.2119,0.0,1.0,1.0,1.0,1.0,SoundStimuli/Respect_ArethaFranklin_Cover5S.wav,,,,,,,,,,,,,,,,,,,,,,,,,,,,,,,,,,,,,,,,,,,,,,,,,,,,,,,,,,
,,,,,620160,1,2024-06-14_09h31.56.915,experiment,2024.1.5,MacIntel,59.88023952,666b5f73dbba3f0cd916b177,666c70447365c4a932ef8fae,,,,,,,,,,,,,,,,,,,,,,,,,,,,,,,,,,,,,,,,,,,,509.2124,510.4953,1.056629028,1.2704,0.0,5.0,5.0,0.0,1.0,song_indices/Respect_ArethaFranklin.csv,,,,,,,,,,,,,,,,,,,,,,,,,,,,,,,,,,,,,,,,,,,,,,,,
,,,,,620160,1,2024-06-14_09h31.56.915,experiment,2024.1.5,MacIntel,59.88023952,666b5f73dbba3f0cd916b177,666c70447365c4a932ef8fae,,,,,,,,,,,,,,,,,,,,,,,,,,,,,,,,,,,,510.4979,518.346,0.0,0.0,0.0,1.0,1.0,SoundStimuli/Dreams_FleetwoodMac_Cover5S.wav,,,,,,,,,,,,,,,,,,,,,,,,,,,,,,,,,,,,,,,,,,,,,,,,,,,,,,,,,,
,,,,,620160,1,2024-06-14_09h31.56.915,experiment,2024.1.5,MacIntel,59.88023952,666b5f73dbba3f0cd916b177,666c70447365c4a932ef8fae,,,,,,,,,,,,,,,,,,,,,,,,,,,,,,,,,,,,518.3561,524.8619,0.0,1.0,1.0,0.0,1.0,SoundStimuli/Dreams_FleetwoodMac_Original5S.wav,,,,,,,,,,,,,,,,,,,,,,,,,,,,,,,,,,,,,,,,,,,,,,,,,,,,,,,,,,
,,,,,620160,1,2024-06-14_09h31.56.915,experiment,2024.1.5,MacIntel,59.88023952,666b5f73dbba3f0cd916b177,666c70447365c4a932ef8fae,,,,,,,,,,,,,,,,,,,,,,,,,,,,,,,,,,,,,,,,,,,,524.8622,527.7957,5.975113932,2.9213,0.0,6.0,6.0,1.0,1.0,song_indices/Dreams_FleetwoodMac.csv,,,,,,,,,,,,,,,,,,,,,,,,,,,,,,,,,,,,,,,,,,,,,,,,
,,,,,620160,1,2024-06-14_09h31.56.915,experiment,2024.1.5,MacIntel,59.88023952,666b5f73dbba3f0cd916b177,666c70447365c4a932ef8fae,,,,,,,,,,,,,,,,,,,,,,,,,,,,,,,,,,,,527.7973,534.0117,0.0,0.0,0.0,0.0,1.0,SoundStimuli/TikTok_Kesha_Original5S.wav,,,,,,,,,,,,,,,,,,,,,,,,,,,,,,,,,,,,,,,,,,,,,,,,,,,,,,,,,,
,,,,,620160,1,2024-06-14_09h31.56.915,experiment,2024.1.5,MacIntel,59.88023952,666b5f73dbba3f0cd916b177,666c70447365c4a932ef8fae,,,,,,,,,,,,,,,,,,,,,,,,,,,,,,,,,,,,534.0223,541.5447,0.0,1.0,1.0,1.0,1.0,SoundStimuli/TikTok_Kesha_Cover5S.wav,,,,,,,,,,,,,,,,,,,,,,,,,,,,,,,,,,,,,,,,,,,,,,,,,,,,,,,,,,
,,,,,620160,1,2024-06-14_09h31.56.915,experiment,2024.1.5,MacIntel,59.88023952,666b5f73dbba3f0cd916b177,666c70447365c4a932ef8fae,,,,,,,,,,,,,,,,,,,,,,,,,,,,,,,,,,,,,,,,,,,,541.5448,543.8445,3.016200358,2.2876,0.0,7.0,7.0,3.0,1.0,song_indices/TikTok_Kesha.csv,,,,,,,,,,,,,,,,,,,,,,,,,,,,,,,,,,,,,,,,,,,,,,,,
,,,,,620160,1,2024-06-14_09h31.56.915,experiment,2024.1.5,MacIntel,59.88023952,666b5f73dbba3f0cd916b177,666c70447365c4a932ef8fae,,,,,,,,,,,,,,,,,,,,,,,,,,,,,,,,,,,,543.8451,549.3114,0.0,0.0,0.0,1.0,1.0,SoundStimuli/HowDoILive_LeAnnRimes_Cover5S.wav,,,,,,,,,,,,,,,,,,,,,,,,,,,,,,,,,,,,,,,,,,,,,,,,,,,,,,,,,,
,,,,,620160,1,2024-06-14_09h31.56.915,experiment,2024.1.5,MacIntel,59.88023952,666b5f73dbba3f0cd916b177,666c70447365c4a932ef8fae,,,,,,,,,,,,,,,,,,,,,,,,,,,,,,,,,,,,549.3228,555.3443,0.0,1.0,1.0,0.0,1.0,SoundStimuli/HowDoILive_LeAnnRimes_Original5S.wav,,,,,,,,,,,,,,,,,,,,,,,,,,,,,,,,,,,,,,,,,,,,,,,,,,,,,,,,,,
,,,,,620160,1,2024-06-14_09h31.56.915,experiment,2024.1.5,MacIntel,59.88023952,666b5f73dbba3f0cd916b177,666c70447365c4a932ef8fae,,,,,,,,,,,,,,,,,,,,,,,,,,,,,,,,,,,,,,,,,,,,555.3444,557.6944,6.064765625,2.3369,0.0,8.0,8.0,17.0,1.0,song_indices/HowDoILive_LeAnnRimes.csv,,,,,,,,,,,,,,,,,,,,,,,,,,,,,,,,,,,,,,,,,,,,,,,,
,,,,,620160,1,2024-06-14_09h31.56.915,experiment,2024.1.5,MacIntel,59.88023952,666b5f73dbba3f0cd916b177,666c70447365c4a932ef8fae,,,,,,,,,,,,,,,,,,,,,,,,,,,,,,,,,,,,557.695,563.4111,0.0,0.0,0.0,1.0,1.0,SoundStimuli/Levitating_DuaLipa_Cover5S.wav,,,,,,,,,,,,,,,,,,,,,,,,,,,,,,,,,,,,,,,,,,,,,,,,,,,,,,,,,,
,,,,,620160,1,2024-06-14_09h31.56.915,experiment,2024.1.5,MacIntel,59.88023952,666b5f73dbba3f0cd916b177,666c70447365c4a932ef8fae,,,,,,,,,,,,,,,,,,,,,,,,,,,,,,,,,,,,563.4211,569.4283,0.0,1.0,1.0,0.0,1.0,SoundStimuli/Levitating_DuaLipa_Original5S.wav,,,,,,,,,,,,,,,,,,,,,,,,,,,,,,,,,,,,,,,,,,,,,,,,,,,,,,,,,,
,,,,,620160,1,2024-06-14_09h31.56.915,experiment,2024.1.5,MacIntel,59.88023952,666b5f73dbba3f0cd916b177,666c70447365c4a932ef8fae,,,,,,,,,,,,,,,,,,,,,,,,,,,,,,,,,,,,,,,,,,,,569.4283,570.8113,6.064765625,1.3704,0.0,9.0,9.0,10.0,1.0,song_indices/Levitating_DuaLipa.csv,,,,,,,,,,,,,,,,,,,,,,,,,,,,,,,,,,,,,,,,,,,,,,,,
,,,,,620160,1,2024-06-14_09h31.56.915,experiment,2024.1.5,MacIntel,59.88023952,666b5f73dbba3f0cd916b177,666c70447365c4a932ef8fae,,,,,,,,,,,,,,,,,,,,,,,,,,,,,,,,,,,,570.8118,576.9109,0.0,0.0,0.0,0.0,1.0,SoundStimuli/UnbreakMyHeart_ToniBraxton_Original5S.wav,,,,,,,,,,,,,,,,,,,,,,,,,,,,,,,,,,,,,,,,,,,,,,,,,,,,,,,,,,
,,,,,620160,1,2024-06-14_09h31.56.915,experiment,2024.1.5,MacIntel,59.88023952,666b5f73dbba3f0cd916b177,666c70447365c4a932ef8fae,,,,,,,,,,,,,,,,,,,,,,,,,,,,,,,,,,,,576.9214,580.8946,0.0,1.0,1.0,1.0,1.0,SoundStimuli/UnbreakMyHeart_ToniBraxton_Cover5S.wav,,,,,,,,,,,,,,,,,,,,,,,,,,,,,,,,,,,,,,,,,,,,,,,,,,,,,,,,,,
,,,,,620160,1,2024-06-14_09h31.56.915,experiment,2024.1.5,MacIntel,59.88023952,666b5f73dbba3f0cd916b177,666c70447365c4a932ef8fae,,,,,,,,,,,,,,,,,,,,,,,,,,,,,,,,,,,,,,,,,,,,580.8949,582.9469,1.991832275,2.0368,0.0,10.0,10.0,16.0,1.0,song_indices/UnbreakMyHeart_ToniBraxton.csv,,,,,,,,,,,,,,,,,,,,,,,,,,,,,,,,,,,,,,,,,,,,,,,,
,,,,,620160,1,2024-06-14_09h31.56.915,experiment,2024.1.5,MacIntel,59.88023952,666b5f73dbba3f0cd916b177,666c70447365c4a932ef8fae,,,,,,,,,,,,,,,,,,,,,,,,,,,,,,,,,,,,582.9479,590.044,0.0,0.0,0.0,1.0,1.0,SoundStimuli/BlurredLines_RobinThicke_Cover5S.wav,,,,,,,,,,,,,,,,,,,,,,,,,,,,,,,,,,,,,,,,,,,,,,,,,,,,,,,,,,
,,,,,620160,1,2024-06-14_09h31.56.915,experiment,2024.1.5,MacIntel,59.88023952,666b5f73dbba3f0cd916b177,666c70447365c4a932ef8fae,,,,,,,,,,,,,,,,,,,,,,,,,,,,,,,,,,,,590.0527,596.8117,0.0,1.0,1.0,0.0,1.0,SoundStimuli/BlurredLines_RobinThicke_Original5S.wav,,,,,,,,,,,,,,,,,,,,,,,,,,,,,,,,,,,,,,,,,,,,,,,,,,,,,,,,,,
,,,,,620160,1,2024-06-14_09h31.56.915,experiment,2024.1.5,MacIntel,59.88023952,666b5f73dbba3f0cd916b177,666c70447365c4a932ef8fae,,,,,,,,,,,,,,,,,,,,,,,,,,,,,,,,,,,,,,,,,,,,596.8118,598.3774,6.995671387,1.5545,0.0,11.0,11.0,9.0,1.0,song_indices/BlurredLines_RobinThicke.csv,,,,,,,,,,,,,,,,,,,,,,,,,,,,,,,,,,,,,,,,,,,,,,,,
,,,,,620160,1,2024-06-14_09h31.56.915,experiment,2024.1.5,MacIntel,59.88023952,666b5f73dbba3f0cd916b177,666c70447365c4a932ef8fae,,,,,,,,,,,,,,,,,,,,,,,,,,,,,,,,,,,,598.3781,605.4439,0.0,0.0,0.0,1.0,1.0,SoundStimuli/ComeAndGetYourLove_Redbone_Cover5S.wav,,,,,,,,,,,,,,,,,,,,,,,,,,,,,,,,,,,,,,,,,,,,,,,,,,,,,,,,,,
,,,,,620160,1,2024-06-14_09h31.56.915,experiment,2024.1.5,MacIntel,59.88023952,666b5f73dbba3f0cd916b177,666c70447365c4a932ef8fae,,,,,,,,,,,,,,,,,,,,,,,,,,,,,,,,,,,,605.4528,611.5439,0.0,1.0,1.0,0.0,1.0,SoundStimuli/ComeAndGetYourLove_Redbone_Original5S.wav,,,,,,,,,,,,,,,,,,,,,,,,,,,,,,,,,,,,,,,,,,,,,,,,,,,,,,,,,,
,,,,,620160,1,2024-06-14_09h31.56.915,experiment,2024.1.5,MacIntel,59.88023952,666b5f73dbba3f0cd916b177,666c70447365c4a932ef8fae,,,,,,,,,,,,,,,,,,,,,,,,,,,,,,,,,,,,,,,,,,,,611.544,612.4131,6.974006348,0.8545,0.0,12.0,12.0,22.0,1.0,song_indices/ComeAndGetYourLove_Redbone.csv,,,,,,,,,,,,,,,,,,,,,,,,,,,,,,,,,,,,,,,,,,,,,,,,
,,,,,620160,1,2024-06-14_09h31.56.915,experiment,2024.1.5,MacIntel,59.88023952,666b5f73dbba3f0cd916b177,666c70447365c4a932ef8fae,,,,,,,,,,,,,,,,,,,,,,,,,,,,,,,,,,,,612.4138,619.4281,0.0,0.0,0.0,0.0,1.0,SoundStimuli/PokerFace_LadyGaga_Original5S.wav,,,,,,,,,,,,,,,,,,,,,,,,,,,,,,,,,,,,,,,,,,,,,,,,,,,,,,,,,,
,,,,,620160,1,2024-06-14_09h31.56.915,experiment,2024.1.5,MacIntel,59.88023952,666b5f73dbba3f0cd916b177,666c70447365c4a932ef8fae,,,,,,,,,,,,,,,,,,,,,,,,,,,,,,,,,,,,619.4375,626.2765,0.0,1.0,1.0,1.0,1.0,SoundStimuli/PokerFace_LadyGaga_Cover5S.wav,,,,,,,,,,,,,,,,,,,,,,,,,,,,,,,,,,,,,,,,,,,,,,,,,,,,,,,,,,
,,,,,620160,1,2024-06-14_09h31.56.915,experiment,2024.1.5,MacIntel,59.88023952,666b5f73dbba3f0cd916b177,666c70447365c4a932ef8fae,,,,,,,,,,,,,,,,,,,,,,,,,,,,,,,,,,,,,,,,,,,,626.2767,628.2776,2.996253662,1.9871,0.0,13.0,13.0,23.0,1.0,song_indices/PokerFace_LadyGaga.csv,,,,,,,,,,,,,,,,,,,,,,,,,,,,,,,,,,,,,,,,,,,,,,,,
,,,,,620160,1,2024-06-14_09h31.56.915,experiment,2024.1.5,MacIntel,59.88023952,666b5f73dbba3f0cd916b177,666c70447365c4a932ef8fae,,,,,,,,,,,,,,,,,,,,,,,,,,,,,,,,,,,,628.2782,634.5773,0.0,0.0,0.0,0.0,1.0,SoundStimuli/LetsGetItOn_MarvinGaye_Original5S.wav,,,,,,,,,,,,,,,,,,,,,,,,,,,,,,,,,,,,,,,,,,,,,,,,,,,,,,,,,,
,,,,,620160,1,2024-06-14_09h31.56.915,experiment,2024.1.5,MacIntel,59.88023952,666b5f73dbba3f0cd916b177,666c70447365c4a932ef8fae,,,,,,,,,,,,,,,,,,,,,,,,,,,,,,,,,,,,634.5876,641.2272,0.0,1.0,1.0,1.0,1.0,SoundStimuli/LetsGetItOn_MarvinGaye_Cover5S.wav,,,,,,,,,,,,,,,,,,,,,,,,,,,,,,,,,,,,,,,,,,,,,,,,,,,,,,,,,,
,,,,,620160,1,2024-06-14_09h31.56.915,experiment,2024.1.5,MacIntel,59.88023952,666b5f73dbba3f0cd916b177,666c70447365c4a932ef8fae,,,,,,,,,,,,,,,,,,,,,,,,,,,,,,,,,,,,,,,,,,,,641.2273,644.9769,1.052023315,3.7289,0.0,14.0,14.0,20.0,1.0,song_indices/LetsGetItOn_MarvinGaye.csv,,,,,,,,,,,,,,,,,,,,,,,,,,,,,,,,,,,,,,,,,,,,,,,,
,,,,,620160,1,2024-06-14_09h31.56.915,experiment,2024.1.5,MacIntel,59.88023952,666b5f73dbba3f0cd916b177,666c70447365c4a932ef8fae,,,,,,,,,,,,,,,,,,,,,,,,,,,,,,,,,,,,644.9776,651.0432,0.0,0.0,0.0,0.0,1.0,SoundStimuli/TossinAndTurnin_BobbyLewis_Original5S.wav,,,,,,,,,,,,,,,,,,,,,,,,,,,,,,,,,,,,,,,,,,,,,,,,,,,,,,,,,,
,,,,,620160,1,2024-06-14_09h31.56.915,experiment,2024.1.5,MacIntel,59.88023952,666b5f73dbba3f0cd916b177,666c70447365c4a932ef8fae,,,,,,,,,,,,,,,,,,,,,,,,,,,,,,,,,,,,651.0523,657.1606,0.0,1.0,1.0,1.0,1.0,SoundStimuli/TossinAndTurnin_BobbyLewis_Cover5S.wav,,,,,,,,,,,,,,,,,,,,,,,,,,,,,,,,,,,,,,,,,,,,,,,,,,,,,,,,,,
,,,,,620160,1,2024-06-14_09h31.56.915,experiment,2024.1.5,MacIntel,59.88023952,666b5f73dbba3f0cd916b177,666c70447365c4a932ef8fae,,,,,,,,,,,,,,,,,,,,,,,,,,,,,,,,,,,,,,,,,,,,657.1607,660.5272,1.007012329,3.3526,0.0,15.0,15.0,13.0,1.0,song_indices/TossinAndTurnin_BobbyLewis.csv,,,,,,,,,,,,,,,,,,,,,,,,,,,,,,,,,,,,,,,,,,,,,,,,
,,,,,620160,1,2024-06-14_09h31.56.915,experiment,2024.1.5,MacIntel,59.88023952,666b5f73dbba3f0cd916b177,666c70447365c4a932ef8fae,,,,,,,,,,,,,,,,,,,,,,,,,,,,,,,,,,,,660.5283,666.412,0.0,0.0,0.0,0.0,1.0,SoundStimuli/Irreplaceable_Beyonce_Original5S.wav,,,,,,,,,,,,,,,,,,,,,,,,,,,,,,,,,,,,,,,,,,,,,,,,,,,,,,,,,,
,,,,,620160,1,2024-06-14_09h31.56.915,experiment,2024.1.5,MacIntel,59.88023952,666b5f73dbba3f0cd916b177,666c70447365c4a932ef8fae,,,,,,,,,,,,,,,,,,,,,,,,,,,,,,,,,,,,666.4211,672.3272,0.0,1.0,1.0,1.0,1.0,SoundStimuli/Irreplaceable_Beyonce_Cover5S.wav,,,,,,,,,,,,,,,,,,,,,,,,,,,,,,,,,,,,,,,,,,,,,,,,,,,,,,,,,,
,,,,,620160,1,2024-06-14_09h31.56.915,experiment,2024.1.5,MacIntel,59.88023952,666b5f73dbba3f0cd916b177,666c70447365c4a932ef8fae,,,,,,,,,,,,,,,,,,,,,,,,,,,,,,,,,,,,,,,,,,,,672.3273,673.6426,3.029299316,1.3022,0.0,16.0,16.0,19.0,1.0,song_indices/Irreplaceable_Beyonce.csv,,,,,,,,,,,,,,,,,,,,,,,,,,,,,,,,,,,,,,,,,,,,,,,,
,,,,,620160,1,2024-06-14_09h31.56.915,experiment,2024.1.5,MacIntel,59.88023952,666b5f73dbba3f0cd916b177,666c70447365c4a932ef8fae,,,,,,,,,,,,,,,,,,,,,,,,,,,,,,,,,,,,673.6432,678.9436,0.0,0.0,0.0,1.0,1.0,SoundStimuli/Superstition_StevieWonder_Cover5S.wav,,,,,,,,,,,,,,,,,,,,,,,,,,,,,,,,,,,,,,,,,,,,,,,,,,,,,,,,,,
,,,,,620160,1,2024-06-14_09h31.56.915,experiment,2024.1.5,MacIntel,59.88023952,666b5f73dbba3f0cd916b177,666c70447365c4a932ef8fae,,,,,,,,,,,,,,,,,,,,,,,,,,,,,,,,,,,,678.9536,685.094,0.0,1.0,1.0,0.0,1.0,SoundStimuli/Superstition_StevieWonder_Original5S.wav,,,,,,,,,,,,,,,,,,,,,,,,,,,,,,,,,,,,,,,,,,,,,,,,,,,,,,,,,,
,,,,,620160,1,2024-06-14_09h31.56.915,experiment,2024.1.5,MacIntel,59.88023952,666b5f73dbba3f0cd916b177,666c70447365c4a932ef8fae,,,,,,,,,,,,,,,,,,,,,,,,,,,,,,,,,,,,,,,,,,,,685.0941,687.326,1.003133545,2.2192,0.0,17.0,17.0,15.0,1.0,song_indices/Superstition_StevieWonder.csv,,,,,,,,,,,,,,,,,,,,,,,,,,,,,,,,,,,,,,,,,,,,,,,,
,,,,,620160,1,2024-06-14_09h31.56.915,experiment,2024.1.5,MacIntel,59.88023952,666b5f73dbba3f0cd916b177,666c70447365c4a932ef8fae,,,,,,,,,,,,,,,,,,,,,,,,,,,,,,,,,,,,687.3268,694.7594,0.0,0.0,0.0,0.0,1.0,SoundStimuli/Kiss_Prince_Original5S.wav,,,,,,,,,,,,,,,,,,,,,,,,,,,,,,,,,,,,,,,,,,,,,,,,,,,,,,,,,,
,,,,,620160,1,2024-06-14_09h31.56.915,experiment,2024.1.5,MacIntel,59.88023952,666b5f73dbba3f0cd916b177,666c70447365c4a932ef8fae,,,,,,,,,,,,,,,,,,,,,,,,,,,,,,,,,,,,694.77,701.0423,0.0,1.0,1.0,1.0,1.0,SoundStimuli/Kiss_Prince_Cover5S.wav,,,,,,,,,,,,,,,,,,,,,,,,,,,,,,,,,,,,,,,,,,,,,,,,,,,,,,,,,,
,,,,,620160,1,2024-06-14_09h31.56.915,experiment,2024.1.5,MacIntel,59.88023952,666b5f73dbba3f0cd916b177,666c70447365c4a932ef8fae,,,,,,,,,,,,,,,,,,,,,,,,,,,,,,,,,,,,,,,,,,,,701.0423,702.9422,5.028747965,1.889,0.0,18.0,18.0,14.0,1.0,song_indices/Kiss_Prince.csv,,,,,,,,,,,,,,,,,,,,,,,,,,,,,,,,,,,,,,,,,,,,,,,,
,,,,,620160,1,2024-06-14_09h31.56.915,experiment,2024.1.5,MacIntel,59.88023952,666b5f73dbba3f0cd916b177,666c70447365c4a932ef8fae,,,,,,,,,,,,,,,,,,,,,,,,,,,,,,,,,,,,702.9429,708.4591,0.0,0.0,0.0,1.0,1.0,SoundStimuli/LeFreak_Chic_Cover5S.wav,,,,,,,,,,,,,,,,,,,,,,,,,,,,,,,,,,,,,,,,,,,,,,,,,,,,,,,,,,
,,,,,620160,1,2024-06-14_09h31.56.915,experiment,2024.1.5,MacIntel,59.88023952,666b5f73dbba3f0cd916b177,666c70447365c4a932ef8fae,,,,,,,,,,,,,,,,,,,,,,,,,,,,,,,,,,,,708.4692,714.4921,0.0,1.0,1.0,0.0,1.0,SoundStimuli/LeFreak_Chic_Original5S.wav,,,,,,,,,,,,,,,,,,,,,,,,,,,,,,,,,,,,,,,,,,,,,,,,,,,,,,,,,,
,,,,,620160,1,2024-06-14_09h31.56.915,experiment,2024.1.5,MacIntel,59.88023952,666b5f73dbba3f0cd916b177,666c70447365c4a932ef8fae,,,,,,,,,,,,,,,,,,,,,,,,,,,,,,,,,,,,,,,,,,,,714.4921,717.259,6.965570475,2.7528,0.0,19.0,19.0,11.0,1.0,song_indices/LeFreak_Chic.csv,,,,,,,,,,,,,,,,,,,,,,,,,,,,,,,,,,,,,,,,,,,,,,,,
,,,,,620160,1,2024-06-14_09h31.56.915,experiment,2024.1.5,MacIntel,59.88023952,666b5f73dbba3f0cd916b177,666c70447365c4a932ef8fae,,,,,,,,,,,,,,,,,,,,,,,,,,,,,,,,,,,,717.2598,724.0589,0.0,0.0,0.0,1.0,1.0,SoundStimuli/BlindingLights_TheWeeknd_Cover5S.wav,,,,,,,,,,,,,,,,,,,,,,,,,,,,,,,,,,,,,,,,,,,,,,,,,,,,,,,,,,
,,,,,620160,1,2024-06-14_09h31.56.915,experiment,2024.1.5,MacIntel,59.88023952,666b5f73dbba3f0cd916b177,666c70447365c4a932ef8fae,,,,,,,,,,,,,,,,,,,,,,,,,,,,,,,,,,,,724.0694,730.5422,0.0,1.0,1.0,0.0,1.0,SoundStimuli/BlindingLights_TheWeeknd_Original5S.wav,,,,,,,,,,,,,,,,,,,,,,,,,,,,,,,,,,,,,,,,,,,,,,,,,,,,,,,,,,
,,,,,620160,1,2024-06-14_09h31.56.915,experiment,2024.1.5,MacIntel,59.88023952,666b5f73dbba3f0cd916b177,666c70447365c4a932ef8fae,,,,,,,,,,,,,,,,,,,,,,,,,,,,,,,,,,,,,,,,,,,,730.5423,734.6754,4.044385173,4.1204,0.0,20.0,20.0,21.0,1.0,song_indices/BlindingLights_TheWeeknd.csv,,,,,,,,,,,,,,,,,,,,,,,,,,,,,,,,,,,,,,,,,,,,,,,,
,,,,,620160,1,2024-06-14_09h31.56.915,experiment,2024.1.5,MacIntel,59.88023952,666b5f73dbba3f0cd916b177,666c70447365c4a932ef8fae,,,,,,,,,,,,,,,,,,,,,,,,,,,,,,,,,,,,734.676,741.075,0.0,0.0,0.0,0.0,1.0,SoundStimuli/FlashdanceWhatAFeeling_IreneCara_Original5S.wav,,,,,,,,,,,,,,,,,,,,,,,,,,,,,,,,,,,,,,,,,,,,,,,,,,,,,,,,,,
,,,,,620160,1,2024-06-14_09h31.56.915,experiment,2024.1.5,MacIntel,59.88023952,666b5f73dbba3f0cd916b177,666c70447365c4a932ef8fae,,,,,,,,,,,,,,,,,,,,,,,,,,,,,,,,,,,,741.0845,748.3587,0.0,1.0,1.0,1.0,1.0,SoundStimuli/FlashdanceWhatAFeeling_IreneCara_Cover5S.wav,,,,,,,,,,,,,,,,,,,,,,,,,,,,,,,,,,,,,,,,,,,,,,,,,,,,,,,,,,
,,,,,620160,1,2024-06-14_09h31.56.915,experiment,2024.1.5,MacIntel,59.88023952,666b5f73dbba3f0cd916b177,666c70447365c4a932ef8fae,,,,,,,,,,,,,,,,,,,,,,,,,,,,,,,,,,,,,,,,,,,,748.3587,750.4273,3.015043945,2.0532,0.0,21.0,21.0,18.0,1.0,song_indices/FlashdanceWhatAFeeling_IreneCara.csv,,,,,,,,,,,,,,,,,,,,,,,,,,,,,,,,,,,,,,,,,,,,,,,,
,,,,,620160,1,2024-06-14_09h31.56.915,experiment,2024.1.5,MacIntel,59.88023952,666b5f73dbba3f0cd916b177,666c70447365c4a932ef8fae,,,,,,,,,,,,,,,,,,,,,,,,,,,,,,,,,,,,750.4279,756.5085,0.0,0.0,0.0,0.0,1.0,SoundStimuli/Weak_SWV_Original5S.wav,,,,,,,,,,,,,,,,,,,,,,,,,,,,,,,,,,,,,,,,,,,,,,,,,,,,,,,,,,
,,,,,620160,1,2024-06-14_09h31.56.915,experiment,2024.1.5,MacIntel,59.88023952,666b5f73dbba3f0cd916b177,666c70447365c4a932ef8fae,,,,,,,,,,,,,,,,,,,,,,,,,,,,,,,,,,,,756.5174,762.9918,0.0,1.0,1.0,1.0,1.0,SoundStimuli/Weak_SWV_Cover5S.wav,,,,,,,,,,,,,,,,,,,,,,,,,,,,,,,,,,,,,,,,,,,,,,,,,,,,,,,,,,
,,,,,620160,1,2024-06-14_09h31.56.915,experiment,2024.1.5,MacIntel,59.88023952,666b5f73dbba3f0cd916b177,666c70447365c4a932ef8fae,,,,,,,,,,,,,,,,,,,,,,,,,,,,,,,,,,,,,,,,,,,,762.9919,764.7098,4.016490072,1.7034,0.0,22.0,22.0,6.0,1.0,song_indices/Weak_SWV.csv,,,,,,,,,,,,,,,,,,,,,,,,,,,,,,,,,,,,,,,,,,,,,,,,
,,,,,620160,1,2024-06-14_09h31.56.915,experiment,2024.1.5,MacIntel,59.88023952,666b5f73dbba3f0cd916b177,666c70447365c4a932ef8fae,,,,,,,,,,,,,,,,,,,,,,,,,,,,,,,,,,,,764.7113,771.7084,0.0,0.0,0.0,1.0,1.0,SoundStimuli/Dilemma_NellyKellyRowland_Cover5S.wav,,,,,,,,,,,,,,,,,,,,,,,,,,,,,,,,,,,,,,,,,,,,,,,,,,,,,,,,,,
,,,,,620160,1,2024-06-14_09h31.56.915,experiment,2024.1.5,MacIntel,59.88023952,666b5f73dbba3f0cd916b177,666c70447365c4a932ef8fae,,,,,,,,,,,,,,,,,,,,,,,,,,,,,,,,,,,,771.7186,777.9099,0.0,1.0,1.0,0.0,1.0,SoundStimuli/Dilemma_NellyKellyRowland_Original5S.wav,,,,,,,,,,,,,,,,,,,,,,,,,,,,,,,,,,,,,,,,,,,,,,,,,,,,,,,,,,
,,,,,620160,1,2024-06-14_09h31.56.915,experiment,2024.1.5,MacIntel,59.88023952,666b5f73dbba3f0cd916b177,666c70447365c4a932ef8fae,,,,,,,,,,,,,,,,,,,,,,,,,,,,,,,,,,,,,,,,,,,,777.9103,781.6082,6.99552653,3.6862,0.0,23.0,23.0,2.0,1.0,song_indices/Dilemma_NellyKellyRowland.csv,,,,,,,,,,,,,,,,,,,,,,,,,,,,,,,,,,,,,,,,,,,,,,,,
,,,,,620160,1,2024-06-14_09h31.56.915,experiment,2024.1.5,MacIntel,59.88023952,666b5f73dbba3f0cd916b177,666c70447365c4a932ef8fae,,,,,,,,,,,,,,,,,,,,,,,,,,,,,,,,,,,,,,,,,,,,,,,,,,,,,,781.6083,782.6915,space,1.0658,,0.0,1.0,1.0,2.0,1.0,choose_song_b3.csv,,,,,,,,,,,,,,,,,,,,,,,,,,,,,,,,,,,,,
,,,,,620160,1,2024-06-14_09h31.56.915,experiment,2024.1.5,MacIntel,59.88023952,666b5f73dbba3f0cd916b177,666c70447365c4a932ef8fae,,,,,,,,,,,,,,,,,,,,,,,,,,,,,,,,,,,,782.6937,789.9254,0.0,0.0,0.0,0.0,1.0,SoundStimuli/UptownFunk_MarkRonson_Original5S.wav,,,,,,,,,,,,,,,,,,,,,,,,,,,,,,,,,,,,,,,,,,,,,,,,,,,,,,,,,,
,,,,,620160,1,2024-06-14_09h31.56.915,experiment,2024.1.5,MacIntel,59.88023952,666b5f73dbba3f0cd916b177,666c70447365c4a932ef8fae,,,,,,,,,,,,,,,,,,,,,,,,,,,,,,,,,,,,789.9358,796.9604,0.0,1.0,1.0,1.0,1.0,SoundStimuli/UptownFunk_MarkRonson_Cover5S.wav,,,,,,,,,,,,,,,,,,,,,,,,,,,,,,,,,,,,,,,,,,,,,,,,,,,,,,,,,,
,,,,,620160,1,2024-06-14_09h31.56.915,experiment,2024.1.5,MacIntel,59.88023952,666b5f73dbba3f0cd916b177,666c70447365c4a932ef8fae,,,,,,,,,,,,,,,,,,,,,,,,,,,,,,,,,,,,,,,,,,,,796.9605,797.8416,6.978732096,0.8685,0.0,0.0,0.0,15.0,1.0,song_indices/UptownFunk_MarkRonson.csv,,,,,,,,,,,,,,,,,,,,,,,,,,,,,,,,,,,,,,,,,,,,,,,,
,,,,,620160,1,2024-06-14_09h31.56.915,experiment,2024.1.5,MacIntel,59.88023952,666b5f73dbba3f0cd916b177,666c70447365c4a932ef8fae,,,,,,,,,,,,,,,,,,,,,,,,,,,,,,,,,,,,797.8439,804.1412,0.0,0.0,0.0,0.0,1.0,SoundStimuli/HeyYa_Outkast_Original5S.wav,,,,,,,,,,,,,,,,,,,,,,,,,,,,,,,,,,,,,,,,,,,,,,,,,,,,,,,,,,
,,,,,620160,1,2024-06-14_09h31.56.915,experiment,2024.1.5,MacIntel,59.88023952,666b5f73dbba3f0cd916b177,666c70447365c4a932ef8fae,,,,,,,,,,,,,,,,,,,,,,,,,,,,,,,,,,,,804.1516,813.0574,0.0,1.0,1.0,1.0,1.0,SoundStimuli/HeyYa_Outkast_Cover5S.wav,,,,,,,,,,,,,,,,,,,,,,,,,,,,,,,,,,,,,,,,,,,,,,,,,,,,,,,,,,
,,,,,620160,1,2024-06-14_09h31.56.915,experiment,2024.1.5,MacIntel,59.88023952,666b5f73dbba3f0cd916b177,666c70447365c4a932ef8fae,,,,,,,,,,,,,,,,,,,,,,,,,,,,,,,,,,,,,,,,,,,,813.0575,814.3934,6.978732096,1.321,0.0,1.0,1.0,22.0,1.0,song_indices/HeyYa_Outkast.csv,,,,,,,,,,,,,,,,,,,,,,,,,,,,,,,,,,,,,,,,,,,,,,,,
,,,,,620160,1,2024-06-14_09h31.56.915,experiment,2024.1.5,MacIntel,59.88023952,666b5f73dbba3f0cd916b177,666c70447365c4a932ef8fae,,,,,,,,,,,,,,,,,,,,,,,,,,,,,,,,,,,,814.3942,820.6077,0.0,0.0,0.0,1.0,1.0,SoundStimuli/NoOne_AliciaKeys_Cover5S.wav,,,,,,,,,,,,,,,,,,,,,,,,,,,,,,,,,,,,,,,,,,,,,,,,,,,,,,,,,,
,,,,,620160,1,2024-06-14_09h31.56.915,experiment,2024.1.5,MacIntel,59.88023952,666b5f73dbba3f0cd916b177,666c70447365c4a932ef8fae,,,,,,,,,,,,,,,,,,,,,,,,,,,,,,,,,,,,820.6179,828.3411,0.0,1.0,1.0,0.0,1.0,SoundStimuli/NoOne_AliciaKeys_Original5S.wav,,,,,,,,,,,,,,,,,,,,,,,,,,,,,,,,,,,,,,,,,,,,,,,,,,,,,,,,,,
,,,,,620160,1,2024-06-14_09h31.56.915,experiment,2024.1.5,MacIntel,59.88023952,666b5f73dbba3f0cd916b177,666c70447365c4a932ef8fae,,,,,,,,,,,,,,,,,,,,,,,,,,,,,,,,,,,,,,,,,,,,828.3411,831.191,2.920327555,2.8359,0.0,2.0,2.0,19.0,1.0,song_indices/NoOne_AliciaKeys.csv,,,,,,,,,,,,,,,,,,,,,,,,,,,,,,,,,,,,,,,,,,,,,,,,
,,,,,620160,1,2024-06-14_09h31.56.915,experiment,2024.1.5,MacIntel,59.88023952,666b5f73dbba3f0cd916b177,666c70447365c4a932ef8fae,,,,,,,,,,,,,,,,,,,,,,,,,,,,,,,,,,,,831.1924,837.7407,0.0,0.0,0.0,0.0,1.0,SoundStimuli/CrazyInLove_BeyonceFtJayZ_Original5S.wav,,,,,,,,,,,,,,,,,,,,,,,,,,,,,,,,,,,,,,,,,,,,,,,,,,,,,,,,,,
,,,,,620160,1,2024-06-14_09h31.56.915,experiment,2024.1.5,MacIntel,59.88023952,666b5f73dbba3f0cd916b177,666c70447365c4a932ef8fae,,,,,,,,,,,,,,,,,,,,,,,,,,,,,,,,,,,,837.7519,847.9908,0.0,1.0,1.0,1.0,1.0,SoundStimuli/CrazyInLove_BeyonceFtJayZ_Cover5S.wav,,,,,,,,,,,,,,,,,,,,,,,,,,,,,,,,,,,,,,,,,,,,,,,,,,,,,,,,,,
,,,,,620160,1,2024-06-14_09h31.56.915,experiment,2024.1.5,MacIntel,59.88023952,666b5f73dbba3f0cd916b177,666c70447365c4a932ef8fae,,,,,,,,,,,,,,,,,,,,,,,,,,,,,,,,,,,,,,,,,,,,847.9909,850.1402,1.043136597,2.1356,0.0,3.0,3.0,3.0,1.0,song_indices/CrazyInLove_BeyonceFtJayZ.csv,,,,,,,,,,,,,,,,,,,,,,,,,,,,,,,,,,,,,,,,,,,,,,,,
,,,,,620160,1,2024-06-14_09h31.56.915,experiment,2024.1.5,MacIntel,59.88023952,666b5f73dbba3f0cd916b177,666c70447365c4a932ef8fae,,,,,,,,,,,,,,,,,,,,,,,,,,,,,,,,,,,,850.1418,856.2238,0.0,0.0,0.0,0.0,1.0,SoundStimuli/GetUrFreakOn_MissyElliot_Original5S.wav,,,,,,,,,,,,,,,,,,,,,,,,,,,,,,,,,,,,,,,,,,,,,,,,,,,,,,,,,,
,,,,,620160,1,2024-06-14_09h31.56.915,experiment,2024.1.5,MacIntel,59.88023952,666b5f73dbba3f0cd916b177,666c70447365c4a932ef8fae,,,,,,,,,,,,,,,,,,,,,,,,,,,,,,,,,,,,856.2353,862.8075,0.0,1.0,1.0,1.0,1.0,SoundStimuli/GetUrFreakOn_MissyElliot_Cover5S.wav,,,,,,,,,,,,,,,,,,,,,,,,,,,,,,,,,,,,,,,,,,,,,,,,,,,,,,,,,,
,,,,,620160,1,2024-06-14_09h31.56.915,experiment,2024.1.5,MacIntel,59.88023952,666b5f73dbba3f0cd916b177,666c70447365c4a932ef8fae,,,,,,,,,,,,,,,,,,,,,,,,,,,,,,,,,,,,,,,,,,,,862.8079,864.4906,1.017817179,1.6678,0.0,4.0,4.0,18.0,1.0,song_indices/GetUrFreakOn_MissyElliot.csv,,,,,,,,,,,,,,,,,,,,,,,,,,,,,,,,,,,,,,,,,,,,,,,,
,,,,,620160,1,2024-06-14_09h31.56.915,experiment,2024.1.5,MacIntel,59.88023952,666b5f73dbba3f0cd916b177,666c70447365c4a932ef8fae,,,,,,,,,,,,,,,,,,,,,,,,,,,,,,,,,,,,864.4916,870.5601,0.0,0.0,0.0,0.0,1.0,SoundStimuli/GoodGollyMissMolly_LittleRichard_Original5S.wav,,,,,,,,,,,,,,,,,,,,,,,,,,,,,,,,,,,,,,,,,,,,,,,,,,,,,,,,,,
,,,,,620160,1,2024-06-14_09h31.56.915,experiment,2024.1.5,MacIntel,59.88023952,666b5f73dbba3f0cd916b177,666c70447365c4a932ef8fae,,,,,,,,,,,,,,,,,,,,,,,,,,,,,,,,,,,,870.5711,876.9236,0.0,1.0,1.0,1.0,1.0,SoundStimuli/GoodGollyMissMolly_LittleRichard_Cover5S.wav,,,,,,,,,,,,,,,,,,,,,,,,,,,,,,,,,,,,,,,,,,,,,,,,,,,,,,,,,,
,,,,,620160,1,2024-06-14_09h31.56.915,experiment,2024.1.5,MacIntel,59.88023952,666b5f73dbba3f0cd916b177,666c70447365c4a932ef8fae,,,,,,,,,,,,,,,,,,,,,,,,,,,,,,,,,,,,,,,,,,,,876.9238,878.7069,1.989015706,1.7684,0.0,5.0,5.0,0.0,1.0,song_indices/GoodGollyMissMolly_LittleRichard.csv,,,,,,,,,,,,,,,,,,,,,,,,,,,,,,,,,,,,,,,,,,,,,,,,
,,,,,620160,1,2024-06-14_09h31.56.915,experiment,2024.1.5,MacIntel,59.88023952,666b5f73dbba3f0cd916b177,666c70447365c4a932ef8fae,,,,,,,,,,,,,,,,,,,,,,,,,,,,,,,,,,,,878.7081,884.8235,0.0,0.0,0.0,1.0,1.0,SoundStimuli/NoScrubs_TLC_Cover5S.wav,,,,,,,,,,,,,,,,,,,,,,,,,,,,,,,,,,,,,,,,,,,,,,,,,,,,,,,,,,
,,,,,620160,1,2024-06-14_09h31.56.915,experiment,2024.1.5,MacIntel,59.88023952,666b5f73dbba3f0cd916b177,666c70447365c4a932ef8fae,,,,,,,,,,,,,,,,,,,,,,,,,,,,,,,,,,,,884.8352,891.0235,0.0,1.0,1.0,0.0,1.0,SoundStimuli/NoScrubs_TLC_Original5S.wav,,,,,,,,,,,,,,,,,,,,,,,,,,,,,,,,,,,,,,,,,,,,,,,,,,,,,,,,,,
,,,,,620160,1,2024-06-14_09h31.56.915,experiment,2024.1.5,MacIntel,59.88023952,666b5f73dbba3f0cd916b177,666c70447365c4a932ef8fae,,,,,,,,,,,,,,,,,,,,,,,,,,,,,,,,,,,,,,,,,,,,891.0237,893.0071,5.969748535,1.9694,0.0,6.0,6.0,14.0,1.0,song_indices/NoScrubs_TLC.csv,,,,,,,,,,,,,,,,,,,,,,,,,,,,,,,,,,,,,,,,,,,,,,,,
,,,,,620160,1,2024-06-14_09h31.56.915,experiment,2024.1.5,MacIntel,59.88023952,666b5f73dbba3f0cd916b177,666c70447365c4a932ef8fae,,,,,,,,,,,,,,,,,,,,,,,,,,,,,,,,,,,,893.0079,898.7735,0.0,0.0,0.0,1.0,1.0,SoundStimuli/SmellsLikeTeenSpirit_Nirvana_Cover5S.wav,,,,,,,,,,,,,,,,,,,,,,,,,,,,,,,,,,,,,,,,,,,,,,,,,,,,,,,,,,
,,,,,620160,1,2024-06-14_09h31.56.915,experiment,2024.1.5,MacIntel,59.88023952,666b5f73dbba3f0cd916b177,666c70447365c4a932ef8fae,,,,,,,,,,,,,,,,,,,,,,,,,,,,,,,,,,,,898.785,904.9732,0.0,1.0,1.0,0.0,1.0,SoundStimuli/SmellsLikeTeenSpirit_Nirvana_Original5S.wav,,,,,,,,,,,,,,,,,,,,,,,,,,,,,,,,,,,,,,,,,,,,,,,,,,,,,,,,,,
,,,,,620160,1,2024-06-14_09h31.56.915,experiment,2024.1.5,MacIntel,59.88023952,666b5f73dbba3f0cd916b177,666c70447365c4a932ef8fae,,,,,,,,,,,,,,,,,,,,,,,,,,,,,,,,,,,,,,,,,,,,904.9734,906.8065,6.965966797,1.8197,0.0,7.0,7.0,8.0,1.0,song_indices/SmellsLikeTeenSpirit_Nirvana.csv,,,,,,,,,,,,,,,,,,,,,,,,,,,,,,,,,,,,,,,,,,,,,,,,
,,,,,620160,1,2024-06-14_09h31.56.915,experiment,2024.1.5,MacIntel,59.88023952,666b5f73dbba3f0cd916b177,666c70447365c4a932ef8fae,,,,,,,,,,,,,,,,,,,,,,,,,,,,,,,,,,,,906.8075,912.8732,0.0,0.0,0.0,0.0,1.0,SoundStimuli/Stronger_KanyeWest_Original5S.wav,,,,,,,,,,,,,,,,,,,,,,,,,,,,,,,,,,,,,,,,,,,,,,,,,,,,,,,,,,
,,,,,620160,1,2024-06-14_09h31.56.915,experiment,2024.1.5,MacIntel,59.88023952,666b5f73dbba3f0cd916b177,666c70447365c4a932ef8fae,,,,,,,,,,,,,,,,,,,,,,,,,,,,,,,,,,,,912.8842,919.2094,0.0,1.0,1.0,1.0,1.0,SoundStimuli/Stronger_KanyeWest_Cover5S.wav,,,,,,,,,,,,,,,,,,,,,,,,,,,,,,,,,,,,,,,,,,,,,,,,,,,,,,,,,,
,,,,,620160,1,2024-06-14_09h31.56.915,experiment,2024.1.5,MacIntel,59.88023952,666b5f73dbba3f0cd916b177,666c70447365c4a932ef8fae,,,,,,,,,,,,,,,,,,,,,,,,,,,,,,,,,,,,,,,,,,,,919.2095,922.1736,1.027842204,2.9506,0.0,8.0,8.0,9.0,1.0,song_indices/Stronger_KanyeWest.csv,,,,,,,,,,,,,,,,,,,,,,,,,,,,,,,,,,,,,,,,,,,,,,,,
,,,,,620160,1,2024-06-14_09h31.56.915,experiment,2024.1.5,MacIntel,59.88023952,666b5f73dbba3f0cd916b177,666c70447365c4a932ef8fae,,,,,,,,,,,,,,,,,,,,,,,,,,,,,,,,,,,,922.1743,928.2396,0.0,0.0,0.0,1.0,1.0,SoundStimuli/RockWithYou_MichaelJackson_Cover5S.wav,,,,,,,,,,,,,,,,,,,,,,,,,,,,,,,,,,,,,,,,,,,,,,,,,,,,,,,,,,
,,,,,620160,1,2024-06-14_09h31.56.915,experiment,2024.1.5,MacIntel,59.88023952,666b5f73dbba3f0cd916b177,666c70447365c4a932ef8fae,,,,,,,,,,,,,,,,,,,,,,,,,,,,,,,,,,,,928.2506,934.5729,0.0,1.0,1.0,0.0,1.0,SoundStimuli/RockWithYou_MichaelJackson_Original5S.wav,,,,,,,,,,,,,,,,,,,,,,,,,,,,,,,,,,,,,,,,,,,,,,,,,,,,,,,,,,
,,,,,620160,1,2024-06-14_09h31.56.915,experiment,2024.1.5,MacIntel,59.88023952,666b5f73dbba3f0cd916b177,666c70447365c4a932ef8fae,,,,,,,,,,,,,,,,,,,,,,,,,,,,,,,,,,,,,,,,,,,,934.5734,937.3904,1.102744751,2.8014,0.0,9.0,9.0,16.0,1.0,song_indices/RockWithYou_MichaelJackson.csv,,,,,,,,,,,,,,,,,,,,,,,,,,,,,,,,,,,,,,,,,,,,,,,,
,,,,,620160,1,2024-06-14_09h31.56.915,experiment,2024.1.5,MacIntel,59.88023952,666b5f73dbba3f0cd916b177,666c70447365c4a932ef8fae,,,,,,,,,,,,,,,,,,,,,,,,,,,,,,,,,,,,937.392,943.6061,0.0,0.0,0.0,1.0,1.0,SoundStimuli/GimmeShelter_RollingStones_Cover5S.wav,,,,,,,,,,,,,,,,,,,,,,,,,,,,,,,,,,,,,,,,,,,,,,,,,,,,,,,,,,
,,,,,620160,1,2024-06-14_09h31.56.915,experiment,2024.1.5,MacIntel,59.88023952,666b5f73dbba3f0cd916b177,666c70447365c4a932ef8fae,,,,,,,,,,,,,,,,,,,,,,,,,,,,,,,,,,,,943.6194,949.706,0.0,1.0,1.0,0.0,1.0,SoundStimuli/GimmeShelter_RollingStones_Original5S.wav,,,,,,,,,,,,,,,,,,,,,,,,,,,,,,,,,,,,,,,,,,,,,,,,,,,,,,,,,,
,,,,,620160,1,2024-06-14_09h31.56.915,experiment,2024.1.5,MacIntel,59.88023952,666b5f73dbba3f0cd916b177,666c70447365c4a932ef8fae,,,,,,,,,,,,,,,,,,,,,,,,,,,,,,,,,,,,,,,,,,,,949.7062,951.0396,1.102744751,1.3168,0.0,10.0,10.0,20.0,1.0,song_indices/GimmeShelter_RollingStones.csv,,,,,,,,,,,,,,,,,,,,,,,,,,,,,,,,,,,,,,,,,,,,,,,,
,,,,,620160,1,2024-06-14_09h31.56.915,experiment,2024.1.5,MacIntel,59.88023952,666b5f73dbba3f0cd916b177,666c70447365c4a932ef8fae,,,,,,,,,,,,,,,,,,,,,,,,,,,,,,,,,,,,951.0405,957.223,0.0,0.0,0.0,0.0,1.0,SoundStimuli/Fallin_AliciaKeys_Original5S.wav,,,,,,,,,,,,,,,,,,,,,,,,,,,,,,,,,,,,,,,,,,,,,,,,,,,,,,,,,,
,,,,,620160,1,2024-06-14_09h31.56.915,experiment,2024.1.5,MacIntel,59.88023952,666b5f73dbba3f0cd916b177,666c70447365c4a932ef8fae,,,,,,,,,,,,,,,,,,,,,,,,,,,,,,,,,,,,957.2364,963.6563,0.0,1.0,1.0,1.0,1.0,SoundStimuli/Fallin_AliciaKeys_Cover5S.wav,,,,,,,,,,,,,,,,,,,,,,,,,,,,,,,,,,,,,,,,,,,,,,,,,,,,,,,,,,
,,,,,620160,1,2024-06-14_09h31.56.915,experiment,2024.1.5,MacIntel,59.88023952,666b5f73dbba3f0cd916b177,666c70447365c4a932ef8fae,,,,,,,,,,,,,,,,,,,,,,,,,,,,,,,,,,,,,,,,,,,,963.6564,964.6891,6.961137695,1.0168,0.0,11.0,11.0,12.0,1.0,song_indices/Fallin_AliciaKeys.csv,,,,,,,,,,,,,,,,,,,,,,,,,,,,,,,,,,,,,,,,,,,,,,,,
,,,,,620160,1,2024-06-14_09h31.56.915,experiment,2024.1.5,MacIntel,59.88023952,666b5f73dbba3f0cd916b177,666c70447365c4a932ef8fae,,,,,,,,,,,,,,,,,,,,,,,,,,,,,,,,,,,,964.6899,970.389,0.0,0.0,0.0,1.0,1.0,SoundStimuli/BetteDavisEyes_KimCarnes_Cover5S.wav,,,,,,,,,,,,,,,,,,,,,,,,,,,,,,,,,,,,,,,,,,,,,,,,,,,,,,,,,,
,,,,,620160,1,2024-06-14_09h31.56.915,experiment,2024.1.5,MacIntel,59.88023952,666b5f73dbba3f0cd916b177,666c70447365c4a932ef8fae,,,,,,,,,,,,,,,,,,,,,,,,,,,,,,,,,,,,970.4015,976.606,0.0,1.0,1.0,0.0,1.0,SoundStimuli/BetteDavisEyes_KimCarnes_Original5S.wav,,,,,,,,,,,,,,,,,,,,,,,,,,,,,,,,,,,,,,,,,,,,,,,,,,,,,,,,,,
,,,,,620160,1,2024-06-14_09h31.56.915,experiment,2024.1.5,MacIntel,59.88023952,666b5f73dbba3f0cd916b177,666c70447365c4a932ef8fae,,,,,,,,,,,,,,,,,,,,,,,,,,,,,,,,,,,,,,,,,,,,976.6061,978.4556,2.063308716,1.8355,0.0,12.0,12.0,5.0,1.0,song_indices/BetteDavisEyes_KimCarnes.csv,,,,,,,,,,,,,,,,,,,,,,,,,,,,,,,,,,,,,,,,,,,,,,,,
,,,,,620160,1,2024-06-14_09h31.56.915,experiment,2024.1.5,MacIntel,59.88023952,666b5f73dbba3f0cd916b177,666c70447365c4a932ef8fae,,,,,,,,,,,,,,,,,,,,,,,,,,,,,,,,,,,,978.4563,985.2056,0.0,0.0,0.0,0.0,1.0,SoundStimuli/PartyRockAnthem_LMFAO_Original5S.wav,,,,,,,,,,,,,,,,,,,,,,,,,,,,,,,,,,,,,,,,,,,,,,,,,,,,,,,,,,
,,,,,620160,1,2024-06-14_09h31.56.915,experiment,2024.1.5,MacIntel,59.88023952,666b5f73dbba3f0cd916b177,666c70447365c4a932ef8fae,,,,,,,,,,,,,,,,,,,,,,,,,,,,,,,,,,,,985.2184,991.9897,0.0,1.0,1.0,1.0,1.0,SoundStimuli/PartyRockAnthem_LMFAO_Cover5S.wav,,,,,,,,,,,,,,,,,,,,,,,,,,,,,,,,,,,,,,,,,,,,,,,,,,,,,,,,,,
,,,,,620160,1,2024-06-14_09h31.56.915,experiment,2024.1.5,MacIntel,59.88023952,666b5f73dbba3f0cd916b177,666c70447365c4a932ef8fae,,,,,,,,,,,,,,,,,,,,,,,,,,,,,,,,,,,,,,,,,,,,991.9898,994.172,3.945520426,2.1667,0.0,13.0,13.0,2.0,1.0,song_indices/PartyRockAnthem_LMFAO.csv,,,,,,,,,,,,,,,,,,,,,,,,,,,,,,,,,,,,,,,,,,,,,,,,
,,,,,620160,1,2024-06-14_09h31.56.915,experiment,2024.1.5,MacIntel,59.88023952,666b5f73dbba3f0cd916b177,666c70447365c4a932ef8fae,,,,,,,,,,,,,,,,,,,,,,,,,,,,,,,,,,,,994.1727,1002.1568,0.0,0.0,0.0,1.0,1.0,SoundStimuli/TheBattleOfNewOrleans_JohnnyHorton_Cover5S.wav,,,,,,,,,,,,,,,,,,,,,,,,,,,,,,,,,,,,,,,,,,,,,,,,,,,,,,,,,,
,,,,,620160,1,2024-06-14_09h31.56.915,experiment,2024.1.5,MacIntel,59.88023952,666b5f73dbba3f0cd916b177,666c70447365c4a932ef8fae,,,,,,,,,,,,,,,,,,,,,,,,,,,,,,,,,,,,1002.1699,1008.3718,0.0,1.0,1.0,0.0,1.0,SoundStimuli/TheBattleOfNewOrleans_JohnnyHorton_Original5S.wav,,,,,,,,,,,,,,,,,,,,,,,,,,,,,,,,,,,,,,,,,,,,,,,,,,,,,,,,,,
,,,,,620160,1,2024-06-14_09h31.56.915,experiment,2024.1.5,MacIntel,59.88023952,666b5f73dbba3f0cd916b177,666c70447365c4a932ef8fae,,,,,,,,,,,,,,,,,,,,,,,,,,,,,,,,,,,,,,,,,,,,1008.3719,1011.0047,4.012017008,2.6165,0.0,14.0,14.0,4.0,1.0,song_indices/TheBattleOfNewOrleans_JohnnyHorton.csv,,,,,,,,,,,,,,,,,,,,,,,,,,,,,,,,,,,,,,,,,,,,,,,,
,,,,,620160,1,2024-06-14_09h31.56.915,experiment,2024.1.5,MacIntel,59.88023952,666b5f73dbba3f0cd916b177,666c70447365c4a932ef8fae,,,,,,,,,,,,,,,,,,,,,,,,,,,,,,,,,,,,1011.0055,1016.8552,0.0,0.0,0.0,1.0,1.0,SoundStimuli/IWillAlwaysLoveYou_WhitneyHouston_Cover5S.wav,,,,,,,,,,,,,,,,,,,,,,,,,,,,,,,,,,,,,,,,,,,,,,,,,,,,,,,,,,
,,,,,620160,1,2024-06-14_09h31.56.915,experiment,2024.1.5,MacIntel,59.88023952,666b5f73dbba3f0cd916b177,666c70447365c4a932ef8fae,,,,,,,,,,,,,,,,,,,,,,,,,,,,,,,,,,,,1016.8683,1023.2383,0.0,1.0,1.0,0.0,1.0,SoundStimuli/IWillAlwaysLoveYou_WhitneyHouston_Original5S.wav,,,,,,,,,,,,,,,,,,,,,,,,,,,,,,,,,,,,,,,,,,,,,,,,,,,,,,,,,,
,,,,,620160,1,2024-06-14_09h31.56.915,experiment,2024.1.5,MacIntel,59.88023952,666b5f73dbba3f0cd916b177,666c70447365c4a932ef8fae,,,,,,,,,,,,,,,,,,,,,,,,,,,,,,,,,,,,,,,,,,,,1023.2384,1024.2716,6.973212891,1.0171,0.0,15.0,15.0,10.0,1.0,song_indices/IWillAlwaysLoveYou_WhitneyHouston.csv,,,,,,,,,,,,,,,,,,,,,,,,,,,,,,,,,,,,,,,,,,,,,,,,
,,,,,620160,1,2024-06-14_09h31.56.915,experiment,2024.1.5,MacIntel,59.88023952,666b5f73dbba3f0cd916b177,666c70447365c4a932ef8fae,,,,,,,,,,,,,,,,,,,,,,,,,,,,,,,,,,,,1024.2726,1030.4049,0.0,0.0,0.0,1.0,1.0,SoundStimuli/EyeOfTheTiger_Survivor_Cover5S.wav,,,,,,,,,,,,,,,,,,,,,,,,,,,,,,,,,,,,,,,,,,,,,,,,,,,,,,,,,,
,,,,,620160,1,2024-06-14_09h31.56.915,experiment,2024.1.5,MacIntel,59.88023952,666b5f73dbba3f0cd916b177,666c70447365c4a932ef8fae,,,,,,,,,,,,,,,,,,,,,,,,,,,,,,,,,,,,1030.4184,1036.3065,0.0,1.0,1.0,0.0,1.0,SoundStimuli/EyeOfTheTiger_Survivor_Original5S.wav,,,,,,,,,,,,,,,,,,,,,,,,,,,,,,,,,,,,,,,,,,,,,,,,,,,,,,,,,,
,,,,,620160,1,2024-06-14_09h31.56.915,experiment,2024.1.5,MacIntel,59.88023952,666b5f73dbba3f0cd916b177,666c70447365c4a932ef8fae,,,,,,,,,,,,,,,,,,,,,,,,,,,,,,,,,,,,,,,,,,,,1036.3068,1037.7415,5.029373372,1.4136,0.0,16.0,16.0,11.0,1.0,song_indices/EyeOfTheTiger_Survivor.csv,,,,,,,,,,,,,,,,,,,,,,,,,,,,,,,,,,,,,,,,,,,,,,,,
,,,,,620160,1,2024-06-14_09h31.56.915,experiment,2024.1.5,MacIntel,59.88023952,666b5f73dbba3f0cd916b177,666c70447365c4a932ef8fae,,,,,,,,,,,,,,,,,,,,,,,,,,,,,,,,,,,,1037.7422,1043.6711,0.0,0.0,0.0,0.0,1.0,SoundStimuli/StandByMe_BenEKing_Original5S.wav,,,,,,,,,,,,,,,,,,,,,,,,,,,,,,,,,,,,,,,,,,,,,,,,,,,,,,,,,,
,,,,,620160,1,2024-06-14_09h31.56.915,experiment,2024.1.5,MacIntel,59.88023952,666b5f73dbba3f0cd916b177,666c70447365c4a932ef8fae,,,,,,,,,,,,,,,,,,,,,,,,,,,,,,,,,,,,1043.6855,1049.7059,0.0,1.0,1.0,1.0,1.0,SoundStimuli/StandByMe_BenEKing_Cover5S.wav,,,,,,,,,,,,,,,,,,,,,,,,,,,,,,,,,,,,,,,,,,,,,,,,,,,,,,,,,,
,,,,,620160,1,2024-06-14_09h31.56.915,experiment,2024.1.5,MacIntel,59.88023952,666b5f73dbba3f0cd916b177,666c70447365c4a932ef8fae,,,,,,,,,,,,,,,,,,,,,,,,,,,,,,,,,,,,,,,,,,,,1049.706,1050.6713,1.980904541,0.9475,0.0,17.0,17.0,1.0,1.0,song_indices/StandByMe_BenEKing.csv,,,,,,,,,,,,,,,,,,,,,,,,,,,,,,,,,,,,,,,,,,,,,,,,
,,,,,620160,1,2024-06-14_09h31.56.915,experiment,2024.1.5,MacIntel,59.88023952,666b5f73dbba3f0cd916b177,666c70447365c4a932ef8fae,,,,,,,,,,,,,,,,,,,,,,,,,,,,,,,,,,,,1050.6722,1056.6381,0.0,0.0,0.0,0.0,1.0,SoundStimuli/IWalkTheLine_JohnnyCash_Original5S.wav,,,,,,,,,,,,,,,,,,,,,,,,,,,,,,,,,,,,,,,,,,,,,,,,,,,,,,,,,,
,,,,,620160,1,2024-06-14_09h31.56.915,experiment,2024.1.5,MacIntel,59.88023952,666b5f73dbba3f0cd916b177,666c70447365c4a932ef8fae,,,,,,,,,,,,,,,,,,,,,,,,,,,,,,,,,,,,1056.6527,1063.7873,0.0,1.0,1.0,1.0,1.0,SoundStimuli/IWalkTheLine_JohnnyCash_Cover5S.wav,,,,,,,,,,,,,,,,,,,,,,,,,,,,,,,,,,,,,,,,,,,,,,,,,,,,,,,,,,
,,,,,620160,1,2024-06-14_09h31.56.915,experiment,2024.1.5,MacIntel,59.88023952,666b5f73dbba3f0cd916b177,666c70447365c4a932ef8fae,,,,,,,,,,,,,,,,,,,,,,,,,,,,,,,,,,,,,,,,,,,,1063.7875,1066.7053,1.036524048,2.8989,0.0,18.0,18.0,17.0,1.0,song_indices/IWalkTheLine_JohnnyCash.csv,,,,,,,,,,,,,,,,,,,,,,,,,,,,,,,,,,,,,,,,,,,,,,,,
,,,,,620160,1,2024-06-14_09h31.56.915,experiment,2024.1.5,MacIntel,59.88023952,666b5f73dbba3f0cd916b177,666c70447365c4a932ef8fae,,,,,,,,,,,,,,,,,,,,,,,,,,,,,,,,,,,,1066.7061,1073.1721,0.0,0.0,0.0,0.0,1.0,SoundStimuli/ShapeofYou_EdSheeran_Original5S.wav,,,,,,,,,,,,,,,,,,,,,,,,,,,,,,,,,,,,,,,,,,,,,,,,,,,,,,,,,,
,,,,,620160,1,2024-06-14_09h31.56.915,experiment,2024.1.5,MacIntel,59.88023952,666b5f73dbba3f0cd916b177,666c70447365c4a932ef8fae,,,,,,,,,,,,,,,,,,,,,,,,,,,,,,,,,,,,1073.1807,1079.4873,0.0,1.0,1.0,1.0,1.0,SoundStimuli/ShapeofYou_EdSheeran_Cover5S.wav,,,,,,,,,,,,,,,,,,,,,,,,,,,,,,,,,,,,,,,,,,,,,,,,,,,,,,,,,,
,,,,,620160,1,2024-06-14_09h31.56.915,experiment,2024.1.5,MacIntel,59.88023952,666b5f73dbba3f0cd916b177,666c70447365c4a932ef8fae,,,,,,,,,,,,,,,,,,,,,,,,,,,,,,,,,,,,,,,,,,,,1079.4874,1080.4376,2.939849447,0.932,0.0,19.0,19.0,21.0,1.0,song_indices/ShapeofYou_EdSheeran.csv,,,,,,,,,,,,,,,,,,,,,,,,,,,,,,,,,,,,,,,,,,,,,,,,
,,,,,620160,1,2024-06-14_09h31.56.915,experiment,2024.1.5,MacIntel,59.88023952,666b5f73dbba3f0cd916b177,666c70447365c4a932ef8fae,,,,,,,,,,,,,,,,,,,,,,,,,,,,,,,,,,,,1080.4385,1086.7058,0.0,0.0,0.0,0.0,1.0,SoundStimuli/ItsAllInTheGame_TommyEdwards_Original5S.wav,,,,,,,,,,,,,,,,,,,,,,,,,,,,,,,,,,,,,,,,,,,,,,,,,,,,,,,,,,
,,,,,620160,1,2024-06-14_09h31.56.915,experiment,2024.1.5,MacIntel,59.88023952,666b5f73dbba3f0cd916b177,666c70447365c4a932ef8fae,,,,,,,,,,,,,,,,,,,,,,,,,,,,,,,,,,,,1086.7153,1092.9367,0.0,1.0,1.0,1.0,1.0,SoundStimuli/ItsAllInTheGame_TommyEdwards_Cover5S.wav,,,,,,,,,,,,,,,,,,,,,,,,,,,,,,,,,,,,,,,,,,,,,,,,,,,,,,,,,,
,,,,,620160,1,2024-06-14_09h31.56.915,experiment,2024.1.5,MacIntel,59.88023952,666b5f73dbba3f0cd916b177,666c70447365c4a932ef8fae,,,,,,,,,,,,,,,,,,,,,,,,,,,,,,,,,,,,,,,,,,,,1092.9369,1094.4872,1.964511515,1.5377,0.0,20.0,20.0,13.0,1.0,song_indices/ItsAllInTheGame_TommyEdwards.csv,,,,,,,,,,,,,,,,,,,,,,,,,,,,,,,,,,,,,,,,,,,,,,,,
,,,,,620160,1,2024-06-14_09h31.56.915,experiment,2024.1.5,MacIntel,59.88023952,666b5f73dbba3f0cd916b177,666c70447365c4a932ef8fae,,,,,,,,,,,,,,,,,,,,,,,,,,,,,,,,,,,,1094.4879,1100.4373,0.0,0.0,0.0,1.0,1.0,SoundStimuli/TheBoyIsMine_BrandyMonica_Cover5S.wav,,,,,,,,,,,,,,,,,,,,,,,,,,,,,,,,,,,,,,,,,,,,,,,,,,,,,,,,,,
,,,,,620160,1,2024-06-14_09h31.56.915,experiment,2024.1.5,MacIntel,59.88023952,666b5f73dbba3f0cd916b177,666c70447365c4a932ef8fae,,,,,,,,,,,,,,,,,,,,,,,,,,,,,,,,,,,,1100.4487,1106.6539,0.0,1.0,1.0,0.0,1.0,SoundStimuli/TheBoyIsMine_BrandyMonica_Original5S.wav,,,,,,,,,,,,,,,,,,,,,,,,,,,,,,,,,,,,,,,,,,,,,,,,,,,,,,,,,,
,,,,,620160,1,2024-06-14_09h31.56.915,experiment,2024.1.5,MacIntel,59.88023952,666b5f73dbba3f0cd916b177,666c70447365c4a932ef8fae,,,,,,,,,,,,,,,,,,,,,,,,,,,,,,,,,,,,,,,,,,,,1106.654,1107.8707,4.947359619,1.1995,0.0,21.0,21.0,6.0,1.0,song_indices/TheBoyIsMine_BrandyMonica.csv,,,,,,,,,,,,,,,,,,,,,,,,,,,,,,,,,,,,,,,,,,,,,,,,
,,,,,620160,1,2024-06-14_09h31.56.915,experiment,2024.1.5,MacIntel,59.88023952,666b5f73dbba3f0cd916b177,666c70447365c4a932ef8fae,,,,,,,,,,,,,,,,,,,,,,,,,,,,,,,,,,,,1107.8721,1115.2373,0.0,0.0,0.0,0.0,1.0,SoundStimuli/Happy_PharellWilliams_Original5S.wav,,,,,,,,,,,,,,,,,,,,,,,,,,,,,,,,,,,,,,,,,,,,,,,,,,,,,,,,,,
,,,,,620160,1,2024-06-14_09h31.56.915,experiment,2024.1.5,MacIntel,59.88023952,666b5f73dbba3f0cd916b177,666c70447365c4a932ef8fae,,,,,,,,,,,,,,,,,,,,,,,,,,,,,,,,,,,,1115.2506,1122.6036,0.0,1.0,1.0,1.0,1.0,SoundStimuli/Happy_PharellWilliams_Cover5S.wav,,,,,,,,,,,,,,,,,,,,,,,,,,,,,,,,,,,,,,,,,,,,,,,,,,,,,,,,,,
,,,,,620160,1,2024-06-14_09h31.56.915,experiment,2024.1.5,MacIntel,59.88023952,666b5f73dbba3f0cd916b177,666c70447365c4a932ef8fae,,,,,,,,,,,,,,,,,,,,,,,,,,,,,,,,,,,,,,,,,,,,1122.6037,1123.4873,6.978014323,0.8646,0.0,22.0,22.0,7.0,1.0,song_indices/Happy_PharellWilliams.csv,,,,,,,,,,,,,,,,,,,,,,,,,,,,,,,,,,,,,,,,,,,,,,,,
,,,,,620160,1,2024-06-14_09h31.56.915,experiment,2024.1.5,MacIntel,59.88023952,666b5f73dbba3f0cd916b177,666c70447365c4a932ef8fae,,,,,,,,,,,,,,,,,,,,,,,,,,,,,,,,,,,,,,,,,,,,,,,,,,,,,,1123.4873,1123.4874,,,,0.0,2.0,2.0,1.0,1.0,choose_song_b2.csv,,,,,,,,,,,,,,,,,,,,,,,,,,,,,,,,,,,,,
,,,,,620160,1,2024-06-14_09h31.56.915,experiment,2024.1.5,MacIntel,59.88023952,666b5f73dbba3f0cd916b177,666c70447365c4a932ef8fae,,,,,,,,,,,,,,,,,,,,,,,,,,,,,,,,,,,,,,,,,,,,,,,,,,,,,,,,,,,,,,,,,30.0,Item 4,trained clarinet player from age 10-15,Item 4,"youtube, apple music",3.0,3.0,cleaning,Often,Always,Always,Rarely,Never,Never,Always,Never,Never,Always,Sometimes,Never,Always,Rarely,Always,Never,,gospel,r&b,pop,it has changed because i'm more open to listening to new artist and different genres.,i like to listen to all genres of music,0.0,0.0,0.0,0.0,1.0,,
,,,,,620160,1,2024-06-14_09h31.56.915,experiment,2024.1.5,MacIntel,59.88023952,666b5f73dbba3f0cd916b177,666c70447365c4a932ef8fae,,,,,,,,,,,,,,,,,,,,,,,,,,,,,,,,,,,,,,,,,,,,,,,,,,,,,,,,,,,,,,,,,,,,,,,,,,,,,,,,,,,,,,,,,,,,,,,,,,,,1294.1903,1296.0348
