welcome.started,welcome.stopped,space_to_continue.keys,space_to_continue.rt,space_to_continue.duration,participant,session,date,expName,psychopyVersion,OS,frameRate,STUDY_ID,SESSION_ID,consent.consent,consent_check.started,consent_check.stopped,calibration_ready.started,calibration_ready.stopped,cal_ready.keys,cal_ready.rt,cal_ready.duration,calibration.started,calibration.stopped,mouse.x,mouse.y,mouse.leftButton,mouse.midButton,mouse.rightButton,mouse.time,mouse.clicked_name,move_on.keys,move_on.rt,move_on.duration,instructions.started,instructions.stopped,next.keys,next.rt,next.duration,practice_trial.started,practice_trial.stopped,practice_slider.response,practice_slider.rt,ready.started,ready.stopped,key_resp.keys,key_resp.rt,key_resp.duration,play_sound.started,play_sound.stopped,trials.thisRepN,trials.thisTrialN,trials.thisN,trials.thisIndex,trials.ran,orig_or_cover,rating.started,rating.stopped,slider.response,slider.rt,songs.thisRepN,songs.thisTrialN,songs.thisN,songs.thisIndex,songs.ran,song_id,short_break.started,short_break.stopped,space_to_move_on.keys,space_to_move_on.rt,space_to_move_on.duration,blocks.thisRepN,blocks.thisTrialN,blocks.thisN,blocks.thisIndex,blocks.ran,block,survey.age,survey.musician,survey.music_making,survey.listen_time,survey.medium,survey.music_seeking,survey.music_choice,survey.activities,survey.question1.Classical,survey.question1.Alternative rock,survey.question1.A cappella,survey.question1.Hip hop,survey.question1.R&B,survey.question1.Country,survey.question1.Latin,survey.question1.Pop,survey.question1.Classic rock,survey.question1.Metal,survey.question1.Folk/indie,survey.question1.Reggae,survey.question1.Jazz,survey.question1.Ambient,survey.question1.Disco,survey.question1.Electronic (EDM),survey.other_genres,survey.genres_ranked.text1,survey.genres_ranked.text2,survey.genres_ranked.text3,survey.habit_change,experiment.thisRepN,experiment.thisTrialN,experiment.thisN,experiment.thisIndex,experiment.ran,goodbye.started,goodbye.stopped
0.0003,1.9652,space,1.9356,,652943,1,2024-06-17_10h52.46.634,experiment,2024.1.5,Win32,60.24096386,667045947eb812cbdacbf325,66704d8d306633c4322456e0,,,,,,,,,,,,,,,,,,,,,,,,,,,,,,,,,,,,,,,,,,,,,,,,,,,,,,,,,,,,,,,,,,,,,,,,,,,,,,,,,,,,,,,,,,,,,,,,,,,
,,,,,652943,1,2024-06-17_10h52.46.634,experiment,2024.1.5,Win32,60.24096386,667045947eb812cbdacbf325,66704d8d306633c4322456e0,yes,,,,,,,,,,,,,,,,,,,,,,,,,,,,,,,,,,,,,,,,,,,,,,,,,,,,,,,,,,,,,,,,,,,,,,,,,,,,,,,,,,,,,,,,,,,,,,,,,,
,,,,,652943,1,2024-06-17_10h52.46.634,experiment,2024.1.5,Win32,60.24096386,667045947eb812cbdacbf325,66704d8d306633c4322456e0,,17.1079,17.1082,,,,,,,,,,,,,,,,,,,,,,,,,,,,,,,,,,,,,,,,,,,,,,,,,,,,,,,,,,,,,,,,,,,,,,,,,,,,,,,,,,,,,,,,,,,,,,,,
,,,,,652943,1,2024-06-17_10h52.46.634,experiment,2024.1.5,Win32,60.24096386,667045947eb812cbdacbf325,66704d8d306633c4322456e0,,,,17.1131,30.8682,space,13.6975,,30.8686,80.8996,"[-0.018055555555555554,-0.022222222222222223]","[-0.4375,-0.4398148148148148]","[1,1]","[0,0]","[0,0]","[14.579900000005964,40.98350000000001]","[""play_button"",""play_button""]",right,40.0011,,80.9,90.2284,space,9.2941,,90.2287,108.0577,3.533333333,17.8055,108.0583,110.6413,space,2.5596,,110.7017,117.0413,0.0,0.0,0.0,0.0,1.0,SoundStimuli/EndlessLove_DianaRossLionelRichie_Original5S.wav,,,,,,,,,,,,,,,,,,,,,,,,,,,,,,,,,,,,,,,,,,,,,,,,,,,,,,,,,
,,,,,652943,1,2024-06-17_10h52.46.634,experiment,2024.1.5,Win32,60.24096386,667045947eb812cbdacbf325,66704d8d306633c4322456e0,,,,,,,,,,,,,,,,,,,,,,,,,,,,,,,,,,,117.0613,124.5673,0.0,1.0,1.0,1.0,1.0,SoundStimuli/EndlessLove_DianaRossLionelRichie_Cover5S.wav,,,,,,,,,,,,,,,,,,,,,,,,,,,,,,,,,,,,,,,,,,,,,,,,,,,,,,,,,
,,,,,652943,1,2024-06-17_10h52.46.634,experiment,2024.1.5,Win32,60.24096386,667045947eb812cbdacbf325,66704d8d306633c4322456e0,,,,,,,,,,,,,,,,,,,,,,,,,,,,,,,,,,,,,,,,,,,124.588,126.4693,6.133333333,1.8789,0.0,0.0,0.0,3.0,1.0,song_indices/EndlessLove_DianaRossLionelRichie.csv,,,,,,,,,,,,,,,,,,,,,,,,,,,,,,,,,,,,,,,,,,,,,,,
,,,,,652943,1,2024-06-17_10h52.46.634,experiment,2024.1.5,Win32,60.24096386,667045947eb812cbdacbf325,66704d8d306633c4322456e0,,,,,,,,,,,,,,,,,,,,,,,,,,,,,,,,,,,126.4713,133.4924,0.0,0.0,0.0,1.0,1.0,SoundStimuli/StrawberryFieldsForever_TheBeatles_Cover5S.wav,,,,,,,,,,,,,,,,,,,,,,,,,,,,,,,,,,,,,,,,,,,,,,,,,,,,,,,,,
,,,,,652943,1,2024-06-17_10h52.46.634,experiment,2024.1.5,Win32,60.24096386,667045947eb812cbdacbf325,66704d8d306633c4322456e0,,,,,,,,,,,,,,,,,,,,,,,,,,,,,,,,,,,133.5132,139.6357,0.0,1.0,1.0,0.0,1.0,SoundStimuli/StrawberryFieldsForever_TheBeatles_Original5S.wav,,,,,,,,,,,,,,,,,,,,,,,,,,,,,,,,,,,,,,,,,,,,,,,,,,,,,,,,,
,,,,,652943,1,2024-06-17_10h52.46.634,experiment,2024.1.5,Win32,60.24096386,667045947eb812cbdacbf325,66704d8d306633c4322456e0,,,,,,,,,,,,,,,,,,,,,,,,,,,,,,,,,,,,,,,,,,,139.6359,145.7758,1.130555556,6.1154,0.0,1.0,1.0,14.0,1.0,song_indices/StrawberryFieldsForever_TheBeatles.csv,,,,,,,,,,,,,,,,,,,,,,,,,,,,,,,,,,,,,,,,,,,,,,,
,,,,,652943,1,2024-06-17_10h52.46.634,experiment,2024.1.5,Win32,60.24096386,667045947eb812cbdacbf325,66704d8d306633c4322456e0,,,,,,,,,,,,,,,,,,,,,,,,,,,,,,,,,,,145.7777,152.0271,0.0,0.0,0.0,0.0,1.0,SoundStimuli/LivinOnAPrayer_BonJovi_Original5S.wav,,,,,,,,,,,,,,,,,,,,,,,,,,,,,,,,,,,,,,,,,,,,,,,,,,,,,,,,,
,,,,,652943,1,2024-06-17_10h52.46.634,experiment,2024.1.5,Win32,60.24096386,667045947eb812cbdacbf325,66704d8d306633c4322456e0,,,,,,,,,,,,,,,,,,,,,,,,,,,,,,,,,,,152.0468,159.7221,0.0,1.0,1.0,1.0,1.0,SoundStimuli/LivinOnAPrayer_BonJovi_Cover5S.wav,,,,,,,,,,,,,,,,,,,,,,,,,,,,,,,,,,,,,,,,,,,,,,,,,,,,,,,,,
,,,,,652943,1,2024-06-17_10h52.46.634,experiment,2024.1.5,Win32,60.24096386,667045947eb812cbdacbf325,66704d8d306633c4322456e0,,,,,,,,,,,,,,,,,,,,,,,,,,,,,,,,,,,,,,,,,,,159.7222,161.7443,2.133333333,1.9978,0.0,2.0,2.0,16.0,1.0,song_indices/LivinOnAPrayer_BonJovi.csv,,,,,,,,,,,,,,,,,,,,,,,,,,,,,,,,,,,,,,,,,,,,,,,
,,,,,652943,1,2024-06-17_10h52.46.634,experiment,2024.1.5,Win32,60.24096386,667045947eb812cbdacbf325,66704d8d306633c4322456e0,,,,,,,,,,,,,,,,,,,,,,,,,,,,,,,,,,,161.747,170.6053,0.0,0.0,0.0,0.0,1.0,SoundStimuli/Perfect_EdSheeran_Original5S.wav,,,,,,,,,,,,,,,,,,,,,,,,,,,,,,,,,,,,,,,,,,,,,,,,,,,,,,,,,
,,,,,652943,1,2024-06-17_10h52.46.634,experiment,2024.1.5,Win32,60.24096386,667045947eb812cbdacbf325,66704d8d306633c4322456e0,,,,,,,,,,,,,,,,,,,,,,,,,,,,,,,,,,,170.6243,178.8801,0.0,1.0,1.0,1.0,1.0,SoundStimuli/Perfect_EdSheeran_Cover5S.wav,,,,,,,,,,,,,,,,,,,,,,,,,,,,,,,,,,,,,,,,,,,,,,,,,,,,,,,,,
,,,,,652943,1,2024-06-17_10h52.46.634,experiment,2024.1.5,Win32,60.24096386,667045947eb812cbdacbf325,66704d8d306633c4322456e0,,,,,,,,,,,,,,,,,,,,,,,,,,,,,,,,,,,,,,,,,,,178.8802,180.3454,5.408333333,1.4357,0.0,3.0,3.0,0.0,1.0,song_indices/Perfect_EdSheeran.csv,,,,,,,,,,,,,,,,,,,,,,,,,,,,,,,,,,,,,,,,,,,,,,,
,,,,,652943,1,2024-06-17_10h52.46.634,experiment,2024.1.5,Win32,60.24096386,667045947eb812cbdacbf325,66704d8d306633c4322456e0,,,,,,,,,,,,,,,,,,,,,,,,,,,,,,,,,,,180.3469,186.1628,0.0,0.0,0.0,1.0,1.0,SoundStimuli/StayinAlive_BeeGees_Cover5S.wav,,,,,,,,,,,,,,,,,,,,,,,,,,,,,,,,,,,,,,,,,,,,,,,,,,,,,,,,,
,,,,,652943,1,2024-06-17_10h52.46.634,experiment,2024.1.5,Win32,60.24096386,667045947eb812cbdacbf325,66704d8d306633c4322456e0,,,,,,,,,,,,,,,,,,,,,,,,,,,,,,,,,,,186.1847,192.1964,0.0,1.0,1.0,0.0,1.0,SoundStimuli/StayinAlive_BeeGees_Original5S.wav,,,,,,,,,,,,,,,,,,,,,,,,,,,,,,,,,,,,,,,,,,,,,,,,,,,,,,,,,
,,,,,652943,1,2024-06-17_10h52.46.634,experiment,2024.1.5,Win32,60.24096386,667045947eb812cbdacbf325,66704d8d306633c4322456e0,,,,,,,,,,,,,,,,,,,,,,,,,,,,,,,,,,,,,,,,,,,192.1967,194.0074,4.013888889,1.7951,0.0,4.0,4.0,2.0,1.0,song_indices/StayinAlive_BeeGees.csv,,,,,,,,,,,,,,,,,,,,,,,,,,,,,,,,,,,,,,,,,,,,,,,
,,,,,652943,1,2024-06-17_10h52.46.634,experiment,2024.1.5,Win32,60.24096386,667045947eb812cbdacbf325,66704d8d306633c4322456e0,,,,,,,,,,,,,,,,,,,,,,,,,,,,,,,,,,,194.0089,200.1566,0.0,0.0,0.0,0.0,1.0,SoundStimuli/MackTheKnife_BobbyDarin_Original5S.wav,,,,,,,,,,,,,,,,,,,,,,,,,,,,,,,,,,,,,,,,,,,,,,,,,,,,,,,,,
,,,,,652943,1,2024-06-17_10h52.46.634,experiment,2024.1.5,Win32,60.24096386,667045947eb812cbdacbf325,66704d8d306633c4322456e0,,,,,,,,,,,,,,,,,,,,,,,,,,,,,,,,,,,200.1769,206.4311,0.0,1.0,1.0,1.0,1.0,SoundStimuli/MackTheKnife_BobbyDarin_Cover5S.wav,,,,,,,,,,,,,,,,,,,,,,,,,,,,,,,,,,,,,,,,,,,,,,,,,,,,,,,,,
,,,,,652943,1,2024-06-17_10h52.46.634,experiment,2024.1.5,Win32,60.24096386,667045947eb812cbdacbf325,66704d8d306633c4322456e0,,,,,,,,,,,,,,,,,,,,,,,,,,,,,,,,,,,,,,,,,,,206.4313,208.2406,2.116666667,1.7931,0.0,5.0,5.0,21.0,1.0,song_indices/MackTheKnife_BobbyDarin.csv,,,,,,,,,,,,,,,,,,,,,,,,,,,,,,,,,,,,,,,,,,,,,,,
,,,,,652943,1,2024-06-17_10h52.46.634,experiment,2024.1.5,Win32,60.24096386,667045947eb812cbdacbf325,66704d8d306633c4322456e0,,,,,,,,,,,,,,,,,,,,,,,,,,,,,,,,,,,208.2421,214.3815,0.0,0.0,0.0,0.0,1.0,SoundStimuli/LikeARollingStone_BobDylan_Original5S.wav,,,,,,,,,,,,,,,,,,,,,,,,,,,,,,,,,,,,,,,,,,,,,,,,,,,,,,,,,
,,,,,652943,1,2024-06-17_10h52.46.634,experiment,2024.1.5,Win32,60.24096386,667045947eb812cbdacbf325,66704d8d306633c4322456e0,,,,,,,,,,,,,,,,,,,,,,,,,,,,,,,,,,,214.3928,218.7669,0.0,1.0,1.0,1.0,1.0,SoundStimuli/LikeARollingStone_BobDylan_Cover5S.wav,,,,,,,,,,,,,,,,,,,,,,,,,,,,,,,,,,,,,,,,,,,,,,,,,,,,,,,,,
,,,,,652943,1,2024-06-17_10h52.46.634,experiment,2024.1.5,Win32,60.24096386,667045947eb812cbdacbf325,66704d8d306633c4322456e0,,,,,,,,,,,,,,,,,,,,,,,,,,,,,,,,,,,,,,,,,,,218.7676,220.8987,4.452777778,2.1098,0.0,6.0,6.0,12.0,1.0,song_indices/LikeARollingStone_BobDylan.csv,,,,,,,,,,,,,,,,,,,,,,,,,,,,,,,,,,,,,,,,,,,,,,,
,,,,,652943,1,2024-06-17_10h52.46.634,experiment,2024.1.5,Win32,60.24096386,667045947eb812cbdacbf325,66704d8d306633c4322456e0,,,,,,,,,,,,,,,,,,,,,,,,,,,,,,,,,,,220.9012,227.1168,0.0,0.0,0.0,1.0,1.0,SoundStimuli/LikeAPrayer_Madonna_Cover5S.wav,,,,,,,,,,,,,,,,,,,,,,,,,,,,,,,,,,,,,,,,,,,,,,,,,,,,,,,,,
,,,,,652943,1,2024-06-17_10h52.46.634,experiment,2024.1.5,Win32,60.24096386,667045947eb812cbdacbf325,66704d8d306633c4322456e0,,,,,,,,,,,,,,,,,,,,,,,,,,,,,,,,,,,227.1355,233.3431,0.0,1.0,1.0,0.0,1.0,SoundStimuli/LikeAPrayer_Madonna_Original5S.wav,,,,,,,,,,,,,,,,,,,,,,,,,,,,,,,,,,,,,,,,,,,,,,,,,,,,,,,,,
,,,,,652943,1,2024-06-17_10h52.46.634,experiment,2024.1.5,Win32,60.24096386,667045947eb812cbdacbf325,66704d8d306633c4322456e0,,,,,,,,,,,,,,,,,,,,,,,,,,,,,,,,,,,,,,,,,,,233.3433,237.1169,5.297222222,3.7497,0.0,7.0,7.0,7.0,1.0,song_indices/LikeAPrayer_Madonna.csv,,,,,,,,,,,,,,,,,,,,,,,,,,,,,,,,,,,,,,,,,,,,,,,
,,,,,652943,1,2024-06-17_10h52.46.634,experiment,2024.1.5,Win32,60.24096386,667045947eb812cbdacbf325,66704d8d306633c4322456e0,,,,,,,,,,,,,,,,,,,,,,,,,,,,,,,,,,,237.1188,243.5259,0.0,0.0,0.0,0.0,1.0,SoundStimuli/MyGirl_TheTemptations_Original5S.wav,,,,,,,,,,,,,,,,,,,,,,,,,,,,,,,,,,,,,,,,,,,,,,,,,,,,,,,,,
,,,,,652943,1,2024-06-17_10h52.46.634,experiment,2024.1.5,Win32,60.24096386,667045947eb812cbdacbf325,66704d8d306633c4322456e0,,,,,,,,,,,,,,,,,,,,,,,,,,,,,,,,,,,243.5437,251.2017,0.0,1.0,1.0,1.0,1.0,SoundStimuli/MyGirl_TheTemptations_Cover5S.wav,,,,,,,,,,,,,,,,,,,,,,,,,,,,,,,,,,,,,,,,,,,,,,,,,,,,,,,,,
,,,,,652943,1,2024-06-17_10h52.46.634,experiment,2024.1.5,Win32,60.24096386,667045947eb812cbdacbf325,66704d8d306633c4322456e0,,,,,,,,,,,,,,,,,,,,,,,,,,,,,,,,,,,,,,,,,,,251.2022,252.6685,4.025,1.4389,0.0,8.0,8.0,15.0,1.0,song_indices/MyGirl_TheTemptations.csv,,,,,,,,,,,,,,,,,,,,,,,,,,,,,,,,,,,,,,,,,,,,,,,
,,,,,652943,1,2024-06-17_10h52.46.634,experiment,2024.1.5,Win32,60.24096386,667045947eb812cbdacbf325,66704d8d306633c4322456e0,,,,,,,,,,,,,,,,,,,,,,,,,,,,,,,,,,,252.6708,259.3695,0.0,0.0,0.0,1.0,1.0,SoundStimuli/BridgeOverTroubledWater_SimonAndGarfunkel_Cover5S.wav,,,,,,,,,,,,,,,,,,,,,,,,,,,,,,,,,,,,,,,,,,,,,,,,,,,,,,,,,
,,,,,652943,1,2024-06-17_10h52.46.634,experiment,2024.1.5,Win32,60.24096386,667045947eb812cbdacbf325,66704d8d306633c4322456e0,,,,,,,,,,,,,,,,,,,,,,,,,,,,,,,,,,,259.3924,265.7145,0.0,1.0,1.0,0.0,1.0,SoundStimuli/BridgeOverTroubledWater_SimonAndGarfunkel_Original5S.wav,,,,,,,,,,,,,,,,,,,,,,,,,,,,,,,,,,,,,,,,,,,,,,,,,,,,,,,,,
,,,,,652943,1,2024-06-17_10h52.46.634,experiment,2024.1.5,Win32,60.24096386,667045947eb812cbdacbf325,66704d8d306633c4322456e0,,,,,,,,,,,,,,,,,,,,,,,,,,,,,,,,,,,,,,,,,,,265.7148,267.2206,3.725,1.4841,0.0,9.0,9.0,1.0,1.0,song_indices/BridgeOverTroubledWater_SimonAndGarfunkel.csv,,,,,,,,,,,,,,,,,,,,,,,,,,,,,,,,,,,,,,,,,,,,,,,
,,,,,652943,1,2024-06-17_10h52.46.634,experiment,2024.1.5,Win32,60.24096386,667045947eb812cbdacbf325,66704d8d306633c4322456e0,,,,,,,,,,,,,,,,,,,,,,,,,,,,,,,,,,,267.2233,274.6129,0.0,0.0,0.0,0.0,1.0,SoundStimuli/OldTownRoad_LilNasX_Original5S.wav,,,,,,,,,,,,,,,,,,,,,,,,,,,,,,,,,,,,,,,,,,,,,,,,,,,,,,,,,
,,,,,652943,1,2024-06-17_10h52.46.634,experiment,2024.1.5,Win32,60.24096386,667045947eb812cbdacbf325,66704d8d306633c4322456e0,,,,,,,,,,,,,,,,,,,,,,,,,,,,,,,,,,,274.6317,281.1371,0.0,1.0,1.0,1.0,1.0,SoundStimuli/OldTownRoad_LilNasX_Cover5S.wav,,,,,,,,,,,,,,,,,,,,,,,,,,,,,,,,,,,,,,,,,,,,,,,,,,,,,,,,,
,,,,,652943,1,2024-06-17_10h52.46.634,experiment,2024.1.5,Win32,60.24096386,667045947eb812cbdacbf325,66704d8d306633c4322456e0,,,,,,,,,,,,,,,,,,,,,,,,,,,,,,,,,,,,,,,,,,,281.1375,282.1206,6.641666667,0.9567,0.0,10.0,10.0,20.0,1.0,song_indices/OldTownRoad_LilNasX.csv,,,,,,,,,,,,,,,,,,,,,,,,,,,,,,,,,,,,,,,,,,,,,,,
,,,,,652943,1,2024-06-17_10h52.46.634,experiment,2024.1.5,Win32,60.24096386,667045947eb812cbdacbf325,66704d8d306633c4322456e0,,,,,,,,,,,,,,,,,,,,,,,,,,,,,,,,,,,282.1235,290.2567,0.0,0.0,0.0,1.0,1.0,SoundStimuli/AnotherOneBitesTheDust_Queen_Cover5S.wav,,,,,,,,,,,,,,,,,,,,,,,,,,,,,,,,,,,,,,,,,,,,,,,,,,,,,,,,,
,,,,,652943,1,2024-06-17_10h52.46.634,experiment,2024.1.5,Win32,60.24096386,667045947eb812cbdacbf325,66704d8d306633c4322456e0,,,,,,,,,,,,,,,,,,,,,,,,,,,,,,,,,,,290.2757,296.3167,0.0,1.0,1.0,0.0,1.0,SoundStimuli/AnotherOneBitesTheDust_Queen_Original5S.wav,,,,,,,,,,,,,,,,,,,,,,,,,,,,,,,,,,,,,,,,,,,,,,,,,,,,,,,,,
,,,,,652943,1,2024-06-17_10h52.46.634,experiment,2024.1.5,Win32,60.24096386,667045947eb812cbdacbf325,66704d8d306633c4322456e0,,,,,,,,,,,,,,,,,,,,,,,,,,,,,,,,,,,,,,,,,,,296.3168,297.7551,3.458333333,1.4172,0.0,11.0,11.0,9.0,1.0,song_indices/AnotherOneBitesTheDust_Queen.csv,,,,,,,,,,,,,,,,,,,,,,,,,,,,,,,,,,,,,,,,,,,,,,,
,,,,,652943,1,2024-06-17_10h52.46.634,experiment,2024.1.5,Win32,60.24096386,667045947eb812cbdacbf325,66704d8d306633c4322456e0,,,,,,,,,,,,,,,,,,,,,,,,,,,,,,,,,,,297.7568,304.2056,0.0,0.0,0.0,0.0,1.0,SoundStimuli/BadDay_DanielPowter_Original5S.wav,,,,,,,,,,,,,,,,,,,,,,,,,,,,,,,,,,,,,,,,,,,,,,,,,,,,,,,,,
,,,,,652943,1,2024-06-17_10h52.46.634,experiment,2024.1.5,Win32,60.24096386,667045947eb812cbdacbf325,66704d8d306633c4322456e0,,,,,,,,,,,,,,,,,,,,,,,,,,,,,,,,,,,304.2175,311.7064,0.0,1.0,1.0,1.0,1.0,SoundStimuli/BadDay_DanielPowter_Cover5S.wav,,,,,,,,,,,,,,,,,,,,,,,,,,,,,,,,,,,,,,,,,,,,,,,,,,,,,,,,,
,,,,,652943,1,2024-06-17_10h52.46.634,experiment,2024.1.5,Win32,60.24096386,667045947eb812cbdacbf325,66704d8d306633c4322456e0,,,,,,,,,,,,,,,,,,,,,,,,,,,,,,,,,,,,,,,,,,,311.7067,368.4855,3.294444444,56.7587,0.0,12.0,12.0,22.0,1.0,song_indices/BadDay_DanielPowter.csv,,,,,,,,,,,,,,,,,,,,,,,,,,,,,,,,,,,,,,,,,,,,,,,
,,,,,652943,1,2024-06-17_10h52.46.634,experiment,2024.1.5,Win32,60.24096386,667045947eb812cbdacbf325,66704d8d306633c4322456e0,,,,,,,,,,,,,,,,,,,,,,,,,,,,,,,,,,,368.4872,376.7895,0.0,0.0,0.0,1.0,1.0,SoundStimuli/Mood_24kGoldnianndior_Cover5S.wav,,,,,,,,,,,,,,,,,,,,,,,,,,,,,,,,,,,,,,,,,,,,,,,,,,,,,,,,,
,,,,,652943,1,2024-06-17_10h52.46.634,experiment,2024.1.5,Win32,60.24096386,667045947eb812cbdacbf325,66704d8d306633c4322456e0,,,,,,,,,,,,,,,,,,,,,,,,,,,,,,,,,,,376.8092,383.096,0.0,1.0,1.0,0.0,1.0,SoundStimuli/Mood_24kGoldnianndior_Original5S.wav,,,,,,,,,,,,,,,,,,,,,,,,,,,,,,,,,,,,,,,,,,,,,,,,,,,,,,,,,
,,,,,652943,1,2024-06-17_10h52.46.634,experiment,2024.1.5,Win32,60.24096386,667045947eb812cbdacbf325,66704d8d306633c4322456e0,,,,,,,,,,,,,,,,,,,,,,,,,,,,,,,,,,,,,,,,,,,383.0965,386.973,3.227777778,3.855,0.0,13.0,13.0,5.0,1.0,song_indices/Mood_24kGoldnianndior.csv,,,,,,,,,,,,,,,,,,,,,,,,,,,,,,,,,,,,,,,,,,,,,,,
,,,,,652943,1,2024-06-17_10h52.46.634,experiment,2024.1.5,Win32,60.24096386,667045947eb812cbdacbf325,66704d8d306633c4322456e0,,,,,,,,,,,,,,,,,,,,,,,,,,,,,,,,,,,386.9748,393.222,0.0,0.0,0.0,0.0,1.0,SoundStimuli/GodOnlyKnows_TheBeachBoys_Original5S.wav,,,,,,,,,,,,,,,,,,,,,,,,,,,,,,,,,,,,,,,,,,,,,,,,,,,,,,,,,
,,,,,652943,1,2024-06-17_10h52.46.634,experiment,2024.1.5,Win32,60.24096386,667045947eb812cbdacbf325,66704d8d306633c4322456e0,,,,,,,,,,,,,,,,,,,,,,,,,,,,,,,,,,,393.2413,400.0966,0.0,1.0,1.0,1.0,1.0,SoundStimuli/GodOnlyKnows_TheBeachBoys_Cover5S.wav,,,,,,,,,,,,,,,,,,,,,,,,,,,,,,,,,,,,,,,,,,,,,,,,,,,,,,,,,
,,,,,652943,1,2024-06-17_10h52.46.634,experiment,2024.1.5,Win32,60.24096386,667045947eb812cbdacbf325,66704d8d306633c4322456e0,,,,,,,,,,,,,,,,,,,,,,,,,,,,,,,,,,,,,,,,,,,400.0967,401.4243,2.508333333,1.3131,0.0,14.0,14.0,8.0,1.0,song_indices/GodOnlyKnows_TheBeachBoys.csv,,,,,,,,,,,,,,,,,,,,,,,,,,,,,,,,,,,,,,,,,,,,,,,
,,,,,652943,1,2024-06-17_10h52.46.634,experiment,2024.1.5,Win32,60.24096386,667045947eb812cbdacbf325,66704d8d306633c4322456e0,,,,,,,,,,,,,,,,,,,,,,,,,,,,,,,,,,,401.4262,407.3649,0.0,0.0,0.0,1.0,1.0,SoundStimuli/IllMakeLoveToYou_BoyzIIMen_Cover5S.wav,,,,,,,,,,,,,,,,,,,,,,,,,,,,,,,,,,,,,,,,,,,,,,,,,,,,,,,,,
,,,,,652943,1,2024-06-17_10h52.46.634,experiment,2024.1.5,Win32,60.24096386,667045947eb812cbdacbf325,66704d8d306633c4322456e0,,,,,,,,,,,,,,,,,,,,,,,,,,,,,,,,,,,407.3836,413.4751,0.0,1.0,1.0,0.0,1.0,SoundStimuli/IllMakeLoveToYou_BoyzIIMen_Original5S.wav,,,,,,,,,,,,,,,,,,,,,,,,,,,,,,,,,,,,,,,,,,,,,,,,,,,,,,,,,
,,,,,652943,1,2024-06-17_10h52.46.634,experiment,2024.1.5,Win32,60.24096386,667045947eb812cbdacbf325,66704d8d306633c4322456e0,,,,,,,,,,,,,,,,,,,,,,,,,,,,,,,,,,,,,,,,,,,413.4754,415.0336,4.869444444,1.5293,0.0,15.0,15.0,6.0,1.0,song_indices/IllMakeLoveToYou_BoyzIIMen.csv,,,,,,,,,,,,,,,,,,,,,,,,,,,,,,,,,,,,,,,,,,,,,,,
,,,,,652943,1,2024-06-17_10h52.46.634,experiment,2024.1.5,Win32,60.24096386,667045947eb812cbdacbf325,66704d8d306633c4322456e0,,,,,,,,,,,,,,,,,,,,,,,,,,,,,,,,,,,415.0353,421.1738,0.0,0.0,0.0,1.0,1.0,SoundStimuli/Smooth_SantanaRobThomas_Cover5S.wav,,,,,,,,,,,,,,,,,,,,,,,,,,,,,,,,,,,,,,,,,,,,,,,,,,,,,,,,,
,,,,,652943,1,2024-06-17_10h52.46.634,experiment,2024.1.5,Win32,60.24096386,667045947eb812cbdacbf325,66704d8d306633c4322456e0,,,,,,,,,,,,,,,,,,,,,,,,,,,,,,,,,,,421.1937,427.4082,0.0,1.0,1.0,0.0,1.0,SoundStimuli/Smooth_SantanaRobThomas_Original5S.wav,,,,,,,,,,,,,,,,,,,,,,,,,,,,,,,,,,,,,,,,,,,,,,,,,,,,,,,,,
,,,,,652943,1,2024-06-17_10h52.46.634,experiment,2024.1.5,Win32,60.24096386,667045947eb812cbdacbf325,66704d8d306633c4322456e0,,,,,,,,,,,,,,,,,,,,,,,,,,,,,,,,,,,,,,,,,,,427.4083,428.5678,4.133333333,1.1392,0.0,16.0,16.0,4.0,1.0,song_indices/Smooth_SantanaRobThomas.csv,,,,,,,,,,,,,,,,,,,,,,,,,,,,,,,,,,,,,,,,,,,,,,,
,,,,,652943,1,2024-06-17_10h52.46.634,experiment,2024.1.5,Win32,60.24096386,667045947eb812cbdacbf325,66704d8d306633c4322456e0,,,,,,,,,,,,,,,,,,,,,,,,,,,,,,,,,,,428.5705,433.2924,0.0,0.0,0.0,1.0,1.0,SoundStimuli/AChangeIsGonnaCome_SamCooke_Cover5S.wav,,,,,,,,,,,,,,,,,,,,,,,,,,,,,,,,,,,,,,,,,,,,,,,,,,,,,,,,,
,,,,,652943,1,2024-06-17_10h52.46.634,experiment,2024.1.5,Win32,60.24096386,667045947eb812cbdacbf325,66704d8d306633c4322456e0,,,,,,,,,,,,,,,,,,,,,,,,,,,,,,,,,,,433.3081,439.3499,0.0,1.0,1.0,0.0,1.0,SoundStimuli/AChangeIsGonnaCome_SamCooke_Original5S.wav,,,,,,,,,,,,,,,,,,,,,,,,,,,,,,,,,,,,,,,,,,,,,,,,,,,,,,,,,
,,,,,652943,1,2024-06-17_10h52.46.634,experiment,2024.1.5,Win32,60.24096386,667045947eb812cbdacbf325,66704d8d306633c4322456e0,,,,,,,,,,,,,,,,,,,,,,,,,,,,,,,,,,,,,,,,,,,439.3502,440.3677,4.975,0.9927,0.0,17.0,17.0,17.0,1.0,song_indices/AChangeIsGonnaCome_SamCooke.csv,,,,,,,,,,,,,,,,,,,,,,,,,,,,,,,,,,,,,,,,,,,,,,,
,,,,,652943,1,2024-06-17_10h52.46.634,experiment,2024.1.5,Win32,60.24096386,667045947eb812cbdacbf325,66704d8d306633c4322456e0,,,,,,,,,,,,,,,,,,,,,,,,,,,,,,,,,,,440.3698,444.4502,0.0,0.0,0.0,1.0,1.0,SoundStimuli/BohemianRhapsody_Queen_Cover5S.wav,,,,,,,,,,,,,,,,,,,,,,,,,,,,,,,,,,,,,,,,,,,,,,,,,,,,,,,,,
,,,,,652943,1,2024-06-17_10h52.46.634,experiment,2024.1.5,Win32,60.24096386,667045947eb812cbdacbf325,66704d8d306633c4322456e0,,,,,,,,,,,,,,,,,,,,,,,,,,,,,,,,,,,444.4626,450.4177,0.0,1.0,1.0,0.0,1.0,SoundStimuli/BohemianRhapsody_Queen_Original5S.wav,,,,,,,,,,,,,,,,,,,,,,,,,,,,,,,,,,,,,,,,,,,,,,,,,,,,,,,,,
,,,,,652943,1,2024-06-17_10h52.46.634,experiment,2024.1.5,Win32,60.24096386,667045947eb812cbdacbf325,66704d8d306633c4322456e0,,,,,,,,,,,,,,,,,,,,,,,,,,,,,,,,,,,,,,,,,,,450.4182,451.3179,4.383333333,0.8748,0.0,18.0,18.0,18.0,1.0,song_indices/BohemianRhapsody_Queen.csv,,,,,,,,,,,,,,,,,,,,,,,,,,,,,,,,,,,,,,,,,,,,,,,
,,,,,652943,1,2024-06-17_10h52.46.634,experiment,2024.1.5,Win32,60.24096386,667045947eb812cbdacbf325,66704d8d306633c4322456e0,,,,,,,,,,,,,,,,,,,,,,,,,,,,,,,,,,,451.3206,457.9016,0.0,0.0,0.0,1.0,1.0,SoundStimuli/Despacito_LuisFonsiDaddyYankee_Cover5S.wav,,,,,,,,,,,,,,,,,,,,,,,,,,,,,,,,,,,,,,,,,,,,,,,,,,,,,,,,,
,,,,,652943,1,2024-06-17_10h52.46.634,experiment,2024.1.5,Win32,60.24096386,667045947eb812cbdacbf325,66704d8d306633c4322456e0,,,,,,,,,,,,,,,,,,,,,,,,,,,,,,,,,,,457.9218,464.4786,0.0,1.0,1.0,0.0,1.0,SoundStimuli/Despacito_LuisFonsiDaddyYankee_Original5S.wav,,,,,,,,,,,,,,,,,,,,,,,,,,,,,,,,,,,,,,,,,,,,,,,,,,,,,,,,,
,,,,,652943,1,2024-06-17_10h52.46.634,experiment,2024.1.5,Win32,60.24096386,667045947eb812cbdacbf325,66704d8d306633c4322456e0,,,,,,,,,,,,,,,,,,,,,,,,,,,,,,,,,,,,,,,,,,,464.4789,465.3716,5.747222222,0.8724,0.0,19.0,19.0,11.0,1.0,song_indices/Despacito_LuisFonsiDaddyYankee.csv,,,,,,,,,,,,,,,,,,,,,,,,,,,,,,,,,,,,,,,,,,,,,,,
,,,,,652943,1,2024-06-17_10h52.46.634,experiment,2024.1.5,Win32,60.24096386,667045947eb812cbdacbf325,66704d8d306633c4322456e0,,,,,,,,,,,,,,,,,,,,,,,,,,,,,,,,,,,465.3739,472.2199,0.0,0.0,0.0,1.0,1.0,SoundStimuli/IWannaDanceWithSomebody_WhitneyHouston_Cover5S.wav,,,,,,,,,,,,,,,,,,,,,,,,,,,,,,,,,,,,,,,,,,,,,,,,,,,,,,,,,
,,,,,652943,1,2024-06-17_10h52.46.634,experiment,2024.1.5,Win32,60.24096386,667045947eb812cbdacbf325,66704d8d306633c4322456e0,,,,,,,,,,,,,,,,,,,,,,,,,,,,,,,,,,,472.2426,477.8256,0.0,1.0,1.0,0.0,1.0,SoundStimuli/IWannaDanceWithSomebody_WhitneyHouston_Original5S.wav,,,,,,,,,,,,,,,,,,,,,,,,,,,,,,,,,,,,,,,,,,,,,,,,,,,,,,,,,
,,,,,652943,1,2024-06-17_10h52.46.634,experiment,2024.1.5,Win32,60.24096386,667045947eb812cbdacbf325,66704d8d306633c4322456e0,,,,,,,,,,,,,,,,,,,,,,,,,,,,,,,,,,,,,,,,,,,477.8258,479.6372,2.002777778,1.7872,0.0,20.0,20.0,13.0,1.0,song_indices/IWannaDanceWithSomebody_WhitneyHouston.csv,,,,,,,,,,,,,,,,,,,,,,,,,,,,,,,,,,,,,,,,,,,,,,,
,,,,,652943,1,2024-06-17_10h52.46.634,experiment,2024.1.5,Win32,60.24096386,667045947eb812cbdacbf325,66704d8d306633c4322456e0,,,,,,,,,,,,,,,,,,,,,,,,,,,,,,,,,,,479.6397,485.7473,0.0,0.0,0.0,0.0,1.0,SoundStimuli/HeatWaves_GlassAnimals_Original5S.wav,,,,,,,,,,,,,,,,,,,,,,,,,,,,,,,,,,,,,,,,,,,,,,,,,,,,,,,,,
,,,,,652943,1,2024-06-17_10h52.46.634,experiment,2024.1.5,Win32,60.24096386,667045947eb812cbdacbf325,66704d8d306633c4322456e0,,,,,,,,,,,,,,,,,,,,,,,,,,,,,,,,,,,485.7669,494.3551,0.0,1.0,1.0,1.0,1.0,SoundStimuli/HeatWaves_GlassAnimals_Cover5S.wav,,,,,,,,,,,,,,,,,,,,,,,,,,,,,,,,,,,,,,,,,,,,,,,,,,,,,,,,,
,,,,,652943,1,2024-06-17_10h52.46.634,experiment,2024.1.5,Win32,60.24096386,667045947eb812cbdacbf325,66704d8d306633c4322456e0,,,,,,,,,,,,,,,,,,,,,,,,,,,,,,,,,,,,,,,,,,,494.3555,495.5213,1.908333333,1.1365,0.0,21.0,21.0,10.0,1.0,song_indices/HeatWaves_GlassAnimals.csv,,,,,,,,,,,,,,,,,,,,,,,,,,,,,,,,,,,,,,,,,,,,,,,
,,,,,652943,1,2024-06-17_10h52.46.634,experiment,2024.1.5,Win32,60.24096386,667045947eb812cbdacbf325,66704d8d306633c4322456e0,,,,,,,,,,,,,,,,,,,,,,,,,,,,,,,,,,,495.5237,501.5555,0.0,0.0,0.0,1.0,1.0,SoundStimuli/IWantToHoldYourHand_TheBeatles_Cover5S.wav,,,,,,,,,,,,,,,,,,,,,,,,,,,,,,,,,,,,,,,,,,,,,,,,,,,,,,,,,
,,,,,652943,1,2024-06-17_10h52.46.634,experiment,2024.1.5,Win32,60.24096386,667045947eb812cbdacbf325,66704d8d306633c4322456e0,,,,,,,,,,,,,,,,,,,,,,,,,,,,,,,,,,,501.576,507.35,0.0,1.0,1.0,0.0,1.0,SoundStimuli/IWantToHoldYourHand_TheBeatles_Original5S.wav,,,,,,,,,,,,,,,,,,,,,,,,,,,,,,,,,,,,,,,,,,,,,,,,,,,,,,,,,
,,,,,652943,1,2024-06-17_10h52.46.634,experiment,2024.1.5,Win32,60.24096386,667045947eb812cbdacbf325,66704d8d306633c4322456e0,,,,,,,,,,,,,,,,,,,,,,,,,,,,,,,,,,,,,,,,,,,507.3502,508.3927,1.9,1.0231,0.0,22.0,22.0,19.0,1.0,song_indices/IWantToHoldYourHand_TheBeatles.csv,,,,,,,,,,,,,,,,,,,,,,,,,,,,,,,,,,,,,,,,,,,,,,,
,,,,,652943,1,2024-06-17_10h52.46.634,experiment,2024.1.5,Win32,60.24096386,667045947eb812cbdacbf325,66704d8d306633c4322456e0,,,,,,,,,,,,,,,,,,,,,,,,,,,,,,,,,,,,,,,,,,,,,,,,,,,,,508.3938,511.7001,space,3.267,,0.0,0.0,0.0,0.0,1.0,choose_song_b1.csv,,,,,,,,,,,,,,,,,,,,,,,,,,,,,,,,,,,,
,,,,,652943,1,2024-06-17_10h52.46.634,experiment,2024.1.5,Win32,60.24096386,667045947eb812cbdacbf325,66704d8d306633c4322456e0,,,,,,,,,,,,,,,,,,,,,,,,,,,,,,,,,,,511.7024,517.8162,0.0,0.0,0.0,1.0,1.0,SoundStimuli/TossinAndTurnin_BobbyLewis_Cover5S.wav,,,,,,,,,,,,,,,,,,,,,,,,,,,,,,,,,,,,,,,,,,,,,,,,,,,,,,,,,
,,,,,652943,1,2024-06-17_10h52.46.634,experiment,2024.1.5,Win32,60.24096386,667045947eb812cbdacbf325,66704d8d306633c4322456e0,,,,,,,,,,,,,,,,,,,,,,,,,,,,,,,,,,,517.8363,523.891,0.0,1.0,1.0,0.0,1.0,SoundStimuli/TossinAndTurnin_BobbyLewis_Original5S.wav,,,,,,,,,,,,,,,,,,,,,,,,,,,,,,,,,,,,,,,,,,,,,,,,,,,,,,,,,
,,,,,652943,1,2024-06-17_10h52.46.634,experiment,2024.1.5,Win32,60.24096386,667045947eb812cbdacbf325,66704d8d306633c4322456e0,,,,,,,,,,,,,,,,,,,,,,,,,,,,,,,,,,,,,,,,,,,523.8913,526.1402,4.047222222,2.219,0.0,0.0,0.0,13.0,1.0,song_indices/TossinAndTurnin_BobbyLewis.csv,,,,,,,,,,,,,,,,,,,,,,,,,,,,,,,,,,,,,,,,,,,,,,,
,,,,,652943,1,2024-06-17_10h52.46.634,experiment,2024.1.5,Win32,60.24096386,667045947eb812cbdacbf325,66704d8d306633c4322456e0,,,,,,,,,,,,,,,,,,,,,,,,,,,,,,,,,,,526.142,532.527,0.0,0.0,0.0,0.0,1.0,SoundStimuli/FlashdanceWhatAFeeling_IreneCara_Original5S.wav,,,,,,,,,,,,,,,,,,,,,,,,,,,,,,,,,,,,,,,,,,,,,,,,,,,,,,,,,
,,,,,652943,1,2024-06-17_10h52.46.634,experiment,2024.1.5,Win32,60.24096386,667045947eb812cbdacbf325,66704d8d306633c4322456e0,,,,,,,,,,,,,,,,,,,,,,,,,,,,,,,,,,,532.5453,539.8354,0.0,1.0,1.0,1.0,1.0,SoundStimuli/FlashdanceWhatAFeeling_IreneCara_Cover5S.wav,,,,,,,,,,,,,,,,,,,,,,,,,,,,,,,,,,,,,,,,,,,,,,,,,,,,,,,,,
,,,,,652943,1,2024-06-17_10h52.46.634,experiment,2024.1.5,Win32,60.24096386,667045947eb812cbdacbf325,66704d8d306633c4322456e0,,,,,,,,,,,,,,,,,,,,,,,,,,,,,,,,,,,,,,,,,,,539.8356,541.2418,6.158333333,1.379,0.0,1.0,1.0,18.0,1.0,song_indices/FlashdanceWhatAFeeling_IreneCara.csv,,,,,,,,,,,,,,,,,,,,,,,,,,,,,,,,,,,,,,,,,,,,,,,
,,,,,652943,1,2024-06-17_10h52.46.634,experiment,2024.1.5,Win32,60.24096386,667045947eb812cbdacbf325,66704d8d306633c4322456e0,,,,,,,,,,,,,,,,,,,,,,,,,,,,,,,,,,,541.2447,546.9521,0.0,0.0,0.0,1.0,1.0,SoundStimuli/Levitating_DuaLipa_Cover5S.wav,,,,,,,,,,,,,,,,,,,,,,,,,,,,,,,,,,,,,,,,,,,,,,,,,,,,,,,,,
,,,,,652943,1,2024-06-17_10h52.46.634,experiment,2024.1.5,Win32,60.24096386,667045947eb812cbdacbf325,66704d8d306633c4322456e0,,,,,,,,,,,,,,,,,,,,,,,,,,,,,,,,,,,546.971,552.9759,0.0,1.0,1.0,0.0,1.0,SoundStimuli/Levitating_DuaLipa_Original5S.wav,,,,,,,,,,,,,,,,,,,,,,,,,,,,,,,,,,,,,,,,,,,,,,,,,,,,,,,,,
,,,,,652943,1,2024-06-17_10h52.46.634,experiment,2024.1.5,Win32,60.24096386,667045947eb812cbdacbf325,66704d8d306633c4322456e0,,,,,,,,,,,,,,,,,,,,,,,,,,,,,,,,,,,,,,,,,,,552.9763,553.8091,2.172222222,0.8056,0.0,2.0,2.0,10.0,1.0,song_indices/Levitating_DuaLipa.csv,,,,,,,,,,,,,,,,,,,,,,,,,,,,,,,,,,,,,,,,,,,,,,,
,,,,,652943,1,2024-06-17_10h52.46.634,experiment,2024.1.5,Win32,60.24096386,667045947eb812cbdacbf325,66704d8d306633c4322456e0,,,,,,,,,,,,,,,,,,,,,,,,,,,,,,,,,,,553.811,558.9431,0.0,0.0,0.0,1.0,1.0,SoundStimuli/JoyToTheWorld_ThreeDogNight_Cover5S.wav,,,,,,,,,,,,,,,,,,,,,,,,,,,,,,,,,,,,,,,,,,,,,,,,,,,,,,,,,
,,,,,652943,1,2024-06-17_10h52.46.634,experiment,2024.1.5,Win32,60.24096386,667045947eb812cbdacbf325,66704d8d306633c4322456e0,,,,,,,,,,,,,,,,,,,,,,,,,,,,,,,,,,,558.9635,565.0709,0.0,1.0,1.0,0.0,1.0,SoundStimuli/JoyToTheWorld_ThreeDogNight_Original5S.wav,,,,,,,,,,,,,,,,,,,,,,,,,,,,,,,,,,,,,,,,,,,,,,,,,,,,,,,,,
,,,,,652943,1,2024-06-17_10h52.46.634,experiment,2024.1.5,Win32,60.24096386,667045947eb812cbdacbf325,66704d8d306633c4322456e0,,,,,,,,,,,,,,,,,,,,,,,,,,,,,,,,,,,,,,,,,,,565.0711,565.9433,6.294444444,0.8456,0.0,3.0,3.0,8.0,1.0,song_indices/JoyToTheWorld_ThreeDogNight.csv,,,,,,,,,,,,,,,,,,,,,,,,,,,,,,,,,,,,,,,,,,,,,,,
,,,,,652943,1,2024-06-17_10h52.46.634,experiment,2024.1.5,Win32,60.24096386,667045947eb812cbdacbf325,66704d8d306633c4322456e0,,,,,,,,,,,,,,,,,,,,,,,,,,,,,,,,,,,565.9451,571.8865,0.0,0.0,0.0,0.0,1.0,SoundStimuli/Respect_ArethaFranklin_Original5S.wav,,,,,,,,,,,,,,,,,,,,,,,,,,,,,,,,,,,,,,,,,,,,,,,,,,,,,,,,,
,,,,,652943,1,2024-06-17_10h52.46.634,experiment,2024.1.5,Win32,60.24096386,667045947eb812cbdacbf325,66704d8d306633c4322456e0,,,,,,,,,,,,,,,,,,,,,,,,,,,,,,,,,,,571.9017,577.9539,0.0,1.0,1.0,1.0,1.0,SoundStimuli/Respect_ArethaFranklin_Cover5S.wav,,,,,,,,,,,,,,,,,,,,,,,,,,,,,,,,,,,,,,,,,,,,,,,,,,,,,,,,,
,,,,,652943,1,2024-06-17_10h52.46.634,experiment,2024.1.5,Win32,60.24096386,667045947eb812cbdacbf325,66704d8d306633c4322456e0,,,,,,,,,,,,,,,,,,,,,,,,,,,,,,,,,,,,,,,,,,,577.954,580.3682,1.575,2.3976,0.0,4.0,4.0,0.0,1.0,song_indices/Respect_ArethaFranklin.csv,,,,,,,,,,,,,,,,,,,,,,,,,,,,,,,,,,,,,,,,,,,,,,,
,,,,,652943,1,2024-06-17_10h52.46.634,experiment,2024.1.5,Win32,60.24096386,667045947eb812cbdacbf325,66704d8d306633c4322456e0,,,,,,,,,,,,,,,,,,,,,,,,,,,,,,,,,,,580.37,586.563,0.0,0.0,0.0,0.0,1.0,SoundStimuli/SaveYourTears_TheWeekndArianaGrande_Original5S.wav,,,,,,,,,,,,,,,,,,,,,,,,,,,,,,,,,,,,,,,,,,,,,,,,,,,,,,,,,
,,,,,652943,1,2024-06-17_10h52.46.634,experiment,2024.1.5,Win32,60.24096386,667045947eb812cbdacbf325,66704d8d306633c4322456e0,,,,,,,,,,,,,,,,,,,,,,,,,,,,,,,,,,,586.5849,592.463,0.0,1.0,1.0,1.0,1.0,SoundStimuli/SaveYourTears_TheWeekndArianaGrande_Cover5S.wav,,,,,,,,,,,,,,,,,,,,,,,,,,,,,,,,,,,,,,,,,,,,,,,,,,,,,,,,,
,,,,,652943,1,2024-06-17_10h52.46.634,experiment,2024.1.5,Win32,60.24096386,667045947eb812cbdacbf325,66704d8d306633c4322456e0,,,,,,,,,,,,,,,,,,,,,,,,,,,,,,,,,,,,,,,,,,,592.4631,594.2792,2.636111111,1.7927,0.0,5.0,5.0,12.0,1.0,song_indices/SaveYourTears_TheWeekndArianaGrande.csv,,,,,,,,,,,,,,,,,,,,,,,,,,,,,,,,,,,,,,,,,,,,,,,
,,,,,652943,1,2024-06-17_10h52.46.634,experiment,2024.1.5,Win32,60.24096386,667045947eb812cbdacbf325,66704d8d306633c4322456e0,,,,,,,,,,,,,,,,,,,,,,,,,,,,,,,,,,,594.282,601.1298,0.0,0.0,0.0,1.0,1.0,SoundStimuli/PokerFace_LadyGaga_Cover5S.wav,,,,,,,,,,,,,,,,,,,,,,,,,,,,,,,,,,,,,,,,,,,,,,,,,,,,,,,,,
,,,,,652943,1,2024-06-17_10h52.46.634,experiment,2024.1.5,Win32,60.24096386,667045947eb812cbdacbf325,66704d8d306633c4322456e0,,,,,,,,,,,,,,,,,,,,,,,,,,,,,,,,,,,601.1511,608.1567,0.0,1.0,1.0,0.0,1.0,SoundStimuli/PokerFace_LadyGaga_Original5S.wav,,,,,,,,,,,,,,,,,,,,,,,,,,,,,,,,,,,,,,,,,,,,,,,,,,,,,,,,,
,,,,,652943,1,2024-06-17_10h52.46.634,experiment,2024.1.5,Win32,60.24096386,667045947eb812cbdacbf325,66704d8d306633c4322456e0,,,,,,,,,,,,,,,,,,,,,,,,,,,,,,,,,,,,,,,,,,,608.157,608.9575,2.122222222,0.778,0.0,6.0,6.0,23.0,1.0,song_indices/PokerFace_LadyGaga.csv,,,,,,,,,,,,,,,,,,,,,,,,,,,,,,,,,,,,,,,,,,,,,,,
,,,,,652943,1,2024-06-17_10h52.46.634,experiment,2024.1.5,Win32,60.24096386,667045947eb812cbdacbf325,66704d8d306633c4322456e0,,,,,,,,,,,,,,,,,,,,,,,,,,,,,,,,,,,608.9591,614.8744,0.0,0.0,0.0,1.0,1.0,SoundStimuli/Irreplaceable_Beyonce_Cover5S.wav,,,,,,,,,,,,,,,,,,,,,,,,,,,,,,,,,,,,,,,,,,,,,,,,,,,,,,,,,
,,,,,652943,1,2024-06-17_10h52.46.634,experiment,2024.1.5,Win32,60.24096386,667045947eb812cbdacbf325,66704d8d306633c4322456e0,,,,,,,,,,,,,,,,,,,,,,,,,,,,,,,,,,,614.8938,620.7655,0.0,1.0,1.0,0.0,1.0,SoundStimuli/Irreplaceable_Beyonce_Original5S.wav,,,,,,,,,,,,,,,,,,,,,,,,,,,,,,,,,,,,,,,,,,,,,,,,,,,,,,,,,
,,,,,652943,1,2024-06-17_10h52.46.634,experiment,2024.1.5,Win32,60.24096386,667045947eb812cbdacbf325,66704d8d306633c4322456e0,,,,,,,,,,,,,,,,,,,,,,,,,,,,,,,,,,,,,,,,,,,620.7657,621.448,4.013888889,0.6613,0.0,7.0,7.0,19.0,1.0,song_indices/Irreplaceable_Beyonce.csv,,,,,,,,,,,,,,,,,,,,,,,,,,,,,,,,,,,,,,,,,,,,,,,
,,,,,652943,1,2024-06-17_10h52.46.634,experiment,2024.1.5,Win32,60.24096386,667045947eb812cbdacbf325,66704d8d306633c4322456e0,,,,,,,,,,,,,,,,,,,,,,,,,,,,,,,,,,,621.4506,628.2485,0.0,0.0,0.0,1.0,1.0,SoundStimuli/SomebodyThatIUsedtoKnow_Gotye_Cover5S.wav,,,,,,,,,,,,,,,,,,,,,,,,,,,,,,,,,,,,,,,,,,,,,,,,,,,,,,,,,
,,,,,652943,1,2024-06-17_10h52.46.634,experiment,2024.1.5,Win32,60.24096386,667045947eb812cbdacbf325,66704d8d306633c4322456e0,,,,,,,,,,,,,,,,,,,,,,,,,,,,,,,,,,,628.2663,635.4992,0.0,1.0,1.0,0.0,1.0,SoundStimuli/SomebodyThatIUsedtoKnow_Gotye_Original5S.wav,,,,,,,,,,,,,,,,,,,,,,,,,,,,,,,,,,,,,,,,,,,,,,,,,,,,,,,,,
,,,,,652943,1,2024-06-17_10h52.46.634,experiment,2024.1.5,Win32,60.24096386,667045947eb812cbdacbf325,66704d8d306633c4322456e0,,,,,,,,,,,,,,,,,,,,,,,,,,,,,,,,,,,,,,,,,,,635.4994,636.9665,5.375,1.4481,0.0,8.0,8.0,7.0,1.0,song_indices/SomebodyThatIUsedtoKnow_Gotye.csv,,,,,,,,,,,,,,,,,,,,,,,,,,,,,,,,,,,,,,,,,,,,,,,
,,,,,652943,1,2024-06-17_10h52.46.634,experiment,2024.1.5,Win32,60.24096386,667045947eb812cbdacbf325,66704d8d306633c4322456e0,,,,,,,,,,,,,,,,,,,,,,,,,,,,,,,,,,,636.9691,643.9606,0.0,0.0,0.0,1.0,1.0,SoundStimuli/Dilemma_NellyKellyRowland_Cover5S.wav,,,,,,,,,,,,,,,,,,,,,,,,,,,,,,,,,,,,,,,,,,,,,,,,,,,,,,,,,
,,,,,652943,1,2024-06-17_10h52.46.634,experiment,2024.1.5,Win32,60.24096386,667045947eb812cbdacbf325,66704d8d306633c4322456e0,,,,,,,,,,,,,,,,,,,,,,,,,,,,,,,,,,,643.9798,650.1675,0.0,1.0,1.0,0.0,1.0,SoundStimuli/Dilemma_NellyKellyRowland_Original5S.wav,,,,,,,,,,,,,,,,,,,,,,,,,,,,,,,,,,,,,,,,,,,,,,,,,,,,,,,,,
,,,,,652943,1,2024-06-17_10h52.46.634,experiment,2024.1.5,Win32,60.24096386,667045947eb812cbdacbf325,66704d8d306633c4322456e0,,,,,,,,,,,,,,,,,,,,,,,,,,,,,,,,,,,,,,,,,,,650.1679,651.0337,1.625,0.842,0.0,9.0,9.0,2.0,1.0,song_indices/Dilemma_NellyKellyRowland.csv,,,,,,,,,,,,,,,,,,,,,,,,,,,,,,,,,,,,,,,,,,,,,,,
,,,,,652943,1,2024-06-17_10h52.46.634,experiment,2024.1.5,Win32,60.24096386,667045947eb812cbdacbf325,66704d8d306633c4322456e0,,,,,,,,,,,,,,,,,,,,,,,,,,,,,,,,,,,651.036,657.3351,0.0,0.0,0.0,0.0,1.0,SoundStimuli/LetsGetItOn_MarvinGaye_Original5S.wav,,,,,,,,,,,,,,,,,,,,,,,,,,,,,,,,,,,,,,,,,,,,,,,,,,,,,,,,,
,,,,,652943,1,2024-06-17_10h52.46.634,experiment,2024.1.5,Win32,60.24096386,667045947eb812cbdacbf325,66704d8d306633c4322456e0,,,,,,,,,,,,,,,,,,,,,,,,,,,,,,,,,,,657.3551,664.0112,0.0,1.0,1.0,1.0,1.0,SoundStimuli/LetsGetItOn_MarvinGaye_Cover5S.wav,,,,,,,,,,,,,,,,,,,,,,,,,,,,,,,,,,,,,,,,,,,,,,,,,,,,,,,,,
,,,,,652943,1,2024-06-17_10h52.46.634,experiment,2024.1.5,Win32,60.24096386,667045947eb812cbdacbf325,66704d8d306633c4322456e0,,,,,,,,,,,,,,,,,,,,,,,,,,,,,,,,,,,,,,,,,,,664.0115,664.9021,3.455555556,0.8663,0.0,10.0,10.0,20.0,1.0,song_indices/LetsGetItOn_MarvinGaye.csv,,,,,,,,,,,,,,,,,,,,,,,,,,,,,,,,,,,,,,,,,,,,,,,
,,,,,652943,1,2024-06-17_10h52.46.634,experiment,2024.1.5,Win32,60.24096386,667045947eb812cbdacbf325,66704d8d306633c4322456e0,,,,,,,,,,,,,,,,,,,,,,,,,,,,,,,,,,,664.905,671.419,0.0,0.0,0.0,0.0,1.0,SoundStimuli/Dreams_FleetwoodMac_Original5S.wav,,,,,,,,,,,,,,,,,,,,,,,,,,,,,,,,,,,,,,,,,,,,,,,,,,,,,,,,,
,,,,,652943,1,2024-06-17_10h52.46.634,experiment,2024.1.5,Win32,60.24096386,667045947eb812cbdacbf325,66704d8d306633c4322456e0,,,,,,,,,,,,,,,,,,,,,,,,,,,,,,,,,,,671.4375,679.2795,0.0,1.0,1.0,1.0,1.0,SoundStimuli/Dreams_FleetwoodMac_Cover5S.wav,,,,,,,,,,,,,,,,,,,,,,,,,,,,,,,,,,,,,,,,,,,,,,,,,,,,,,,,,
,,,,,652943,1,2024-06-17_10h52.46.634,experiment,2024.1.5,Win32,60.24096386,667045947eb812cbdacbf325,66704d8d306633c4322456e0,,,,,,,,,,,,,,,,,,,,,,,,,,,,,,,,,,,,,,,,,,,679.2797,679.7541,2.405555556,0.4511,0.0,11.0,11.0,1.0,1.0,song_indices/Dreams_FleetwoodMac.csv,,,,,,,,,,,,,,,,,,,,,,,,,,,,,,,,,,,,,,,,,,,,,,,
,,,,,652943,1,2024-06-17_10h52.46.634,experiment,2024.1.5,Win32,60.24096386,667045947eb812cbdacbf325,66704d8d306633c4322456e0,,,,,,,,,,,,,,,,,,,,,,,,,,,,,,,,,,,679.7562,686.8307,0.0,0.0,0.0,1.0,1.0,SoundStimuli/ComeAndGetYourLove_Redbone_Cover5S.wav,,,,,,,,,,,,,,,,,,,,,,,,,,,,,,,,,,,,,,,,,,,,,,,,,,,,,,,,,
,,,,,652943,1,2024-06-17_10h52.46.634,experiment,2024.1.5,Win32,60.24096386,667045947eb812cbdacbf325,66704d8d306633c4322456e0,,,,,,,,,,,,,,,,,,,,,,,,,,,,,,,,,,,686.8506,692.9374,0.0,1.0,1.0,0.0,1.0,SoundStimuli/ComeAndGetYourLove_Redbone_Original5S.wav,,,,,,,,,,,,,,,,,,,,,,,,,,,,,,,,,,,,,,,,,,,,,,,,,,,,,,,,,
,,,,,652943,1,2024-06-17_10h52.46.634,experiment,2024.1.5,Win32,60.24096386,667045947eb812cbdacbf325,66704d8d306633c4322456e0,,,,,,,,,,,,,,,,,,,,,,,,,,,,,,,,,,,,,,,,,,,692.9378,693.5876,3.630555556,0.6242,0.0,12.0,12.0,22.0,1.0,song_indices/ComeAndGetYourLove_Redbone.csv,,,,,,,,,,,,,,,,,,,,,,,,,,,,,,,,,,,,,,,,,,,,,,,
,,,,,652943,1,2024-06-17_10h52.46.634,experiment,2024.1.5,Win32,60.24096386,667045947eb812cbdacbf325,66704d8d306633c4322456e0,,,,,,,,,,,,,,,,,,,,,,,,,,,,,,,,,,,693.5899,700.3885,0.0,0.0,0.0,1.0,1.0,SoundStimuli/BlindingLights_TheWeeknd_Cover5S.wav,,,,,,,,,,,,,,,,,,,,,,,,,,,,,,,,,,,,,,,,,,,,,,,,,,,,,,,,,
,,,,,652943,1,2024-06-17_10h52.46.634,experiment,2024.1.5,Win32,60.24096386,667045947eb812cbdacbf325,66704d8d306633c4322456e0,,,,,,,,,,,,,,,,,,,,,,,,,,,,,,,,,,,700.4074,706.8881,0.0,1.0,1.0,0.0,1.0,SoundStimuli/BlindingLights_TheWeeknd_Original5S.wav,,,,,,,,,,,,,,,,,,,,,,,,,,,,,,,,,,,,,,,,,,,,,,,,,,,,,,,,,
,,,,,652943,1,2024-06-17_10h52.46.634,experiment,2024.1.5,Win32,60.24096386,667045947eb812cbdacbf325,66704d8d306633c4322456e0,,,,,,,,,,,,,,,,,,,,,,,,,,,,,,,,,,,,,,,,,,,706.8883,707.4715,5.041666667,0.5674,0.0,13.0,13.0,21.0,1.0,song_indices/BlindingLights_TheWeeknd.csv,,,,,,,,,,,,,,,,,,,,,,,,,,,,,,,,,,,,,,,,,,,,,,,
,,,,,652943,1,2024-06-17_10h52.46.634,experiment,2024.1.5,Win32,60.24096386,667045947eb812cbdacbf325,66704d8d306633c4322456e0,,,,,,,,,,,,,,,,,,,,,,,,,,,,,,,,,,,707.4732,713.4991,0.0,0.0,0.0,0.0,1.0,SoundStimuli/LeFreak_Chic_Original5S.wav,,,,,,,,,,,,,,,,,,,,,,,,,,,,,,,,,,,,,,,,,,,,,,,,,,,,,,,,,
,,,,,652943,1,2024-06-17_10h52.46.634,experiment,2024.1.5,Win32,60.24096386,667045947eb812cbdacbf325,66704d8d306633c4322456e0,,,,,,,,,,,,,,,,,,,,,,,,,,,,,,,,,,,713.5187,719.0229,0.0,1.0,1.0,1.0,1.0,SoundStimuli/LeFreak_Chic_Cover5S.wav,,,,,,,,,,,,,,,,,,,,,,,,,,,,,,,,,,,,,,,,,,,,,,,,,,,,,,,,,
,,,,,652943,1,2024-06-17_10h52.46.634,experiment,2024.1.5,Win32,60.24096386,667045947eb812cbdacbf325,66704d8d306633c4322456e0,,,,,,,,,,,,,,,,,,,,,,,,,,,,,,,,,,,,,,,,,,,719.0232,720.356,2.775,1.3079,0.0,14.0,14.0,11.0,1.0,song_indices/LeFreak_Chic.csv,,,,,,,,,,,,,,,,,,,,,,,,,,,,,,,,,,,,,,,,,,,,,,,
,,,,,652943,1,2024-06-17_10h52.46.634,experiment,2024.1.5,Win32,60.24096386,667045947eb812cbdacbf325,66704d8d306633c4322456e0,,,,,,,,,,,,,,,,,,,,,,,,,,,,,,,,,,,720.3574,726.4912,0.0,0.0,0.0,0.0,1.0,SoundStimuli/Superstition_StevieWonder_Original5S.wav,,,,,,,,,,,,,,,,,,,,,,,,,,,,,,,,,,,,,,,,,,,,,,,,,,,,,,,,,
,,,,,652943,1,2024-06-17_10h52.46.634,experiment,2024.1.5,Win32,60.24096386,667045947eb812cbdacbf325,66704d8d306633c4322456e0,,,,,,,,,,,,,,,,,,,,,,,,,,,,,,,,,,,726.5118,731.8072,0.0,1.0,1.0,1.0,1.0,SoundStimuli/Superstition_StevieWonder_Cover5S.wav,,,,,,,,,,,,,,,,,,,,,,,,,,,,,,,,,,,,,,,,,,,,,,,,,,,,,,,,,
,,,,,652943,1,2024-06-17_10h52.46.634,experiment,2024.1.5,Win32,60.24096386,667045947eb812cbdacbf325,66704d8d306633c4322456e0,,,,,,,,,,,,,,,,,,,,,,,,,,,,,,,,,,,,,,,,,,,731.8074,733.2413,4.344444444,1.4097,0.0,15.0,15.0,15.0,1.0,song_indices/Superstition_StevieWonder.csv,,,,,,,,,,,,,,,,,,,,,,,,,,,,,,,,,,,,,,,,,,,,,,,
,,,,,652943,1,2024-06-17_10h52.46.634,experiment,2024.1.5,Win32,60.24096386,667045947eb812cbdacbf325,66704d8d306633c4322456e0,,,,,,,,,,,,,,,,,,,,,,,,,,,,,,,,,,,733.2444,739.4583,0.0,0.0,0.0,0.0,1.0,SoundStimuli/TikTok_Kesha_Original5S.wav,,,,,,,,,,,,,,,,,,,,,,,,,,,,,,,,,,,,,,,,,,,,,,,,,,,,,,,,,
,,,,,652943,1,2024-06-17_10h52.46.634,experiment,2024.1.5,Win32,60.24096386,667045947eb812cbdacbf325,66704d8d306633c4322456e0,,,,,,,,,,,,,,,,,,,,,,,,,,,,,,,,,,,739.4778,747.0091,0.0,1.0,1.0,1.0,1.0,SoundStimuli/TikTok_Kesha_Cover5S.wav,,,,,,,,,,,,,,,,,,,,,,,,,,,,,,,,,,,,,,,,,,,,,,,,,,,,,,,,,
,,,,,652943,1,2024-06-17_10h52.46.634,experiment,2024.1.5,Win32,60.24096386,667045947eb812cbdacbf325,66704d8d306633c4322456e0,,,,,,,,,,,,,,,,,,,,,,,,,,,,,,,,,,,,,,,,,,,747.0094,747.5256,1.6,0.4907,0.0,16.0,16.0,3.0,1.0,song_indices/TikTok_Kesha.csv,,,,,,,,,,,,,,,,,,,,,,,,,,,,,,,,,,,,,,,,,,,,,,,
,,,,,652943,1,2024-06-17_10h52.46.634,experiment,2024.1.5,Win32,60.24096386,667045947eb812cbdacbf325,66704d8d306633c4322456e0,,,,,,,,,,,,,,,,,,,,,,,,,,,,,,,,,,,747.5278,753.6261,0.0,0.0,0.0,0.0,1.0,SoundStimuli/UnbreakMyHeart_ToniBraxton_Original5S.wav,,,,,,,,,,,,,,,,,,,,,,,,,,,,,,,,,,,,,,,,,,,,,,,,,,,,,,,,,
,,,,,652943,1,2024-06-17_10h52.46.634,experiment,2024.1.5,Win32,60.24096386,667045947eb812cbdacbf325,66704d8d306633c4322456e0,,,,,,,,,,,,,,,,,,,,,,,,,,,,,,,,,,,753.6465,757.626,0.0,1.0,1.0,1.0,1.0,SoundStimuli/UnbreakMyHeart_ToniBraxton_Cover5S.wav,,,,,,,,,,,,,,,,,,,,,,,,,,,,,,,,,,,,,,,,,,,,,,,,,,,,,,,,,
,,,,,652943,1,2024-06-17_10h52.46.634,experiment,2024.1.5,Win32,60.24096386,667045947eb812cbdacbf325,66704d8d306633c4322456e0,,,,,,,,,,,,,,,,,,,,,,,,,,,,,,,,,,,,,,,,,,,757.6263,760.1946,3.088888889,2.538,0.0,17.0,17.0,16.0,1.0,song_indices/UnbreakMyHeart_ToniBraxton.csv,,,,,,,,,,,,,,,,,,,,,,,,,,,,,,,,,,,,,,,,,,,,,,,
,,,,,652943,1,2024-06-17_10h52.46.634,experiment,2024.1.5,Win32,60.24096386,667045947eb812cbdacbf325,66704d8d306633c4322456e0,,,,,,,,,,,,,,,,,,,,,,,,,,,,,,,,,,,760.1971,766.9607,0.0,0.0,0.0,0.0,1.0,SoundStimuli/BlurredLines_RobinThicke_Original5S.wav,,,,,,,,,,,,,,,,,,,,,,,,,,,,,,,,,,,,,,,,,,,,,,,,,,,,,,,,,
,,,,,652943,1,2024-06-17_10h52.46.634,experiment,2024.1.5,Win32,60.24096386,667045947eb812cbdacbf325,66704d8d306633c4322456e0,,,,,,,,,,,,,,,,,,,,,,,,,,,,,,,,,,,766.9806,774.0771,0.0,1.0,1.0,1.0,1.0,SoundStimuli/BlurredLines_RobinThicke_Cover5S.wav,,,,,,,,,,,,,,,,,,,,,,,,,,,,,,,,,,,,,,,,,,,,,,,,,,,,,,,,,
,,,,,652943,1,2024-06-17_10h52.46.634,experiment,2024.1.5,Win32,60.24096386,667045947eb812cbdacbf325,66704d8d306633c4322456e0,,,,,,,,,,,,,,,,,,,,,,,,,,,,,,,,,,,,,,,,,,,774.0774,774.4872,6.766666667,0.3923,0.0,18.0,18.0,9.0,1.0,song_indices/BlurredLines_RobinThicke.csv,,,,,,,,,,,,,,,,,,,,,,,,,,,,,,,,,,,,,,,,,,,,,,,
,,,,,652943,1,2024-06-17_10h52.46.634,experiment,2024.1.5,Win32,60.24096386,667045947eb812cbdacbf325,66704d8d306633c4322456e0,,,,,,,,,,,,,,,,,,,,,,,,,,,,,,,,,,,774.4889,779.961,0.0,0.0,0.0,1.0,1.0,SoundStimuli/HowDoILive_LeAnnRimes_Cover5S.wav,,,,,,,,,,,,,,,,,,,,,,,,,,,,,,,,,,,,,,,,,,,,,,,,,,,,,,,,,
,,,,,652943,1,2024-06-17_10h52.46.634,experiment,2024.1.5,Win32,60.24096386,667045947eb812cbdacbf325,66704d8d306633c4322456e0,,,,,,,,,,,,,,,,,,,,,,,,,,,,,,,,,,,779.9717,786.0048,0.0,1.0,1.0,0.0,1.0,SoundStimuli/HowDoILive_LeAnnRimes_Original5S.wav,,,,,,,,,,,,,,,,,,,,,,,,,,,,,,,,,,,,,,,,,,,,,,,,,,,,,,,,,
,,,,,652943,1,2024-06-17_10h52.46.634,experiment,2024.1.5,Win32,60.24096386,667045947eb812cbdacbf325,66704d8d306633c4322456e0,,,,,,,,,,,,,,,,,,,,,,,,,,,,,,,,,,,,,,,,,,,786.0051,786.4911,5.85,0.4659,0.0,19.0,19.0,17.0,1.0,song_indices/HowDoILive_LeAnnRimes.csv,,,,,,,,,,,,,,,,,,,,,,,,,,,,,,,,,,,,,,,,,,,,,,,
,,,,,652943,1,2024-06-17_10h52.46.634,experiment,2024.1.5,Win32,60.24096386,667045947eb812cbdacbf325,66704d8d306633c4322456e0,,,,,,,,,,,,,,,,,,,,,,,,,,,,,,,,,,,786.4929,792.9497,0.0,0.0,0.0,1.0,1.0,SoundStimuli/YouLightUpMyLife_DebbyBoone_Cover5S.wav,,,,,,,,,,,,,,,,,,,,,,,,,,,,,,,,,,,,,,,,,,,,,,,,,,,,,,,,,
,,,,,652943,1,2024-06-17_10h52.46.634,experiment,2024.1.5,Win32,60.24096386,667045947eb812cbdacbf325,66704d8d306633c4322456e0,,,,,,,,,,,,,,,,,,,,,,,,,,,,,,,,,,,792.9745,799.0458,0.0,1.0,1.0,0.0,1.0,SoundStimuli/YouLightUpMyLife_DebbyBoone_Original5S.wav,,,,,,,,,,,,,,,,,,,,,,,,,,,,,,,,,,,,,,,,,,,,,,,,,,,,,,,,,
,,,,,652943,1,2024-06-17_10h52.46.634,experiment,2024.1.5,Win32,60.24096386,667045947eb812cbdacbf325,66704d8d306633c4322456e0,,,,,,,,,,,,,,,,,,,,,,,,,,,,,,,,,,,,,,,,,,,799.0461,799.9961,6.980555556,0.928,0.0,20.0,20.0,4.0,1.0,song_indices/YouLightUpMyLife_DebbyBoone.csv,,,,,,,,,,,,,,,,,,,,,,,,,,,,,,,,,,,,,,,,,,,,,,,
,,,,,652943,1,2024-06-17_10h52.46.634,experiment,2024.1.5,Win32,60.24096386,667045947eb812cbdacbf325,66704d8d306633c4322456e0,,,,,,,,,,,,,,,,,,,,,,,,,,,,,,,,,,,799.9983,806.28,0.0,0.0,0.0,1.0,1.0,SoundStimuli/Kiss_Prince_Cover5S.wav,,,,,,,,,,,,,,,,,,,,,,,,,,,,,,,,,,,,,,,,,,,,,,,,,,,,,,,,,
,,,,,652943,1,2024-06-17_10h52.46.634,experiment,2024.1.5,Win32,60.24096386,667045947eb812cbdacbf325,66704d8d306633c4322456e0,,,,,,,,,,,,,,,,,,,,,,,,,,,,,,,,,,,806.2986,813.7148,0.0,1.0,1.0,0.0,1.0,SoundStimuli/Kiss_Prince_Original5S.wav,,,,,,,,,,,,,,,,,,,,,,,,,,,,,,,,,,,,,,,,,,,,,,,,,,,,,,,,,
,,,,,652943,1,2024-06-17_10h52.46.634,experiment,2024.1.5,Win32,60.24096386,667045947eb812cbdacbf325,66704d8d306633c4322456e0,,,,,,,,,,,,,,,,,,,,,,,,,,,,,,,,,,,,,,,,,,,813.7152,814.4304,1.255555556,0.6873,0.0,21.0,21.0,14.0,1.0,song_indices/Kiss_Prince.csv,,,,,,,,,,,,,,,,,,,,,,,,,,,,,,,,,,,,,,,,,,,,,,,
,,,,,652943,1,2024-06-17_10h52.46.634,experiment,2024.1.5,Win32,60.24096386,667045947eb812cbdacbf325,66704d8d306633c4322456e0,,,,,,,,,,,,,,,,,,,,,,,,,,,,,,,,,,,814.433,820.5148,0.0,0.0,0.0,0.0,1.0,SoundStimuli/Weak_SWV_Original5S.wav,,,,,,,,,,,,,,,,,,,,,,,,,,,,,,,,,,,,,,,,,,,,,,,,,,,,,,,,,
,,,,,652943,1,2024-06-17_10h52.46.634,experiment,2024.1.5,Win32,60.24096386,667045947eb812cbdacbf325,66704d8d306633c4322456e0,,,,,,,,,,,,,,,,,,,,,,,,,,,,,,,,,,,820.5364,827.0088,0.0,1.0,1.0,1.0,1.0,SoundStimuli/Weak_SWV_Cover5S.wav,,,,,,,,,,,,,,,,,,,,,,,,,,,,,,,,,,,,,,,,,,,,,,,,,,,,,,,,,
,,,,,652943,1,2024-06-17_10h52.46.634,experiment,2024.1.5,Win32,60.24096386,667045947eb812cbdacbf325,66704d8d306633c4322456e0,,,,,,,,,,,,,,,,,,,,,,,,,,,,,,,,,,,,,,,,,,,827.0089,827.4749,1.813888889,0.4471,0.0,22.0,22.0,6.0,1.0,song_indices/Weak_SWV.csv,,,,,,,,,,,,,,,,,,,,,,,,,,,,,,,,,,,,,,,,,,,,,,,
,,,,,652943,1,2024-06-17_10h52.46.634,experiment,2024.1.5,Win32,60.24096386,667045947eb812cbdacbf325,66704d8d306633c4322456e0,,,,,,,,,,,,,,,,,,,,,,,,,,,,,,,,,,,827.4767,833.4988,0.0,0.0,0.0,1.0,1.0,SoundStimuli/TheSign_AceOfBase_Cover5S.wav,,,,,,,,,,,,,,,,,,,,,,,,,,,,,,,,,,,,,,,,,,,,,,,,,,,,,,,,,
,,,,,652943,1,2024-06-17_10h52.46.634,experiment,2024.1.5,Win32,60.24096386,667045947eb812cbdacbf325,66704d8d306633c4322456e0,,,,,,,,,,,,,,,,,,,,,,,,,,,,,,,,,,,833.5191,839.666,0.0,1.0,1.0,0.0,1.0,SoundStimuli/TheSign_AceOfBase_Original5S.wav,,,,,,,,,,,,,,,,,,,,,,,,,,,,,,,,,,,,,,,,,,,,,,,,,,,,,,,,,
,,,,,652943,1,2024-06-17_10h52.46.634,experiment,2024.1.5,Win32,60.24096386,667045947eb812cbdacbf325,66704d8d306633c4322456e0,,,,,,,,,,,,,,,,,,,,,,,,,,,,,,,,,,,,,,,,,,,839.6663,840.5826,2.772222222,0.8945,0.0,23.0,23.0,5.0,1.0,song_indices/TheSign_AceOfBase.csv,,,,,,,,,,,,,,,,,,,,,,,,,,,,,,,,,,,,,,,,,,,,,,,
,,,,,652943,1,2024-06-17_10h52.46.634,experiment,2024.1.5,Win32,60.24096386,667045947eb812cbdacbf325,66704d8d306633c4322456e0,,,,,,,,,,,,,,,,,,,,,,,,,,,,,,,,,,,,,,,,,,,,,,,,,,,,,840.5828,842.4831,space,1.8873,,0.0,1.0,1.0,2.0,1.0,choose_song_b3.csv,,,,,,,,,,,,,,,,,,,,,,,,,,,,,,,,,,,,
,,,,,652943,1,2024-06-17_10h52.46.634,experiment,2024.1.5,Win32,60.24096386,667045947eb812cbdacbf325,66704d8d306633c4322456e0,,,,,,,,,,,,,,,,,,,,,,,,,,,,,,,,,,,842.4855,848.6932,0.0,0.0,0.0,0.0,1.0,SoundStimuli/NoScrubs_TLC_Original5S.wav,,,,,,,,,,,,,,,,,,,,,,,,,,,,,,,,,,,,,,,,,,,,,,,,,,,,,,,,,
,,,,,652943,1,2024-06-17_10h52.46.634,experiment,2024.1.5,Win32,60.24096386,667045947eb812cbdacbf325,66704d8d306633c4322456e0,,,,,,,,,,,,,,,,,,,,,,,,,,,,,,,,,,,848.7126,854.8341,0.0,1.0,1.0,1.0,1.0,SoundStimuli/NoScrubs_TLC_Cover5S.wav,,,,,,,,,,,,,,,,,,,,,,,,,,,,,,,,,,,,,,,,,,,,,,,,,,,,,,,,,
,,,,,652943,1,2024-06-17_10h52.46.634,experiment,2024.1.5,Win32,60.24096386,667045947eb812cbdacbf325,66704d8d306633c4322456e0,,,,,,,,,,,,,,,,,,,,,,,,,,,,,,,,,,,,,,,,,,,854.8344,855.8671,5.491666667,1.0065,0.0,0.0,0.0,14.0,1.0,song_indices/NoScrubs_TLC.csv,,,,,,,,,,,,,,,,,,,,,,,,,,,,,,,,,,,,,,,,,,,,,,,
,,,,,652943,1,2024-06-17_10h52.46.634,experiment,2024.1.5,Win32,60.24096386,667045947eb812cbdacbf325,66704d8d306633c4322456e0,,,,,,,,,,,,,,,,,,,,,,,,,,,,,,,,,,,855.8685,862.0849,0.0,0.0,0.0,1.0,1.0,SoundStimuli/NoOne_AliciaKeys_Cover5S.wav,,,,,,,,,,,,,,,,,,,,,,,,,,,,,,,,,,,,,,,,,,,,,,,,,,,,,,,,,
,,,,,652943,1,2024-06-17_10h52.46.634,experiment,2024.1.5,Win32,60.24096386,667045947eb812cbdacbf325,66704d8d306633c4322456e0,,,,,,,,,,,,,,,,,,,,,,,,,,,,,,,,,,,862.1055,869.8282,0.0,1.0,1.0,0.0,1.0,SoundStimuli/NoOne_AliciaKeys_Original5S.wav,,,,,,,,,,,,,,,,,,,,,,,,,,,,,,,,,,,,,,,,,,,,,,,,,,,,,,,,,
,,,,,652943,1,2024-06-17_10h52.46.634,experiment,2024.1.5,Win32,60.24096386,667045947eb812cbdacbf325,66704d8d306633c4322456e0,,,,,,,,,,,,,,,,,,,,,,,,,,,,,,,,,,,,,,,,,,,869.8285,870.8018,2.608333333,0.9473,0.0,1.0,1.0,19.0,1.0,song_indices/NoOne_AliciaKeys.csv,,,,,,,,,,,,,,,,,,,,,,,,,,,,,,,,,,,,,,,,,,,,,,,
,,,,,652943,1,2024-06-17_10h52.46.634,experiment,2024.1.5,Win32,60.24096386,667045947eb812cbdacbf325,66704d8d306633c4322456e0,,,,,,,,,,,,,,,,,,,,,,,,,,,,,,,,,,,870.8045,877.5475,0.0,0.0,0.0,0.0,1.0,SoundStimuli/PartyRockAnthem_LMFAO_Original5S.wav,,,,,,,,,,,,,,,,,,,,,,,,,,,,,,,,,,,,,,,,,,,,,,,,,,,,,,,,,
,,,,,652943,1,2024-06-17_10h52.46.634,experiment,2024.1.5,Win32,60.24096386,667045947eb812cbdacbf325,66704d8d306633c4322456e0,,,,,,,,,,,,,,,,,,,,,,,,,,,,,,,,,,,877.5661,884.3359,0.0,1.0,1.0,1.0,1.0,SoundStimuli/PartyRockAnthem_LMFAO_Cover5S.wav,,,,,,,,,,,,,,,,,,,,,,,,,,,,,,,,,,,,,,,,,,,,,,,,,,,,,,,,,
,,,,,652943,1,2024-06-17_10h52.46.634,experiment,2024.1.5,Win32,60.24096386,667045947eb812cbdacbf325,66704d8d306633c4322456e0,,,,,,,,,,,,,,,,,,,,,,,,,,,,,,,,,,,,,,,,,,,884.3362,884.7864,2.1,0.4313,0.0,2.0,2.0,2.0,1.0,song_indices/PartyRockAnthem_LMFAO.csv,,,,,,,,,,,,,,,,,,,,,,,,,,,,,,,,,,,,,,,,,,,,,,,
,,,,,652943,1,2024-06-17_10h52.46.634,experiment,2024.1.5,Win32,60.24096386,667045947eb812cbdacbf325,66704d8d306633c4322456e0,,,,,,,,,,,,,,,,,,,,,,,,,,,,,,,,,,,884.7883,891.0038,0.0,0.0,0.0,1.0,1.0,SoundStimuli/GimmeShelter_RollingStones_Cover5S.wav,,,,,,,,,,,,,,,,,,,,,,,,,,,,,,,,,,,,,,,,,,,,,,,,,,,,,,,,,
,,,,,652943,1,2024-06-17_10h52.46.634,experiment,2024.1.5,Win32,60.24096386,667045947eb812cbdacbf325,66704d8d306633c4322456e0,,,,,,,,,,,,,,,,,,,,,,,,,,,,,,,,,,,891.0245,897.1149,0.0,1.0,1.0,0.0,1.0,SoundStimuli/GimmeShelter_RollingStones_Original5S.wav,,,,,,,,,,,,,,,,,,,,,,,,,,,,,,,,,,,,,,,,,,,,,,,,,,,,,,,,,
,,,,,652943,1,2024-06-17_10h52.46.634,experiment,2024.1.5,Win32,60.24096386,667045947eb812cbdacbf325,66704d8d306633c4322456e0,,,,,,,,,,,,,,,,,,,,,,,,,,,,,,,,,,,,,,,,,,,897.115,897.7972,5.488888889,0.6604,0.0,3.0,3.0,20.0,1.0,song_indices/GimmeShelter_RollingStones.csv,,,,,,,,,,,,,,,,,,,,,,,,,,,,,,,,,,,,,,,,,,,,,,,
,,,,,652943,1,2024-06-17_10h52.46.634,experiment,2024.1.5,Win32,60.24096386,667045947eb812cbdacbf325,66704d8d306633c4322456e0,,,,,,,,,,,,,,,,,,,,,,,,,,,,,,,,,,,897.7993,903.8713,0.0,0.0,0.0,0.0,1.0,SoundStimuli/Stronger_KanyeWest_Original5S.wav,,,,,,,,,,,,,,,,,,,,,,,,,,,,,,,,,,,,,,,,,,,,,,,,,,,,,,,,,
,,,,,652943,1,2024-06-17_10h52.46.634,experiment,2024.1.5,Win32,60.24096386,667045947eb812cbdacbf325,66704d8d306633c4322456e0,,,,,,,,,,,,,,,,,,,,,,,,,,,,,,,,,,,903.8841,910.2281,0.0,1.0,1.0,1.0,1.0,SoundStimuli/Stronger_KanyeWest_Cover5S.wav,,,,,,,,,,,,,,,,,,,,,,,,,,,,,,,,,,,,,,,,,,,,,,,,,,,,,,,,,
,,,,,652943,1,2024-06-17_10h52.46.634,experiment,2024.1.5,Win32,60.24096386,667045947eb812cbdacbf325,66704d8d306633c4322456e0,,,,,,,,,,,,,,,,,,,,,,,,,,,,,,,,,,,,,,,,,,,910.2283,910.8721,1.022222222,0.6182,0.0,4.0,4.0,9.0,1.0,song_indices/Stronger_KanyeWest.csv,,,,,,,,,,,,,,,,,,,,,,,,,,,,,,,,,,,,,,,,,,,,,,,
,,,,,652943,1,2024-06-17_10h52.46.634,experiment,2024.1.5,Win32,60.24096386,667045947eb812cbdacbf325,66704d8d306633c4322456e0,,,,,,,,,,,,,,,,,,,,,,,,,,,,,,,,,,,910.8748,917.2057,0.0,0.0,0.0,0.0,1.0,SoundStimuli/RockWithYou_MichaelJackson_Original5S.wav,,,,,,,,,,,,,,,,,,,,,,,,,,,,,,,,,,,,,,,,,,,,,,,,,,,,,,,,,
,,,,,652943,1,2024-06-17_10h52.46.634,experiment,2024.1.5,Win32,60.24096386,667045947eb812cbdacbf325,66704d8d306633c4322456e0,,,,,,,,,,,,,,,,,,,,,,,,,,,,,,,,,,,917.2268,923.2992,0.0,1.0,1.0,1.0,1.0,SoundStimuli/RockWithYou_MichaelJackson_Cover5S.wav,,,,,,,,,,,,,,,,,,,,,,,,,,,,,,,,,,,,,,,,,,,,,,,,,,,,,,,,,
,,,,,652943,1,2024-06-17_10h52.46.634,experiment,2024.1.5,Win32,60.24096386,667045947eb812cbdacbf325,66704d8d306633c4322456e0,,,,,,,,,,,,,,,,,,,,,,,,,,,,,,,,,,,,,,,,,,,923.2997,924.5155,4.458333333,1.1944,0.0,5.0,5.0,16.0,1.0,song_indices/RockWithYou_MichaelJackson.csv,,,,,,,,,,,,,,,,,,,,,,,,,,,,,,,,,,,,,,,,,,,,,,,
,,,,,652943,1,2024-06-17_10h52.46.634,experiment,2024.1.5,Win32,60.24096386,667045947eb812cbdacbf325,66704d8d306633c4322456e0,,,,,,,,,,,,,,,,,,,,,,,,,,,,,,,,,,,924.5171,931.8835,0.0,0.0,0.0,1.0,1.0,SoundStimuli/Happy_PharellWilliams_Cover5S.wav,,,,,,,,,,,,,,,,,,,,,,,,,,,,,,,,,,,,,,,,,,,,,,,,,,,,,,,,,
,,,,,652943,1,2024-06-17_10h52.46.634,experiment,2024.1.5,Win32,60.24096386,667045947eb812cbdacbf325,66704d8d306633c4322456e0,,,,,,,,,,,,,,,,,,,,,,,,,,,,,,,,,,,931.9022,939.2585,0.0,1.0,1.0,0.0,1.0,SoundStimuli/Happy_PharellWilliams_Original5S.wav,,,,,,,,,,,,,,,,,,,,,,,,,,,,,,,,,,,,,,,,,,,,,,,,,,,,,,,,,
,,,,,652943,1,2024-06-17_10h52.46.634,experiment,2024.1.5,Win32,60.24096386,667045947eb812cbdacbf325,66704d8d306633c4322456e0,,,,,,,,,,,,,,,,,,,,,,,,,,,,,,,,,,,,,,,,,,,939.2588,939.7409,4.455555556,0.4558,0.0,6.0,6.0,7.0,1.0,song_indices/Happy_PharellWilliams.csv,,,,,,,,,,,,,,,,,,,,,,,,,,,,,,,,,,,,,,,,,,,,,,,
,,,,,652943,1,2024-06-17_10h52.46.634,experiment,2024.1.5,Win32,60.24096386,667045947eb812cbdacbf325,66704d8d306633c4322456e0,,,,,,,,,,,,,,,,,,,,,,,,,,,,,,,,,,,939.7439,946.0414,0.0,0.0,0.0,0.0,1.0,SoundStimuli/HeyYa_Outkast_Original5S.wav,,,,,,,,,,,,,,,,,,,,,,,,,,,,,,,,,,,,,,,,,,,,,,,,,,,,,,,,,
,,,,,652943,1,2024-06-17_10h52.46.634,experiment,2024.1.5,Win32,60.24096386,667045947eb812cbdacbf325,66704d8d306633c4322456e0,,,,,,,,,,,,,,,,,,,,,,,,,,,,,,,,,,,946.0624,954.9752,0.0,1.0,1.0,1.0,1.0,SoundStimuli/HeyYa_Outkast_Cover5S.wav,,,,,,,,,,,,,,,,,,,,,,,,,,,,,,,,,,,,,,,,,,,,,,,,,,,,,,,,,
,,,,,652943,1,2024-06-17_10h52.46.634,experiment,2024.1.5,Win32,60.24096386,667045947eb812cbdacbf325,66704d8d306633c4322456e0,,,,,,,,,,,,,,,,,,,,,,,,,,,,,,,,,,,,,,,,,,,954.9754,955.4756,1.441666667,0.4725,0.0,7.0,7.0,22.0,1.0,song_indices/HeyYa_Outkast.csv,,,,,,,,,,,,,,,,,,,,,,,,,,,,,,,,,,,,,,,,,,,,,,,
,,,,,652943,1,2024-06-17_10h52.46.634,experiment,2024.1.5,Win32,60.24096386,667045947eb812cbdacbf325,66704d8d306633c4322456e0,,,,,,,,,,,,,,,,,,,,,,,,,,,,,,,,,,,955.4781,961.6932,0.0,0.0,0.0,0.0,1.0,SoundStimuli/SmellsLikeTeenSpirit_Nirvana_Original5S.wav,,,,,,,,,,,,,,,,,,,,,,,,,,,,,,,,,,,,,,,,,,,,,,,,,,,,,,,,,
,,,,,652943,1,2024-06-17_10h52.46.634,experiment,2024.1.5,Win32,60.24096386,667045947eb812cbdacbf325,66704d8d306633c4322456e0,,,,,,,,,,,,,,,,,,,,,,,,,,,,,,,,,,,961.7128,967.4693,0.0,1.0,1.0,1.0,1.0,SoundStimuli/SmellsLikeTeenSpirit_Nirvana_Cover5S.wav,,,,,,,,,,,,,,,,,,,,,,,,,,,,,,,,,,,,,,,,,,,,,,,,,,,,,,,,,
,,,,,652943,1,2024-06-17_10h52.46.634,experiment,2024.1.5,Win32,60.24096386,667045947eb812cbdacbf325,66704d8d306633c4322456e0,,,,,,,,,,,,,,,,,,,,,,,,,,,,,,,,,,,,,,,,,,,967.4696,968.6205,6.102777778,1.1305,0.0,8.0,8.0,8.0,1.0,song_indices/SmellsLikeTeenSpirit_Nirvana.csv,,,,,,,,,,,,,,,,,,,,,,,,,,,,,,,,,,,,,,,,,,,,,,,
,,,,,652943,1,2024-06-17_10h52.46.634,experiment,2024.1.5,Win32,60.24096386,667045947eb812cbdacbf325,66704d8d306633c4322456e0,,,,,,,,,,,,,,,,,,,,,,,,,,,,,,,,,,,968.6226,974.8271,0.0,0.0,0.0,0.0,1.0,SoundStimuli/TheBoyIsMine_BrandyMonica_Original5S.wav,,,,,,,,,,,,,,,,,,,,,,,,,,,,,,,,,,,,,,,,,,,,,,,,,,,,,,,,,
,,,,,652943,1,2024-06-17_10h52.46.634,experiment,2024.1.5,Win32,60.24096386,667045947eb812cbdacbf325,66704d8d306633c4322456e0,,,,,,,,,,,,,,,,,,,,,,,,,,,,,,,,,,,974.8445,980.7877,0.0,1.0,1.0,1.0,1.0,SoundStimuli/TheBoyIsMine_BrandyMonica_Cover5S.wav,,,,,,,,,,,,,,,,,,,,,,,,,,,,,,,,,,,,,,,,,,,,,,,,,,,,,,,,,
,,,,,652943,1,2024-06-17_10h52.46.634,experiment,2024.1.5,Win32,60.24096386,667045947eb812cbdacbf325,66704d8d306633c4322456e0,,,,,,,,,,,,,,,,,,,,,,,,,,,,,,,,,,,,,,,,,,,980.7878,982.4611,6.163888889,1.6511,0.0,9.0,9.0,6.0,1.0,song_indices/TheBoyIsMine_BrandyMonica.csv,,,,,,,,,,,,,,,,,,,,,,,,,,,,,,,,,,,,,,,,,,,,,,,
,,,,,652943,1,2024-06-17_10h52.46.634,experiment,2024.1.5,Win32,60.24096386,667045947eb812cbdacbf325,66704d8d306633c4322456e0,,,,,,,,,,,,,,,,,,,,,,,,,,,,,,,,,,,982.4635,988.4545,0.0,0.0,0.0,0.0,1.0,SoundStimuli/IWalkTheLine_JohnnyCash_Original5S.wav,,,,,,,,,,,,,,,,,,,,,,,,,,,,,,,,,,,,,,,,,,,,,,,,,,,,,,,,,
,,,,,652943,1,2024-06-17_10h52.46.634,experiment,2024.1.5,Win32,60.24096386,667045947eb812cbdacbf325,66704d8d306633c4322456e0,,,,,,,,,,,,,,,,,,,,,,,,,,,,,,,,,,,988.4732,995.6121,0.0,1.0,1.0,1.0,1.0,SoundStimuli/IWalkTheLine_JohnnyCash_Cover5S.wav,,,,,,,,,,,,,,,,,,,,,,,,,,,,,,,,,,,,,,,,,,,,,,,,,,,,,,,,,
,,,,,652943,1,2024-06-17_10h52.46.634,experiment,2024.1.5,Win32,60.24096386,667045947eb812cbdacbf325,66704d8d306633c4322456e0,,,,,,,,,,,,,,,,,,,,,,,,,,,,,,,,,,,,,,,,,,,995.6124,996.0625,1.938888889,0.4208,0.0,10.0,10.0,17.0,1.0,song_indices/IWalkTheLine_JohnnyCash.csv,,,,,,,,,,,,,,,,,,,,,,,,,,,,,,,,,,,,,,,,,,,,,,,
,,,,,652943,1,2024-06-17_10h52.46.634,experiment,2024.1.5,Win32,60.24096386,667045947eb812cbdacbf325,66704d8d306633c4322456e0,,,,,,,,,,,,,,,,,,,,,,,,,,,,,,,,,,,996.0655,1002.379,0.0,0.0,0.0,1.0,1.0,SoundStimuli/ShapeofYou_EdSheeran_Cover5S.wav,,,,,,,,,,,,,,,,,,,,,,,,,,,,,,,,,,,,,,,,,,,,,,,,,,,,,,,,,
,,,,,652943,1,2024-06-17_10h52.46.634,experiment,2024.1.5,Win32,60.24096386,667045947eb812cbdacbf325,66704d8d306633c4322456e0,,,,,,,,,,,,,,,,,,,,,,,,,,,,,,,,,,,1002.3905,1008.8462,0.0,1.0,1.0,0.0,1.0,SoundStimuli/ShapeofYou_EdSheeran_Original5S.wav,,,,,,,,,,,,,,,,,,,,,,,,,,,,,,,,,,,,,,,,,,,,,,,,,,,,,,,,,
,,,,,652943,1,2024-06-17_10h52.46.634,experiment,2024.1.5,Win32,60.24096386,667045947eb812cbdacbf325,66704d8d306633c4322456e0,,,,,,,,,,,,,,,,,,,,,,,,,,,,,,,,,,,,,,,,,,,1008.8463,1010.2396,2.880555556,1.3751,0.0,11.0,11.0,21.0,1.0,song_indices/ShapeofYou_EdSheeran.csv,,,,,,,,,,,,,,,,,,,,,,,,,,,,,,,,,,,,,,,,,,,,,,,
,,,,,652943,1,2024-06-17_10h52.46.634,experiment,2024.1.5,Win32,60.24096386,667045947eb812cbdacbf325,66704d8d306633c4322456e0,,,,,,,,,,,,,,,,,,,,,,,,,,,,,,,,,,,1010.2416,1016.6188,0.0,0.0,0.0,0.0,1.0,SoundStimuli/IWillAlwaysLoveYou_WhitneyHouston_Original5S.wav,,,,,,,,,,,,,,,,,,,,,,,,,,,,,,,,,,,,,,,,,,,,,,,,,,,,,,,,,
,,,,,652943,1,2024-06-17_10h52.46.634,experiment,2024.1.5,Win32,60.24096386,667045947eb812cbdacbf325,66704d8d306633c4322456e0,,,,,,,,,,,,,,,,,,,,,,,,,,,,,,,,,,,1016.6393,1022.4822,0.0,1.0,1.0,1.0,1.0,SoundStimuli/IWillAlwaysLoveYou_WhitneyHouston_Cover5S.wav,,,,,,,,,,,,,,,,,,,,,,,,,,,,,,,,,,,,,,,,,,,,,,,,,,,,,,,,,
,,,,,652943,1,2024-06-17_10h52.46.634,experiment,2024.1.5,Win32,60.24096386,667045947eb812cbdacbf325,66704d8d306633c4322456e0,,,,,,,,,,,,,,,,,,,,,,,,,,,,,,,,,,,,,,,,,,,1022.4824,1023.5311,6.988888889,1.0258,0.0,12.0,12.0,10.0,1.0,song_indices/IWillAlwaysLoveYou_WhitneyHouston.csv,,,,,,,,,,,,,,,,,,,,,,,,,,,,,,,,,,,,,,,,,,,,,,,
,,,,,652943,1,2024-06-17_10h52.46.634,experiment,2024.1.5,Win32,60.24096386,667045947eb812cbdacbf325,66704d8d306633c4322456e0,,,,,,,,,,,,,,,,,,,,,,,,,,,,,,,,,,,1023.5336,1030.5649,0.0,0.0,0.0,1.0,1.0,SoundStimuli/UptownFunk_MarkRonson_Cover5S.wav,,,,,,,,,,,,,,,,,,,,,,,,,,,,,,,,,,,,,,,,,,,,,,,,,,,,,,,,,
,,,,,652943,1,2024-06-17_10h52.46.634,experiment,2024.1.5,Win32,60.24096386,667045947eb812cbdacbf325,66704d8d306633c4322456e0,,,,,,,,,,,,,,,,,,,,,,,,,,,,,,,,,,,1030.5762,1037.7985,0.0,1.0,1.0,0.0,1.0,SoundStimuli/UptownFunk_MarkRonson_Original5S.wav,,,,,,,,,,,,,,,,,,,,,,,,,,,,,,,,,,,,,,,,,,,,,,,,,,,,,,,,,
,,,,,652943,1,2024-06-17_10h52.46.634,experiment,2024.1.5,Win32,60.24096386,667045947eb812cbdacbf325,66704d8d306633c4322456e0,,,,,,,,,,,,,,,,,,,,,,,,,,,,,,,,,,,,,,,,,,,1037.7987,1039.4569,6.177777778,1.6397,0.0,13.0,13.0,15.0,1.0,song_indices/UptownFunk_MarkRonson.csv,,,,,,,,,,,,,,,,,,,,,,,,,,,,,,,,,,,,,,,,,,,,,,,
,,,,,652943,1,2024-06-17_10h52.46.634,experiment,2024.1.5,Win32,60.24096386,667045947eb812cbdacbf325,66704d8d306633c4322456e0,,,,,,,,,,,,,,,,,,,,,,,,,,,,,,,,,,,1039.4586,1045.9991,0.0,0.0,0.0,0.0,1.0,SoundStimuli/CrazyInLove_BeyonceFtJayZ_Original5S.wav,,,,,,,,,,,,,,,,,,,,,,,,,,,,,,,,,,,,,,,,,,,,,,,,,,,,,,,,,
,,,,,652943,1,2024-06-17_10h52.46.634,experiment,2024.1.5,Win32,60.24096386,667045947eb812cbdacbf325,66704d8d306633c4322456e0,,,,,,,,,,,,,,,,,,,,,,,,,,,,,,,,,,,1046.0146,1056.2503,0.0,1.0,1.0,1.0,1.0,SoundStimuli/CrazyInLove_BeyonceFtJayZ_Cover5S.wav,,,,,,,,,,,,,,,,,,,,,,,,,,,,,,,,,,,,,,,,,,,,,,,,,,,,,,,,,
,,,,,652943,1,2024-06-17_10h52.46.634,experiment,2024.1.5,Win32,60.24096386,667045947eb812cbdacbf325,66704d8d306633c4322456e0,,,,,,,,,,,,,,,,,,,,,,,,,,,,,,,,,,,,,,,,,,,1056.2509,1056.7338,2.725,0.4574,0.0,14.0,14.0,3.0,1.0,song_indices/CrazyInLove_BeyonceFtJayZ.csv,,,,,,,,,,,,,,,,,,,,,,,,,,,,,,,,,,,,,,,,,,,,,,,
,,,,,652943,1,2024-06-17_10h52.46.634,experiment,2024.1.5,Win32,60.24096386,667045947eb812cbdacbf325,66704d8d306633c4322456e0,,,,,,,,,,,,,,,,,,,,,,,,,,,,,,,,,,,1056.736,1063.1679,0.0,0.0,0.0,1.0,1.0,SoundStimuli/Fallin_AliciaKeys_Cover5S.wav,,,,,,,,,,,,,,,,,,,,,,,,,,,,,,,,,,,,,,,,,,,,,,,,,,,,,,,,,
,,,,,652943,1,2024-06-17_10h52.46.634,experiment,2024.1.5,Win32,60.24096386,667045947eb812cbdacbf325,66704d8d306633c4322456e0,,,,,,,,,,,,,,,,,,,,,,,,,,,,,,,,,,,1063.1869,1069.3592,0.0,1.0,1.0,0.0,1.0,SoundStimuli/Fallin_AliciaKeys_Original5S.wav,,,,,,,,,,,,,,,,,,,,,,,,,,,,,,,,,,,,,,,,,,,,,,,,,,,,,,,,,
,,,,,652943,1,2024-06-17_10h52.46.634,experiment,2024.1.5,Win32,60.24096386,667045947eb812cbdacbf325,66704d8d306633c4322456e0,,,,,,,,,,,,,,,,,,,,,,,,,,,,,,,,,,,,,,,,,,,1069.3594,1070.6186,3.544444444,1.2393,0.0,15.0,15.0,12.0,1.0,song_indices/Fallin_AliciaKeys.csv,,,,,,,,,,,,,,,,,,,,,,,,,,,,,,,,,,,,,,,,,,,,,,,
,,,,,652943,1,2024-06-17_10h52.46.634,experiment,2024.1.5,Win32,60.24096386,667045947eb812cbdacbf325,66704d8d306633c4322456e0,,,,,,,,,,,,,,,,,,,,,,,,,,,,,,,,,,,1070.6204,1076.6527,0.0,0.0,0.0,1.0,1.0,SoundStimuli/StandByMe_BenEKing_Cover5S.wav,,,,,,,,,,,,,,,,,,,,,,,,,,,,,,,,,,,,,,,,,,,,,,,,,,,,,,,,,
,,,,,652943,1,2024-06-17_10h52.46.634,experiment,2024.1.5,Win32,60.24096386,667045947eb812cbdacbf325,66704d8d306633c4322456e0,,,,,,,,,,,,,,,,,,,,,,,,,,,,,,,,,,,1076.6731,1082.5861,0.0,1.0,1.0,0.0,1.0,SoundStimuli/StandByMe_BenEKing_Original5S.wav,,,,,,,,,,,,,,,,,,,,,,,,,,,,,,,,,,,,,,,,,,,,,,,,,,,,,,,,,
,,,,,652943,1,2024-06-17_10h52.46.634,experiment,2024.1.5,Win32,60.24096386,667045947eb812cbdacbf325,66704d8d306633c4322456e0,,,,,,,,,,,,,,,,,,,,,,,,,,,,,,,,,,,,,,,,,,,1082.5865,1083.2195,2.105555556,0.6125,0.0,16.0,16.0,1.0,1.0,song_indices/StandByMe_BenEKing.csv,,,,,,,,,,,,,,,,,,,,,,,,,,,,,,,,,,,,,,,,,,,,,,,
,,,,,652943,1,2024-06-17_10h52.46.634,experiment,2024.1.5,Win32,60.24096386,667045947eb812cbdacbf325,66704d8d306633c4322456e0,,,,,,,,,,,,,,,,,,,,,,,,,,,,,,,,,,,1083.222,1089.5868,0.0,0.0,0.0,1.0,1.0,SoundStimuli/GoodGollyMissMolly_LittleRichard_Cover5S.wav,,,,,,,,,,,,,,,,,,,,,,,,,,,,,,,,,,,,,,,,,,,,,,,,,,,,,,,,,
,,,,,652943,1,2024-06-17_10h52.46.634,experiment,2024.1.5,Win32,60.24096386,667045947eb812cbdacbf325,66704d8d306633c4322456e0,,,,,,,,,,,,,,,,,,,,,,,,,,,,,,,,,,,1089.6059,1095.6714,0.0,1.0,1.0,0.0,1.0,SoundStimuli/GoodGollyMissMolly_LittleRichard_Original5S.wav,,,,,,,,,,,,,,,,,,,,,,,,,,,,,,,,,,,,,,,,,,,,,,,,,,,,,,,,,
,,,,,652943,1,2024-06-17_10h52.46.634,experiment,2024.1.5,Win32,60.24096386,667045947eb812cbdacbf325,66704d8d306633c4322456e0,,,,,,,,,,,,,,,,,,,,,,,,,,,,,,,,,,,,,,,,,,,1095.6734,1096.9708,3.980555556,1.273,0.0,17.0,17.0,0.0,1.0,song_indices/GoodGollyMissMolly_LittleRichard.csv,,,,,,,,,,,,,,,,,,,,,,,,,,,,,,,,,,,,,,,,,,,,,,,
,,,,,652943,1,2024-06-17_10h52.46.634,experiment,2024.1.5,Win32,60.24096386,667045947eb812cbdacbf325,66704d8d306633c4322456e0,,,,,,,,,,,,,,,,,,,,,,,,,,,,,,,,,,,1096.9729,1103.0546,0.0,0.0,0.0,0.0,1.0,SoundStimuli/GetUrFreakOn_MissyElliot_Original5S.wav,,,,,,,,,,,,,,,,,,,,,,,,,,,,,,,,,,,,,,,,,,,,,,,,,,,,,,,,,
,,,,,652943,1,2024-06-17_10h52.46.634,experiment,2024.1.5,Win32,60.24096386,667045947eb812cbdacbf325,66704d8d306633c4322456e0,,,,,,,,,,,,,,,,,,,,,,,,,,,,,,,,,,,1103.0753,1109.6646,0.0,1.0,1.0,1.0,1.0,SoundStimuli/GetUrFreakOn_MissyElliot_Cover5S.wav,,,,,,,,,,,,,,,,,,,,,,,,,,,,,,,,,,,,,,,,,,,,,,,,,,,,,,,,,
,,,,,652943,1,2024-06-17_10h52.46.634,experiment,2024.1.5,Win32,60.24096386,667045947eb812cbdacbf325,66704d8d306633c4322456e0,,,,,,,,,,,,,,,,,,,,,,,,,,,,,,,,,,,,,,,,,,,1109.6649,1110.4611,2.402777778,0.777,0.0,18.0,18.0,18.0,1.0,song_indices/GetUrFreakOn_MissyElliot.csv,,,,,,,,,,,,,,,,,,,,,,,,,,,,,,,,,,,,,,,,,,,,,,,
,,,,,652943,1,2024-06-17_10h52.46.634,experiment,2024.1.5,Win32,60.24096386,667045947eb812cbdacbf325,66704d8d306633c4322456e0,,,,,,,,,,,,,,,,,,,,,,,,,,,,,,,,,,,1110.4632,1116.6814,0.0,0.0,0.0,0.0,1.0,SoundStimuli/BetteDavisEyes_KimCarnes_Original5S.wav,,,,,,,,,,,,,,,,,,,,,,,,,,,,,,,,,,,,,,,,,,,,,,,,,,,,,,,,,
,,,,,652943,1,2024-06-17_10h52.46.634,experiment,2024.1.5,Win32,60.24096386,667045947eb812cbdacbf325,66704d8d306633c4322456e0,,,,,,,,,,,,,,,,,,,,,,,,,,,,,,,,,,,1116.7,1122.3895,0.0,1.0,1.0,1.0,1.0,SoundStimuli/BetteDavisEyes_KimCarnes_Cover5S.wav,,,,,,,,,,,,,,,,,,,,,,,,,,,,,,,,,,,,,,,,,,,,,,,,,,,,,,,,,
,,,,,652943,1,2024-06-17_10h52.46.634,experiment,2024.1.5,Win32,60.24096386,667045947eb812cbdacbf325,66704d8d306633c4322456e0,,,,,,,,,,,,,,,,,,,,,,,,,,,,,,,,,,,,,,,,,,,1122.3897,1123.095,4.038888889,0.6879,0.0,19.0,19.0,5.0,1.0,song_indices/BetteDavisEyes_KimCarnes.csv,,,,,,,,,,,,,,,,,,,,,,,,,,,,,,,,,,,,,,,,,,,,,,,
,,,,,652943,1,2024-06-17_10h52.46.634,experiment,2024.1.5,Win32,60.24096386,667045947eb812cbdacbf325,66704d8d306633c4322456e0,,,,,,,,,,,,,,,,,,,,,,,,,,,,,,,,,,,1123.0965,1129.306,0.0,0.0,0.0,0.0,1.0,SoundStimuli/TheBattleOfNewOrleans_JohnnyHorton_Original5S.wav,,,,,,,,,,,,,,,,,,,,,,,,,,,,,,,,,,,,,,,,,,,,,,,,,,,,,,,,,
,,,,,652943,1,2024-06-17_10h52.46.634,experiment,2024.1.5,Win32,60.24096386,667045947eb812cbdacbf325,66704d8d306633c4322456e0,,,,,,,,,,,,,,,,,,,,,,,,,,,,,,,,,,,1129.3177,1137.2903,0.0,1.0,1.0,1.0,1.0,SoundStimuli/TheBattleOfNewOrleans_JohnnyHorton_Cover5S.wav,,,,,,,,,,,,,,,,,,,,,,,,,,,,,,,,,,,,,,,,,,,,,,,,,,,,,,,,,
,,,,,652943,1,2024-06-17_10h52.46.634,experiment,2024.1.5,Win32,60.24096386,667045947eb812cbdacbf325,66704d8d306633c4322456e0,,,,,,,,,,,,,,,,,,,,,,,,,,,,,,,,,,,,,,,,,,,1137.2907,1137.9569,1.375,0.6416,0.0,20.0,20.0,4.0,1.0,song_indices/TheBattleOfNewOrleans_JohnnyHorton.csv,,,,,,,,,,,,,,,,,,,,,,,,,,,,,,,,,,,,,,,,,,,,,,,
,,,,,652943,1,2024-06-17_10h52.46.634,experiment,2024.1.5,Win32,60.24096386,667045947eb812cbdacbf325,66704d8d306633c4322456e0,,,,,,,,,,,,,,,,,,,,,,,,,,,,,,,,,,,1137.9592,1143.8575,0.0,0.0,0.0,0.0,1.0,SoundStimuli/EyeOfTheTiger_Survivor_Original5S.wav,,,,,,,,,,,,,,,,,,,,,,,,,,,,,,,,,,,,,,,,,,,,,,,,,,,,,,,,,
,,,,,652943,1,2024-06-17_10h52.46.634,experiment,2024.1.5,Win32,60.24096386,667045947eb812cbdacbf325,66704d8d306633c4322456e0,,,,,,,,,,,,,,,,,,,,,,,,,,,,,,,,,,,1143.8751,1150.0079,0.0,1.0,1.0,1.0,1.0,SoundStimuli/EyeOfTheTiger_Survivor_Cover5S.wav,,,,,,,,,,,,,,,,,,,,,,,,,,,,,,,,,,,,,,,,,,,,,,,,,,,,,,,,,
,,,,,652943,1,2024-06-17_10h52.46.634,experiment,2024.1.5,Win32,60.24096386,667045947eb812cbdacbf325,66704d8d306633c4322456e0,,,,,,,,,,,,,,,,,,,,,,,,,,,,,,,,,,,,,,,,,,,1150.0082,1151.075,3.975,1.0388,0.0,21.0,21.0,11.0,1.0,song_indices/EyeOfTheTiger_Survivor.csv,,,,,,,,,,,,,,,,,,,,,,,,,,,,,,,,,,,,,,,,,,,,,,,
,,,,,652943,1,2024-06-17_10h52.46.634,experiment,2024.1.5,Win32,60.24096386,667045947eb812cbdacbf325,66704d8d306633c4322456e0,,,,,,,,,,,,,,,,,,,,,,,,,,,,,,,,,,,1151.0777,1157.3087,0.0,0.0,0.0,1.0,1.0,SoundStimuli/ItsAllInTheGame_TommyEdwards_Cover5S.wav,,,,,,,,,,,,,,,,,,,,,,,,,,,,,,,,,,,,,,,,,,,,,,,,,,,,,,,,,
,,,,,652943,1,2024-06-17_10h52.46.634,experiment,2024.1.5,Win32,60.24096386,667045947eb812cbdacbf325,66704d8d306633c4322456e0,,,,,,,,,,,,,,,,,,,,,,,,,,,,,,,,,,,1157.3292,1163.5862,0.0,1.0,1.0,0.0,1.0,SoundStimuli/ItsAllInTheGame_TommyEdwards_Original5S.wav,,,,,,,,,,,,,,,,,,,,,,,,,,,,,,,,,,,,,,,,,,,,,,,,,,,,,,,,,
,,,,,652943,1,2024-06-17_10h52.46.634,experiment,2024.1.5,Win32,60.24096386,667045947eb812cbdacbf325,66704d8d306633c4322456e0,,,,,,,,,,,,,,,,,,,,,,,,,,,,,,,,,,,,,,,,,,,1163.5865,1164.6702,5.005555556,1.0633,0.0,22.0,22.0,13.0,1.0,song_indices/ItsAllInTheGame_TommyEdwards.csv,,,,,,,,,,,,,,,,,,,,,,,,,,,,,,,,,,,,,,,,,,,,,,,
,,,,,652943,1,2024-06-17_10h52.46.634,experiment,2024.1.5,Win32,60.24096386,667045947eb812cbdacbf325,66704d8d306633c4322456e0,,,,,,,,,,,,,,,,,,,,,,,,,,,,,,,,,,,,,,,,,,,,,,,,,,,,,1164.6703,1164.6705,,,,0.0,2.0,2.0,1.0,1.0,choose_song_b2.csv,,,,,,,,,,,,,,,,,,,,,,,,,,,,,,,,,,,,
,,,,,652943,1,2024-06-17_10h52.46.634,experiment,2024.1.5,Win32,60.24096386,667045947eb812cbdacbf325,66704d8d306633c4322456e0,,,,,,,,,,,,,,,,,,,,,,,,,,,,,,,,,,,,,,,,,,,,,,,,,,,,,,,,,,,,,,,,51.0,Item 2,not a musician,Item 4,"Sirius XM, Pandora, YouTube",6.0,4.0,"Exercising, Work, Hanging Out, Driving",Never,Sometimes,Never,Always,Always,Never,Never,Sometimes,Never,Never,Never,Always,Never,Never,Never,Always,Dancehall,Hip Hop,Dancehall,EDM,They have stayed pretty consistent.,0.0,0.0,0.0,0.0,1.0,,
,,,,,652943,1,2024-06-17_10h52.46.634,experiment,2024.1.5,Win32,60.24096386,667045947eb812cbdacbf325,66704d8d306633c4322456e0,,,,,,,,,,,,,,,,,,,,,,,,,,,,,,,,,,,,,,,,,,,,,,,,,,,,,,,,,,,,,,,,,,,,,,,,,,,,,,,,,,,,,,,,,,,,,,,,,,1359.7726,1362.3421
