welcome.started,welcome.stopped,space_to_continue.keys,space_to_continue.rt,space_to_continue.duration,participant,session,date,expName,psychopyVersion,OS,frameRate,STUDY_ID,SESSION_ID,consent.consent,consent.consent_recontact,consent_check.started,consent_check.stopped,calibration_ready.started,calibration_ready.stopped,cal_ready.keys,cal_ready.rt,cal_ready.duration,calibration.started,calibration.stopped,mouse.x,mouse.y,mouse.leftButton,mouse.midButton,mouse.rightButton,mouse.time,mouse.clicked_name,move_on.keys,move_on.rt,move_on.duration,instructions.started,instructions.stopped,next.keys,next.rt,next.duration,practice_trial.started,practice_trial.stopped,practice_slider.response,practice_slider.rt,ready.started,ready.stopped,key_resp.keys,key_resp.rt,key_resp.duration,play_sound.started,play_sound.stopped,trials.thisRepN,trials.thisTrialN,trials.thisN,trials.thisIndex,trials.ran,orig_or_cover,rating.started,rating.stopped,slider.response,slider.rt,songs.thisRepN,songs.thisTrialN,songs.thisN,songs.thisIndex,songs.ran,song_id,short_break.started,short_break.stopped,space_to_move_on.keys,space_to_move_on.rt,space_to_move_on.duration,blocks.thisRepN,blocks.thisTrialN,blocks.thisN,blocks.thisIndex,blocks.ran,block,survey.age,survey.musician,survey.music_making,survey.listen_time,survey.medium,survey.music_seeking,survey.music_choice,survey.activities,survey.question1.Hip hop,survey.question1.Electronic (EDM),survey.question1.R&B,survey.question1.Latin,survey.question1.Country,survey.question1.Alternative rock,survey.question1.Reggae,survey.question1.Classic rock,survey.question1.Pop,survey.question1.Metal,survey.question1.Jazz,survey.question1.Disco,survey.question1.Ambient,survey.question1.Folk/indie,survey.question1.Classical,survey.question1.A cappella,survey.other_genres,survey.genres_ranked.text1,survey.genres_ranked.text2,survey.genres_ranked.text3,survey.habit_change,survey.habits,experiment.thisRepN,experiment.thisTrialN,experiment.thisN,experiment.thisIndex,experiment.ran,goodbye.started,goodbye.stopped
0.0009,1.5507,space,1.5221,,665883,1,2024-06-17_14h00.59.631,experiment,2024.1.5,Win32,61.34969325,667045947eb812cbdacbf325,667079b096c0ca2a3b9b7713,,,,,,,,,,,,,,,,,,,,,,,,,,,,,,,,,,,,,,,,,,,,,,,,,,,,,,,,,,,,,,,,,,,,,,,,,,,,,,,,,,,,,,,,,,,,,,,,,,,,,
,,,,,665883,1,2024-06-17_14h00.59.631,experiment,2024.1.5,Win32,61.34969325,667045947eb812cbdacbf325,667079b096c0ca2a3b9b7713,yes,yes,,,,,,,,,,,,,,,,,,,,,,,,,,,,,,,,,,,,,,,,,,,,,,,,,,,,,,,,,,,,,,,,,,,,,,,,,,,,,,,,,,,,,,,,,,,,,,,,,,,
,,,,,665883,1,2024-06-17_14h00.59.631,experiment,2024.1.5,Win32,61.34969325,667045947eb812cbdacbf325,667079b096c0ca2a3b9b7713,,,16.8025,16.8029,,,,,,,,,,,,,,,,,,,,,,,,,,,,,,,,,,,,,,,,,,,,,,,,,,,,,,,,,,,,,,,,,,,,,,,,,,,,,,,,,,,,,,,,,,,,,,,,,
,,,,,665883,1,2024-06-17_14h00.59.631,experiment,2024.1.5,Win32,61.34969325,667045947eb812cbdacbf325,667079b096c0ca2a3b9b7713,,,,,16.8083,22.3286,space,5.4773,,22.3289,33.4788,[],[],[],[],[],[],[],right,1.1246,,33.5012,40.6292,space,7.1015,,40.6296,57.0809,6.022222222,16.4219,57.0817,58.9614,space,1.8652,,59.0263,65.1119,0.0,0.0,0.0,0.0,1.0,SoundStimuli/HeatWaves_GlassAnimals_Original5S.wav,,,,,,,,,,,,,,,,,,,,,,,,,,,,,,,,,,,,,,,,,,,,,,,,,,,,,,,,,,
,,,,,665883,1,2024-06-17_14h00.59.631,experiment,2024.1.5,Win32,61.34969325,667045947eb812cbdacbf325,667079b096c0ca2a3b9b7713,,,,,,,,,,,,,,,,,,,,,,,,,,,,,,,,,,,,65.1131,73.7117,0.0,1.0,1.0,1.0,1.0,SoundStimuli/HeatWaves_GlassAnimals_Cover5S.wav,,,,,,,,,,,,,,,,,,,,,,,,,,,,,,,,,,,,,,,,,,,,,,,,,,,,,,,,,,
,,,,,665883,1,2024-06-17_14h00.59.631,experiment,2024.1.5,Win32,61.34969325,667045947eb812cbdacbf325,667079b096c0ca2a3b9b7713,,,,,,,,,,,,,,,,,,,,,,,,,,,,,,,,,,,,,,,,,,,,73.7351,75.4615,4.783333333,1.7229,0.0,0.0,0.0,10.0,1.0,song_indices/HeatWaves_GlassAnimals.csv,,,,,,,,,,,,,,,,,,,,,,,,,,,,,,,,,,,,,,,,,,,,,,,,
,,,,,665883,1,2024-06-17_14h00.59.631,experiment,2024.1.5,Win32,61.34969325,667045947eb812cbdacbf325,667079b096c0ca2a3b9b7713,,,,,,,,,,,,,,,,,,,,,,,,,,,,,,,,,,,,75.4655,81.4947,0.0,0.0,0.0,1.0,1.0,SoundStimuli/IWantToHoldYourHand_TheBeatles_Cover5S.wav,,,,,,,,,,,,,,,,,,,,,,,,,,,,,,,,,,,,,,,,,,,,,,,,,,,,,,,,,,
,,,,,665883,1,2024-06-17_14h00.59.631,experiment,2024.1.5,Win32,61.34969325,667045947eb812cbdacbf325,667079b096c0ca2a3b9b7713,,,,,,,,,,,,,,,,,,,,,,,,,,,,,,,,,,,,81.4954,87.2953,0.0,1.0,1.0,0.0,1.0,SoundStimuli/IWantToHoldYourHand_TheBeatles_Original5S.wav,,,,,,,,,,,,,,,,,,,,,,,,,,,,,,,,,,,,,,,,,,,,,,,,,,,,,,,,,,
,,,,,665883,1,2024-06-17_14h00.59.631,experiment,2024.1.5,Win32,61.34969325,667045947eb812cbdacbf325,667079b096c0ca2a3b9b7713,,,,,,,,,,,,,,,,,,,,,,,,,,,,,,,,,,,,,,,,,,,,87.2956,89.3108,4.394444444,2.0139,0.0,1.0,1.0,19.0,1.0,song_indices/IWantToHoldYourHand_TheBeatles.csv,,,,,,,,,,,,,,,,,,,,,,,,,,,,,,,,,,,,,,,,,,,,,,,,
,,,,,665883,1,2024-06-17_14h00.59.631,experiment,2024.1.5,Win32,61.34969325,667045947eb812cbdacbf325,667079b096c0ca2a3b9b7713,,,,,,,,,,,,,,,,,,,,,,,,,,,,,,,,,,,,89.3172,94.0277,0.0,0.0,0.0,1.0,1.0,SoundStimuli/AChangeIsGonnaCome_SamCooke_Cover5S.wav,,,,,,,,,,,,,,,,,,,,,,,,,,,,,,,,,,,,,,,,,,,,,,,,,,,,,,,,,,
,,,,,665883,1,2024-06-17_14h00.59.631,experiment,2024.1.5,Win32,61.34969325,667045947eb812cbdacbf325,667079b096c0ca2a3b9b7713,,,,,,,,,,,,,,,,,,,,,,,,,,,,,,,,,,,,94.0449,100.0972,0.0,1.0,1.0,0.0,1.0,SoundStimuli/AChangeIsGonnaCome_SamCooke_Original5S.wav,,,,,,,,,,,,,,,,,,,,,,,,,,,,,,,,,,,,,,,,,,,,,,,,,,,,,,,,,,
,,,,,665883,1,2024-06-17_14h00.59.631,experiment,2024.1.5,Win32,61.34969325,667045947eb812cbdacbf325,667079b096c0ca2a3b9b7713,,,,,,,,,,,,,,,,,,,,,,,,,,,,,,,,,,,,,,,,,,,,100.0977,101.5691,3.95,1.4418,0.0,2.0,2.0,17.0,1.0,song_indices/AChangeIsGonnaCome_SamCooke.csv,,,,,,,,,,,,,,,,,,,,,,,,,,,,,,,,,,,,,,,,,,,,,,,,
,,,,,665883,1,2024-06-17_14h00.59.631,experiment,2024.1.5,Win32,61.34969325,667045947eb812cbdacbf325,667079b096c0ca2a3b9b7713,,,,,,,,,,,,,,,,,,,,,,,,,,,,,,,,,,,,101.5722,108.2613,0.0,0.0,0.0,1.0,1.0,SoundStimuli/BridgeOverTroubledWater_SimonAndGarfunkel_Cover5S.wav,,,,,,,,,,,,,,,,,,,,,,,,,,,,,,,,,,,,,,,,,,,,,,,,,,,,,,,,,,
,,,,,665883,1,2024-06-17_14h00.59.631,experiment,2024.1.5,Win32,61.34969325,667045947eb812cbdacbf325,667079b096c0ca2a3b9b7713,,,,,,,,,,,,,,,,,,,,,,,,,,,,,,,,,,,,108.2766,114.5777,0.0,1.0,1.0,0.0,1.0,SoundStimuli/BridgeOverTroubledWater_SimonAndGarfunkel_Original5S.wav,,,,,,,,,,,,,,,,,,,,,,,,,,,,,,,,,,,,,,,,,,,,,,,,,,,,,,,,,,
,,,,,665883,1,2024-06-17_14h00.59.631,experiment,2024.1.5,Win32,61.34969325,667045947eb812cbdacbf325,667079b096c0ca2a3b9b7713,,,,,,,,,,,,,,,,,,,,,,,,,,,,,,,,,,,,,,,,,,,,114.5781,115.5291,5.433333333,0.9339,0.0,3.0,3.0,1.0,1.0,song_indices/BridgeOverTroubledWater_SimonAndGarfunkel.csv,,,,,,,,,,,,,,,,,,,,,,,,,,,,,,,,,,,,,,,,,,,,,,,,
,,,,,665883,1,2024-06-17_14h00.59.631,experiment,2024.1.5,Win32,61.34969325,667045947eb812cbdacbf325,667079b096c0ca2a3b9b7713,,,,,,,,,,,,,,,,,,,,,,,,,,,,,,,,,,,,115.5316,124.394,0.0,0.0,0.0,0.0,1.0,SoundStimuli/Perfect_EdSheeran_Original5S.wav,,,,,,,,,,,,,,,,,,,,,,,,,,,,,,,,,,,,,,,,,,,,,,,,,,,,,,,,,,
,,,,,665883,1,2024-06-17_14h00.59.631,experiment,2024.1.5,Win32,61.34969325,667045947eb812cbdacbf325,667079b096c0ca2a3b9b7713,,,,,,,,,,,,,,,,,,,,,,,,,,,,,,,,,,,,124.4112,132.6774,0.0,1.0,1.0,1.0,1.0,SoundStimuli/Perfect_EdSheeran_Cover5S.wav,,,,,,,,,,,,,,,,,,,,,,,,,,,,,,,,,,,,,,,,,,,,,,,,,,,,,,,,,,
,,,,,665883,1,2024-06-17_14h00.59.631,experiment,2024.1.5,Win32,61.34969325,667045947eb812cbdacbf325,667079b096c0ca2a3b9b7713,,,,,,,,,,,,,,,,,,,,,,,,,,,,,,,,,,,,,,,,,,,,132.6777,133.711,6.722222222,1.0094,0.0,4.0,4.0,0.0,1.0,song_indices/Perfect_EdSheeran.csv,,,,,,,,,,,,,,,,,,,,,,,,,,,,,,,,,,,,,,,,,,,,,,,,
,,,,,665883,1,2024-06-17_14h00.59.631,experiment,2024.1.5,Win32,61.34969325,667045947eb812cbdacbf325,667079b096c0ca2a3b9b7713,,,,,,,,,,,,,,,,,,,,,,,,,,,,,,,,,,,,133.7131,141.394,0.0,0.0,0.0,1.0,1.0,SoundStimuli/LivinOnAPrayer_BonJovi_Cover5S.wav,,,,,,,,,,,,,,,,,,,,,,,,,,,,,,,,,,,,,,,,,,,,,,,,,,,,,,,,,,
,,,,,665883,1,2024-06-17_14h00.59.631,experiment,2024.1.5,Win32,61.34969325,667045947eb812cbdacbf325,667079b096c0ca2a3b9b7713,,,,,,,,,,,,,,,,,,,,,,,,,,,,,,,,,,,,141.4093,147.6441,0.0,1.0,1.0,0.0,1.0,SoundStimuli/LivinOnAPrayer_BonJovi_Original5S.wav,,,,,,,,,,,,,,,,,,,,,,,,,,,,,,,,,,,,,,,,,,,,,,,,,,,,,,,,,,
,,,,,665883,1,2024-06-17_14h00.59.631,experiment,2024.1.5,Win32,61.34969325,667045947eb812cbdacbf325,667079b096c0ca2a3b9b7713,,,,,,,,,,,,,,,,,,,,,,,,,,,,,,,,,,,,,,,,,,,,147.6443,148.4279,2.25,0.7576,0.0,5.0,5.0,16.0,1.0,song_indices/LivinOnAPrayer_BonJovi.csv,,,,,,,,,,,,,,,,,,,,,,,,,,,,,,,,,,,,,,,,,,,,,,,,
,,,,,665883,1,2024-06-17_14h00.59.631,experiment,2024.1.5,Win32,61.34969325,667045947eb812cbdacbf325,667079b096c0ca2a3b9b7713,,,,,,,,,,,,,,,,,,,,,,,,,,,,,,,,,,,,148.4295,154.5777,0.0,0.0,0.0,0.0,1.0,SoundStimuli/LikeARollingStone_BobDylan_Original5S.wav,,,,,,,,,,,,,,,,,,,,,,,,,,,,,,,,,,,,,,,,,,,,,,,,,,,,,,,,,,
,,,,,665883,1,2024-06-17_14h00.59.631,experiment,2024.1.5,Win32,61.34969325,667045947eb812cbdacbf325,667079b096c0ca2a3b9b7713,,,,,,,,,,,,,,,,,,,,,,,,,,,,,,,,,,,,154.5952,158.994,0.0,1.0,1.0,1.0,1.0,SoundStimuli/LikeARollingStone_BobDylan_Cover5S.wav,,,,,,,,,,,,,,,,,,,,,,,,,,,,,,,,,,,,,,,,,,,,,,,,,,,,,,,,,,
,,,,,665883,1,2024-06-17_14h00.59.631,experiment,2024.1.5,Win32,61.34969325,667045947eb812cbdacbf325,667079b096c0ca2a3b9b7713,,,,,,,,,,,,,,,,,,,,,,,,,,,,,,,,,,,,,,,,,,,,158.9942,159.9943,3.822222222,0.9751,0.0,6.0,6.0,12.0,1.0,song_indices/LikeARollingStone_BobDylan.csv,,,,,,,,,,,,,,,,,,,,,,,,,,,,,,,,,,,,,,,,,,,,,,,,
,,,,,665883,1,2024-06-17_14h00.59.631,experiment,2024.1.5,Win32,61.34969325,667045947eb812cbdacbf325,667079b096c0ca2a3b9b7713,,,,,,,,,,,,,,,,,,,,,,,,,,,,,,,,,,,,159.9962,166.1281,0.0,0.0,0.0,0.0,1.0,SoundStimuli/StrawberryFieldsForever_TheBeatles_Original5S.wav,,,,,,,,,,,,,,,,,,,,,,,,,,,,,,,,,,,,,,,,,,,,,,,,,,,,,,,,,,
,,,,,665883,1,2024-06-17_14h00.59.631,experiment,2024.1.5,Win32,61.34969325,667045947eb812cbdacbf325,667079b096c0ca2a3b9b7713,,,,,,,,,,,,,,,,,,,,,,,,,,,,,,,,,,,,166.1469,173.1778,0.0,1.0,1.0,1.0,1.0,SoundStimuli/StrawberryFieldsForever_TheBeatles_Cover5S.wav,,,,,,,,,,,,,,,,,,,,,,,,,,,,,,,,,,,,,,,,,,,,,,,,,,,,,,,,,,
,,,,,665883,1,2024-06-17_14h00.59.631,experiment,2024.1.5,Win32,61.34969325,667045947eb812cbdacbf325,667079b096c0ca2a3b9b7713,,,,,,,,,,,,,,,,,,,,,,,,,,,,,,,,,,,,,,,,,,,,173.1779,174.2777,3.014145811,1.0728,0.0,7.0,7.0,14.0,1.0,song_indices/StrawberryFieldsForever_TheBeatles.csv,,,,,,,,,,,,,,,,,,,,,,,,,,,,,,,,,,,,,,,,,,,,,,,,
,,,,,665883,1,2024-06-17_14h00.59.631,experiment,2024.1.5,Win32,61.34969325,667045947eb812cbdacbf325,667079b096c0ca2a3b9b7713,,,,,,,,,,,,,,,,,,,,,,,,,,,,,,,,,,,,174.2802,181.6611,0.0,0.0,0.0,0.0,1.0,SoundStimuli/OldTownRoad_LilNasX_Original5S.wav,,,,,,,,,,,,,,,,,,,,,,,,,,,,,,,,,,,,,,,,,,,,,,,,,,,,,,,,,,
,,,,,665883,1,2024-06-17_14h00.59.631,experiment,2024.1.5,Win32,61.34969325,667045947eb812cbdacbf325,667079b096c0ca2a3b9b7713,,,,,,,,,,,,,,,,,,,,,,,,,,,,,,,,,,,,181.6814,188.1942,0.0,1.0,1.0,1.0,1.0,SoundStimuli/OldTownRoad_LilNasX_Cover5S.wav,,,,,,,,,,,,,,,,,,,,,,,,,,,,,,,,,,,,,,,,,,,,,,,,,,,,,,,,,,
,,,,,665883,1,2024-06-17_14h00.59.631,experiment,2024.1.5,Win32,61.34969325,667045947eb812cbdacbf325,667079b096c0ca2a3b9b7713,,,,,,,,,,,,,,,,,,,,,,,,,,,,,,,,,,,,,,,,,,,,188.1946,189.028,6.115342764,0.807,0.0,8.0,8.0,20.0,1.0,song_indices/OldTownRoad_LilNasX.csv,,,,,,,,,,,,,,,,,,,,,,,,,,,,,,,,,,,,,,,,,,,,,,,,
,,,,,665883,1,2024-06-17_14h00.59.631,experiment,2024.1.5,Win32,61.34969325,667045947eb812cbdacbf325,667079b096c0ca2a3b9b7713,,,,,,,,,,,,,,,,,,,,,,,,,,,,,,,,,,,,189.03,195.2444,0.0,0.0,0.0,0.0,1.0,SoundStimuli/Smooth_SantanaRobThomas_Original5S.wav,,,,,,,,,,,,,,,,,,,,,,,,,,,,,,,,,,,,,,,,,,,,,,,,,,,,,,,,,,
,,,,,665883,1,2024-06-17_14h00.59.631,experiment,2024.1.5,Win32,61.34969325,667045947eb812cbdacbf325,667079b096c0ca2a3b9b7713,,,,,,,,,,,,,,,,,,,,,,,,,,,,,,,,,,,,195.2594,201.3783,0.0,1.0,1.0,1.0,1.0,SoundStimuli/Smooth_SantanaRobThomas_Cover5S.wav,,,,,,,,,,,,,,,,,,,,,,,,,,,,,,,,,,,,,,,,,,,,,,,,,,,,,,,,,,
,,,,,665883,1,2024-06-17_14h00.59.631,experiment,2024.1.5,Win32,61.34969325,667045947eb812cbdacbf325,667079b096c0ca2a3b9b7713,,,,,,,,,,,,,,,,,,,,,,,,,,,,,,,,,,,,,,,,,,,,201.3787,202.5113,6.056583243,1.1061,0.0,9.0,9.0,4.0,1.0,song_indices/Smooth_SantanaRobThomas.csv,,,,,,,,,,,,,,,,,,,,,,,,,,,,,,,,,,,,,,,,,,,,,,,,
,,,,,665883,1,2024-06-17_14h00.59.631,experiment,2024.1.5,Win32,61.34969325,667045947eb812cbdacbf325,667079b096c0ca2a3b9b7713,,,,,,,,,,,,,,,,,,,,,,,,,,,,,,,,,,,,202.5131,210.2606,0.0,0.0,0.0,0.0,1.0,SoundStimuli/GodOnlyKnows_TheBeachBoys_Original5S.wav,,,,,,,,,,,,,,,,,,,,,,,,,,,,,,,,,,,,,,,,,,,,,,,,,,,,,,,,,,
,,,,,665883,1,2024-06-17_14h00.59.631,experiment,2024.1.5,Win32,61.34969325,667045947eb812cbdacbf325,667079b096c0ca2a3b9b7713,,,,,,,,,,,,,,,,,,,,,,,,,,,,,,,,,,,,210.2736,217.1285,0.0,1.0,1.0,1.0,1.0,SoundStimuli/GodOnlyKnows_TheBeachBoys_Cover5S.wav,,,,,,,,,,,,,,,,,,,,,,,,,,,,,,,,,,,,,,,,,,,,,,,,,,,,,,,,,,
,,,,,665883,1,2024-06-17_14h00.59.631,experiment,2024.1.5,Win32,61.34969325,667045947eb812cbdacbf325,667079b096c0ca2a3b9b7713,,,,,,,,,,,,,,,,,,,,,,,,,,,,,,,,,,,,,,,,,,,,217.129,218.7121,2.073993471,1.5521,0.0,10.0,10.0,8.0,1.0,song_indices/GodOnlyKnows_TheBeachBoys.csv,,,,,,,,,,,,,,,,,,,,,,,,,,,,,,,,,,,,,,,,,,,,,,,,
,,,,,665883,1,2024-06-17_14h00.59.631,experiment,2024.1.5,Win32,61.34969325,667045947eb812cbdacbf325,667079b096c0ca2a3b9b7713,,,,,,,,,,,,,,,,,,,,,,,,,,,,,,,,,,,,218.7178,224.7441,0.0,0.0,0.0,0.0,1.0,SoundStimuli/StayinAlive_BeeGees_Original5S.wav,,,,,,,,,,,,,,,,,,,,,,,,,,,,,,,,,,,,,,,,,,,,,,,,,,,,,,,,,,
,,,,,665883,1,2024-06-17_14h00.59.631,experiment,2024.1.5,Win32,61.34969325,667045947eb812cbdacbf325,667079b096c0ca2a3b9b7713,,,,,,,,,,,,,,,,,,,,,,,,,,,,,,,,,,,,224.7617,230.6488,0.0,1.0,1.0,1.0,1.0,SoundStimuli/StayinAlive_BeeGees_Cover5S.wav,,,,,,,,,,,,,,,,,,,,,,,,,,,,,,,,,,,,,,,,,,,,,,,,,,,,,,,,,,
,,,,,665883,1,2024-06-17_14h00.59.631,experiment,2024.1.5,Win32,61.34969325,667045947eb812cbdacbf325,667079b096c0ca2a3b9b7713,,,,,,,,,,,,,,,,,,,,,,,,,,,,,,,,,,,,,,,,,,,,230.649,231.863,5.312295974,1.1738,0.0,11.0,11.0,2.0,1.0,song_indices/StayinAlive_BeeGees.csv,,,,,,,,,,,,,,,,,,,,,,,,,,,,,,,,,,,,,,,,,,,,,,,,
,,,,,665883,1,2024-06-17_14h00.59.631,experiment,2024.1.5,Win32,61.34969325,667045947eb812cbdacbf325,667079b096c0ca2a3b9b7713,,,,,,,,,,,,,,,,,,,,,,,,,,,,,,,,,,,,231.8688,238.1613,0.0,0.0,0.0,0.0,1.0,SoundStimuli/Mood_24kGoldnianndior_Original5S.wav,,,,,,,,,,,,,,,,,,,,,,,,,,,,,,,,,,,,,,,,,,,,,,,,,,,,,,,,,,
,,,,,665883,1,2024-06-17_14h00.59.631,experiment,2024.1.5,Win32,61.34969325,667045947eb812cbdacbf325,667079b096c0ca2a3b9b7713,,,,,,,,,,,,,,,,,,,,,,,,,,,,,,,,,,,,238.1771,246.4612,0.0,1.0,1.0,1.0,1.0,SoundStimuli/Mood_24kGoldnianndior_Cover5S.wav,,,,,,,,,,,,,,,,,,,,,,,,,,,,,,,,,,,,,,,,,,,,,,,,,,,,,,,,,,
,,,,,665883,1,2024-06-17_14h00.59.631,experiment,2024.1.5,Win32,61.34969325,667045947eb812cbdacbf325,667079b096c0ca2a3b9b7713,,,,,,,,,,,,,,,,,,,,,,,,,,,,,,,,,,,,,,,,,,,,246.4615,247.7122,2.974972797,1.2146,0.0,12.0,12.0,5.0,1.0,song_indices/Mood_24kGoldnianndior.csv,,,,,,,,,,,,,,,,,,,,,,,,,,,,,,,,,,,,,,,,,,,,,,,,
,,,,,665883,1,2024-06-17_14h00.59.631,experiment,2024.1.5,Win32,61.34969325,667045947eb812cbdacbf325,667079b096c0ca2a3b9b7713,,,,,,,,,,,,,,,,,,,,,,,,,,,,,,,,,,,,247.7143,253.9792,0.0,0.0,0.0,1.0,1.0,SoundStimuli/MackTheKnife_BobbyDarin_Cover5S.wav,,,,,,,,,,,,,,,,,,,,,,,,,,,,,,,,,,,,,,,,,,,,,,,,,,,,,,,,,,
,,,,,665883,1,2024-06-17_14h00.59.631,experiment,2024.1.5,Win32,61.34969325,667045947eb812cbdacbf325,667079b096c0ca2a3b9b7713,,,,,,,,,,,,,,,,,,,,,,,,,,,,,,,,,,,,254.003,260.1442,0.0,1.0,1.0,0.0,1.0,SoundStimuli/MackTheKnife_BobbyDarin_Original5S.wav,,,,,,,,,,,,,,,,,,,,,,,,,,,,,,,,,,,,,,,,,,,,,,,,,,,,,,,,,,
,,,,,665883,1,2024-06-17_14h00.59.631,experiment,2024.1.5,Win32,61.34969325,667045947eb812cbdacbf325,667079b096c0ca2a3b9b7713,,,,,,,,,,,,,,,,,,,,,,,,,,,,,,,,,,,,,,,,,,,,260.1444,261.5887,1.251360174,1.4187,0.0,13.0,13.0,21.0,1.0,song_indices/MackTheKnife_BobbyDarin.csv,,,,,,,,,,,,,,,,,,,,,,,,,,,,,,,,,,,,,,,,,,,,,,,,
,,,,,665883,1,2024-06-17_14h00.59.631,experiment,2024.1.5,Win32,61.34969325,667045947eb812cbdacbf325,667079b096c0ca2a3b9b7713,,,,,,,,,,,,,,,,,,,,,,,,,,,,,,,,,,,,261.5932,268.1612,0.0,0.0,0.0,1.0,1.0,SoundStimuli/Despacito_LuisFonsiDaddyYankee_Cover5S.wav,,,,,,,,,,,,,,,,,,,,,,,,,,,,,,,,,,,,,,,,,,,,,,,,,,,,,,,,,,
,,,,,665883,1,2024-06-17_14h00.59.631,experiment,2024.1.5,Win32,61.34969325,667045947eb812cbdacbf325,667079b096c0ca2a3b9b7713,,,,,,,,,,,,,,,,,,,,,,,,,,,,,,,,,,,,268.1781,274.7444,0.0,1.0,1.0,0.0,1.0,SoundStimuli/Despacito_LuisFonsiDaddyYankee_Original5S.wav,,,,,,,,,,,,,,,,,,,,,,,,,,,,,,,,,,,,,,,,,,,,,,,,,,,,,,,,,,
,,,,,665883,1,2024-06-17_14h00.59.631,experiment,2024.1.5,Win32,61.34969325,667045947eb812cbdacbf325,667079b096c0ca2a3b9b7713,,,,,,,,,,,,,,,,,,,,,,,,,,,,,,,,,,,,,,,,,,,,274.7447,276.1276,5.612622416,1.3561,0.0,14.0,14.0,11.0,1.0,song_indices/Despacito_LuisFonsiDaddyYankee.csv,,,,,,,,,,,,,,,,,,,,,,,,,,,,,,,,,,,,,,,,,,,,,,,,
,,,,,665883,1,2024-06-17_14h00.59.631,experiment,2024.1.5,Win32,61.34969325,667045947eb812cbdacbf325,667079b096c0ca2a3b9b7713,,,,,,,,,,,,,,,,,,,,,,,,,,,,,,,,,,,,276.1302,281.7275,0.0,0.0,0.0,0.0,1.0,SoundStimuli/IWannaDanceWithSomebody_WhitneyHouston_Original5S.wav,,,,,,,,,,,,,,,,,,,,,,,,,,,,,,,,,,,,,,,,,,,,,,,,,,,,,,,,,,
,,,,,665883,1,2024-06-17_14h00.59.631,experiment,2024.1.5,Win32,61.34969325,667045947eb812cbdacbf325,667079b096c0ca2a3b9b7713,,,,,,,,,,,,,,,,,,,,,,,,,,,,,,,,,,,,281.7527,288.5784,0.0,1.0,1.0,1.0,1.0,SoundStimuli/IWannaDanceWithSomebody_WhitneyHouston_Cover5S.wav,,,,,,,,,,,,,,,,,,,,,,,,,,,,,,,,,,,,,,,,,,,,,,,,,,,,,,,,,,
,,,,,665883,1,2024-06-17_14h00.59.631,experiment,2024.1.5,Win32,61.34969325,667045947eb812cbdacbf325,667079b096c0ca2a3b9b7713,,,,,,,,,,,,,,,,,,,,,,,,,,,,,,,,,,,,,,,,,,,,288.5787,290.845,1.558215452,2.2338,0.0,15.0,15.0,13.0,1.0,song_indices/IWannaDanceWithSomebody_WhitneyHouston.csv,,,,,,,,,,,,,,,,,,,,,,,,,,,,,,,,,,,,,,,,,,,,,,,,
,,,,,665883,1,2024-06-17_14h00.59.631,experiment,2024.1.5,Win32,61.34969325,667045947eb812cbdacbf325,667079b096c0ca2a3b9b7713,,,,,,,,,,,,,,,,,,,,,,,,,,,,,,,,,,,,290.8485,296.9289,0.0,0.0,0.0,0.0,1.0,SoundStimuli/IllMakeLoveToYou_BoyzIIMen_Original5S.wav,,,,,,,,,,,,,,,,,,,,,,,,,,,,,,,,,,,,,,,,,,,,,,,,,,,,,,,,,,
,,,,,665883,1,2024-06-17_14h00.59.631,experiment,2024.1.5,Win32,61.34969325,667045947eb812cbdacbf325,667079b096c0ca2a3b9b7713,,,,,,,,,,,,,,,,,,,,,,,,,,,,,,,,,,,,296.9563,303.0055,0.0,1.0,1.0,1.0,1.0,SoundStimuli/IllMakeLoveToYou_BoyzIIMen_Cover5S.wav,,,,,,,,,,,,,,,,,,,,,,,,,,,,,,,,,,,,,,,,,,,,,,,,,,,,,,,,,,
,,,,,665883,1,2024-06-17_14h00.59.631,experiment,2024.1.5,Win32,61.34969325,667045947eb812cbdacbf325,667079b096c0ca2a3b9b7713,,,,,,,,,,,,,,,,,,,,,,,,,,,,,,,,,,,,,,,,,,,,303.0058,304.5612,3.007616975,1.518,0.0,16.0,16.0,6.0,1.0,song_indices/IllMakeLoveToYou_BoyzIIMen.csv,,,,,,,,,,,,,,,,,,,,,,,,,,,,,,,,,,,,,,,,,,,,,,,,
,,,,,665883,1,2024-06-17_14h00.59.631,experiment,2024.1.5,Win32,61.34969325,667045947eb812cbdacbf325,667079b096c0ca2a3b9b7713,,,,,,,,,,,,,,,,,,,,,,,,,,,,,,,,,,,,304.5634,308.6447,0.0,0.0,0.0,1.0,1.0,SoundStimuli/BohemianRhapsody_Queen_Cover5S.wav,,,,,,,,,,,,,,,,,,,,,,,,,,,,,,,,,,,,,,,,,,,,,,,,,,,,,,,,,,
,,,,,665883,1,2024-06-17_14h00.59.631,experiment,2024.1.5,Win32,61.34969325,667045947eb812cbdacbf325,667079b096c0ca2a3b9b7713,,,,,,,,,,,,,,,,,,,,,,,,,,,,,,,,,,,,308.6726,314.6288,0.0,1.0,1.0,0.0,1.0,SoundStimuli/BohemianRhapsody_Queen_Original5S.wav,,,,,,,,,,,,,,,,,,,,,,,,,,,,,,,,,,,,,,,,,,,,,,,,,,,,,,,,,,
,,,,,665883,1,2024-06-17_14h00.59.631,experiment,2024.1.5,Win32,61.34969325,667045947eb812cbdacbf325,667079b096c0ca2a3b9b7713,,,,,,,,,,,,,,,,,,,,,,,,,,,,,,,,,,,,,,,,,,,,314.6291,318.5679,4.078346028,3.9104,0.0,17.0,17.0,18.0,1.0,song_indices/BohemianRhapsody_Queen.csv,,,,,,,,,,,,,,,,,,,,,,,,,,,,,,,,,,,,,,,,,,,,,,,,
,,,,,665883,1,2024-06-17_14h00.59.631,experiment,2024.1.5,Win32,61.34969325,667045947eb812cbdacbf325,667079b096c0ca2a3b9b7713,,,,,,,,,,,,,,,,,,,,,,,,,,,,,,,,,,,,318.5704,326.694,0.0,0.0,0.0,1.0,1.0,SoundStimuli/AnotherOneBitesTheDust_Queen_Cover5S.wav,,,,,,,,,,,,,,,,,,,,,,,,,,,,,,,,,,,,,,,,,,,,,,,,,,,,,,,,,,
,,,,,665883,1,2024-06-17_14h00.59.631,experiment,2024.1.5,Win32,61.34969325,667045947eb812cbdacbf325,667079b096c0ca2a3b9b7713,,,,,,,,,,,,,,,,,,,,,,,,,,,,,,,,,,,,326.719,332.7444,0.0,1.0,1.0,0.0,1.0,SoundStimuli/AnotherOneBitesTheDust_Queen_Original5S.wav,,,,,,,,,,,,,,,,,,,,,,,,,,,,,,,,,,,,,,,,,,,,,,,,,,,,,,,,,,
,,,,,665883,1,2024-06-17_14h00.59.631,experiment,2024.1.5,Win32,61.34969325,667045947eb812cbdacbf325,667079b096c0ca2a3b9b7713,,,,,,,,,,,,,,,,,,,,,,,,,,,,,,,,,,,,,,,,,,,,332.7447,334.5765,2.916213275,1.8089,0.0,18.0,18.0,9.0,1.0,song_indices/AnotherOneBitesTheDust_Queen.csv,,,,,,,,,,,,,,,,,,,,,,,,,,,,,,,,,,,,,,,,,,,,,,,,
,,,,,665883,1,2024-06-17_14h00.59.631,experiment,2024.1.5,Win32,61.34969325,667045947eb812cbdacbf325,667079b096c0ca2a3b9b7713,,,,,,,,,,,,,,,,,,,,,,,,,,,,,,,,,,,,334.5793,342.095,0.0,0.0,0.0,1.0,1.0,SoundStimuli/EndlessLove_DianaRossLionelRichie_Cover5S.wav,,,,,,,,,,,,,,,,,,,,,,,,,,,,,,,,,,,,,,,,,,,,,,,,,,,,,,,,,,
,,,,,665883,1,2024-06-17_14h00.59.631,experiment,2024.1.5,Win32,61.34969325,667045947eb812cbdacbf325,667079b096c0ca2a3b9b7713,,,,,,,,,,,,,,,,,,,,,,,,,,,,,,,,,,,,342.1144,348.4599,0.0,1.0,1.0,0.0,1.0,SoundStimuli/EndlessLove_DianaRossLionelRichie_Original5S.wav,,,,,,,,,,,,,,,,,,,,,,,,,,,,,,,,,,,,,,,,,,,,,,,,,,,,,,,,,,
,,,,,665883,1,2024-06-17_14h00.59.631,experiment,2024.1.5,Win32,61.34969325,667045947eb812cbdacbf325,667079b096c0ca2a3b9b7713,,,,,,,,,,,,,,,,,,,,,,,,,,,,,,,,,,,,,,,,,,,,348.4604,353.2964,4.881392818,4.7798,0.0,19.0,19.0,3.0,1.0,song_indices/EndlessLove_DianaRossLionelRichie.csv,,,,,,,,,,,,,,,,,,,,,,,,,,,,,,,,,,,,,,,,,,,,,,,,
,,,,,665883,1,2024-06-17_14h00.59.631,experiment,2024.1.5,Win32,61.34969325,667045947eb812cbdacbf325,667079b096c0ca2a3b9b7713,,,,,,,,,,,,,,,,,,,,,,,,,,,,,,,,,,,,353.2989,359.4951,0.0,0.0,0.0,0.0,1.0,SoundStimuli/LikeAPrayer_Madonna_Original5S.wav,,,,,,,,,,,,,,,,,,,,,,,,,,,,,,,,,,,,,,,,,,,,,,,,,,,,,,,,,,
,,,,,665883,1,2024-06-17_14h00.59.631,experiment,2024.1.5,Win32,61.34969325,667045947eb812cbdacbf325,667079b096c0ca2a3b9b7713,,,,,,,,,,,,,,,,,,,,,,,,,,,,,,,,,,,,359.5174,365.7161,0.0,1.0,1.0,1.0,1.0,SoundStimuli/LikeAPrayer_Madonna_Cover5S.wav,,,,,,,,,,,,,,,,,,,,,,,,,,,,,,,,,,,,,,,,,,,,,,,,,,,,,,,,,,
,,,,,665883,1,2024-06-17_14h00.59.631,experiment,2024.1.5,Win32,61.34969325,667045947eb812cbdacbf325,667079b096c0ca2a3b9b7713,,,,,,,,,,,,,,,,,,,,,,,,,,,,,,,,,,,,,,,,,,,,365.7163,367.2614,6.147986942,1.5185,0.0,20.0,20.0,7.0,1.0,song_indices/LikeAPrayer_Madonna.csv,,,,,,,,,,,,,,,,,,,,,,,,,,,,,,,,,,,,,,,,,,,,,,,,
,,,,,665883,1,2024-06-17_14h00.59.631,experiment,2024.1.5,Win32,61.34969325,667045947eb812cbdacbf325,667079b096c0ca2a3b9b7713,,,,,,,,,,,,,,,,,,,,,,,,,,,,,,,,,,,,367.2634,373.6615,0.0,0.0,0.0,0.0,1.0,SoundStimuli/MyGirl_TheTemptations_Original5S.wav,,,,,,,,,,,,,,,,,,,,,,,,,,,,,,,,,,,,,,,,,,,,,,,,,,,,,,,,,,
,,,,,665883,1,2024-06-17_14h00.59.631,experiment,2024.1.5,Win32,61.34969325,667045947eb812cbdacbf325,667079b096c0ca2a3b9b7713,,,,,,,,,,,,,,,,,,,,,,,,,,,,,,,,,,,,373.6817,381.3454,0.0,1.0,1.0,1.0,1.0,SoundStimuli/MyGirl_TheTemptations_Cover5S.wav,,,,,,,,,,,,,,,,,,,,,,,,,,,,,,,,,,,,,,,,,,,,,,,,,,,,,,,,,,
,,,,,665883,1,2024-06-17_14h00.59.631,experiment,2024.1.5,Win32,61.34969325,667045947eb812cbdacbf325,667079b096c0ca2a3b9b7713,,,,,,,,,,,,,,,,,,,,,,,,,,,,,,,,,,,,,,,,,,,,381.3458,382.4607,6.206746464,1.0921,0.0,21.0,21.0,15.0,1.0,song_indices/MyGirl_TheTemptations.csv,,,,,,,,,,,,,,,,,,,,,,,,,,,,,,,,,,,,,,,,,,,,,,,,
,,,,,665883,1,2024-06-17_14h00.59.631,experiment,2024.1.5,Win32,61.34969325,667045947eb812cbdacbf325,667079b096c0ca2a3b9b7713,,,,,,,,,,,,,,,,,,,,,,,,,,,,,,,,,,,,382.4624,388.9108,0.0,0.0,0.0,0.0,1.0,SoundStimuli/BadDay_DanielPowter_Original5S.wav,,,,,,,,,,,,,,,,,,,,,,,,,,,,,,,,,,,,,,,,,,,,,,,,,,,,,,,,,,
,,,,,665883,1,2024-06-17_14h00.59.631,experiment,2024.1.5,Win32,61.34969325,667045947eb812cbdacbf325,667079b096c0ca2a3b9b7713,,,,,,,,,,,,,,,,,,,,,,,,,,,,,,,,,,,,388.9375,396.4786,0.0,1.0,1.0,1.0,1.0,SoundStimuli/BadDay_DanielPowter_Cover5S.wav,,,,,,,,,,,,,,,,,,,,,,,,,,,,,,,,,,,,,,,,,,,,,,,,,,,,,,,,,,
,,,,,665883,1,2024-06-17_14h00.59.631,experiment,2024.1.5,Win32,61.34969325,667045947eb812cbdacbf325,667079b096c0ca2a3b9b7713,,,,,,,,,,,,,,,,,,,,,,,,,,,,,,,,,,,,,,,,,,,,396.4789,397.995,4.319912949,1.4845,0.0,22.0,22.0,22.0,1.0,song_indices/BadDay_DanielPowter.csv,,,,,,,,,,,,,,,,,,,,,,,,,,,,,,,,,,,,,,,,,,,,,,,,
,,,,,665883,1,2024-06-17_14h00.59.631,experiment,2024.1.5,Win32,61.34969325,667045947eb812cbdacbf325,667079b096c0ca2a3b9b7713,,,,,,,,,,,,,,,,,,,,,,,,,,,,,,,,,,,,,,,,,,,,,,,,,,,,,,397.9964,611.2214,space,213.127,,0.0,0.0,0.0,0.0,1.0,choose_song_b1.csv,,,,,,,,,,,,,,,,,,,,,,,,,,,,,,,,,,,,,
,,,,,665883,1,2024-06-17_14h00.59.631,experiment,2024.1.5,Win32,61.34969325,667045947eb812cbdacbf325,667079b096c0ca2a3b9b7713,,,,,,,,,,,,,,,,,,,,,,,,,,,,,,,,,,,,611.2265,617.111,0.0,0.0,0.0,1.0,1.0,SoundStimuli/SaveYourTears_TheWeekndArianaGrande_Cover5S.wav,,,,,,,,,,,,,,,,,,,,,,,,,,,,,,,,,,,,,,,,,,,,,,,,,,,,,,,,,,
,,,,,665883,1,2024-06-17_14h00.59.631,experiment,2024.1.5,Win32,61.34969325,667045947eb812cbdacbf325,667079b096c0ca2a3b9b7713,,,,,,,,,,,,,,,,,,,,,,,,,,,,,,,,,,,,617.1324,623.3279,0.0,1.0,1.0,0.0,1.0,SoundStimuli/SaveYourTears_TheWeekndArianaGrande_Original5S.wav,,,,,,,,,,,,,,,,,,,,,,,,,,,,,,,,,,,,,,,,,,,,,,,,,,,,,,,,,,
,,,,,665883,1,2024-06-17_14h00.59.631,experiment,2024.1.5,Win32,61.34969325,667045947eb812cbdacbf325,667079b096c0ca2a3b9b7713,,,,,,,,,,,,,,,,,,,,,,,,,,,,,,,,,,,,,,,,,,,,623.3283,624.2108,3.092491839,0.8574,0.0,0.0,0.0,12.0,1.0,song_indices/SaveYourTears_TheWeekndArianaGrande.csv,,,,,,,,,,,,,,,,,,,,,,,,,,,,,,,,,,,,,,,,,,,,,,,,
,,,,,665883,1,2024-06-17_14h00.59.631,experiment,2024.1.5,Win32,61.34969325,667045947eb812cbdacbf325,667079b096c0ca2a3b9b7713,,,,,,,,,,,,,,,,,,,,,,,,,,,,,,,,,,,,624.2124,631.4944,0.0,0.0,0.0,1.0,1.0,SoundStimuli/FlashdanceWhatAFeeling_IreneCara_Cover5S.wav,,,,,,,,,,,,,,,,,,,,,,,,,,,,,,,,,,,,,,,,,,,,,,,,,,,,,,,,,,
,,,,,665883,1,2024-06-17_14h00.59.631,experiment,2024.1.5,Win32,61.34969325,667045947eb812cbdacbf325,667079b096c0ca2a3b9b7713,,,,,,,,,,,,,,,,,,,,,,,,,,,,,,,,,,,,631.52,637.9109,0.0,1.0,1.0,0.0,1.0,SoundStimuli/FlashdanceWhatAFeeling_IreneCara_Original5S.wav,,,,,,,,,,,,,,,,,,,,,,,,,,,,,,,,,,,,,,,,,,,,,,,,,,,,,,,,,,
,,,,,665883,1,2024-06-17_14h00.59.631,experiment,2024.1.5,Win32,61.34969325,667045947eb812cbdacbf325,667079b096c0ca2a3b9b7713,,,,,,,,,,,,,,,,,,,,,,,,,,,,,,,,,,,,,,,,,,,,637.9112,638.8276,5.98476605,0.8948,0.0,1.0,1.0,18.0,1.0,song_indices/FlashdanceWhatAFeeling_IreneCara.csv,,,,,,,,,,,,,,,,,,,,,,,,,,,,,,,,,,,,,,,,,,,,,,,,
,,,,,665883,1,2024-06-17_14h00.59.631,experiment,2024.1.5,Win32,61.34969325,667045947eb812cbdacbf325,667079b096c0ca2a3b9b7713,,,,,,,,,,,,,,,,,,,,,,,,,,,,,,,,,,,,638.8295,644.7449,0.0,0.0,0.0,1.0,1.0,SoundStimuli/Irreplaceable_Beyonce_Cover5S.wav,,,,,,,,,,,,,,,,,,,,,,,,,,,,,,,,,,,,,,,,,,,,,,,,,,,,,,,,,,
,,,,,665883,1,2024-06-17_14h00.59.631,experiment,2024.1.5,Win32,61.34969325,667045947eb812cbdacbf325,667079b096c0ca2a3b9b7713,,,,,,,,,,,,,,,,,,,,,,,,,,,,,,,,,,,,644.7588,650.6277,0.0,1.0,1.0,0.0,1.0,SoundStimuli/Irreplaceable_Beyonce_Original5S.wav,,,,,,,,,,,,,,,,,,,,,,,,,,,,,,,,,,,,,,,,,,,,,,,,,,,,,,,,,,
,,,,,665883,1,2024-06-17_14h00.59.631,experiment,2024.1.5,Win32,61.34969325,667045947eb812cbdacbf325,667079b096c0ca2a3b9b7713,,,,,,,,,,,,,,,,,,,,,,,,,,,,,,,,,,,,,,,,,,,,650.6279,651.6448,4.992383025,0.9983,0.0,2.0,2.0,19.0,1.0,song_indices/Irreplaceable_Beyonce.csv,,,,,,,,,,,,,,,,,,,,,,,,,,,,,,,,,,,,,,,,,,,,,,,,
,,,,,665883,1,2024-06-17_14h00.59.631,experiment,2024.1.5,Win32,61.34969325,667045947eb812cbdacbf325,667079b096c0ca2a3b9b7713,,,,,,,,,,,,,,,,,,,,,,,,,,,,,,,,,,,,651.6468,658.1276,0.0,0.0,0.0,0.0,1.0,SoundStimuli/BlindingLights_TheWeeknd_Original5S.wav,,,,,,,,,,,,,,,,,,,,,,,,,,,,,,,,,,,,,,,,,,,,,,,,,,,,,,,,,,
,,,,,665883,1,2024-06-17_14h00.59.631,experiment,2024.1.5,Win32,61.34969325,667045947eb812cbdacbf325,667079b096c0ca2a3b9b7713,,,,,,,,,,,,,,,,,,,,,,,,,,,,,,,,,,,,658.1452,664.9447,0.0,1.0,1.0,1.0,1.0,SoundStimuli/BlindingLights_TheWeeknd_Cover5S.wav,,,,,,,,,,,,,,,,,,,,,,,,,,,,,,,,,,,,,,,,,,,,,,,,,,,,,,,,,,
,,,,,665883,1,2024-06-17_14h00.59.631,experiment,2024.1.5,Win32,61.34969325,667045947eb812cbdacbf325,667079b096c0ca2a3b9b7713,,,,,,,,,,,,,,,,,,,,,,,,,,,,,,,,,,,,,,,,,,,,664.9449,666.2281,3.791077258,1.2502,0.0,3.0,3.0,21.0,1.0,song_indices/BlindingLights_TheWeeknd.csv,,,,,,,,,,,,,,,,,,,,,,,,,,,,,,,,,,,,,,,,,,,,,,,,
,,,,,665883,1,2024-06-17_14h00.59.631,experiment,2024.1.5,Win32,61.34969325,667045947eb812cbdacbf325,667079b096c0ca2a3b9b7713,,,,,,,,,,,,,,,,,,,,,,,,,,,,,,,,,,,,666.2313,672.4275,0.0,0.0,0.0,0.0,1.0,SoundStimuli/Dilemma_NellyKellyRowland_Original5S.wav,,,,,,,,,,,,,,,,,,,,,,,,,,,,,,,,,,,,,,,,,,,,,,,,,,,,,,,,,,
,,,,,665883,1,2024-06-17_14h00.59.631,experiment,2024.1.5,Win32,61.34969325,667045947eb812cbdacbf325,667079b096c0ca2a3b9b7713,,,,,,,,,,,,,,,,,,,,,,,,,,,,,,,,,,,,672.4431,679.4282,0.0,1.0,1.0,1.0,1.0,SoundStimuli/Dilemma_NellyKellyRowland_Cover5S.wav,,,,,,,,,,,,,,,,,,,,,,,,,,,,,,,,,,,,,,,,,,,,,,,,,,,,,,,,,,
,,,,,665883,1,2024-06-17_14h00.59.631,experiment,2024.1.5,Win32,61.34969325,667045947eb812cbdacbf325,667079b096c0ca2a3b9b7713,,,,,,,,,,,,,,,,,,,,,,,,,,,,,,,,,,,,,,,,,,,,679.4284,680.411,2.041349293,0.9575,0.0,4.0,4.0,2.0,1.0,song_indices/Dilemma_NellyKellyRowland.csv,,,,,,,,,,,,,,,,,,,,,,,,,,,,,,,,,,,,,,,,,,,,,,,,
,,,,,665883,1,2024-06-17_14h00.59.631,experiment,2024.1.5,Win32,61.34969325,667045947eb812cbdacbf325,667079b096c0ca2a3b9b7713,,,,,,,,,,,,,,,,,,,,,,,,,,,,,,,,,,,,680.4128,686.5778,0.0,0.0,0.0,0.0,1.0,SoundStimuli/TheSign_AceOfBase_Original5S.wav,,,,,,,,,,,,,,,,,,,,,,,,,,,,,,,,,,,,,,,,,,,,,,,,,,,,,,,,,,
,,,,,665883,1,2024-06-17_14h00.59.631,experiment,2024.1.5,Win32,61.34969325,667045947eb812cbdacbf325,667079b096c0ca2a3b9b7713,,,,,,,,,,,,,,,,,,,,,,,,,,,,,,,,,,,,686.593,692.5943,0.0,1.0,1.0,1.0,1.0,SoundStimuli/TheSign_AceOfBase_Cover5S.wav,,,,,,,,,,,,,,,,,,,,,,,,,,,,,,,,,,,,,,,,,,,,,,,,,,,,,,,,,,
,,,,,665883,1,2024-06-17_14h00.59.631,experiment,2024.1.5,Win32,61.34969325,667045947eb812cbdacbf325,667079b096c0ca2a3b9b7713,,,,,,,,,,,,,,,,,,,,,,,,,,,,,,,,,,,,,,,,,,,,692.5945,693.611,4.613710555,0.9923,0.0,5.0,5.0,5.0,1.0,song_indices/TheSign_AceOfBase.csv,,,,,,,,,,,,,,,,,,,,,,,,,,,,,,,,,,,,,,,,,,,,,,,,
,,,,,665883,1,2024-06-17_14h00.59.631,experiment,2024.1.5,Win32,61.34969325,667045947eb812cbdacbf325,667079b096c0ca2a3b9b7713,,,,,,,,,,,,,,,,,,,,,,,,,,,,,,,,,,,,693.6123,699.6776,0.0,0.0,0.0,0.0,1.0,SoundStimuli/TossinAndTurnin_BobbyLewis_Original5S.wav,,,,,,,,,,,,,,,,,,,,,,,,,,,,,,,,,,,,,,,,,,,,,,,,,,,,,,,,,,
,,,,,665883,1,2024-06-17_14h00.59.631,experiment,2024.1.5,Win32,61.34969325,667045947eb812cbdacbf325,667079b096c0ca2a3b9b7713,,,,,,,,,,,,,,,,,,,,,,,,,,,,,,,,,,,,699.6921,705.7941,0.0,1.0,1.0,1.0,1.0,SoundStimuli/TossinAndTurnin_BobbyLewis_Cover5S.wav,,,,,,,,,,,,,,,,,,,,,,,,,,,,,,,,,,,,,,,,,,,,,,,,,,,,,,,,,,
,,,,,665883,1,2024-06-17_14h00.59.631,experiment,2024.1.5,Win32,61.34969325,667045947eb812cbdacbf325,667079b096c0ca2a3b9b7713,,,,,,,,,,,,,,,,,,,,,,,,,,,,,,,,,,,,,,,,,,,,705.7944,706.611,1.695321001,0.7934,0.0,6.0,6.0,13.0,1.0,song_indices/TossinAndTurnin_BobbyLewis.csv,,,,,,,,,,,,,,,,,,,,,,,,,,,,,,,,,,,,,,,,,,,,,,,,
,,,,,665883,1,2024-06-17_14h00.59.631,experiment,2024.1.5,Win32,61.34969325,667045947eb812cbdacbf325,667079b096c0ca2a3b9b7713,,,,,,,,,,,,,,,,,,,,,,,,,,,,,,,,,,,,706.6124,712.5447,0.0,0.0,0.0,0.0,1.0,SoundStimuli/Respect_ArethaFranklin_Original5S.wav,,,,,,,,,,,,,,,,,,,,,,,,,,,,,,,,,,,,,,,,,,,,,,,,,,,,,,,,,,
,,,,,665883,1,2024-06-17_14h00.59.631,experiment,2024.1.5,Win32,61.34969325,667045947eb812cbdacbf325,667079b096c0ca2a3b9b7713,,,,,,,,,,,,,,,,,,,,,,,,,,,,,,,,,,,,712.5615,718.6283,0.0,1.0,1.0,1.0,1.0,SoundStimuli/Respect_ArethaFranklin_Cover5S.wav,,,,,,,,,,,,,,,,,,,,,,,,,,,,,,,,,,,,,,,,,,,,,,,,,,,,,,,,,,
,,,,,665883,1,2024-06-17_14h00.59.631,experiment,2024.1.5,Win32,61.34969325,667045947eb812cbdacbf325,667079b096c0ca2a3b9b7713,,,,,,,,,,,,,,,,,,,,,,,,,,,,,,,,,,,,,,,,,,,,718.6286,719.5781,1.649619151,0.9224,0.0,7.0,7.0,0.0,1.0,song_indices/Respect_ArethaFranklin.csv,,,,,,,,,,,,,,,,,,,,,,,,,,,,,,,,,,,,,,,,,,,,,,,,
,,,,,665883,1,2024-06-17_14h00.59.631,experiment,2024.1.5,Win32,61.34969325,667045947eb812cbdacbf325,667079b096c0ca2a3b9b7713,,,,,,,,,,,,,,,,,,,,,,,,,,,,,,,,,,,,719.5797,724.8779,0.0,0.0,0.0,1.0,1.0,SoundStimuli/Superstition_StevieWonder_Cover5S.wav,,,,,,,,,,,,,,,,,,,,,,,,,,,,,,,,,,,,,,,,,,,,,,,,,,,,,,,,,,
,,,,,665883,1,2024-06-17_14h00.59.631,experiment,2024.1.5,Win32,61.34969325,667045947eb812cbdacbf325,667079b096c0ca2a3b9b7713,,,,,,,,,,,,,,,,,,,,,,,,,,,,,,,,,,,,724.8975,731.0448,0.0,1.0,1.0,0.0,1.0,SoundStimuli/Superstition_StevieWonder_Original5S.wav,,,,,,,,,,,,,,,,,,,,,,,,,,,,,,,,,,,,,,,,,,,,,,,,,,,,,,,,,,
,,,,,665883,1,2024-06-17_14h00.59.631,experiment,2024.1.5,Win32,61.34969325,667045947eb812cbdacbf325,667079b096c0ca2a3b9b7713,,,,,,,,,,,,,,,,,,,,,,,,,,,,,,,,,,,,,,,,,,,,731.0453,732.7781,4.398258977,1.7039,0.0,8.0,8.0,15.0,1.0,song_indices/Superstition_StevieWonder.csv,,,,,,,,,,,,,,,,,,,,,,,,,,,,,,,,,,,,,,,,,,,,,,,,
,,,,,665883,1,2024-06-17_14h00.59.631,experiment,2024.1.5,Win32,61.34969325,667045947eb812cbdacbf325,667079b096c0ca2a3b9b7713,,,,,,,,,,,,,,,,,,,,,,,,,,,,,,,,,,,,732.7803,739.4108,0.0,0.0,0.0,1.0,1.0,SoundStimuli/LetsGetItOn_MarvinGaye_Cover5S.wav,,,,,,,,,,,,,,,,,,,,,,,,,,,,,,,,,,,,,,,,,,,,,,,,,,,,,,,,,,
,,,,,665883,1,2024-06-17_14h00.59.631,experiment,2024.1.5,Win32,61.34969325,667045947eb812cbdacbf325,667079b096c0ca2a3b9b7713,,,,,,,,,,,,,,,,,,,,,,,,,,,,,,,,,,,,739.4286,745.7279,0.0,1.0,1.0,0.0,1.0,SoundStimuli/LetsGetItOn_MarvinGaye_Original5S.wav,,,,,,,,,,,,,,,,,,,,,,,,,,,,,,,,,,,,,,,,,,,,,,,,,,,,,,,,,,
,,,,,665883,1,2024-06-17_14h00.59.631,experiment,2024.1.5,Win32,61.34969325,667045947eb812cbdacbf325,667079b096c0ca2a3b9b7713,,,,,,,,,,,,,,,,,,,,,,,,,,,,,,,,,,,,,,,,,,,,745.7282,746.7107,2.002176279,0.9603,0.0,9.0,9.0,20.0,1.0,song_indices/LetsGetItOn_MarvinGaye.csv,,,,,,,,,,,,,,,,,,,,,,,,,,,,,,,,,,,,,,,,,,,,,,,,
,,,,,665883,1,2024-06-17_14h00.59.631,experiment,2024.1.5,Win32,61.34969325,667045947eb812cbdacbf325,667079b096c0ca2a3b9b7713,,,,,,,,,,,,,,,,,,,,,,,,,,,,,,,,,,,,746.7127,753.5117,0.0,0.0,0.0,1.0,1.0,SoundStimuli/SomebodyThatIUsedtoKnow_Gotye_Cover5S.wav,,,,,,,,,,,,,,,,,,,,,,,,,,,,,,,,,,,,,,,,,,,,,,,,,,,,,,,,,,
,,,,,665883,1,2024-06-17_14h00.59.631,experiment,2024.1.5,Win32,61.34969325,667045947eb812cbdacbf325,667079b096c0ca2a3b9b7713,,,,,,,,,,,,,,,,,,,,,,,,,,,,,,,,,,,,753.5308,760.7615,0.0,1.0,1.0,0.0,1.0,SoundStimuli/SomebodyThatIUsedtoKnow_Gotye_Original5S.wav,,,,,,,,,,,,,,,,,,,,,,,,,,,,,,,,,,,,,,,,,,,,,,,,,,,,,,,,,,
,,,,,665883,1,2024-06-17_14h00.59.631,experiment,2024.1.5,Win32,61.34969325,667045947eb812cbdacbf325,667079b096c0ca2a3b9b7713,,,,,,,,,,,,,,,,,,,,,,,,,,,,,,,,,,,,,,,,,,,,760.7618,762.1773,4.189336235,1.3894,0.0,10.0,10.0,7.0,1.0,song_indices/SomebodyThatIUsedtoKnow_Gotye.csv,,,,,,,,,,,,,,,,,,,,,,,,,,,,,,,,,,,,,,,,,,,,,,,,
,,,,,665883,1,2024-06-17_14h00.59.631,experiment,2024.1.5,Win32,61.34969325,667045947eb812cbdacbf325,667079b096c0ca2a3b9b7713,,,,,,,,,,,,,,,,,,,,,,,,,,,,,,,,,,,,762.179,767.6827,0.0,0.0,0.0,1.0,1.0,SoundStimuli/HowDoILive_LeAnnRimes_Cover5S.wav,,,,,,,,,,,,,,,,,,,,,,,,,,,,,,,,,,,,,,,,,,,,,,,,,,,,,,,,,,
,,,,,665883,1,2024-06-17_14h00.59.631,experiment,2024.1.5,Win32,61.34969325,667045947eb812cbdacbf325,667079b096c0ca2a3b9b7713,,,,,,,,,,,,,,,,,,,,,,,,,,,,,,,,,,,,767.7183,773.7441,0.0,1.0,1.0,0.0,1.0,SoundStimuli/HowDoILive_LeAnnRimes_Original5S.wav,,,,,,,,,,,,,,,,,,,,,,,,,,,,,,,,,,,,,,,,,,,,,,,,,,,,,,,,,,
,,,,,665883,1,2024-06-17_14h00.59.631,experiment,2024.1.5,Win32,61.34969325,667045947eb812cbdacbf325,667079b096c0ca2a3b9b7713,,,,,,,,,,,,,,,,,,,,,,,,,,,,,,,,,,,,,,,,,,,,773.7444,774.611,6.748639826,0.8377,0.0,11.0,11.0,17.0,1.0,song_indices/HowDoILive_LeAnnRimes.csv,,,,,,,,,,,,,,,,,,,,,,,,,,,,,,,,,,,,,,,,,,,,,,,,
,,,,,665883,1,2024-06-17_14h00.59.631,experiment,2024.1.5,Win32,61.34969325,667045947eb812cbdacbf325,667079b096c0ca2a3b9b7713,,,,,,,,,,,,,,,,,,,,,,,,,,,,,,,,,,,,774.6127,780.3277,0.0,0.0,0.0,1.0,1.0,SoundStimuli/Levitating_DuaLipa_Cover5S.wav,,,,,,,,,,,,,,,,,,,,,,,,,,,,,,,,,,,,,,,,,,,,,,,,,,,,,,,,,,
,,,,,665883,1,2024-06-17_14h00.59.631,experiment,2024.1.5,Win32,61.34969325,667045947eb812cbdacbf325,667079b096c0ca2a3b9b7713,,,,,,,,,,,,,,,,,,,,,,,,,,,,,,,,,,,,780.3449,786.3608,0.0,1.0,1.0,0.0,1.0,SoundStimuli/Levitating_DuaLipa_Original5S.wav,,,,,,,,,,,,,,,,,,,,,,,,,,,,,,,,,,,,,,,,,,,,,,,,,,,,,,,,,,
,,,,,665883,1,2024-06-17_14h00.59.631,experiment,2024.1.5,Win32,61.34969325,667045947eb812cbdacbf325,667079b096c0ca2a3b9b7713,,,,,,,,,,,,,,,,,,,,,,,,,,,,,,,,,,,,,,,,,,,,786.361,791.8776,4.437431991,5.485,0.0,12.0,12.0,10.0,1.0,song_indices/Levitating_DuaLipa.csv,,,,,,,,,,,,,,,,,,,,,,,,,,,,,,,,,,,,,,,,,,,,,,,,
,,,,,665883,1,2024-06-17_14h00.59.631,experiment,2024.1.5,Win32,61.34969325,667045947eb812cbdacbf325,667079b096c0ca2a3b9b7713,,,,,,,,,,,,,,,,,,,,,,,,,,,,,,,,,,,,791.8796,798.9447,0.0,0.0,0.0,1.0,1.0,SoundStimuli/ComeAndGetYourLove_Redbone_Cover5S.wav,,,,,,,,,,,,,,,,,,,,,,,,,,,,,,,,,,,,,,,,,,,,,,,,,,,,,,,,,,
,,,,,665883,1,2024-06-17_14h00.59.631,experiment,2024.1.5,Win32,61.34969325,667045947eb812cbdacbf325,667079b096c0ca2a3b9b7713,,,,,,,,,,,,,,,,,,,,,,,,,,,,,,,,,,,,798.958,805.0454,0.0,1.0,1.0,0.0,1.0,SoundStimuli/ComeAndGetYourLove_Redbone_Original5S.wav,,,,,,,,,,,,,,,,,,,,,,,,,,,,,,,,,,,,,,,,,,,,,,,,,,,,,,,,,,
,,,,,665883,1,2024-06-17_14h00.59.631,experiment,2024.1.5,Win32,61.34969325,667045947eb812cbdacbf325,667079b096c0ca2a3b9b7713,,,,,,,,,,,,,,,,,,,,,,,,,,,,,,,,,,,,,,,,,,,,805.0456,806.0448,6.298150163,0.9841,0.0,13.0,13.0,22.0,1.0,song_indices/ComeAndGetYourLove_Redbone.csv,,,,,,,,,,,,,,,,,,,,,,,,,,,,,,,,,,,,,,,,,,,,,,,,
,,,,,665883,1,2024-06-17_14h00.59.631,experiment,2024.1.5,Win32,61.34969325,667045947eb812cbdacbf325,667079b096c0ca2a3b9b7713,,,,,,,,,,,,,,,,,,,,,,,,,,,,,,,,,,,,806.0464,812.128,0.0,0.0,0.0,0.0,1.0,SoundStimuli/Weak_SWV_Original5S.wav,,,,,,,,,,,,,,,,,,,,,,,,,,,,,,,,,,,,,,,,,,,,,,,,,,,,,,,,,,
,,,,,665883,1,2024-06-17_14h00.59.631,experiment,2024.1.5,Win32,61.34969325,667045947eb812cbdacbf325,667079b096c0ca2a3b9b7713,,,,,,,,,,,,,,,,,,,,,,,,,,,,,,,,,,,,812.1426,818.6107,0.0,1.0,1.0,1.0,1.0,SoundStimuli/Weak_SWV_Cover5S.wav,,,,,,,,,,,,,,,,,,,,,,,,,,,,,,,,,,,,,,,,,,,,,,,,,,,,,,,,,,
,,,,,665883,1,2024-06-17_14h00.59.631,experiment,2024.1.5,Win32,61.34969325,667045947eb812cbdacbf325,667079b096c0ca2a3b9b7713,,,,,,,,,,,,,,,,,,,,,,,,,,,,,,,,,,,,,,,,,,,,818.6109,819.9456,2.857453754,1.3134,0.0,14.0,14.0,6.0,1.0,song_indices/Weak_SWV.csv,,,,,,,,,,,,,,,,,,,,,,,,,,,,,,,,,,,,,,,,,,,,,,,,
,,,,,665883,1,2024-06-17_14h00.59.631,experiment,2024.1.5,Win32,61.34969325,667045947eb812cbdacbf325,667079b096c0ca2a3b9b7713,,,,,,,,,,,,,,,,,,,,,,,,,,,,,,,,,,,,819.9472,825.9779,0.0,0.0,0.0,0.0,1.0,SoundStimuli/LeFreak_Chic_Original5S.wav,,,,,,,,,,,,,,,,,,,,,,,,,,,,,,,,,,,,,,,,,,,,,,,,,,,,,,,,,,
,,,,,665883,1,2024-06-17_14h00.59.631,experiment,2024.1.5,Win32,61.34969325,667045947eb812cbdacbf325,667079b096c0ca2a3b9b7713,,,,,,,,,,,,,,,,,,,,,,,,,,,,,,,,,,,,825.9942,831.4944,0.0,1.0,1.0,1.0,1.0,SoundStimuli/LeFreak_Chic_Cover5S.wav,,,,,,,,,,,,,,,,,,,,,,,,,,,,,,,,,,,,,,,,,,,,,,,,,,,,,,,,,,
,,,,,665883,1,2024-06-17_14h00.59.631,experiment,2024.1.5,Win32,61.34969325,667045947eb812cbdacbf325,667079b096c0ca2a3b9b7713,,,,,,,,,,,,,,,,,,,,,,,,,,,,,,,,,,,,,,,,,,,,831.4946,832.5279,6.102285092,1.0161,0.0,15.0,15.0,11.0,1.0,song_indices/LeFreak_Chic.csv,,,,,,,,,,,,,,,,,,,,,,,,,,,,,,,,,,,,,,,,,,,,,,,,
,,,,,665883,1,2024-06-17_14h00.59.631,experiment,2024.1.5,Win32,61.34969325,667045947eb812cbdacbf325,667079b096c0ca2a3b9b7713,,,,,,,,,,,,,,,,,,,,,,,,,,,,,,,,,,,,832.5295,838.6442,0.0,0.0,0.0,0.0,1.0,SoundStimuli/JoyToTheWorld_ThreeDogNight_Original5S.wav,,,,,,,,,,,,,,,,,,,,,,,,,,,,,,,,,,,,,,,,,,,,,,,,,,,,,,,,,,
,,,,,665883,1,2024-06-17_14h00.59.631,experiment,2024.1.5,Win32,61.34969325,667045947eb812cbdacbf325,667079b096c0ca2a3b9b7713,,,,,,,,,,,,,,,,,,,,,,,,,,,,,,,,,,,,838.6586,843.778,0.0,1.0,1.0,1.0,1.0,SoundStimuli/JoyToTheWorld_ThreeDogNight_Cover5S.wav,,,,,,,,,,,,,,,,,,,,,,,,,,,,,,,,,,,,,,,,,,,,,,,,,,,,,,,,,,
,,,,,665883,1,2024-06-17_14h00.59.631,experiment,2024.1.5,Win32,61.34969325,667045947eb812cbdacbf325,667079b096c0ca2a3b9b7713,,,,,,,,,,,,,,,,,,,,,,,,,,,,,,,,,,,,,,,,,,,,843.7782,844.5783,4.385201306,0.7844,0.0,16.0,16.0,8.0,1.0,song_indices/JoyToTheWorld_ThreeDogNight.csv,,,,,,,,,,,,,,,,,,,,,,,,,,,,,,,,,,,,,,,,,,,,,,,,
,,,,,665883,1,2024-06-17_14h00.59.631,experiment,2024.1.5,Win32,61.34969325,667045947eb812cbdacbf325,667079b096c0ca2a3b9b7713,,,,,,,,,,,,,,,,,,,,,,,,,,,,,,,,,,,,844.5804,851.6776,0.0,0.0,0.0,1.0,1.0,SoundStimuli/BlurredLines_RobinThicke_Cover5S.wav,,,,,,,,,,,,,,,,,,,,,,,,,,,,,,,,,,,,,,,,,,,,,,,,,,,,,,,,,,
,,,,,665883,1,2024-06-17_14h00.59.631,experiment,2024.1.5,Win32,61.34969325,667045947eb812cbdacbf325,667079b096c0ca2a3b9b7713,,,,,,,,,,,,,,,,,,,,,,,,,,,,,,,,,,,,851.6943,858.4442,0.0,1.0,1.0,0.0,1.0,SoundStimuli/BlurredLines_RobinThicke_Original5S.wav,,,,,,,,,,,,,,,,,,,,,,,,,,,,,,,,,,,,,,,,,,,,,,,,,,,,,,,,,,
,,,,,665883,1,2024-06-17_14h00.59.631,experiment,2024.1.5,Win32,61.34969325,667045947eb812cbdacbf325,667079b096c0ca2a3b9b7713,,,,,,,,,,,,,,,,,,,,,,,,,,,,,,,,,,,,,,,,,,,,858.4443,859.2446,6.298150163,0.7801,0.0,17.0,17.0,9.0,1.0,song_indices/BlurredLines_RobinThicke.csv,,,,,,,,,,,,,,,,,,,,,,,,,,,,,,,,,,,,,,,,,,,,,,,,
,,,,,665883,1,2024-06-17_14h00.59.631,experiment,2024.1.5,Win32,61.34969325,667045947eb812cbdacbf325,667079b096c0ca2a3b9b7713,,,,,,,,,,,,,,,,,,,,,,,,,,,,,,,,,,,,859.247,865.3442,0.0,0.0,0.0,0.0,1.0,SoundStimuli/UnbreakMyHeart_ToniBraxton_Original5S.wav,,,,,,,,,,,,,,,,,,,,,,,,,,,,,,,,,,,,,,,,,,,,,,,,,,,,,,,,,,
,,,,,665883,1,2024-06-17_14h00.59.631,experiment,2024.1.5,Win32,61.34969325,667045947eb812cbdacbf325,667079b096c0ca2a3b9b7713,,,,,,,,,,,,,,,,,,,,,,,,,,,,,,,,,,,,865.3606,869.3273,0.0,1.0,1.0,1.0,1.0,SoundStimuli/UnbreakMyHeart_ToniBraxton_Cover5S.wav,,,,,,,,,,,,,,,,,,,,,,,,,,,,,,,,,,,,,,,,,,,,,,,,,,,,,,,,,,
,,,,,665883,1,2024-06-17_14h00.59.631,experiment,2024.1.5,Win32,61.34969325,667045947eb812cbdacbf325,667079b096c0ca2a3b9b7713,,,,,,,,,,,,,,,,,,,,,,,,,,,,,,,,,,,,,,,,,,,,869.3275,870.8275,5.351468988,1.476,0.0,18.0,18.0,16.0,1.0,song_indices/UnbreakMyHeart_ToniBraxton.csv,,,,,,,,,,,,,,,,,,,,,,,,,,,,,,,,,,,,,,,,,,,,,,,,
,,,,,665883,1,2024-06-17_14h00.59.631,experiment,2024.1.5,Win32,61.34969325,667045947eb812cbdacbf325,667079b096c0ca2a3b9b7713,,,,,,,,,,,,,,,,,,,,,,,,,,,,,,,,,,,,870.8294,876.9108,0.0,0.0,0.0,0.0,1.0,SoundStimuli/YouLightUpMyLife_DebbyBoone_Original5S.wav,,,,,,,,,,,,,,,,,,,,,,,,,,,,,,,,,,,,,,,,,,,,,,,,,,,,,,,,,,
,,,,,665883,1,2024-06-17_14h00.59.631,experiment,2024.1.5,Win32,61.34969325,667045947eb812cbdacbf325,667079b096c0ca2a3b9b7713,,,,,,,,,,,,,,,,,,,,,,,,,,,,,,,,,,,,876.9252,883.3615,0.0,1.0,1.0,1.0,1.0,SoundStimuli/YouLightUpMyLife_DebbyBoone_Cover5S.wav,,,,,,,,,,,,,,,,,,,,,,,,,,,,,,,,,,,,,,,,,,,,,,,,,,,,,,,,,,
,,,,,665883,1,2024-06-17_14h00.59.631,experiment,2024.1.5,Win32,61.34969325,667045947eb812cbdacbf325,667079b096c0ca2a3b9b7713,,,,,,,,,,,,,,,,,,,,,,,,,,,,,,,,,,,,,,,,,,,,883.3618,884.7276,6.957562568,1.3356,0.0,19.0,19.0,4.0,1.0,song_indices/YouLightUpMyLife_DebbyBoone.csv,,,,,,,,,,,,,,,,,,,,,,,,,,,,,,,,,,,,,,,,,,,,,,,,
,,,,,665883,1,2024-06-17_14h00.59.631,experiment,2024.1.5,Win32,61.34969325,667045947eb812cbdacbf325,667079b096c0ca2a3b9b7713,,,,,,,,,,,,,,,,,,,,,,,,,,,,,,,,,,,,884.7295,891.7444,0.0,0.0,0.0,0.0,1.0,SoundStimuli/PokerFace_LadyGaga_Original5S.wav,,,,,,,,,,,,,,,,,,,,,,,,,,,,,,,,,,,,,,,,,,,,,,,,,,,,,,,,,,
,,,,,665883,1,2024-06-17_14h00.59.631,experiment,2024.1.5,Win32,61.34969325,667045947eb812cbdacbf325,667079b096c0ca2a3b9b7713,,,,,,,,,,,,,,,,,,,,,,,,,,,,,,,,,,,,891.7639,898.6112,0.0,1.0,1.0,1.0,1.0,SoundStimuli/PokerFace_LadyGaga_Cover5S.wav,,,,,,,,,,,,,,,,,,,,,,,,,,,,,,,,,,,,,,,,,,,,,,,,,,,,,,,,,,
,,,,,665883,1,2024-06-17_14h00.59.631,experiment,2024.1.5,Win32,61.34969325,667045947eb812cbdacbf325,667079b096c0ca2a3b9b7713,,,,,,,,,,,,,,,,,,,,,,,,,,,,,,,,,,,,,,,,,,,,898.6115,899.8944,3.040261153,1.2612,0.0,20.0,20.0,23.0,1.0,song_indices/PokerFace_LadyGaga.csv,,,,,,,,,,,,,,,,,,,,,,,,,,,,,,,,,,,,,,,,,,,,,,,,
,,,,,665883,1,2024-06-17_14h00.59.631,experiment,2024.1.5,Win32,61.34969325,667045947eb812cbdacbf325,667079b096c0ca2a3b9b7713,,,,,,,,,,,,,,,,,,,,,,,,,,,,,,,,,,,,899.8962,906.4111,0.0,0.0,0.0,0.0,1.0,SoundStimuli/Dreams_FleetwoodMac_Original5S.wav,,,,,,,,,,,,,,,,,,,,,,,,,,,,,,,,,,,,,,,,,,,,,,,,,,,,,,,,,,
,,,,,665883,1,2024-06-17_14h00.59.631,experiment,2024.1.5,Win32,61.34969325,667045947eb812cbdacbf325,667079b096c0ca2a3b9b7713,,,,,,,,,,,,,,,,,,,,,,,,,,,,,,,,,,,,906.4273,914.2447,0.0,1.0,1.0,1.0,1.0,SoundStimuli/Dreams_FleetwoodMac_Cover5S.wav,,,,,,,,,,,,,,,,,,,,,,,,,,,,,,,,,,,,,,,,,,,,,,,,,,,,,,,,,,
,,,,,665883,1,2024-06-17_14h00.59.631,experiment,2024.1.5,Win32,61.34969325,667045947eb812cbdacbf325,667079b096c0ca2a3b9b7713,,,,,,,,,,,,,,,,,,,,,,,,,,,,,,,,,,,,,,,,,,,,914.2449,915.2608,2.974972797,0.9904,0.0,21.0,21.0,1.0,1.0,song_indices/Dreams_FleetwoodMac.csv,,,,,,,,,,,,,,,,,,,,,,,,,,,,,,,,,,,,,,,,,,,,,,,,
,,,,,665883,1,2024-06-17_14h00.59.631,experiment,2024.1.5,Win32,61.34969325,667045947eb812cbdacbf325,667079b096c0ca2a3b9b7713,,,,,,,,,,,,,,,,,,,,,,,,,,,,,,,,,,,,915.2628,922.7944,0.0,0.0,0.0,1.0,1.0,SoundStimuli/TikTok_Kesha_Cover5S.wav,,,,,,,,,,,,,,,,,,,,,,,,,,,,,,,,,,,,,,,,,,,,,,,,,,,,,,,,,,
,,,,,665883,1,2024-06-17_14h00.59.631,experiment,2024.1.5,Win32,61.34969325,667045947eb812cbdacbf325,667079b096c0ca2a3b9b7713,,,,,,,,,,,,,,,,,,,,,,,,,,,,,,,,,,,,922.8116,929.0281,0.0,1.0,1.0,0.0,1.0,SoundStimuli/TikTok_Kesha_Original5S.wav,,,,,,,,,,,,,,,,,,,,,,,,,,,,,,,,,,,,,,,,,,,,,,,,,,,,,,,,,,
,,,,,665883,1,2024-06-17_14h00.59.631,experiment,2024.1.5,Win32,61.34969325,667045947eb812cbdacbf325,667079b096c0ca2a3b9b7713,,,,,,,,,,,,,,,,,,,,,,,,,,,,,,,,,,,,,,,,,,,,929.0283,930.0443,4.450489663,0.9916,0.0,22.0,22.0,3.0,1.0,song_indices/TikTok_Kesha.csv,,,,,,,,,,,,,,,,,,,,,,,,,,,,,,,,,,,,,,,,,,,,,,,,
,,,,,665883,1,2024-06-17_14h00.59.631,experiment,2024.1.5,Win32,61.34969325,667045947eb812cbdacbf325,667079b096c0ca2a3b9b7713,,,,,,,,,,,,,,,,,,,,,,,,,,,,,,,,,,,,930.0464,936.3275,0.0,0.0,0.0,1.0,1.0,SoundStimuli/Kiss_Prince_Cover5S.wav,,,,,,,,,,,,,,,,,,,,,,,,,,,,,,,,,,,,,,,,,,,,,,,,,,,,,,,,,,
,,,,,665883,1,2024-06-17_14h00.59.631,experiment,2024.1.5,Win32,61.34969325,667045947eb812cbdacbf325,667079b096c0ca2a3b9b7713,,,,,,,,,,,,,,,,,,,,,,,,,,,,,,,,,,,,936.3426,943.7609,0.0,1.0,1.0,0.0,1.0,SoundStimuli/Kiss_Prince_Original5S.wav,,,,,,,,,,,,,,,,,,,,,,,,,,,,,,,,,,,,,,,,,,,,,,,,,,,,,,,,,,
,,,,,665883,1,2024-06-17_14h00.59.631,experiment,2024.1.5,Win32,61.34969325,667045947eb812cbdacbf325,667079b096c0ca2a3b9b7713,,,,,,,,,,,,,,,,,,,,,,,,,,,,,,,,,,,,,,,,,,,,943.761,945.844,5.690968444,2.0565,0.0,23.0,23.0,14.0,1.0,song_indices/Kiss_Prince.csv,,,,,,,,,,,,,,,,,,,,,,,,,,,,,,,,,,,,,,,,,,,,,,,,
,,,,,665883,1,2024-06-17_14h00.59.631,experiment,2024.1.5,Win32,61.34969325,667045947eb812cbdacbf325,667079b096c0ca2a3b9b7713,,,,,,,,,,,,,,,,,,,,,,,,,,,,,,,,,,,,,,,,,,,,,,,,,,,,,,945.8442,948.0611,space,2.1975,,0.0,1.0,1.0,2.0,1.0,choose_song_b3.csv,,,,,,,,,,,,,,,,,,,,,,,,,,,,,,,,,,,,,
,,,,,665883,1,2024-06-17_14h00.59.631,experiment,2024.1.5,Win32,61.34969325,667045947eb812cbdacbf325,667079b096c0ca2a3b9b7713,,,,,,,,,,,,,,,,,,,,,,,,,,,,,,,,,,,,948.0644,954.3607,0.0,0.0,0.0,0.0,1.0,SoundStimuli/HeyYa_Outkast_Original5S.wav,,,,,,,,,,,,,,,,,,,,,,,,,,,,,,,,,,,,,,,,,,,,,,,,,,,,,,,,,,
,,,,,665883,1,2024-06-17_14h00.59.631,experiment,2024.1.5,Win32,61.34969325,667045947eb812cbdacbf325,667079b096c0ca2a3b9b7713,,,,,,,,,,,,,,,,,,,,,,,,,,,,,,,,,,,,954.375,963.2776,0.0,1.0,1.0,1.0,1.0,SoundStimuli/HeyYa_Outkast_Cover5S.wav,,,,,,,,,,,,,,,,,,,,,,,,,,,,,,,,,,,,,,,,,,,,,,,,,,,,,,,,,,
,,,,,665883,1,2024-06-17_14h00.59.631,experiment,2024.1.5,Win32,61.34969325,667045947eb812cbdacbf325,667079b096c0ca2a3b9b7713,,,,,,,,,,,,,,,,,,,,,,,,,,,,,,,,,,,,,,,,,,,,963.2777,964.2941,1.701849837,0.992,0.0,0.0,0.0,22.0,1.0,song_indices/HeyYa_Outkast.csv,,,,,,,,,,,,,,,,,,,,,,,,,,,,,,,,,,,,,,,,,,,,,,,,
,,,,,665883,1,2024-06-17_14h00.59.631,experiment,2024.1.5,Win32,61.34969325,667045947eb812cbdacbf325,667079b096c0ca2a3b9b7713,,,,,,,,,,,,,,,,,,,,,,,,,,,,,,,,,,,,964.2961,970.2445,0.0,0.0,0.0,1.0,1.0,SoundStimuli/TheBoyIsMine_BrandyMonica_Cover5S.wav,,,,,,,,,,,,,,,,,,,,,,,,,,,,,,,,,,,,,,,,,,,,,,,,,,,,,,,,,,
,,,,,665883,1,2024-06-17_14h00.59.631,experiment,2024.1.5,Win32,61.34969325,667045947eb812cbdacbf325,667079b096c0ca2a3b9b7713,,,,,,,,,,,,,,,,,,,,,,,,,,,,,,,,,,,,970.2683,976.4776,0.0,1.0,1.0,0.0,1.0,SoundStimuli/TheBoyIsMine_BrandyMonica_Original5S.wav,,,,,,,,,,,,,,,,,,,,,,,,,,,,,,,,,,,,,,,,,,,,,,,,,,,,,,,,,,
,,,,,665883,1,2024-06-17_14h00.59.631,experiment,2024.1.5,Win32,61.34969325,667045947eb812cbdacbf325,667079b096c0ca2a3b9b7713,,,,,,,,,,,,,,,,,,,,,,,,,,,,,,,,,,,,,,,,,,,,976.4778,977.3948,5.357997824,0.8844,0.0,1.0,1.0,6.0,1.0,song_indices/TheBoyIsMine_BrandyMonica.csv,,,,,,,,,,,,,,,,,,,,,,,,,,,,,,,,,,,,,,,,,,,,,,,,
,,,,,665883,1,2024-06-17_14h00.59.631,experiment,2024.1.5,Win32,61.34969325,667045947eb812cbdacbf325,667079b096c0ca2a3b9b7713,,,,,,,,,,,,,,,,,,,,,,,,,,,,,,,,,,,,977.3964,983.2941,0.0,0.0,0.0,0.0,1.0,SoundStimuli/EyeOfTheTiger_Survivor_Original5S.wav,,,,,,,,,,,,,,,,,,,,,,,,,,,,,,,,,,,,,,,,,,,,,,,,,,,,,,,,,,
,,,,,665883,1,2024-06-17_14h00.59.631,experiment,2024.1.5,Win32,61.34969325,667045947eb812cbdacbf325,667079b096c0ca2a3b9b7713,,,,,,,,,,,,,,,,,,,,,,,,,,,,,,,,,,,,983.3096,989.4281,0.0,1.0,1.0,1.0,1.0,SoundStimuli/EyeOfTheTiger_Survivor_Cover5S.wav,,,,,,,,,,,,,,,,,,,,,,,,,,,,,,,,,,,,,,,,,,,,,,,,,,,,,,,,,,
,,,,,665883,1,2024-06-17_14h00.59.631,experiment,2024.1.5,Win32,61.34969325,667045947eb812cbdacbf325,667079b096c0ca2a3b9b7713,,,,,,,,,,,,,,,,,,,,,,,,,,,,,,,,,,,,,,,,,,,,989.4284,990.3113,6.533188248,0.8559,0.0,2.0,2.0,11.0,1.0,song_indices/EyeOfTheTiger_Survivor.csv,,,,,,,,,,,,,,,,,,,,,,,,,,,,,,,,,,,,,,,,,,,,,,,,
,,,,,665883,1,2024-06-17_14h00.59.631,experiment,2024.1.5,Win32,61.34969325,667045947eb812cbdacbf325,667079b096c0ca2a3b9b7713,,,,,,,,,,,,,,,,,,,,,,,,,,,,,,,,,,,,990.314,996.0943,0.0,0.0,0.0,1.0,1.0,SoundStimuli/SmellsLikeTeenSpirit_Nirvana_Cover5S.wav,,,,,,,,,,,,,,,,,,,,,,,,,,,,,,,,,,,,,,,,,,,,,,,,,,,,,,,,,,
,,,,,665883,1,2024-06-17_14h00.59.631,experiment,2024.1.5,Win32,61.34969325,667045947eb812cbdacbf325,667079b096c0ca2a3b9b7713,,,,,,,,,,,,,,,,,,,,,,,,,,,,,,,,,,,,996.1126,1002.3285,0.0,1.0,1.0,0.0,1.0,SoundStimuli/SmellsLikeTeenSpirit_Nirvana_Original5S.wav,,,,,,,,,,,,,,,,,,,,,,,,,,,,,,,,,,,,,,,,,,,,,,,,,,,,,,,,,,
,,,,,665883,1,2024-06-17_14h00.59.631,experiment,2024.1.5,Win32,61.34969325,667045947eb812cbdacbf325,667079b096c0ca2a3b9b7713,,,,,,,,,,,,,,,,,,,,,,,,,,,,,,,,,,,,,,,,,,,,1002.3287,1003.411,6.951033732,1.0565,0.0,3.0,3.0,8.0,1.0,song_indices/SmellsLikeTeenSpirit_Nirvana.csv,,,,,,,,,,,,,,,,,,,,,,,,,,,,,,,,,,,,,,,,,,,,,,,,
,,,,,665883,1,2024-06-17_14h00.59.631,experiment,2024.1.5,Win32,61.34969325,667045947eb812cbdacbf325,667079b096c0ca2a3b9b7713,,,,,,,,,,,,,,,,,,,,,,,,,,,,,,,,,,,,1003.4135,1009.8781,0.0,0.0,0.0,0.0,1.0,SoundStimuli/ShapeofYou_EdSheeran_Original5S.wav,,,,,,,,,,,,,,,,,,,,,,,,,,,,,,,,,,,,,,,,,,,,,,,,,,,,,,,,,,
,,,,,665883,1,2024-06-17_14h00.59.631,experiment,2024.1.5,Win32,61.34969325,667045947eb812cbdacbf325,667079b096c0ca2a3b9b7713,,,,,,,,,,,,,,,,,,,,,,,,,,,,,,,,,,,,1009.8966,1016.2109,0.0,1.0,1.0,1.0,1.0,SoundStimuli/ShapeofYou_EdSheeran_Cover5S.wav,,,,,,,,,,,,,,,,,,,,,,,,,,,,,,,,,,,,,,,,,,,,,,,,,,,,,,,,,,
,,,,,665883,1,2024-06-17_14h00.59.631,experiment,2024.1.5,Win32,61.34969325,667045947eb812cbdacbf325,667079b096c0ca2a3b9b7713,,,,,,,,,,,,,,,,,,,,,,,,,,,,,,,,,,,,,,,,,,,,1016.211,1017.4781,3.503808487,1.2405,0.0,4.0,4.0,21.0,1.0,song_indices/ShapeofYou_EdSheeran.csv,,,,,,,,,,,,,,,,,,,,,,,,,,,,,,,,,,,,,,,,,,,,,,,,
,,,,,665883,1,2024-06-17_14h00.59.631,experiment,2024.1.5,Win32,61.34969325,667045947eb812cbdacbf325,667079b096c0ca2a3b9b7713,,,,,,,,,,,,,,,,,,,,,,,,,,,,,,,,,,,,1017.4796,1023.678,0.0,0.0,0.0,0.0,1.0,SoundStimuli/NoScrubs_TLC_Original5S.wav,,,,,,,,,,,,,,,,,,,,,,,,,,,,,,,,,,,,,,,,,,,,,,,,,,,,,,,,,,
,,,,,665883,1,2024-06-17_14h00.59.631,experiment,2024.1.5,Win32,61.34969325,667045947eb812cbdacbf325,667079b096c0ca2a3b9b7713,,,,,,,,,,,,,,,,,,,,,,,,,,,,,,,,,,,,1023.6925,1029.8114,0.0,1.0,1.0,1.0,1.0,SoundStimuli/NoScrubs_TLC_Cover5S.wav,,,,,,,,,,,,,,,,,,,,,,,,,,,,,,,,,,,,,,,,,,,,,,,,,,,,,,,,,,
,,,,,665883,1,2024-06-17_14h00.59.631,experiment,2024.1.5,Win32,61.34969325,667045947eb812cbdacbf325,667079b096c0ca2a3b9b7713,,,,,,,,,,,,,,,,,,,,,,,,,,,,,,,,,,,,,,,,,,,,1029.8116,1030.778,6.768226333,0.9488,0.0,5.0,5.0,14.0,1.0,song_indices/NoScrubs_TLC.csv,,,,,,,,,,,,,,,,,,,,,,,,,,,,,,,,,,,,,,,,,,,,,,,,
,,,,,665883,1,2024-06-17_14h00.59.631,experiment,2024.1.5,Win32,61.34969325,667045947eb812cbdacbf325,667079b096c0ca2a3b9b7713,,,,,,,,,,,,,,,,,,,,,,,,,,,,,,,,,,,,1030.7797,1038.0109,0.0,0.0,0.0,0.0,1.0,SoundStimuli/UptownFunk_MarkRonson_Original5S.wav,,,,,,,,,,,,,,,,,,,,,,,,,,,,,,,,,,,,,,,,,,,,,,,,,,,,,,,,,,
,,,,,665883,1,2024-06-17_14h00.59.631,experiment,2024.1.5,Win32,61.34969325,667045947eb812cbdacbf325,667079b096c0ca2a3b9b7713,,,,,,,,,,,,,,,,,,,,,,,,,,,,,,,,,,,,1038.0261,1045.045,0.0,1.0,1.0,1.0,1.0,SoundStimuli/UptownFunk_MarkRonson_Cover5S.wav,,,,,,,,,,,,,,,,,,,,,,,,,,,,,,,,,,,,,,,,,,,,,,,,,,,,,,,,,,
,,,,,665883,1,2024-06-17_14h00.59.631,experiment,2024.1.5,Win32,61.34969325,667045947eb812cbdacbf325,667079b096c0ca2a3b9b7713,,,,,,,,,,,,,,,,,,,,,,,,,,,,,,,,,,,,,,,,,,,,1045.0453,1045.8448,6.598476605,0.7784,0.0,6.0,6.0,15.0,1.0,song_indices/UptownFunk_MarkRonson.csv,,,,,,,,,,,,,,,,,,,,,,,,,,,,,,,,,,,,,,,,,,,,,,,,
,,,,,665883,1,2024-06-17_14h00.59.631,experiment,2024.1.5,Win32,61.34969325,667045947eb812cbdacbf325,667079b096c0ca2a3b9b7713,,,,,,,,,,,,,,,,,,,,,,,,,,,,,,,,,,,,1045.8476,1051.9108,0.0,0.0,0.0,1.0,1.0,SoundStimuli/RockWithYou_MichaelJackson_Cover5S.wav,,,,,,,,,,,,,,,,,,,,,,,,,,,,,,,,,,,,,,,,,,,,,,,,,,,,,,,,,,
,,,,,665883,1,2024-06-17_14h00.59.631,experiment,2024.1.5,Win32,61.34969325,667045947eb812cbdacbf325,667079b096c0ca2a3b9b7713,,,,,,,,,,,,,,,,,,,,,,,,,,,,,,,,,,,,1051.9275,1058.2609,0.0,1.0,1.0,0.0,1.0,SoundStimuli/RockWithYou_MichaelJackson_Original5S.wav,,,,,,,,,,,,,,,,,,,,,,,,,,,,,,,,,,,,,,,,,,,,,,,,,,,,,,,,,,
,,,,,665883,1,2024-06-17_14h00.59.631,experiment,2024.1.5,Win32,61.34969325,667045947eb812cbdacbf325,667079b096c0ca2a3b9b7713,,,,,,,,,,,,,,,,,,,,,,,,,,,,,,,,,,,,,,,,,,,,1058.2611,1059.0442,2.86398259,0.7585,0.0,7.0,7.0,16.0,1.0,song_indices/RockWithYou_MichaelJackson.csv,,,,,,,,,,,,,,,,,,,,,,,,,,,,,,,,,,,,,,,,,,,,,,,,
,,,,,665883,1,2024-06-17_14h00.59.631,experiment,2024.1.5,Win32,61.34969325,667045947eb812cbdacbf325,667079b096c0ca2a3b9b7713,,,,,,,,,,,,,,,,,,,,,,,,,,,,,,,,,,,,1059.0459,1065.1443,0.0,0.0,0.0,0.0,1.0,SoundStimuli/GimmeShelter_RollingStones_Original5S.wav,,,,,,,,,,,,,,,,,,,,,,,,,,,,,,,,,,,,,,,,,,,,,,,,,,,,,,,,,,
,,,,,665883,1,2024-06-17_14h00.59.631,experiment,2024.1.5,Win32,61.34969325,667045947eb812cbdacbf325,667079b096c0ca2a3b9b7713,,,,,,,,,,,,,,,,,,,,,,,,,,,,,,,,,,,,1065.1627,1071.3775,0.0,1.0,1.0,1.0,1.0,SoundStimuli/GimmeShelter_RollingStones_Cover5S.wav,,,,,,,,,,,,,,,,,,,,,,,,,,,,,,,,,,,,,,,,,,,,,,,,,,,,,,,,,,
,,,,,665883,1,2024-06-17_14h00.59.631,experiment,2024.1.5,Win32,61.34969325,667045947eb812cbdacbf325,667079b096c0ca2a3b9b7713,,,,,,,,,,,,,,,,,,,,,,,,,,,,,,,,,,,,,,,,,,,,1071.3777,1072.2779,3.190424374,0.876,0.0,8.0,8.0,20.0,1.0,song_indices/GimmeShelter_RollingStones.csv,,,,,,,,,,,,,,,,,,,,,,,,,,,,,,,,,,,,,,,,,,,,,,,,
,,,,,665883,1,2024-06-17_14h00.59.631,experiment,2024.1.5,Win32,61.34969325,667045947eb812cbdacbf325,667079b096c0ca2a3b9b7713,,,,,,,,,,,,,,,,,,,,,,,,,,,,,,,,,,,,1072.2794,1079.6449,0.0,0.0,0.0,1.0,1.0,SoundStimuli/Happy_PharellWilliams_Cover5S.wav,,,,,,,,,,,,,,,,,,,,,,,,,,,,,,,,,,,,,,,,,,,,,,,,,,,,,,,,,,
,,,,,665883,1,2024-06-17_14h00.59.631,experiment,2024.1.5,Win32,61.34969325,667045947eb812cbdacbf325,667079b096c0ca2a3b9b7713,,,,,,,,,,,,,,,,,,,,,,,,,,,,,,,,,,,,1079.6603,1087.0113,0.0,1.0,1.0,0.0,1.0,SoundStimuli/Happy_PharellWilliams_Original5S.wav,,,,,,,,,,,,,,,,,,,,,,,,,,,,,,,,,,,,,,,,,,,,,,,,,,,,,,,,,,
,,,,,665883,1,2024-06-17_14h00.59.631,experiment,2024.1.5,Win32,61.34969325,667045947eb812cbdacbf325,667079b096c0ca2a3b9b7713,,,,,,,,,,,,,,,,,,,,,,,,,,,,,,,,,,,,,,,,,,,,1087.0115,1088.1772,6.396082699,1.1447,0.0,9.0,9.0,7.0,1.0,song_indices/Happy_PharellWilliams.csv,,,,,,,,,,,,,,,,,,,,,,,,,,,,,,,,,,,,,,,,,,,,,,,,
,,,,,665883,1,2024-06-17_14h00.59.631,experiment,2024.1.5,Win32,61.34969325,667045947eb812cbdacbf325,667079b096c0ca2a3b9b7713,,,,,,,,,,,,,,,,,,,,,,,,,,,,,,,,,,,,1088.1786,1094.4281,0.0,0.0,0.0,1.0,1.0,SoundStimuli/ItsAllInTheGame_TommyEdwards_Cover5S.wav,,,,,,,,,,,,,,,,,,,,,,,,,,,,,,,,,,,,,,,,,,,,,,,,,,,,,,,,,,
,,,,,665883,1,2024-06-17_14h00.59.631,experiment,2024.1.5,Win32,61.34969325,667045947eb812cbdacbf325,667079b096c0ca2a3b9b7713,,,,,,,,,,,,,,,,,,,,,,,,,,,,,,,,,,,,1094.4419,1100.6942,0.0,1.0,1.0,0.0,1.0,SoundStimuli/ItsAllInTheGame_TommyEdwards_Original5S.wav,,,,,,,,,,,,,,,,,,,,,,,,,,,,,,,,,,,,,,,,,,,,,,,,,,,,,,,,,,
,,,,,665883,1,2024-06-17_14h00.59.631,experiment,2024.1.5,Win32,61.34969325,667045947eb812cbdacbf325,667079b096c0ca2a3b9b7713,,,,,,,,,,,,,,,,,,,,,,,,,,,,,,,,,,,,,,,,,,,,1100.6944,1101.5941,4.998911861,0.8741,0.0,10.0,10.0,13.0,1.0,song_indices/ItsAllInTheGame_TommyEdwards.csv,,,,,,,,,,,,,,,,,,,,,,,,,,,,,,,,,,,,,,,,,,,,,,,,
,,,,,665883,1,2024-06-17_14h00.59.631,experiment,2024.1.5,Win32,61.34969325,667045947eb812cbdacbf325,667079b096c0ca2a3b9b7713,,,,,,,,,,,,,,,,,,,,,,,,,,,,,,,,,,,,1101.5957,1108.3779,0.0,0.0,0.0,1.0,1.0,SoundStimuli/PartyRockAnthem_LMFAO_Cover5S.wav,,,,,,,,,,,,,,,,,,,,,,,,,,,,,,,,,,,,,,,,,,,,,,,,,,,,,,,,,,
,,,,,665883,1,2024-06-17_14h00.59.631,experiment,2024.1.5,Win32,61.34969325,667045947eb812cbdacbf325,667079b096c0ca2a3b9b7713,,,,,,,,,,,,,,,,,,,,,,,,,,,,,,,,,,,,1108.3923,1115.1274,0.0,1.0,1.0,0.0,1.0,SoundStimuli/PartyRockAnthem_LMFAO_Original5S.wav,,,,,,,,,,,,,,,,,,,,,,,,,,,,,,,,,,,,,,,,,,,,,,,,,,,,,,,,,,
,,,,,665883,1,2024-06-17_14h00.59.631,experiment,2024.1.5,Win32,61.34969325,667045947eb812cbdacbf325,667079b096c0ca2a3b9b7713,,,,,,,,,,,,,,,,,,,,,,,,,,,,,,,,,,,,,,,,,,,,1115.1278,1115.8115,3.523394995,0.6508,0.0,11.0,11.0,2.0,1.0,song_indices/PartyRockAnthem_LMFAO.csv,,,,,,,,,,,,,,,,,,,,,,,,,,,,,,,,,,,,,,,,,,,,,,,,
,,,,,665883,1,2024-06-17_14h00.59.631,experiment,2024.1.5,Win32,61.34969325,667045947eb812cbdacbf325,667079b096c0ca2a3b9b7713,,,,,,,,,,,,,,,,,,,,,,,,,,,,,,,,,,,,1115.8142,1122.1447,0.0,0.0,0.0,1.0,1.0,SoundStimuli/Stronger_KanyeWest_Cover5S.wav,,,,,,,,,,,,,,,,,,,,,,,,,,,,,,,,,,,,,,,,,,,,,,,,,,,,,,,,,,
,,,,,665883,1,2024-06-17_14h00.59.631,experiment,2024.1.5,Win32,61.34969325,667045947eb812cbdacbf325,667079b096c0ca2a3b9b7713,,,,,,,,,,,,,,,,,,,,,,,,,,,,,,,,,,,,1122.1594,1128.211,0.0,1.0,1.0,0.0,1.0,SoundStimuli/Stronger_KanyeWest_Original5S.wav,,,,,,,,,,,,,,,,,,,,,,,,,,,,,,,,,,,,,,,,,,,,,,,,,,,,,,,,,,
,,,,,665883,1,2024-06-17_14h00.59.631,experiment,2024.1.5,Win32,61.34969325,667045947eb812cbdacbf325,667079b096c0ca2a3b9b7713,,,,,,,,,,,,,,,,,,,,,,,,,,,,,,,,,,,,,,,,,,,,1128.2113,1129.1943,1.695321001,0.9632,0.0,12.0,12.0,9.0,1.0,song_indices/Stronger_KanyeWest.csv,,,,,,,,,,,,,,,,,,,,,,,,,,,,,,,,,,,,,,,,,,,,,,,,
,,,,,665883,1,2024-06-17_14h00.59.631,experiment,2024.1.5,Win32,61.34969325,667045947eb812cbdacbf325,667079b096c0ca2a3b9b7713,,,,,,,,,,,,,,,,,,,,,,,,,,,,,,,,,,,,1129.1964,1135.2276,0.0,0.0,0.0,1.0,1.0,SoundStimuli/StandByMe_BenEKing_Cover5S.wav,,,,,,,,,,,,,,,,,,,,,,,,,,,,,,,,,,,,,,,,,,,,,,,,,,,,,,,,,,
,,,,,665883,1,2024-06-17_14h00.59.631,experiment,2024.1.5,Win32,61.34969325,667045947eb812cbdacbf325,667079b096c0ca2a3b9b7713,,,,,,,,,,,,,,,,,,,,,,,,,,,,,,,,,,,,1135.2446,1141.1609,0.0,1.0,1.0,0.0,1.0,SoundStimuli/StandByMe_BenEKing_Original5S.wav,,,,,,,,,,,,,,,,,,,,,,,,,,,,,,,,,,,,,,,,,,,,,,,,,,,,,,,,,,
,,,,,665883,1,2024-06-17_14h00.59.631,experiment,2024.1.5,Win32,61.34969325,667045947eb812cbdacbf325,667079b096c0ca2a3b9b7713,,,,,,,,,,,,,,,,,,,,,,,,,,,,,,,,,,,,,,,,,,,,1141.1614,1141.9109,5.331882481,0.7199,0.0,13.0,13.0,1.0,1.0,song_indices/StandByMe_BenEKing.csv,,,,,,,,,,,,,,,,,,,,,,,,,,,,,,,,,,,,,,,,,,,,,,,,
,,,,,665883,1,2024-06-17_14h00.59.631,experiment,2024.1.5,Win32,61.34969325,667045947eb812cbdacbf325,667079b096c0ca2a3b9b7713,,,,,,,,,,,,,,,,,,,,,,,,,,,,,,,,,,,,1141.9125,1149.0608,0.0,0.0,0.0,1.0,1.0,SoundStimuli/IWalkTheLine_JohnnyCash_Cover5S.wav,,,,,,,,,,,,,,,,,,,,,,,,,,,,,,,,,,,,,,,,,,,,,,,,,,,,,,,,,,
,,,,,665883,1,2024-06-17_14h00.59.631,experiment,2024.1.5,Win32,61.34969325,667045947eb812cbdacbf325,667079b096c0ca2a3b9b7713,,,,,,,,,,,,,,,,,,,,,,,,,,,,,,,,,,,,1149.0816,1155.061,0.0,1.0,1.0,0.0,1.0,SoundStimuli/IWalkTheLine_JohnnyCash_Original5S.wav,,,,,,,,,,,,,,,,,,,,,,,,,,,,,,,,,,,,,,,,,,,,,,,,,,,,,,,,,,
,,,,,665883,1,2024-06-17_14h00.59.631,experiment,2024.1.5,Win32,61.34969325,667045947eb812cbdacbf325,667079b096c0ca2a3b9b7713,,,,,,,,,,,,,,,,,,,,,,,,,,,,,,,,,,,,,,,,,,,,1155.0613,1155.678,2.165397171,0.5896,0.0,14.0,14.0,17.0,1.0,song_indices/IWalkTheLine_JohnnyCash.csv,,,,,,,,,,,,,,,,,,,,,,,,,,,,,,,,,,,,,,,,,,,,,,,,
,,,,,665883,1,2024-06-17_14h00.59.631,experiment,2024.1.5,Win32,61.34969325,667045947eb812cbdacbf325,667079b096c0ca2a3b9b7713,,,,,,,,,,,,,,,,,,,,,,,,,,,,,,,,,,,,1155.6797,1161.8607,0.0,0.0,0.0,0.0,1.0,SoundStimuli/Fallin_AliciaKeys_Original5S.wav,,,,,,,,,,,,,,,,,,,,,,,,,,,,,,,,,,,,,,,,,,,,,,,,,,,,,,,,,,
,,,,,665883,1,2024-06-17_14h00.59.631,experiment,2024.1.5,Win32,61.34969325,667045947eb812cbdacbf325,667079b096c0ca2a3b9b7713,,,,,,,,,,,,,,,,,,,,,,,,,,,,,,,,,,,,1161.8788,1168.3113,0.0,1.0,1.0,1.0,1.0,SoundStimuli/Fallin_AliciaKeys_Cover5S.wav,,,,,,,,,,,,,,,,,,,,,,,,,,,,,,,,,,,,,,,,,,,,,,,,,,,,,,,,,,
,,,,,665883,1,2024-06-17_14h00.59.631,experiment,2024.1.5,Win32,61.34969325,667045947eb812cbdacbf325,667079b096c0ca2a3b9b7713,,,,,,,,,,,,,,,,,,,,,,,,,,,,,,,,,,,,,,,,,,,,1168.3116,1168.9952,4.280739935,0.6604,0.0,15.0,15.0,12.0,1.0,song_indices/Fallin_AliciaKeys.csv,,,,,,,,,,,,,,,,,,,,,,,,,,,,,,,,,,,,,,,,,,,,,,,,
,,,,,665883,1,2024-06-17_14h00.59.631,experiment,2024.1.5,Win32,61.34969325,667045947eb812cbdacbf325,667079b096c0ca2a3b9b7713,,,,,,,,,,,,,,,,,,,,,,,,,,,,,,,,,,,,1168.9976,1176.9779,0.0,0.0,0.0,1.0,1.0,SoundStimuli/TheBattleOfNewOrleans_JohnnyHorton_Cover5S.wav,,,,,,,,,,,,,,,,,,,,,,,,,,,,,,,,,,,,,,,,,,,,,,,,,,,,,,,,,,
,,,,,665883,1,2024-06-17_14h00.59.631,experiment,2024.1.5,Win32,61.34969325,667045947eb812cbdacbf325,667079b096c0ca2a3b9b7713,,,,,,,,,,,,,,,,,,,,,,,,,,,,,,,,,,,,1177.0034,1183.211,0.0,1.0,1.0,0.0,1.0,SoundStimuli/TheBattleOfNewOrleans_JohnnyHorton_Original5S.wav,,,,,,,,,,,,,,,,,,,,,,,,,,,,,,,,,,,,,,,,,,,,,,,,,,,,,,,,,,
,,,,,665883,1,2024-06-17_14h00.59.631,experiment,2024.1.5,Win32,61.34969325,667045947eb812cbdacbf325,667079b096c0ca2a3b9b7713,,,,,,,,,,,,,,,,,,,,,,,,,,,,,,,,,,,,,,,,,,,,1183.2114,1184.3778,1.009793254,1.1392,0.0,16.0,16.0,4.0,1.0,song_indices/TheBattleOfNewOrleans_JohnnyHorton.csv,,,,,,,,,,,,,,,,,,,,,,,,,,,,,,,,,,,,,,,,,,,,,,,,
,,,,,665883,1,2024-06-17_14h00.59.631,experiment,2024.1.5,Win32,61.34969325,667045947eb812cbdacbf325,667079b096c0ca2a3b9b7713,,,,,,,,,,,,,,,,,,,,,,,,,,,,,,,,,,,,1184.3803,1190.2277,0.0,0.0,0.0,1.0,1.0,SoundStimuli/IWillAlwaysLoveYou_WhitneyHouston_Cover5S.wav,,,,,,,,,,,,,,,,,,,,,,,,,,,,,,,,,,,,,,,,,,,,,,,,,,,,,,,,,,
,,,,,665883,1,2024-06-17_14h00.59.631,experiment,2024.1.5,Win32,61.34969325,667045947eb812cbdacbf325,667079b096c0ca2a3b9b7713,,,,,,,,,,,,,,,,,,,,,,,,,,,,,,,,,,,,1190.25,1196.6281,0.0,1.0,1.0,0.0,1.0,SoundStimuli/IWillAlwaysLoveYou_WhitneyHouston_Original5S.wav,,,,,,,,,,,,,,,,,,,,,,,,,,,,,,,,,,,,,,,,,,,,,,,,,,,,,,,,,,
,,,,,665883,1,2024-06-17_14h00.59.631,experiment,2024.1.5,Win32,61.34969325,667045947eb812cbdacbf325,667079b096c0ca2a3b9b7713,,,,,,,,,,,,,,,,,,,,,,,,,,,,,,,,,,,,,,,,,,,,1196.6284,1197.6941,6.87921654,1.0406,0.0,17.0,17.0,10.0,1.0,song_indices/IWillAlwaysLoveYou_WhitneyHouston.csv,,,,,,,,,,,,,,,,,,,,,,,,,,,,,,,,,,,,,,,,,,,,,,,,
,,,,,665883,1,2024-06-17_14h00.59.631,experiment,2024.1.5,Win32,61.34969325,667045947eb812cbdacbf325,667079b096c0ca2a3b9b7713,,,,,,,,,,,,,,,,,,,,,,,,,,,,,,,,,,,,1197.6959,1204.061,0.0,0.0,0.0,1.0,1.0,SoundStimuli/GoodGollyMissMolly_LittleRichard_Cover5S.wav,,,,,,,,,,,,,,,,,,,,,,,,,,,,,,,,,,,,,,,,,,,,,,,,,,,,,,,,,,
,,,,,665883,1,2024-06-17_14h00.59.631,experiment,2024.1.5,Win32,61.34969325,667045947eb812cbdacbf325,667079b096c0ca2a3b9b7713,,,,,,,,,,,,,,,,,,,,,,,,,,,,,,,,,,,,1204.0823,1210.1448,0.0,1.0,1.0,0.0,1.0,SoundStimuli/GoodGollyMissMolly_LittleRichard_Original5S.wav,,,,,,,,,,,,,,,,,,,,,,,,,,,,,,,,,,,,,,,,,,,,,,,,,,,,,,,,,,
,,,,,665883,1,2024-06-17_14h00.59.631,experiment,2024.1.5,Win32,61.34969325,667045947eb812cbdacbf325,667079b096c0ca2a3b9b7713,,,,,,,,,,,,,,,,,,,,,,,,,,,,,,,,,,,,,,,,,,,,1210.145,1211.4112,6.709466812,1.2376,0.0,18.0,18.0,0.0,1.0,song_indices/GoodGollyMissMolly_LittleRichard.csv,,,,,,,,,,,,,,,,,,,,,,,,,,,,,,,,,,,,,,,,,,,,,,,,
,,,,,665883,1,2024-06-17_14h00.59.631,experiment,2024.1.5,Win32,61.34969325,667045947eb812cbdacbf325,667079b096c0ca2a3b9b7713,,,,,,,,,,,,,,,,,,,,,,,,,,,,,,,,,,,,1211.4132,1217.6276,0.0,0.0,0.0,1.0,1.0,SoundStimuli/NoOne_AliciaKeys_Cover5S.wav,,,,,,,,,,,,,,,,,,,,,,,,,,,,,,,,,,,,,,,,,,,,,,,,,,,,,,,,,,
,,,,,665883,1,2024-06-17_14h00.59.631,experiment,2024.1.5,Win32,61.34969325,667045947eb812cbdacbf325,667079b096c0ca2a3b9b7713,,,,,,,,,,,,,,,,,,,,,,,,,,,,,,,,,,,,1217.6524,1225.3777,0.0,1.0,1.0,0.0,1.0,SoundStimuli/NoOne_AliciaKeys_Original5S.wav,,,,,,,,,,,,,,,,,,,,,,,,,,,,,,,,,,,,,,,,,,,,,,,,,,,,,,,,,,
,,,,,665883,1,2024-06-17_14h00.59.631,experiment,2024.1.5,Win32,61.34969325,667045947eb812cbdacbf325,667079b096c0ca2a3b9b7713,,,,,,,,,,,,,,,,,,,,,,,,,,,,,,,,,,,,,,,,,,,,1225.378,1226.3444,2.628944505,0.9356,0.0,19.0,19.0,19.0,1.0,song_indices/NoOne_AliciaKeys.csv,,,,,,,,,,,,,,,,,,,,,,,,,,,,,,,,,,,,,,,,,,,,,,,,
,,,,,665883,1,2024-06-17_14h00.59.631,experiment,2024.1.5,Win32,61.34969325,667045947eb812cbdacbf325,667079b096c0ca2a3b9b7713,,,,,,,,,,,,,,,,,,,,,,,,,,,,,,,,,,,,1226.3467,1232.5608,0.0,0.0,0.0,0.0,1.0,SoundStimuli/BetteDavisEyes_KimCarnes_Original5S.wav,,,,,,,,,,,,,,,,,,,,,,,,,,,,,,,,,,,,,,,,,,,,,,,,,,,,,,,,,,
,,,,,665883,1,2024-06-17_14h00.59.631,experiment,2024.1.5,Win32,61.34969325,667045947eb812cbdacbf325,667079b096c0ca2a3b9b7713,,,,,,,,,,,,,,,,,,,,,,,,,,,,,,,,,,,,1232.5768,1238.2609,0.0,1.0,1.0,1.0,1.0,SoundStimuli/BetteDavisEyes_KimCarnes_Cover5S.wav,,,,,,,,,,,,,,,,,,,,,,,,,,,,,,,,,,,,,,,,,,,,,,,,,,,,,,,,,,
,,,,,665883,1,2024-06-17_14h00.59.631,experiment,2024.1.5,Win32,61.34969325,667045947eb812cbdacbf325,667079b096c0ca2a3b9b7713,,,,,,,,,,,,,,,,,,,,,,,,,,,,,,,,,,,,,,,,,,,,1238.2612,1239.194,4.274211099,0.9074,0.0,20.0,20.0,5.0,1.0,song_indices/BetteDavisEyes_KimCarnes.csv,,,,,,,,,,,,,,,,,,,,,,,,,,,,,,,,,,,,,,,,,,,,,,,,
,,,,,665883,1,2024-06-17_14h00.59.631,experiment,2024.1.5,Win32,61.34969325,667045947eb812cbdacbf325,667079b096c0ca2a3b9b7713,,,,,,,,,,,,,,,,,,,,,,,,,,,,,,,,,,,,1239.1965,1245.7452,0.0,0.0,0.0,0.0,1.0,SoundStimuli/CrazyInLove_BeyonceFtJayZ_Original5S.wav,,,,,,,,,,,,,,,,,,,,,,,,,,,,,,,,,,,,,,,,,,,,,,,,,,,,,,,,,,
,,,,,665883,1,2024-06-17_14h00.59.631,experiment,2024.1.5,Win32,61.34969325,667045947eb812cbdacbf325,667079b096c0ca2a3b9b7713,,,,,,,,,,,,,,,,,,,,,,,,,,,,,,,,,,,,1245.7682,1256.0111,0.0,1.0,1.0,1.0,1.0,SoundStimuli/CrazyInLove_BeyonceFtJayZ_Cover5S.wav,,,,,,,,,,,,,,,,,,,,,,,,,,,,,,,,,,,,,,,,,,,,,,,,,,,,,,,,,,
,,,,,665883,1,2024-06-17_14h00.59.631,experiment,2024.1.5,Win32,61.34969325,667045947eb812cbdacbf325,667079b096c0ca2a3b9b7713,,,,,,,,,,,,,,,,,,,,,,,,,,,,,,,,,,,,,,,,,,,,1256.0114,1257.0452,2.191512514,1.0112,0.0,21.0,21.0,3.0,1.0,song_indices/CrazyInLove_BeyonceFtJayZ.csv,,,,,,,,,,,,,,,,,,,,,,,,,,,,,,,,,,,,,,,,,,,,,,,,
,,,,,665883,1,2024-06-17_14h00.59.631,experiment,2024.1.5,Win32,61.34969325,667045947eb812cbdacbf325,667079b096c0ca2a3b9b7713,,,,,,,,,,,,,,,,,,,,,,,,,,,,,,,,,,,,1257.0469,1263.6277,0.0,0.0,0.0,1.0,1.0,SoundStimuli/GetUrFreakOn_MissyElliot_Cover5S.wav,,,,,,,,,,,,,,,,,,,,,,,,,,,,,,,,,,,,,,,,,,,,,,,,,,,,,,,,,,
,,,,,665883,1,2024-06-17_14h00.59.631,experiment,2024.1.5,Win32,61.34969325,667045947eb812cbdacbf325,667079b096c0ca2a3b9b7713,,,,,,,,,,,,,,,,,,,,,,,,,,,,,,,,,,,,1263.6435,1269.7111,0.0,1.0,1.0,0.0,1.0,SoundStimuli/GetUrFreakOn_MissyElliot_Original5S.wav,,,,,,,,,,,,,,,,,,,,,,,,,,,,,,,,,,,,,,,,,,,,,,,,,,,,,,,,,,
,,,,,665883,1,2024-06-17_14h00.59.631,experiment,2024.1.5,Win32,61.34969325,667045947eb812cbdacbf325,667079b096c0ca2a3b9b7713,,,,,,,,,,,,,,,,,,,,,,,,,,,,,,,,,,,,,,,,,,,,1269.7113,1270.411,2.831338411,0.6726,0.0,22.0,22.0,18.0,1.0,song_indices/GetUrFreakOn_MissyElliot.csv,,,,,,,,,,,,,,,,,,,,,,,,,,,,,,,,,,,,,,,,,,,,,,,,
,,,,,665883,1,2024-06-17_14h00.59.631,experiment,2024.1.5,Win32,61.34969325,667045947eb812cbdacbf325,667079b096c0ca2a3b9b7713,,,,,,,,,,,,,,,,,,,,,,,,,,,,,,,,,,,,,,,,,,,,,,,,,,,,,,1270.4112,1270.4115,,,,0.0,2.0,2.0,1.0,1.0,choose_song_b2.csv,,,,,,,,,,,,,,,,,,,,,,,,,,,,,,,,,,,,,
,,,,,665883,1,2024-06-17_14h00.59.631,experiment,2024.1.5,Win32,61.34969325,667045947eb812cbdacbf325,667079b096c0ca2a3b9b7713,,,,,,,,,,,,,,,,,,,,,,,,,,,,,,,,,,,,,,,,,,,,,,,,,,,,,,,,,,,,,,,,,35.0,Item 2,"When I was younger, I use to be a pretty good pianist. I passed all 8 levels of the Royal School of Music exams, and Nyssma. Every year, our piano school would hold a piano recital where all students performed.",Item 4,Spotify,3.0,7.0,I usually listen to music while driving or commuting via public transport.,Always,Sometimes,Always,Sometimes,Rarely,Never,Rarely,Never,Always,Never,Never,Never,Sometimes,Never,Often,Often,Korean kpop music and Chinese music,Rap,Korean Music,Chinese Music,"No, I am pretty consistent with the type of music I've always liked over the years.",I sometimes add new songs that I discover from new movies or shows. I shazaam the song and then add it to my Spotify playlist.,0.0,0.0,0.0,0.0,1.0,,
,,,,,665883,1,2024-06-17_14h00.59.631,experiment,2024.1.5,Win32,61.34969325,667045947eb812cbdacbf325,667079b096c0ca2a3b9b7713,,,,,,,,,,,,,,,,,,,,,,,,,,,,,,,,,,,,,,,,,,,,,,,,,,,,,,,,,,,,,,,,,,,,,,,,,,,,,,,,,,,,,,,,,,,,,,,,,,,,1459.8441,1462.2456
