welcome.started,welcome.stopped,space_to_continue.keys,space_to_continue.rt,space_to_continue.duration,participant,session,date,expName,psychopyVersion,OS,frameRate,STUDY_ID,SESSION_ID,consent.consent,consent.consent_recontact,consent_check.started,consent_check.stopped,calibration_ready.started,calibration_ready.stopped,cal_ready.keys,cal_ready.rt,cal_ready.duration,calibration.started,calibration.stopped,mouse.x,mouse.y,mouse.leftButton,mouse.midButton,mouse.rightButton,mouse.time,mouse.clicked_name,move_on.keys,move_on.rt,move_on.duration,instructions.started,instructions.stopped,next.keys,next.rt,next.duration,practice_trial.started,practice_trial.stopped,practice_slider.response,practice_slider.rt,ready.started,ready.stopped,key_resp.keys,key_resp.rt,key_resp.duration,play_sound.started,play_sound.stopped,trials.thisRepN,trials.thisTrialN,trials.thisN,trials.thisIndex,trials.ran,orig_or_cover,rating.started,rating.stopped,slider.response,slider.rt,songs.thisRepN,songs.thisTrialN,songs.thisN,songs.thisIndex,songs.ran,song_id,short_break.started,short_break.stopped,space_to_move_on.keys,space_to_move_on.rt,space_to_move_on.duration,blocks.thisRepN,blocks.thisTrialN,blocks.thisN,blocks.thisIndex,blocks.ran,block,survey.age,survey.musician,survey.music_making,survey.listen_time,survey.medium,survey.music_seeking,survey.music_choice,survey.activities,survey.question1.Folk/indie,survey.question1.Jazz,survey.question1.Classical,survey.question1.Electronic (EDM),survey.question1.A cappella,survey.question1.Classic rock,survey.question1.Alternative rock,survey.question1.Latin,survey.question1.Metal,survey.question1.Hip hop,survey.question1.Pop,survey.question1.Reggae,survey.question1.Country,survey.question1.Ambient,survey.question1.Disco,survey.question1.R&B,survey.other_genres,survey.genres_ranked.text1,survey.genres_ranked.text2,survey.genres_ranked.text3,survey.habit_change,survey.habits,experiment.thisRepN,experiment.thisTrialN,experiment.thisN,experiment.thisIndex,experiment.ran,goodbye.started,goodbye.stopped
0.0001,1.1224,space,1.1081,,781731,1,2024-06-17_10h37.14.200,experiment,2024.1.5,MacIntel,59.52380952,667045947eb812cbdacbf325,667049e74bd4a99a00f3b85f,,,,,,,,,,,,,,,,,,,,,,,,,,,,,,,,,,,,,,,,,,,,,,,,,,,,,,,,,,,,,,,,,,,,,,,,,,,,,,,,,,,,,,,,,,,,,,,,,,,,,
,,,,,781731,1,2024-06-17_10h37.14.200,experiment,2024.1.5,MacIntel,59.52380952,667045947eb812cbdacbf325,667049e74bd4a99a00f3b85f,yes,no,,,,,,,,,,,,,,,,,,,,,,,,,,,,,,,,,,,,,,,,,,,,,,,,,,,,,,,,,,,,,,,,,,,,,,,,,,,,,,,,,,,,,,,,,,,,,,,,,,,
,,,,,781731,1,2024-06-17_10h37.14.200,experiment,2024.1.5,MacIntel,59.52380952,667045947eb812cbdacbf325,667049e74bd4a99a00f3b85f,,,12.2585,12.259,,,,,,,,,,,,,,,,,,,,,,,,,,,,,,,,,,,,,,,,,,,,,,,,,,,,,,,,,,,,,,,,,,,,,,,,,,,,,,,,,,,,,,,,,,,,,,,,,
,,,,,781731,1,2024-06-17_10h37.14.200,experiment,2024.1.5,MacIntel,59.52380952,667045947eb812cbdacbf325,667049e74bd4a99a00f3b85f,,,,,12.2616,15.69,space,3.3954,,15.6902,40.5727,"[-0.024388427734375,-0.021914605034722222,-0.021914605034722222,-0.019336208767361113]","[-0.4150708685980903,-0.4285709635416667,-0.4285709635416667,-0.450594482421875]","[1,1,1,1]","[0,0,0,0]","[0,0,0,0]","[2.9949000000059627,14.528300000011917,15.112000000000002,15.8615]","[""play_button""]",right,14.8579,,40.584,48.7896,space,8.1867,,48.7898,64.3243,2.866659342,15.5186,64.3248,65.7896,space,1.4395,,65.8187,71.9063,0.0,0.0,0.0,0.0,1.0,SoundStimuli/UnbreakMyHeart_ToniBraxton_Original5S.wav,,,,,,,,,,,,,,,,,,,,,,,,,,,,,,,,,,,,,,,,,,,,,,,,,,,,,,,,,,
,,,,,781731,1,2024-06-17_10h37.14.200,experiment,2024.1.5,MacIntel,59.52380952,667045947eb812cbdacbf325,667049e74bd4a99a00f3b85f,,,,,,,,,,,,,,,,,,,,,,,,,,,,,,,,,,,,71.9073,75.8912,0.0,1.0,1.0,1.0,1.0,SoundStimuli/UnbreakMyHeart_ToniBraxton_Cover5S.wav,,,,,,,,,,,,,,,,,,,,,,,,,,,,,,,,,,,,,,,,,,,,,,,,,,,,,,,,,,
,,,,,781731,1,2024-06-17_10h37.14.200,experiment,2024.1.5,MacIntel,59.52380952,667045947eb812cbdacbf325,667049e74bd4a99a00f3b85f,,,,,,,,,,,,,,,,,,,,,,,,,,,,,,,,,,,,,,,,,,,,75.9071,78.2216,4.968621012,2.3055,0.0,0.0,0.0,16.0,1.0,song_indices/UnbreakMyHeart_ToniBraxton.csv,,,,,,,,,,,,,,,,,,,,,,,,,,,,,,,,,,,,,,,,,,,,,,,,
,,,,,781731,1,2024-06-17_10h37.14.200,experiment,2024.1.5,MacIntel,59.52380952,667045947eb812cbdacbf325,667049e74bd4a99a00f3b85f,,,,,,,,,,,,,,,,,,,,,,,,,,,,,,,,,,,,78.2238,84.505,0.0,0.0,0.0,1.0,1.0,SoundStimuli/Kiss_Prince_Cover5S.wav,,,,,,,,,,,,,,,,,,,,,,,,,,,,,,,,,,,,,,,,,,,,,,,,,,,,,,,,,,
,,,,,781731,1,2024-06-17_10h37.14.200,experiment,2024.1.5,MacIntel,59.52380952,667045947eb812cbdacbf325,667049e74bd4a99a00f3b85f,,,,,,,,,,,,,,,,,,,,,,,,,,,,,,,,,,,,84.5211,91.9388,0.0,1.0,1.0,0.0,1.0,SoundStimuli/Kiss_Prince_Original5S.wav,,,,,,,,,,,,,,,,,,,,,,,,,,,,,,,,,,,,,,,,,,,,,,,,,,,,,,,,,,
,,,,,781731,1,2024-06-17_10h37.14.200,experiment,2024.1.5,MacIntel,59.52380952,667045947eb812cbdacbf325,667049e74bd4a99a00f3b85f,,,,,,,,,,,,,,,,,,,,,,,,,,,,,,,,,,,,,,,,,,,,91.9393,92.7886,1.018496297,0.8221,0.0,1.0,1.0,14.0,1.0,song_indices/Kiss_Prince.csv,,,,,,,,,,,,,,,,,,,,,,,,,,,,,,,,,,,,,,,,,,,,,,,,
,,,,,781731,1,2024-06-17_10h37.14.200,experiment,2024.1.5,MacIntel,59.52380952,667045947eb812cbdacbf325,667049e74bd4a99a00f3b85f,,,,,,,,,,,,,,,,,,,,,,,,,,,,,,,,,,,,92.7898,98.9054,0.0,0.0,0.0,0.0,1.0,SoundStimuli/JoyToTheWorld_ThreeDogNight_Original5S.wav,,,,,,,,,,,,,,,,,,,,,,,,,,,,,,,,,,,,,,,,,,,,,,,,,,,,,,,,,,
,,,,,781731,1,2024-06-17_10h37.14.200,experiment,2024.1.5,MacIntel,59.52380952,667045947eb812cbdacbf325,667049e74bd4a99a00f3b85f,,,,,,,,,,,,,,,,,,,,,,,,,,,,,,,,,,,,98.9215,104.0553,0.0,1.0,1.0,1.0,1.0,SoundStimuli/JoyToTheWorld_ThreeDogNight_Cover5S.wav,,,,,,,,,,,,,,,,,,,,,,,,,,,,,,,,,,,,,,,,,,,,,,,,,,,,,,,,,,
,,,,,781731,1,2024-06-17_10h37.14.200,experiment,2024.1.5,MacIntel,59.52380952,667045947eb812cbdacbf325,667049e74bd4a99a00f3b85f,,,,,,,,,,,,,,,,,,,,,,,,,,,,,,,,,,,,,,,,,,,,104.0556,105.3885,5.863545329,1.3079,0.0,2.0,2.0,8.0,1.0,song_indices/JoyToTheWorld_ThreeDogNight.csv,,,,,,,,,,,,,,,,,,,,,,,,,,,,,,,,,,,,,,,,,,,,,,,,
,,,,,781731,1,2024-06-17_10h37.14.200,experiment,2024.1.5,MacIntel,59.52380952,667045947eb812cbdacbf325,667049e74bd4a99a00f3b85f,,,,,,,,,,,,,,,,,,,,,,,,,,,,,,,,,,,,105.3901,112.1552,0.0,0.0,0.0,0.0,1.0,SoundStimuli/BlurredLines_RobinThicke_Original5S.wav,,,,,,,,,,,,,,,,,,,,,,,,,,,,,,,,,,,,,,,,,,,,,,,,,,,,,,,,,,
,,,,,781731,1,2024-06-17_10h37.14.200,experiment,2024.1.5,MacIntel,59.52380952,667045947eb812cbdacbf325,667049e74bd4a99a00f3b85f,,,,,,,,,,,,,,,,,,,,,,,,,,,,,,,,,,,,112.1715,119.2712,0.0,1.0,1.0,1.0,1.0,SoundStimuli/BlurredLines_RobinThicke_Cover5S.wav,,,,,,,,,,,,,,,,,,,,,,,,,,,,,,,,,,,,,,,,,,,,,,,,,,,,,,,,,,
,,,,,781731,1,2024-06-17_10h37.14.200,experiment,2024.1.5,MacIntel,59.52380952,667045947eb812cbdacbf325,667049e74bd4a99a00f3b85f,,,,,,,,,,,,,,,,,,,,,,,,,,,,,,,,,,,,,,,,,,,,119.2714,120.0211,5.894177653,0.7276,0.0,3.0,3.0,9.0,1.0,song_indices/BlurredLines_RobinThicke.csv,,,,,,,,,,,,,,,,,,,,,,,,,,,,,,,,,,,,,,,,,,,,,,,,
,,,,,781731,1,2024-06-17_10h37.14.200,experiment,2024.1.5,MacIntel,59.52380952,667045947eb812cbdacbf325,667049e74bd4a99a00f3b85f,,,,,,,,,,,,,,,,,,,,,,,,,,,,,,,,,,,,120.0228,125.3383,0.0,0.0,0.0,1.0,1.0,SoundStimuli/Superstition_StevieWonder_Cover5S.wav,,,,,,,,,,,,,,,,,,,,,,,,,,,,,,,,,,,,,,,,,,,,,,,,,,,,,,,,,,
,,,,,781731,1,2024-06-17_10h37.14.200,experiment,2024.1.5,MacIntel,59.52380952,667045947eb812cbdacbf325,667049e74bd4a99a00f3b85f,,,,,,,,,,,,,,,,,,,,,,,,,,,,,,,,,,,,125.3543,131.4894,0.0,1.0,1.0,0.0,1.0,SoundStimuli/Superstition_StevieWonder_Original5S.wav,,,,,,,,,,,,,,,,,,,,,,,,,,,,,,,,,,,,,,,,,,,,,,,,,,,,,,,,,,
,,,,,781731,1,2024-06-17_10h37.14.200,experiment,2024.1.5,MacIntel,59.52380952,667045947eb812cbdacbf325,667049e74bd4a99a00f3b85f,,,,,,,,,,,,,,,,,,,,,,,,,,,,,,,,,,,,,,,,,,,,131.4896,132.7397,4.999539795,1.2339,0.0,4.0,4.0,15.0,1.0,song_indices/Superstition_StevieWonder.csv,,,,,,,,,,,,,,,,,,,,,,,,,,,,,,,,,,,,,,,,,,,,,,,,
,,,,,781731,1,2024-06-17_10h37.14.200,experiment,2024.1.5,MacIntel,59.52380952,667045947eb812cbdacbf325,667049e74bd4a99a00f3b85f,,,,,,,,,,,,,,,,,,,,,,,,,,,,,,,,,,,,132.7409,139.7381,0.0,0.0,0.0,1.0,1.0,SoundStimuli/Dilemma_NellyKellyRowland_Cover5S.wav,,,,,,,,,,,,,,,,,,,,,,,,,,,,,,,,,,,,,,,,,,,,,,,,,,,,,,,,,,
,,,,,781731,1,2024-06-17_10h37.14.200,experiment,2024.1.5,MacIntel,59.52380952,667045947eb812cbdacbf325,667049e74bd4a99a00f3b85f,,,,,,,,,,,,,,,,,,,,,,,,,,,,,,,,,,,,139.7516,145.9373,0.0,1.0,1.0,0.0,1.0,SoundStimuli/Dilemma_NellyKellyRowland_Original5S.wav,,,,,,,,,,,,,,,,,,,,,,,,,,,,,,,,,,,,,,,,,,,,,,,,,,,,,,,,,,
,,,,,781731,1,2024-06-17_10h37.14.200,experiment,2024.1.5,MacIntel,59.52380952,667045947eb812cbdacbf325,667049e74bd4a99a00f3b85f,,,,,,,,,,,,,,,,,,,,,,,,,,,,,,,,,,,,,,,,,,,,145.9376,147.688,1.224973958,1.7245,0.0,5.0,5.0,2.0,1.0,song_indices/Dilemma_NellyKellyRowland.csv,,,,,,,,,,,,,,,,,,,,,,,,,,,,,,,,,,,,,,,,,,,,,,,,
,,,,,781731,1,2024-06-17_10h37.14.200,experiment,2024.1.5,MacIntel,59.52380952,667045947eb812cbdacbf325,667049e74bd4a99a00f3b85f,,,,,,,,,,,,,,,,,,,,,,,,,,,,,,,,,,,,147.6897,153.6873,0.0,0.0,0.0,0.0,1.0,SoundStimuli/Levitating_DuaLipa_Original5S.wav,,,,,,,,,,,,,,,,,,,,,,,,,,,,,,,,,,,,,,,,,,,,,,,,,,,,,,,,,,
,,,,,781731,1,2024-06-17_10h37.14.200,experiment,2024.1.5,MacIntel,59.52380952,667045947eb812cbdacbf325,667049e74bd4a99a00f3b85f,,,,,,,,,,,,,,,,,,,,,,,,,,,,,,,,,,,,153.7029,159.4039,0.0,1.0,1.0,1.0,1.0,SoundStimuli/Levitating_DuaLipa_Cover5S.wav,,,,,,,,,,,,,,,,,,,,,,,,,,,,,,,,,,,,,,,,,,,,,,,,,,,,,,,,,,
,,,,,781731,1,2024-06-17_10h37.14.200,experiment,2024.1.5,MacIntel,59.52380952,667045947eb812cbdacbf325,667049e74bd4a99a00f3b85f,,,,,,,,,,,,,,,,,,,,,,,,,,,,,,,,,,,,,,,,,,,,159.404,160.0032,3.321092936,0.5825,0.0,6.0,6.0,10.0,1.0,song_indices/Levitating_DuaLipa.csv,,,,,,,,,,,,,,,,,,,,,,,,,,,,,,,,,,,,,,,,,,,,,,,,
,,,,,781731,1,2024-06-17_10h37.14.200,experiment,2024.1.5,MacIntel,59.52380952,667045947eb812cbdacbf325,667049e74bd4a99a00f3b85f,,,,,,,,,,,,,,,,,,,,,,,,,,,,,,,,,,,,160.0037,166.3877,0.0,0.0,0.0,0.0,1.0,SoundStimuli/FlashdanceWhatAFeeling_IreneCara_Original5S.wav,,,,,,,,,,,,,,,,,,,,,,,,,,,,,,,,,,,,,,,,,,,,,,,,,,,,,,,,,,
,,,,,781731,1,2024-06-17_10h37.14.200,experiment,2024.1.5,MacIntel,59.52380952,667045947eb812cbdacbf325,667049e74bd4a99a00f3b85f,,,,,,,,,,,,,,,,,,,,,,,,,,,,,,,,,,,,166.404,173.6707,0.0,1.0,1.0,1.0,1.0,SoundStimuli/FlashdanceWhatAFeeling_IreneCara_Cover5S.wav,,,,,,,,,,,,,,,,,,,,,,,,,,,,,,,,,,,,,,,,,,,,,,,,,,,,,,,,,,
,,,,,781731,1,2024-06-17_10h37.14.200,experiment,2024.1.5,MacIntel,59.52380952,667045947eb812cbdacbf325,667049e74bd4a99a00f3b85f,,,,,,,,,,,,,,,,,,,,,,,,,,,,,,,,,,,,,,,,,,,,173.6708,176.5868,4.065071615,2.8964,0.0,7.0,7.0,18.0,1.0,song_indices/FlashdanceWhatAFeeling_IreneCara.csv,,,,,,,,,,,,,,,,,,,,,,,,,,,,,,,,,,,,,,,,,,,,,,,,
,,,,,781731,1,2024-06-17_10h37.14.200,experiment,2024.1.5,MacIntel,59.52380952,667045947eb812cbdacbf325,667049e74bd4a99a00f3b85f,,,,,,,,,,,,,,,,,,,,,,,,,,,,,,,,,,,,176.588,183.6542,0.0,0.0,0.0,1.0,1.0,SoundStimuli/ComeAndGetYourLove_Redbone_Cover5S.wav,,,,,,,,,,,,,,,,,,,,,,,,,,,,,,,,,,,,,,,,,,,,,,,,,,,,,,,,,,
,,,,,781731,1,2024-06-17_10h37.14.200,experiment,2024.1.5,MacIntel,59.52380952,667045947eb812cbdacbf325,667049e74bd4a99a00f3b85f,,,,,,,,,,,,,,,,,,,,,,,,,,,,,,,,,,,,183.6701,189.7875,0.0,1.0,1.0,0.0,1.0,SoundStimuli/ComeAndGetYourLove_Redbone_Original5S.wav,,,,,,,,,,,,,,,,,,,,,,,,,,,,,,,,,,,,,,,,,,,,,,,,,,,,,,,,,,
,,,,,781731,1,2024-06-17_10h37.14.200,experiment,2024.1.5,MacIntel,59.52380952,667045947eb812cbdacbf325,667049e74bd4a99a00f3b85f,,,,,,,,,,,,,,,,,,,,,,,,,,,,,,,,,,,,,,,,,,,,189.7877,192.0196,4.855959473,2.2082,0.0,8.0,8.0,22.0,1.0,song_indices/ComeAndGetYourLove_Redbone.csv,,,,,,,,,,,,,,,,,,,,,,,,,,,,,,,,,,,,,,,,,,,,,,,,
,,,,,781731,1,2024-06-17_10h37.14.200,experiment,2024.1.5,MacIntel,59.52380952,667045947eb812cbdacbf325,667049e74bd4a99a00f3b85f,,,,,,,,,,,,,,,,,,,,,,,,,,,,,,,,,,,,192.0208,198.1874,0.0,0.0,0.0,0.0,1.0,SoundStimuli/TheSign_AceOfBase_Original5S.wav,,,,,,,,,,,,,,,,,,,,,,,,,,,,,,,,,,,,,,,,,,,,,,,,,,,,,,,,,,
,,,,,781731,1,2024-06-17_10h37.14.200,experiment,2024.1.5,MacIntel,59.52380952,667045947eb812cbdacbf325,667049e74bd4a99a00f3b85f,,,,,,,,,,,,,,,,,,,,,,,,,,,,,,,,,,,,198.203,204.2039,0.0,1.0,1.0,1.0,1.0,SoundStimuli/TheSign_AceOfBase_Cover5S.wav,,,,,,,,,,,,,,,,,,,,,,,,,,,,,,,,,,,,,,,,,,,,,,,,,,,,,,,,,,
,,,,,781731,1,2024-06-17_10h37.14.200,experiment,2024.1.5,MacIntel,59.52380952,667045947eb812cbdacbf325,667049e74bd4a99a00f3b85f,,,,,,,,,,,,,,,,,,,,,,,,,,,,,,,,,,,,,,,,,,,,204.2041,210.6208,4.948506673,6.4004,0.0,9.0,9.0,5.0,1.0,song_indices/TheSign_AceOfBase.csv,,,,,,,,,,,,,,,,,,,,,,,,,,,,,,,,,,,,,,,,,,,,,,,,
,,,,,781731,1,2024-06-17_10h37.14.200,experiment,2024.1.5,MacIntel,59.52380952,667045947eb812cbdacbf325,667049e74bd4a99a00f3b85f,,,,,,,,,,,,,,,,,,,,,,,,,,,,,,,,,,,,210.6219,217.0705,0.0,0.0,0.0,1.0,1.0,SoundStimuli/YouLightUpMyLife_DebbyBoone_Cover5S.wav,,,,,,,,,,,,,,,,,,,,,,,,,,,,,,,,,,,,,,,,,,,,,,,,,,,,,,,,,,
,,,,,781731,1,2024-06-17_10h37.14.200,experiment,2024.1.5,MacIntel,59.52380952,667045947eb812cbdacbf325,667049e74bd4a99a00f3b85f,,,,,,,,,,,,,,,,,,,,,,,,,,,,,,,,,,,,217.0865,223.17,0.0,1.0,1.0,0.0,1.0,SoundStimuli/YouLightUpMyLife_DebbyBoone_Original5S.wav,,,,,,,,,,,,,,,,,,,,,,,,,,,,,,,,,,,,,,,,,,,,,,,,,,,,,,,,,,
,,,,,781731,1,2024-06-17_10h37.14.200,experiment,2024.1.5,MacIntel,59.52380952,667045947eb812cbdacbf325,667049e74bd4a99a00f3b85f,,,,,,,,,,,,,,,,,,,,,,,,,,,,,,,,,,,,,,,,,,,,223.1704,224.8039,5.011866455,1.6075,0.0,10.0,10.0,4.0,1.0,song_indices/YouLightUpMyLife_DebbyBoone.csv,,,,,,,,,,,,,,,,,,,,,,,,,,,,,,,,,,,,,,,,,,,,,,,,
,,,,,781731,1,2024-06-17_10h37.14.200,experiment,2024.1.5,MacIntel,59.52380952,667045947eb812cbdacbf325,667049e74bd4a99a00f3b85f,,,,,,,,,,,,,,,,,,,,,,,,,,,,,,,,,,,,224.8053,230.2862,0.0,0.0,0.0,1.0,1.0,SoundStimuli/HowDoILive_LeAnnRimes_Cover5S.wav,,,,,,,,,,,,,,,,,,,,,,,,,,,,,,,,,,,,,,,,,,,,,,,,,,,,,,,,,,
,,,,,781731,1,2024-06-17_10h37.14.200,experiment,2024.1.5,MacIntel,59.52380952,667045947eb812cbdacbf325,667049e74bd4a99a00f3b85f,,,,,,,,,,,,,,,,,,,,,,,,,,,,,,,,,,,,230.3023,236.3202,0.0,1.0,1.0,0.0,1.0,SoundStimuli/HowDoILive_LeAnnRimes_Original5S.wav,,,,,,,,,,,,,,,,,,,,,,,,,,,,,,,,,,,,,,,,,,,,,,,,,,,,,,,,,,
,,,,,781731,1,2024-06-17_10h37.14.200,experiment,2024.1.5,MacIntel,59.52380952,667045947eb812cbdacbf325,667049e74bd4a99a00f3b85f,,,,,,,,,,,,,,,,,,,,,,,,,,,,,,,,,,,,,,,,,,,,236.3205,237.9859,5.559249674,1.6405,0.0,11.0,11.0,17.0,1.0,song_indices/HowDoILive_LeAnnRimes.csv,,,,,,,,,,,,,,,,,,,,,,,,,,,,,,,,,,,,,,,,,,,,,,,,
,,,,,781731,1,2024-06-17_10h37.14.200,experiment,2024.1.5,MacIntel,59.52380952,667045947eb812cbdacbf325,667049e74bd4a99a00f3b85f,,,,,,,,,,,,,,,,,,,,,,,,,,,,,,,,,,,,237.9876,245.2195,0.0,0.0,0.0,0.0,1.0,SoundStimuli/SomebodyThatIUsedtoKnow_Gotye_Original5S.wav,,,,,,,,,,,,,,,,,,,,,,,,,,,,,,,,,,,,,,,,,,,,,,,,,,,,,,,,,,
,,,,,781731,1,2024-06-17_10h37.14.200,experiment,2024.1.5,MacIntel,59.52380952,667045947eb812cbdacbf325,667049e74bd4a99a00f3b85f,,,,,,,,,,,,,,,,,,,,,,,,,,,,,,,,,,,,245.2354,252.0196,0.0,1.0,1.0,1.0,1.0,SoundStimuli/SomebodyThatIUsedtoKnow_Gotye_Cover5S.wav,,,,,,,,,,,,,,,,,,,,,,,,,,,,,,,,,,,,,,,,,,,,,,,,,,,,,,,,,,
,,,,,781731,1,2024-06-17_10h37.14.200,experiment,2024.1.5,MacIntel,59.52380952,667045947eb812cbdacbf325,667049e74bd4a99a00f3b85f,,,,,,,,,,,,,,,,,,,,,,,,,,,,,,,,,,,,,,,,,,,,252.0198,252.6364,5.238911947,0.5922,0.0,12.0,12.0,7.0,1.0,song_indices/SomebodyThatIUsedtoKnow_Gotye.csv,,,,,,,,,,,,,,,,,,,,,,,,,,,,,,,,,,,,,,,,,,,,,,,,
,,,,,781731,1,2024-06-17_10h37.14.200,experiment,2024.1.5,MacIntel,59.52380952,667045947eb812cbdacbf325,667049e74bd4a99a00f3b85f,,,,,,,,,,,,,,,,,,,,,,,,,,,,,,,,,,,,252.638,259.4855,0.0,0.0,0.0,1.0,1.0,SoundStimuli/PokerFace_LadyGaga_Cover5S.wav,,,,,,,,,,,,,,,,,,,,,,,,,,,,,,,,,,,,,,,,,,,,,,,,,,,,,,,,,,
,,,,,781731,1,2024-06-17_10h37.14.200,experiment,2024.1.5,MacIntel,59.52380952,667045947eb812cbdacbf325,667049e74bd4a99a00f3b85f,,,,,,,,,,,,,,,,,,,,,,,,,,,,,,,,,,,,259.5016,266.5034,0.0,1.0,1.0,0.0,1.0,SoundStimuli/PokerFace_LadyGaga_Original5S.wav,,,,,,,,,,,,,,,,,,,,,,,,,,,,,,,,,,,,,,,,,,,,,,,,,,,,,,,,,,
,,,,,781731,1,2024-06-17_10h37.14.200,experiment,2024.1.5,MacIntel,59.52380952,667045947eb812cbdacbf325,667049e74bd4a99a00f3b85f,,,,,,,,,,,,,,,,,,,,,,,,,,,,,,,,,,,,,,,,,,,,266.5036,268.453,5.044349772,1.9227,0.0,13.0,13.0,23.0,1.0,song_indices/PokerFace_LadyGaga.csv,,,,,,,,,,,,,,,,,,,,,,,,,,,,,,,,,,,,,,,,,,,,,,,,
,,,,,781731,1,2024-06-17_10h37.14.200,experiment,2024.1.5,MacIntel,59.52380952,667045947eb812cbdacbf325,667049e74bd4a99a00f3b85f,,,,,,,,,,,,,,,,,,,,,,,,,,,,,,,,,,,,268.4539,274.353,0.0,0.0,0.0,1.0,1.0,SoundStimuli/SaveYourTears_TheWeekndArianaGrande_Cover5S.wav,,,,,,,,,,,,,,,,,,,,,,,,,,,,,,,,,,,,,,,,,,,,,,,,,,,,,,,,,,
,,,,,781731,1,2024-06-17_10h37.14.200,experiment,2024.1.5,MacIntel,59.52380952,667045947eb812cbdacbf325,667049e74bd4a99a00f3b85f,,,,,,,,,,,,,,,,,,,,,,,,,,,,,,,,,,,,274.3692,280.5691,0.0,1.0,1.0,0.0,1.0,SoundStimuli/SaveYourTears_TheWeekndArianaGrande_Original5S.wav,,,,,,,,,,,,,,,,,,,,,,,,,,,,,,,,,,,,,,,,,,,,,,,,,,,,,,,,,,
,,,,,781731,1,2024-06-17_10h37.14.200,experiment,2024.1.5,MacIntel,59.52380952,667045947eb812cbdacbf325,667049e74bd4a99a00f3b85f,,,,,,,,,,,,,,,,,,,,,,,,,,,,,,,,,,,,,,,,,,,,280.5694,281.3688,5.233475749,0.7754,0.0,14.0,14.0,12.0,1.0,song_indices/SaveYourTears_TheWeekndArianaGrande.csv,,,,,,,,,,,,,,,,,,,,,,,,,,,,,,,,,,,,,,,,,,,,,,,,
,,,,,781731,1,2024-06-17_10h37.14.200,experiment,2024.1.5,MacIntel,59.52380952,667045947eb812cbdacbf325,667049e74bd4a99a00f3b85f,,,,,,,,,,,,,,,,,,,,,,,,,,,,,,,,,,,,281.3698,289.2028,0.0,0.0,0.0,1.0,1.0,SoundStimuli/Dreams_FleetwoodMac_Cover5S.wav,,,,,,,,,,,,,,,,,,,,,,,,,,,,,,,,,,,,,,,,,,,,,,,,,,,,,,,,,,
,,,,,781731,1,2024-06-17_10h37.14.200,experiment,2024.1.5,MacIntel,59.52380952,667045947eb812cbdacbf325,667049e74bd4a99a00f3b85f,,,,,,,,,,,,,,,,,,,,,,,,,,,,,,,,,,,,289.2191,295.7193,0.0,1.0,1.0,0.0,1.0,SoundStimuli/Dreams_FleetwoodMac_Original5S.wav,,,,,,,,,,,,,,,,,,,,,,,,,,,,,,,,,,,,,,,,,,,,,,,,,,,,,,,,,,
,,,,,781731,1,2024-06-17_10h37.14.200,experiment,2024.1.5,MacIntel,59.52380952,667045947eb812cbdacbf325,667049e74bd4a99a00f3b85f,,,,,,,,,,,,,,,,,,,,,,,,,,,,,,,,,,,,,,,,,,,,295.7195,300.6358,5.839354248,4.8925,0.0,15.0,15.0,1.0,1.0,song_indices/Dreams_FleetwoodMac.csv,,,,,,,,,,,,,,,,,,,,,,,,,,,,,,,,,,,,,,,,,,,,,,,,
,,,,,781731,1,2024-06-17_10h37.14.200,experiment,2024.1.5,MacIntel,59.52380952,667045947eb812cbdacbf325,667049e74bd4a99a00f3b85f,,,,,,,,,,,,,,,,,,,,,,,,,,,,,,,,,,,,300.6372,307.1182,0.0,0.0,0.0,1.0,1.0,SoundStimuli/Weak_SWV_Cover5S.wav,,,,,,,,,,,,,,,,,,,,,,,,,,,,,,,,,,,,,,,,,,,,,,,,,,,,,,,,,,
,,,,,781731,1,2024-06-17_10h37.14.200,experiment,2024.1.5,MacIntel,59.52380952,667045947eb812cbdacbf325,667049e74bd4a99a00f3b85f,,,,,,,,,,,,,,,,,,,,,,,,,,,,,,,,,,,,307.1347,313.2024,0.0,1.0,1.0,0.0,1.0,SoundStimuli/Weak_SWV_Original5S.wav,,,,,,,,,,,,,,,,,,,,,,,,,,,,,,,,,,,,,,,,,,,,,,,,,,,,,,,,,,
,,,,,781731,1,2024-06-17_10h37.14.200,experiment,2024.1.5,MacIntel,59.52380952,667045947eb812cbdacbf325,667049e74bd4a99a00f3b85f,,,,,,,,,,,,,,,,,,,,,,,,,,,,,,,,,,,,,,,,,,,,313.2025,314.5354,2.178616536,1.307,0.0,16.0,16.0,6.0,1.0,song_indices/Weak_SWV.csv,,,,,,,,,,,,,,,,,,,,,,,,,,,,,,,,,,,,,,,,,,,,,,,,
,,,,,781731,1,2024-06-17_10h37.14.200,experiment,2024.1.5,MacIntel,59.52380952,667045947eb812cbdacbf325,667049e74bd4a99a00f3b85f,,,,,,,,,,,,,,,,,,,,,,,,,,,,,,,,,,,,314.5368,320.6026,0.0,0.0,0.0,0.0,1.0,SoundStimuli/TossinAndTurnin_BobbyLewis_Original5S.wav,,,,,,,,,,,,,,,,,,,,,,,,,,,,,,,,,,,,,,,,,,,,,,,,,,,,,,,,,,
,,,,,781731,1,2024-06-17_10h37.14.200,experiment,2024.1.5,MacIntel,59.52380952,667045947eb812cbdacbf325,667049e74bd4a99a00f3b85f,,,,,,,,,,,,,,,,,,,,,,,,,,,,,,,,,,,,320.6186,326.7184,0.0,1.0,1.0,1.0,1.0,SoundStimuli/TossinAndTurnin_BobbyLewis_Cover5S.wav,,,,,,,,,,,,,,,,,,,,,,,,,,,,,,,,,,,,,,,,,,,,,,,,,,,,,,,,,,
,,,,,781731,1,2024-06-17_10h37.14.200,experiment,2024.1.5,MacIntel,59.52380952,667045947eb812cbdacbf325,667049e74bd4a99a00f3b85f,,,,,,,,,,,,,,,,,,,,,,,,,,,,,,,,,,,,,,,,,,,,326.7186,328.4677,1.035573324,1.7254,0.0,17.0,17.0,13.0,1.0,song_indices/TossinAndTurnin_BobbyLewis.csv,,,,,,,,,,,,,,,,,,,,,,,,,,,,,,,,,,,,,,,,,,,,,,,,
,,,,,781731,1,2024-06-17_10h37.14.200,experiment,2024.1.5,MacIntel,59.52380952,667045947eb812cbdacbf325,667049e74bd4a99a00f3b85f,,,,,,,,,,,,,,,,,,,,,,,,,,,,,,,,,,,,328.4688,334.3343,0.0,0.0,0.0,0.0,1.0,SoundStimuli/Irreplaceable_Beyonce_Original5S.wav,,,,,,,,,,,,,,,,,,,,,,,,,,,,,,,,,,,,,,,,,,,,,,,,,,,,,,,,,,
,,,,,781731,1,2024-06-17_10h37.14.200,experiment,2024.1.5,MacIntel,59.52380952,667045947eb812cbdacbf325,667049e74bd4a99a00f3b85f,,,,,,,,,,,,,,,,,,,,,,,,,,,,,,,,,,,,334.3506,340.252,0.0,1.0,1.0,1.0,1.0,SoundStimuli/Irreplaceable_Beyonce_Cover5S.wav,,,,,,,,,,,,,,,,,,,,,,,,,,,,,,,,,,,,,,,,,,,,,,,,,,,,,,,,,,
,,,,,781731,1,2024-06-17_10h37.14.200,experiment,2024.1.5,MacIntel,59.52380952,667045947eb812cbdacbf325,667049e74bd4a99a00f3b85f,,,,,,,,,,,,,,,,,,,,,,,,,,,,,,,,,,,,,,,,,,,,340.2522,341.9686,5.694829915,1.6909,0.0,18.0,18.0,19.0,1.0,song_indices/Irreplaceable_Beyonce.csv,,,,,,,,,,,,,,,,,,,,,,,,,,,,,,,,,,,,,,,,,,,,,,,,
,,,,,781731,1,2024-06-17_10h37.14.200,experiment,2024.1.5,MacIntel,59.52380952,667045947eb812cbdacbf325,667049e74bd4a99a00f3b85f,,,,,,,,,,,,,,,,,,,,,,,,,,,,,,,,,,,,341.9701,348.2686,0.0,0.0,0.0,0.0,1.0,SoundStimuli/LetsGetItOn_MarvinGaye_Original5S.wav,,,,,,,,,,,,,,,,,,,,,,,,,,,,,,,,,,,,,,,,,,,,,,,,,,,,,,,,,,
,,,,,781731,1,2024-06-17_10h37.14.200,experiment,2024.1.5,MacIntel,59.52380952,667045947eb812cbdacbf325,667049e74bd4a99a00f3b85f,,,,,,,,,,,,,,,,,,,,,,,,,,,,,,,,,,,,348.2849,354.9352,0.0,1.0,1.0,1.0,1.0,SoundStimuli/LetsGetItOn_MarvinGaye_Cover5S.wav,,,,,,,,,,,,,,,,,,,,,,,,,,,,,,,,,,,,,,,,,,,,,,,,,,,,,,,,,,
,,,,,781731,1,2024-06-17_10h37.14.200,experiment,2024.1.5,MacIntel,59.52380952,667045947eb812cbdacbf325,667049e74bd4a99a00f3b85f,,,,,,,,,,,,,,,,,,,,,,,,,,,,,,,,,,,,,,,,,,,,354.9353,357.1343,4.800741781,2.1747,0.0,19.0,19.0,20.0,1.0,song_indices/LetsGetItOn_MarvinGaye.csv,,,,,,,,,,,,,,,,,,,,,,,,,,,,,,,,,,,,,,,,,,,,,,,,
,,,,,781731,1,2024-06-17_10h37.14.200,experiment,2024.1.5,MacIntel,59.52380952,667045947eb812cbdacbf325,667049e74bd4a99a00f3b85f,,,,,,,,,,,,,,,,,,,,,,,,,,,,,,,,,,,,357.1359,362.6516,0.0,0.0,0.0,1.0,1.0,SoundStimuli/LeFreak_Chic_Cover5S.wav,,,,,,,,,,,,,,,,,,,,,,,,,,,,,,,,,,,,,,,,,,,,,,,,,,,,,,,,,,
,,,,,781731,1,2024-06-17_10h37.14.200,experiment,2024.1.5,MacIntel,59.52380952,667045947eb812cbdacbf325,667049e74bd4a99a00f3b85f,,,,,,,,,,,,,,,,,,,,,,,,,,,,,,,,,,,,362.668,368.6849,0.0,1.0,1.0,0.0,1.0,SoundStimuli/LeFreak_Chic_Original5S.wav,,,,,,,,,,,,,,,,,,,,,,,,,,,,,,,,,,,,,,,,,,,,,,,,,,,,,,,,,,
,,,,,781731,1,2024-06-17_10h37.14.200,experiment,2024.1.5,MacIntel,59.52380952,667045947eb812cbdacbf325,667049e74bd4a99a00f3b85f,,,,,,,,,,,,,,,,,,,,,,,,,,,,,,,,,,,,,,,,,,,,368.6851,375.9511,4.800741781,7.2401,0.0,20.0,20.0,11.0,1.0,song_indices/LeFreak_Chic.csv,,,,,,,,,,,,,,,,,,,,,,,,,,,,,,,,,,,,,,,,,,,,,,,,
,,,,,781731,1,2024-06-17_10h37.14.200,experiment,2024.1.5,MacIntel,59.52380952,667045947eb812cbdacbf325,667049e74bd4a99a00f3b85f,,,,,,,,,,,,,,,,,,,,,,,,,,,,,,,,,,,,375.9526,383.4845,0.0,0.0,0.0,1.0,1.0,SoundStimuli/TikTok_Kesha_Cover5S.wav,,,,,,,,,,,,,,,,,,,,,,,,,,,,,,,,,,,,,,,,,,,,,,,,,,,,,,,,,,
,,,,,781731,1,2024-06-17_10h37.14.200,experiment,2024.1.5,MacIntel,59.52380952,667045947eb812cbdacbf325,667049e74bd4a99a00f3b85f,,,,,,,,,,,,,,,,,,,,,,,,,,,,,,,,,,,,383.4962,389.7014,0.0,1.0,1.0,0.0,1.0,SoundStimuli/TikTok_Kesha_Original5S.wav,,,,,,,,,,,,,,,,,,,,,,,,,,,,,,,,,,,,,,,,,,,,,,,,,,,,,,,,,,
,,,,,781731,1,2024-06-17_10h37.14.200,experiment,2024.1.5,MacIntel,59.52380952,667045947eb812cbdacbf325,667049e74bd4a99a00f3b85f,,,,,,,,,,,,,,,,,,,,,,,,,,,,,,,,,,,,,,,,,,,,389.7017,390.4008,5.494428711,0.6744,0.0,21.0,21.0,3.0,1.0,song_indices/TikTok_Kesha.csv,,,,,,,,,,,,,,,,,,,,,,,,,,,,,,,,,,,,,,,,,,,,,,,,
,,,,,781731,1,2024-06-17_10h37.14.200,experiment,2024.1.5,MacIntel,59.52380952,667045947eb812cbdacbf325,667049e74bd4a99a00f3b85f,,,,,,,,,,,,,,,,,,,,,,,,,,,,,,,,,,,,390.4022,396.3335,0.0,0.0,0.0,0.0,1.0,SoundStimuli/Respect_ArethaFranklin_Original5S.wav,,,,,,,,,,,,,,,,,,,,,,,,,,,,,,,,,,,,,,,,,,,,,,,,,,,,,,,,,,
,,,,,781731,1,2024-06-17_10h37.14.200,experiment,2024.1.5,MacIntel,59.52380952,667045947eb812cbdacbf325,667049e74bd4a99a00f3b85f,,,,,,,,,,,,,,,,,,,,,,,,,,,,,,,,,,,,396.3495,402.4021,0.0,1.0,1.0,1.0,1.0,SoundStimuli/Respect_ArethaFranklin_Cover5S.wav,,,,,,,,,,,,,,,,,,,,,,,,,,,,,,,,,,,,,,,,,,,,,,,,,,,,,,,,,,
,,,,,781731,1,2024-06-17_10h37.14.200,experiment,2024.1.5,MacIntel,59.52380952,667045947eb812cbdacbf325,667049e74bd4a99a00f3b85f,,,,,,,,,,,,,,,,,,,,,,,,,,,,,,,,,,,,,,,,,,,,402.4022,402.8677,3.172208252,0.4434,0.0,22.0,22.0,0.0,1.0,song_indices/Respect_ArethaFranklin.csv,,,,,,,,,,,,,,,,,,,,,,,,,,,,,,,,,,,,,,,,,,,,,,,,
,,,,,781731,1,2024-06-17_10h37.14.200,experiment,2024.1.5,MacIntel,59.52380952,667045947eb812cbdacbf325,667049e74bd4a99a00f3b85f,,,,,,,,,,,,,,,,,,,,,,,,,,,,,,,,,,,,402.8694,409.6501,0.0,0.0,0.0,1.0,1.0,SoundStimuli/BlindingLights_TheWeeknd_Cover5S.wav,,,,,,,,,,,,,,,,,,,,,,,,,,,,,,,,,,,,,,,,,,,,,,,,,,,,,,,,,,
,,,,,781731,1,2024-06-17_10h37.14.200,experiment,2024.1.5,MacIntel,59.52380952,667045947eb812cbdacbf325,667049e74bd4a99a00f3b85f,,,,,,,,,,,,,,,,,,,,,,,,,,,,,,,,,,,,409.666,416.1368,0.0,1.0,1.0,0.0,1.0,SoundStimuli/BlindingLights_TheWeeknd_Original5S.wav,,,,,,,,,,,,,,,,,,,,,,,,,,,,,,,,,,,,,,,,,,,,,,,,,,,,,,,,,,
,,,,,781731,1,2024-06-17_10h37.14.200,experiment,2024.1.5,MacIntel,59.52380952,667045947eb812cbdacbf325,667049e74bd4a99a00f3b85f,,,,,,,,,,,,,,,,,,,,,,,,,,,,,,,,,,,,,,,,,,,,416.1369,424.6676,4.991894124,8.5053,0.0,23.0,23.0,21.0,1.0,song_indices/BlindingLights_TheWeeknd.csv,,,,,,,,,,,,,,,,,,,,,,,,,,,,,,,,,,,,,,,,,,,,,,,,
,,,,,781731,1,2024-06-17_10h37.14.200,experiment,2024.1.5,MacIntel,59.52380952,667045947eb812cbdacbf325,667049e74bd4a99a00f3b85f,,,,,,,,,,,,,,,,,,,,,,,,,,,,,,,,,,,,,,,,,,,,,,,,,,,,,,424.6685,439.4897,space,14.801,,0.0,0.0,0.0,2.0,1.0,choose_song_b3.csv,,,,,,,,,,,,,,,,,,,,,,,,,,,,,,,,,,,,,
,,,,,781731,1,2024-06-17_10h37.14.200,experiment,2024.1.5,MacIntel,59.52380952,667045947eb812cbdacbf325,667049e74bd4a99a00f3b85f,,,,,,,,,,,,,,,,,,,,,,,,,,,,,,,,,,,,439.4914,445.6173,0.0,0.0,0.0,1.0,1.0,SoundStimuli/NoScrubs_TLC_Cover5S.wav,,,,,,,,,,,,,,,,,,,,,,,,,,,,,,,,,,,,,,,,,,,,,,,,,,,,,,,,,,
,,,,,781731,1,2024-06-17_10h37.14.200,experiment,2024.1.5,MacIntel,59.52380952,667045947eb812cbdacbf325,667049e74bd4a99a00f3b85f,,,,,,,,,,,,,,,,,,,,,,,,,,,,,,,,,,,,445.6331,451.8336,0.0,1.0,1.0,0.0,1.0,SoundStimuli/NoScrubs_TLC_Original5S.wav,,,,,,,,,,,,,,,,,,,,,,,,,,,,,,,,,,,,,,,,,,,,,,,,,,,,,,,,,,
,,,,,781731,1,2024-06-17_10h37.14.200,experiment,2024.1.5,MacIntel,59.52380952,667045947eb812cbdacbf325,667049e74bd4a99a00f3b85f,,,,,,,,,,,,,,,,,,,,,,,,,,,,,,,,,,,,,,,,,,,,451.8338,452.267,3.323550618,0.4082,0.0,0.0,0.0,14.0,1.0,song_indices/NoScrubs_TLC.csv,,,,,,,,,,,,,,,,,,,,,,,,,,,,,,,,,,,,,,,,,,,,,,,,
,,,,,781731,1,2024-06-17_10h37.14.200,experiment,2024.1.5,MacIntel,59.52380952,667045947eb812cbdacbf325,667049e74bd4a99a00f3b85f,,,,,,,,,,,,,,,,,,,,,,,,,,,,,,,,,,,,452.2684,458.2004,0.0,0.0,0.0,0.0,1.0,SoundStimuli/StandByMe_BenEKing_Original5S.wav,,,,,,,,,,,,,,,,,,,,,,,,,,,,,,,,,,,,,,,,,,,,,,,,,,,,,,,,,,
,,,,,781731,1,2024-06-17_10h37.14.200,experiment,2024.1.5,MacIntel,59.52380952,667045947eb812cbdacbf325,667049e74bd4a99a00f3b85f,,,,,,,,,,,,,,,,,,,,,,,,,,,,,,,,,,,,458.2166,464.2331,0.0,1.0,1.0,1.0,1.0,SoundStimuli/StandByMe_BenEKing_Cover5S.wav,,,,,,,,,,,,,,,,,,,,,,,,,,,,,,,,,,,,,,,,,,,,,,,,,,,,,,,,,,
,,,,,781731,1,2024-06-17_10h37.14.200,experiment,2024.1.5,MacIntel,59.52380952,667045947eb812cbdacbf325,667049e74bd4a99a00f3b85f,,,,,,,,,,,,,,,,,,,,,,,,,,,,,,,,,,,,,,,,,,,,464.2333,466.1323,3.323550618,1.873,0.0,1.0,1.0,1.0,1.0,song_indices/StandByMe_BenEKing.csv,,,,,,,,,,,,,,,,,,,,,,,,,,,,,,,,,,,,,,,,,,,,,,,,
,,,,,781731,1,2024-06-17_10h37.14.200,experiment,2024.1.5,MacIntel,59.52380952,667045947eb812cbdacbf325,667049e74bd4a99a00f3b85f,,,,,,,,,,,,,,,,,,,,,,,,,,,,,,,,,,,,466.1329,472.0671,0.0,0.0,0.0,1.0,1.0,SoundStimuli/TheBoyIsMine_BrandyMonica_Cover5S.wav,,,,,,,,,,,,,,,,,,,,,,,,,,,,,,,,,,,,,,,,,,,,,,,,,,,,,,,,,,
,,,,,781731,1,2024-06-17_10h37.14.200,experiment,2024.1.5,MacIntel,59.52380952,667045947eb812cbdacbf325,667049e74bd4a99a00f3b85f,,,,,,,,,,,,,,,,,,,,,,,,,,,,,,,,,,,,472.0831,478.2991,0.0,1.0,1.0,0.0,1.0,SoundStimuli/TheBoyIsMine_BrandyMonica_Original5S.wav,,,,,,,,,,,,,,,,,,,,,,,,,,,,,,,,,,,,,,,,,,,,,,,,,,,,,,,,,,
,,,,,781731,1,2024-06-17_10h37.14.200,experiment,2024.1.5,MacIntel,59.52380952,667045947eb812cbdacbf325,667049e74bd4a99a00f3b85f,,,,,,,,,,,,,,,,,,,,,,,,,,,,,,,,,,,,,,,,,,,,478.2992,479.9656,5.746262207,1.6507,0.0,2.0,2.0,6.0,1.0,song_indices/TheBoyIsMine_BrandyMonica.csv,,,,,,,,,,,,,,,,,,,,,,,,,,,,,,,,,,,,,,,,,,,,,,,,
,,,,,781731,1,2024-06-17_10h37.14.200,experiment,2024.1.5,MacIntel,59.52380952,667045947eb812cbdacbf325,667049e74bd4a99a00f3b85f,,,,,,,,,,,,,,,,,,,,,,,,,,,,,,,,,,,,479.967,486.1834,0.0,0.0,0.0,0.0,1.0,SoundStimuli/TheBattleOfNewOrleans_JohnnyHorton_Original5S.wav,,,,,,,,,,,,,,,,,,,,,,,,,,,,,,,,,,,,,,,,,,,,,,,,,,,,,,,,,,
,,,,,781731,1,2024-06-17_10h37.14.200,experiment,2024.1.5,MacIntel,59.52380952,667045947eb812cbdacbf325,667049e74bd4a99a00f3b85f,,,,,,,,,,,,,,,,,,,,,,,,,,,,,,,,,,,,486.1993,494.1665,0.0,1.0,1.0,1.0,1.0,SoundStimuli/TheBattleOfNewOrleans_JohnnyHorton_Cover5S.wav,,,,,,,,,,,,,,,,,,,,,,,,,,,,,,,,,,,,,,,,,,,,,,,,,,,,,,,,,,
,,,,,781731,1,2024-06-17_10h37.14.200,experiment,2024.1.5,MacIntel,59.52380952,667045947eb812cbdacbf325,667049e74bd4a99a00f3b85f,,,,,,,,,,,,,,,,,,,,,,,,,,,,,,,,,,,,,,,,,,,,494.1668,502.1831,4.77406901,7.9904,0.0,3.0,3.0,4.0,1.0,song_indices/TheBattleOfNewOrleans_JohnnyHorton.csv,,,,,,,,,,,,,,,,,,,,,,,,,,,,,,,,,,,,,,,,,,,,,,,,
,,,,,781731,1,2024-06-17_10h37.14.200,experiment,2024.1.5,MacIntel,59.52380952,667045947eb812cbdacbf325,667049e74bd4a99a00f3b85f,,,,,,,,,,,,,,,,,,,,,,,,,,,,,,,,,,,,502.1846,509.4154,0.0,0.0,0.0,0.0,1.0,SoundStimuli/UptownFunk_MarkRonson_Original5S.wav,,,,,,,,,,,,,,,,,,,,,,,,,,,,,,,,,,,,,,,,,,,,,,,,,,,,,,,,,,
,,,,,781731,1,2024-06-17_10h37.14.200,experiment,2024.1.5,MacIntel,59.52380952,667045947eb812cbdacbf325,667049e74bd4a99a00f3b85f,,,,,,,,,,,,,,,,,,,,,,,,,,,,,,,,,,,,509.4313,516.4497,0.0,1.0,1.0,1.0,1.0,SoundStimuli/UptownFunk_MarkRonson_Cover5S.wav,,,,,,,,,,,,,,,,,,,,,,,,,,,,,,,,,,,,,,,,,,,,,,,,,,,,,,,,,,
,,,,,781731,1,2024-06-17_10h37.14.200,experiment,2024.1.5,MacIntel,59.52380952,667045947eb812cbdacbf325,667049e74bd4a99a00f3b85f,,,,,,,,,,,,,,,,,,,,,,,,,,,,,,,,,,,,,,,,,,,,516.4498,518.3493,3.916169027,1.8751,0.0,4.0,4.0,15.0,1.0,song_indices/UptownFunk_MarkRonson.csv,,,,,,,,,,,,,,,,,,,,,,,,,,,,,,,,,,,,,,,,,,,,,,,,
,,,,,781731,1,2024-06-17_10h37.14.200,experiment,2024.1.5,MacIntel,59.52380952,667045947eb812cbdacbf325,667049e74bd4a99a00f3b85f,,,,,,,,,,,,,,,,,,,,,,,,,,,,,,,,,,,,518.3508,524.9319,0.0,0.0,0.0,1.0,1.0,SoundStimuli/GetUrFreakOn_MissyElliot_Cover5S.wav,,,,,,,,,,,,,,,,,,,,,,,,,,,,,,,,,,,,,,,,,,,,,,,,,,,,,,,,,,
,,,,,781731,1,2024-06-17_10h37.14.200,experiment,2024.1.5,MacIntel,59.52380952,667045947eb812cbdacbf325,667049e74bd4a99a00f3b85f,,,,,,,,,,,,,,,,,,,,,,,,,,,,,,,,,,,,524.948,531.0154,0.0,1.0,1.0,0.0,1.0,SoundStimuli/GetUrFreakOn_MissyElliot_Original5S.wav,,,,,,,,,,,,,,,,,,,,,,,,,,,,,,,,,,,,,,,,,,,,,,,,,,,,,,,,,,
,,,,,781731,1,2024-06-17_10h37.14.200,experiment,2024.1.5,MacIntel,59.52380952,667045947eb812cbdacbf325,667049e74bd4a99a00f3b85f,,,,,,,,,,,,,,,,,,,,,,,,,,,,,,,,,,,,,,,,,,,,531.0155,532.9998,3.819082438,1.9597,0.0,5.0,5.0,18.0,1.0,song_indices/GetUrFreakOn_MissyElliot.csv,,,,,,,,,,,,,,,,,,,,,,,,,,,,,,,,,,,,,,,,,,,,,,,,
,,,,,781731,1,2024-06-17_10h37.14.200,experiment,2024.1.5,MacIntel,59.52380952,667045947eb812cbdacbf325,667049e74bd4a99a00f3b85f,,,,,,,,,,,,,,,,,,,,,,,,,,,,,,,,,,,,533.0011,539.4316,0.0,0.0,0.0,1.0,1.0,SoundStimuli/Fallin_AliciaKeys_Cover5S.wav,,,,,,,,,,,,,,,,,,,,,,,,,,,,,,,,,,,,,,,,,,,,,,,,,,,,,,,,,,
,,,,,781731,1,2024-06-17_10h37.14.200,experiment,2024.1.5,MacIntel,59.52380952,667045947eb812cbdacbf325,667049e74bd4a99a00f3b85f,,,,,,,,,,,,,,,,,,,,,,,,,,,,,,,,,,,,539.4476,545.6157,0.0,1.0,1.0,0.0,1.0,SoundStimuli/Fallin_AliciaKeys_Original5S.wav,,,,,,,,,,,,,,,,,,,,,,,,,,,,,,,,,,,,,,,,,,,,,,,,,,,,,,,,,,
,,,,,781731,1,2024-06-17_10h37.14.200,experiment,2024.1.5,MacIntel,59.52380952,667045947eb812cbdacbf325,667049e74bd4a99a00f3b85f,,,,,,,,,,,,,,,,,,,,,,,,,,,,,,,,,,,,,,,,,,,,545.6158,549.0824,3.819082438,3.4438,0.0,6.0,6.0,12.0,1.0,song_indices/Fallin_AliciaKeys.csv,,,,,,,,,,,,,,,,,,,,,,,,,,,,,,,,,,,,,,,,,,,,,,,,
,,,,,781731,1,2024-06-17_10h37.14.200,experiment,2024.1.5,MacIntel,59.52380952,667045947eb812cbdacbf325,667049e74bd4a99a00f3b85f,,,,,,,,,,,,,,,,,,,,,,,,,,,,,,,,,,,,549.0833,555.3155,0.0,0.0,0.0,1.0,1.0,SoundStimuli/ItsAllInTheGame_TommyEdwards_Cover5S.wav,,,,,,,,,,,,,,,,,,,,,,,,,,,,,,,,,,,,,,,,,,,,,,,,,,,,,,,,,,
,,,,,781731,1,2024-06-17_10h37.14.200,experiment,2024.1.5,MacIntel,59.52380952,667045947eb812cbdacbf325,667049e74bd4a99a00f3b85f,,,,,,,,,,,,,,,,,,,,,,,,,,,,,,,,,,,,555.3316,561.5816,0.0,1.0,1.0,0.0,1.0,SoundStimuli/ItsAllInTheGame_TommyEdwards_Original5S.wav,,,,,,,,,,,,,,,,,,,,,,,,,,,,,,,,,,,,,,,,,,,,,,,,,,,,,,,,,,
,,,,,781731,1,2024-06-17_10h37.14.200,experiment,2024.1.5,MacIntel,59.52380952,667045947eb812cbdacbf325,667049e74bd4a99a00f3b85f,,,,,,,,,,,,,,,,,,,,,,,,,,,,,,,,,,,,,,,,,,,,561.5819,563.7309,6.275112305,2.1243,0.0,7.0,7.0,13.0,1.0,song_indices/ItsAllInTheGame_TommyEdwards.csv,,,,,,,,,,,,,,,,,,,,,,,,,,,,,,,,,,,,,,,,,,,,,,,,
,,,,,781731,1,2024-06-17_10h37.14.200,experiment,2024.1.5,MacIntel,59.52380952,667045947eb812cbdacbf325,667049e74bd4a99a00f3b85f,,,,,,,,,,,,,,,,,,,,,,,,,,,,,,,,,,,,563.7315,569.5655,0.0,0.0,0.0,1.0,1.0,SoundStimuli/IWillAlwaysLoveYou_WhitneyHouston_Cover5S.wav,,,,,,,,,,,,,,,,,,,,,,,,,,,,,,,,,,,,,,,,,,,,,,,,,,,,,,,,,,
,,,,,781731,1,2024-06-17_10h37.14.200,experiment,2024.1.5,MacIntel,59.52380952,667045947eb812cbdacbf325,667049e74bd4a99a00f3b85f,,,,,,,,,,,,,,,,,,,,,,,,,,,,,,,,,,,,569.5801,575.9476,0.0,1.0,1.0,0.0,1.0,SoundStimuli/IWillAlwaysLoveYou_WhitneyHouston_Original5S.wav,,,,,,,,,,,,,,,,,,,,,,,,,,,,,,,,,,,,,,,,,,,,,,,,,,,,,,,,,,
,,,,,781731,1,2024-06-17_10h37.14.200,experiment,2024.1.5,MacIntel,59.52380952,667045947eb812cbdacbf325,667049e74bd4a99a00f3b85f,,,,,,,,,,,,,,,,,,,,,,,,,,,,,,,,,,,,,,,,,,,,575.9479,581.6811,6.275112305,5.7086,0.0,8.0,8.0,10.0,1.0,song_indices/IWillAlwaysLoveYou_WhitneyHouston.csv,,,,,,,,,,,,,,,,,,,,,,,,,,,,,,,,,,,,,,,,,,,,,,,,
,,,,,781731,1,2024-06-17_10h37.14.200,experiment,2024.1.5,MacIntel,59.52380952,667045947eb812cbdacbf325,667049e74bd4a99a00f3b85f,,,,,,,,,,,,,,,,,,,,,,,,,,,,,,,,,,,,581.6824,588.0485,0.0,0.0,0.0,1.0,1.0,SoundStimuli/GoodGollyMissMolly_LittleRichard_Cover5S.wav,,,,,,,,,,,,,,,,,,,,,,,,,,,,,,,,,,,,,,,,,,,,,,,,,,,,,,,,,,
,,,,,781731,1,2024-06-17_10h37.14.200,experiment,2024.1.5,MacIntel,59.52380952,667045947eb812cbdacbf325,667049e74bd4a99a00f3b85f,,,,,,,,,,,,,,,,,,,,,,,,,,,,,,,,,,,,588.0645,594.1151,0.0,1.0,1.0,0.0,1.0,SoundStimuli/GoodGollyMissMolly_LittleRichard_Original5S.wav,,,,,,,,,,,,,,,,,,,,,,,,,,,,,,,,,,,,,,,,,,,,,,,,,,,,,,,,,,
,,,,,781731,1,2024-06-17_10h37.14.200,experiment,2024.1.5,MacIntel,59.52380952,667045947eb812cbdacbf325,667049e74bd4a99a00f3b85f,,,,,,,,,,,,,,,,,,,,,,,,,,,,,,,,,,,,,,,,,,,,594.1153,600.1977,6.275112305,6.0574,0.0,9.0,9.0,0.0,1.0,song_indices/GoodGollyMissMolly_LittleRichard.csv,,,,,,,,,,,,,,,,,,,,,,,,,,,,,,,,,,,,,,,,,,,,,,,,
,,,,,781731,1,2024-06-17_10h37.14.200,experiment,2024.1.5,MacIntel,59.52380952,667045947eb812cbdacbf325,667049e74bd4a99a00f3b85f,,,,,,,,,,,,,,,,,,,,,,,,,,,,,,,,,,,,600.1992,607.5649,0.0,0.0,0.0,0.0,1.0,SoundStimuli/Happy_PharellWilliams_Original5S.wav,,,,,,,,,,,,,,,,,,,,,,,,,,,,,,,,,,,,,,,,,,,,,,,,,,,,,,,,,,
,,,,,781731,1,2024-06-17_10h37.14.200,experiment,2024.1.5,MacIntel,59.52380952,667045947eb812cbdacbf325,667049e74bd4a99a00f3b85f,,,,,,,,,,,,,,,,,,,,,,,,,,,,,,,,,,,,607.5813,614.9477,0.0,1.0,1.0,1.0,1.0,SoundStimuli/Happy_PharellWilliams_Cover5S.wav,,,,,,,,,,,,,,,,,,,,,,,,,,,,,,,,,,,,,,,,,,,,,,,,,,,,,,,,,,
,,,,,781731,1,2024-06-17_10h37.14.200,experiment,2024.1.5,MacIntel,59.52380952,667045947eb812cbdacbf325,667049e74bd4a99a00f3b85f,,,,,,,,,,,,,,,,,,,,,,,,,,,,,,,,,,,,,,,,,,,,614.9479,618.2312,6.275112305,3.258,0.0,10.0,10.0,7.0,1.0,song_indices/Happy_PharellWilliams.csv,,,,,,,,,,,,,,,,,,,,,,,,,,,,,,,,,,,,,,,,,,,,,,,,
,,,,,781731,1,2024-06-17_10h37.14.200,experiment,2024.1.5,MacIntel,59.52380952,667045947eb812cbdacbf325,667049e74bd4a99a00f3b85f,,,,,,,,,,,,,,,,,,,,,,,,,,,,,,,,,,,,618.2329,624.5313,0.0,0.0,0.0,0.0,1.0,SoundStimuli/HeyYa_Outkast_Original5S.wav,,,,,,,,,,,,,,,,,,,,,,,,,,,,,,,,,,,,,,,,,,,,,,,,,,,,,,,,,,
,,,,,781731,1,2024-06-17_10h37.14.200,experiment,2024.1.5,MacIntel,59.52380952,667045947eb812cbdacbf325,667049e74bd4a99a00f3b85f,,,,,,,,,,,,,,,,,,,,,,,,,,,,,,,,,,,,624.5478,633.4479,0.0,1.0,1.0,1.0,1.0,SoundStimuli/HeyYa_Outkast_Cover5S.wav,,,,,,,,,,,,,,,,,,,,,,,,,,,,,,,,,,,,,,,,,,,,,,,,,,,,,,,,,,
,,,,,781731,1,2024-06-17_10h37.14.200,experiment,2024.1.5,MacIntel,59.52380952,667045947eb812cbdacbf325,667049e74bd4a99a00f3b85f,,,,,,,,,,,,,,,,,,,,,,,,,,,,,,,,,,,,,,,,,,,,633.4481,635.264,2.798433838,1.7907,0.0,11.0,11.0,22.0,1.0,song_indices/HeyYa_Outkast.csv,,,,,,,,,,,,,,,,,,,,,,,,,,,,,,,,,,,,,,,,,,,,,,,,
,,,,,781731,1,2024-06-17_10h37.14.200,experiment,2024.1.5,MacIntel,59.52380952,667045947eb812cbdacbf325,667049e74bd4a99a00f3b85f,,,,,,,,,,,,,,,,,,,,,,,,,,,,,,,,,,,,635.2653,642.0131,0.0,0.0,0.0,0.0,1.0,SoundStimuli/PartyRockAnthem_LMFAO_Original5S.wav,,,,,,,,,,,,,,,,,,,,,,,,,,,,,,,,,,,,,,,,,,,,,,,,,,,,,,,,,,
,,,,,781731,1,2024-06-17_10h37.14.200,experiment,2024.1.5,MacIntel,59.52380952,667045947eb812cbdacbf325,667049e74bd4a99a00f3b85f,,,,,,,,,,,,,,,,,,,,,,,,,,,,,,,,,,,,642.021,648.7966,0.0,1.0,1.0,1.0,1.0,SoundStimuli/PartyRockAnthem_LMFAO_Cover5S.wav,,,,,,,,,,,,,,,,,,,,,,,,,,,,,,,,,,,,,,,,,,,,,,,,,,,,,,,,,,
,,,,,781731,1,2024-06-17_10h37.14.200,experiment,2024.1.5,MacIntel,59.52380952,667045947eb812cbdacbf325,667049e74bd4a99a00f3b85f,,,,,,,,,,,,,,,,,,,,,,,,,,,,,,,,,,,,,,,,,,,,648.7969,649.5144,4.779556478,0.6917,0.0,12.0,12.0,2.0,1.0,song_indices/PartyRockAnthem_LMFAO.csv,,,,,,,,,,,,,,,,,,,,,,,,,,,,,,,,,,,,,,,,,,,,,,,,
,,,,,781731,1,2024-06-17_10h37.14.200,experiment,2024.1.5,MacIntel,59.52380952,667045947eb812cbdacbf325,667049e74bd4a99a00f3b85f,,,,,,,,,,,,,,,,,,,,,,,,,,,,,,,,,,,,649.5157,657.2476,0.0,0.0,0.0,0.0,1.0,SoundStimuli/NoOne_AliciaKeys_Original5S.wav,,,,,,,,,,,,,,,,,,,,,,,,,,,,,,,,,,,,,,,,,,,,,,,,,,,,,,,,,,
,,,,,781731,1,2024-06-17_10h37.14.200,experiment,2024.1.5,MacIntel,59.52380952,667045947eb812cbdacbf325,667049e74bd4a99a00f3b85f,,,,,,,,,,,,,,,,,,,,,,,,,,,,,,,,,,,,657.2641,663.4632,0.0,1.0,1.0,1.0,1.0,SoundStimuli/NoOne_AliciaKeys_Cover5S.wav,,,,,,,,,,,,,,,,,,,,,,,,,,,,,,,,,,,,,,,,,,,,,,,,,,,,,,,,,,
,,,,,781731,1,2024-06-17_10h37.14.200,experiment,2024.1.5,MacIntel,59.52380952,667045947eb812cbdacbf325,667049e74bd4a99a00f3b85f,,,,,,,,,,,,,,,,,,,,,,,,,,,,,,,,,,,,,,,,,,,,663.4634,664.7302,4.33145752,1.2427,0.0,13.0,13.0,19.0,1.0,song_indices/NoOne_AliciaKeys.csv,,,,,,,,,,,,,,,,,,,,,,,,,,,,,,,,,,,,,,,,,,,,,,,,
,,,,,781731,1,2024-06-17_10h37.14.200,experiment,2024.1.5,MacIntel,59.52380952,667045947eb812cbdacbf325,667049e74bd4a99a00f3b85f,,,,,,,,,,,,,,,,,,,,,,,,,,,,,,,,,,,,664.7316,670.4308,0.0,0.0,0.0,1.0,1.0,SoundStimuli/BetteDavisEyes_KimCarnes_Cover5S.wav,,,,,,,,,,,,,,,,,,,,,,,,,,,,,,,,,,,,,,,,,,,,,,,,,,,,,,,,,,
,,,,,781731,1,2024-06-17_10h37.14.200,experiment,2024.1.5,MacIntel,59.52380952,667045947eb812cbdacbf325,667049e74bd4a99a00f3b85f,,,,,,,,,,,,,,,,,,,,,,,,,,,,,,,,,,,,670.4468,676.6474,0.0,1.0,1.0,0.0,1.0,SoundStimuli/BetteDavisEyes_KimCarnes_Original5S.wav,,,,,,,,,,,,,,,,,,,,,,,,,,,,,,,,,,,,,,,,,,,,,,,,,,,,,,,,,,
,,,,,781731,1,2024-06-17_10h37.14.200,experiment,2024.1.5,MacIntel,59.52380952,667045947eb812cbdacbf325,667049e74bd4a99a00f3b85f,,,,,,,,,,,,,,,,,,,,,,,,,,,,,,,,,,,,,,,,,,,,676.6476,678.7307,4.33145752,2.0575,0.0,14.0,14.0,5.0,1.0,song_indices/BetteDavisEyes_KimCarnes.csv,,,,,,,,,,,,,,,,,,,,,,,,,,,,,,,,,,,,,,,,,,,,,,,,
,,,,,781731,1,2024-06-17_10h37.14.200,experiment,2024.1.5,MacIntel,59.52380952,667045947eb812cbdacbf325,667049e74bd4a99a00f3b85f,,,,,,,,,,,,,,,,,,,,,,,,,,,,,,,,,,,,678.7319,684.7129,0.0,0.0,0.0,0.0,1.0,SoundStimuli/IWalkTheLine_JohnnyCash_Original5S.wav,,,,,,,,,,,,,,,,,,,,,,,,,,,,,,,,,,,,,,,,,,,,,,,,,,,,,,,,,,
,,,,,781731,1,2024-06-17_10h37.14.200,experiment,2024.1.5,MacIntel,59.52380952,667045947eb812cbdacbf325,667049e74bd4a99a00f3b85f,,,,,,,,,,,,,,,,,,,,,,,,,,,,,,,,,,,,684.7292,691.8637,0.0,1.0,1.0,1.0,1.0,SoundStimuli/IWalkTheLine_JohnnyCash_Cover5S.wav,,,,,,,,,,,,,,,,,,,,,,,,,,,,,,,,,,,,,,,,,,,,,,,,,,,,,,,,,,
,,,,,781731,1,2024-06-17_10h37.14.200,experiment,2024.1.5,MacIntel,59.52380952,667045947eb812cbdacbf325,667049e74bd4a99a00f3b85f,,,,,,,,,,,,,,,,,,,,,,,,,,,,,,,,,,,,,,,,,,,,691.8639,704.201,4.33145752,12.3205,0.0,15.0,15.0,17.0,1.0,song_indices/IWalkTheLine_JohnnyCash.csv,,,,,,,,,,,,,,,,,,,,,,,,,,,,,,,,,,,,,,,,,,,,,,,,
,,,,,781731,1,2024-06-17_10h37.14.200,experiment,2024.1.5,MacIntel,59.52380952,667045947eb812cbdacbf325,667049e74bd4a99a00f3b85f,,,,,,,,,,,,,,,,,,,,,,,,,,,,,,,,,,,,704.2021,714.4463,0.0,0.0,0.0,1.0,1.0,SoundStimuli/CrazyInLove_BeyonceFtJayZ_Cover5S.wav,,,,,,,,,,,,,,,,,,,,,,,,,,,,,,,,,,,,,,,,,,,,,,,,,,,,,,,,,,
,,,,,781731,1,2024-06-17_10h37.14.200,experiment,2024.1.5,MacIntel,59.52380952,667045947eb812cbdacbf325,667049e74bd4a99a00f3b85f,,,,,,,,,,,,,,,,,,,,,,,,,,,,,,,,,,,,714.4627,720.9956,0.0,1.0,1.0,0.0,1.0,SoundStimuli/CrazyInLove_BeyonceFtJayZ_Original5S.wav,,,,,,,,,,,,,,,,,,,,,,,,,,,,,,,,,,,,,,,,,,,,,,,,,,,,,,,,,,
,,,,,781731,1,2024-06-17_10h37.14.200,experiment,2024.1.5,MacIntel,59.52380952,667045947eb812cbdacbf325,667049e74bd4a99a00f3b85f,,,,,,,,,,,,,,,,,,,,,,,,,,,,,,,,,,,,,,,,,,,,720.9958,721.83,2.520386556,0.8121,0.0,16.0,16.0,3.0,1.0,song_indices/CrazyInLove_BeyonceFtJayZ.csv,,,,,,,,,,,,,,,,,,,,,,,,,,,,,,,,,,,,,,,,,,,,,,,,
,,,,,781731,1,2024-06-17_10h37.14.200,experiment,2024.1.5,MacIntel,59.52380952,667045947eb812cbdacbf325,667049e74bd4a99a00f3b85f,,,,,,,,,,,,,,,,,,,,,,,,,,,,,,,,,,,,721.831,728.03,0.0,0.0,0.0,0.0,1.0,SoundStimuli/SmellsLikeTeenSpirit_Nirvana_Original5S.wav,,,,,,,,,,,,,,,,,,,,,,,,,,,,,,,,,,,,,,,,,,,,,,,,,,,,,,,,,,
,,,,,781731,1,2024-06-17_10h37.14.200,experiment,2024.1.5,MacIntel,59.52380952,667045947eb812cbdacbf325,667049e74bd4a99a00f3b85f,,,,,,,,,,,,,,,,,,,,,,,,,,,,,,,,,,,,728.0464,733.8133,0.0,1.0,1.0,1.0,1.0,SoundStimuli/SmellsLikeTeenSpirit_Nirvana_Cover5S.wav,,,,,,,,,,,,,,,,,,,,,,,,,,,,,,,,,,,,,,,,,,,,,,,,,,,,,,,,,,
,,,,,781731,1,2024-06-17_10h37.14.200,experiment,2024.1.5,MacIntel,59.52380952,667045947eb812cbdacbf325,667049e74bd4a99a00f3b85f,,,,,,,,,,,,,,,,,,,,,,,,,,,,,,,,,,,,,,,,,,,,733.8135,735.4798,5.608813883,1.6412,0.0,17.0,17.0,8.0,1.0,song_indices/SmellsLikeTeenSpirit_Nirvana.csv,,,,,,,,,,,,,,,,,,,,,,,,,,,,,,,,,,,,,,,,,,,,,,,,
,,,,,781731,1,2024-06-17_10h37.14.200,experiment,2024.1.5,MacIntel,59.52380952,667045947eb812cbdacbf325,667049e74bd4a99a00f3b85f,,,,,,,,,,,,,,,,,,,,,,,,,,,,,,,,,,,,735.4812,741.9455,0.0,0.0,0.0,0.0,1.0,SoundStimuli/ShapeofYou_EdSheeran_Original5S.wav,,,,,,,,,,,,,,,,,,,,,,,,,,,,,,,,,,,,,,,,,,,,,,,,,,,,,,,,,,
,,,,,781731,1,2024-06-17_10h37.14.200,experiment,2024.1.5,MacIntel,59.52380952,667045947eb812cbdacbf325,667049e74bd4a99a00f3b85f,,,,,,,,,,,,,,,,,,,,,,,,,,,,,,,,,,,,741.9616,748.2631,0.0,1.0,1.0,1.0,1.0,SoundStimuli/ShapeofYou_EdSheeran_Cover5S.wav,,,,,,,,,,,,,,,,,,,,,,,,,,,,,,,,,,,,,,,,,,,,,,,,,,,,,,,,,,
,,,,,781731,1,2024-06-17_10h37.14.200,experiment,2024.1.5,MacIntel,59.52380952,667045947eb812cbdacbf325,667049e74bd4a99a00f3b85f,,,,,,,,,,,,,,,,,,,,,,,,,,,,,,,,,,,,,,,,,,,,748.2633,752.3795,6.326040039,4.0899,0.0,18.0,18.0,21.0,1.0,song_indices/ShapeofYou_EdSheeran.csv,,,,,,,,,,,,,,,,,,,,,,,,,,,,,,,,,,,,,,,,,,,,,,,,
,,,,,781731,1,2024-06-17_10h37.14.200,experiment,2024.1.5,MacIntel,59.52380952,667045947eb812cbdacbf325,667049e74bd4a99a00f3b85f,,,,,,,,,,,,,,,,,,,,,,,,,,,,,,,,,,,,752.3806,758.5963,0.0,0.0,0.0,1.0,1.0,SoundStimuli/GimmeShelter_RollingStones_Cover5S.wav,,,,,,,,,,,,,,,,,,,,,,,,,,,,,,,,,,,,,,,,,,,,,,,,,,,,,,,,,,
,,,,,781731,1,2024-06-17_10h37.14.200,experiment,2024.1.5,MacIntel,59.52380952,667045947eb812cbdacbf325,667049e74bd4a99a00f3b85f,,,,,,,,,,,,,,,,,,,,,,,,,,,,,,,,,,,,758.6126,764.6961,0.0,1.0,1.0,0.0,1.0,SoundStimuli/GimmeShelter_RollingStones_Original5S.wav,,,,,,,,,,,,,,,,,,,,,,,,,,,,,,,,,,,,,,,,,,,,,,,,,,,,,,,,,,
,,,,,781731,1,2024-06-17_10h37.14.200,experiment,2024.1.5,MacIntel,59.52380952,667045947eb812cbdacbf325,667049e74bd4a99a00f3b85f,,,,,,,,,,,,,,,,,,,,,,,,,,,,,,,,,,,,,,,,,,,,764.6964,780.8283,6.326040039,16.1075,0.0,19.0,19.0,20.0,1.0,song_indices/GimmeShelter_RollingStones.csv,,,,,,,,,,,,,,,,,,,,,,,,,,,,,,,,,,,,,,,,,,,,,,,,
,,,,,781731,1,2024-06-17_10h37.14.200,experiment,2024.1.5,MacIntel,59.52380952,667045947eb812cbdacbf325,667049e74bd4a99a00f3b85f,,,,,,,,,,,,,,,,,,,,,,,,,,,,,,,,,,,,780.8294,787.1621,0.0,0.0,0.0,1.0,1.0,SoundStimuli/Stronger_KanyeWest_Cover5S.wav,,,,,,,,,,,,,,,,,,,,,,,,,,,,,,,,,,,,,,,,,,,,,,,,,,,,,,,,,,
,,,,,781731,1,2024-06-17_10h37.14.200,experiment,2024.1.5,MacIntel,59.52380952,667045947eb812cbdacbf325,667049e74bd4a99a00f3b85f,,,,,,,,,,,,,,,,,,,,,,,,,,,,,,,,,,,,787.1781,793.2286,0.0,1.0,1.0,0.0,1.0,SoundStimuli/Stronger_KanyeWest_Original5S.wav,,,,,,,,,,,,,,,,,,,,,,,,,,,,,,,,,,,,,,,,,,,,,,,,,,,,,,,,,,
,,,,,781731,1,2024-06-17_10h37.14.200,experiment,2024.1.5,MacIntel,59.52380952,667045947eb812cbdacbf325,667049e74bd4a99a00f3b85f,,,,,,,,,,,,,,,,,,,,,,,,,,,,,,,,,,,,,,,,,,,,793.2288,795.4488,1.820072835,2.2055,0.0,20.0,20.0,9.0,1.0,song_indices/Stronger_KanyeWest.csv,,,,,,,,,,,,,,,,,,,,,,,,,,,,,,,,,,,,,,,,,,,,,,,,
,,,,,781731,1,2024-06-17_10h37.14.200,experiment,2024.1.5,MacIntel,59.52380952,667045947eb812cbdacbf325,667049e74bd4a99a00f3b85f,,,,,,,,,,,,,,,,,,,,,,,,,,,,,,,,,,,,795.4504,801.5124,0.0,0.0,0.0,1.0,1.0,SoundStimuli/RockWithYou_MichaelJackson_Cover5S.wav,,,,,,,,,,,,,,,,,,,,,,,,,,,,,,,,,,,,,,,,,,,,,,,,,,,,,,,,,,
,,,,,781731,1,2024-06-17_10h37.14.200,experiment,2024.1.5,MacIntel,59.52380952,667045947eb812cbdacbf325,667049e74bd4a99a00f3b85f,,,,,,,,,,,,,,,,,,,,,,,,,,,,,,,,,,,,801.5283,807.8456,0.0,1.0,1.0,0.0,1.0,SoundStimuli/RockWithYou_MichaelJackson_Original5S.wav,,,,,,,,,,,,,,,,,,,,,,,,,,,,,,,,,,,,,,,,,,,,,,,,,,,,,,,,,,
,,,,,781731,1,2024-06-17_10h37.14.200,experiment,2024.1.5,MacIntel,59.52380952,667045947eb812cbdacbf325,667049e74bd4a99a00f3b85f,,,,,,,,,,,,,,,,,,,,,,,,,,,,,,,,,,,,,,,,,,,,807.8457,810.5782,3.988817546,2.7084,0.0,21.0,21.0,16.0,1.0,song_indices/RockWithYou_MichaelJackson.csv,,,,,,,,,,,,,,,,,,,,,,,,,,,,,,,,,,,,,,,,,,,,,,,,
,,,,,781731,1,2024-06-17_10h37.14.200,experiment,2024.1.5,MacIntel,59.52380952,667045947eb812cbdacbf325,667049e74bd4a99a00f3b85f,,,,,,,,,,,,,,,,,,,,,,,,,,,,,,,,,,,,810.5793,816.4784,0.0,0.0,0.0,0.0,1.0,SoundStimuli/EyeOfTheTiger_Survivor_Original5S.wav,,,,,,,,,,,,,,,,,,,,,,,,,,,,,,,,,,,,,,,,,,,,,,,,,,,,,,,,,,
,,,,,781731,1,2024-06-17_10h37.14.200,experiment,2024.1.5,MacIntel,59.52380952,667045947eb812cbdacbf325,667049e74bd4a99a00f3b85f,,,,,,,,,,,,,,,,,,,,,,,,,,,,,,,,,,,,816.4947,822.6115,0.0,1.0,1.0,1.0,1.0,SoundStimuli/EyeOfTheTiger_Survivor_Cover5S.wav,,,,,,,,,,,,,,,,,,,,,,,,,,,,,,,,,,,,,,,,,,,,,,,,,,,,,,,,,,
,,,,,781731,1,2024-06-17_10h37.14.200,experiment,2024.1.5,MacIntel,59.52380952,667045947eb812cbdacbf325,667049e74bd4a99a00f3b85f,,,,,,,,,,,,,,,,,,,,,,,,,,,,,,,,,,,,,,,,,,,,822.6117,824.661,5.946644287,2.0244,0.0,22.0,22.0,11.0,1.0,song_indices/EyeOfTheTiger_Survivor.csv,,,,,,,,,,,,,,,,,,,,,,,,,,,,,,,,,,,,,,,,,,,,,,,,
,,,,,781731,1,2024-06-17_10h37.14.200,experiment,2024.1.5,MacIntel,59.52380952,667045947eb812cbdacbf325,667049e74bd4a99a00f3b85f,,,,,,,,,,,,,,,,,,,,,,,,,,,,,,,,,,,,,,,,,,,,,,,,,,,,,,824.6612,1157.6405,space,332.9697,,0.0,1.0,1.0,1.0,1.0,choose_song_b2.csv,,,,,,,,,,,,,,,,,,,,,,,,,,,,,,,,,,,,,
,,,,,781731,1,2024-06-17_10h37.14.200,experiment,2024.1.5,MacIntel,59.52380952,667045947eb812cbdacbf325,667049e74bd4a99a00f3b85f,,,,,,,,,,,,,,,,,,,,,,,,,,,,,,,,,,,,1157.6418,1163.9397,0.0,0.0,0.0,0.0,1.0,SoundStimuli/Mood_24kGoldnianndior_Original5S.wav,,,,,,,,,,,,,,,,,,,,,,,,,,,,,,,,,,,,,,,,,,,,,,,,,,,,,,,,,,
,,,,,781731,1,2024-06-17_10h37.14.200,experiment,2024.1.5,MacIntel,59.52380952,667045947eb812cbdacbf325,667049e74bd4a99a00f3b85f,,,,,,,,,,,,,,,,,,,,,,,,,,,,,,,,,,,,1163.956,1172.2404,0.0,1.0,1.0,1.0,1.0,SoundStimuli/Mood_24kGoldnianndior_Cover5S.wav,,,,,,,,,,,,,,,,,,,,,,,,,,,,,,,,,,,,,,,,,,,,,,,,,,,,,,,,,,
,,,,,781731,1,2024-06-17_10h37.14.200,experiment,2024.1.5,MacIntel,59.52380952,667045947eb812cbdacbf325,667049e74bd4a99a00f3b85f,,,,,,,,,,,,,,,,,,,,,,,,,,,,,,,,,,,,,,,,,,,,1172.2406,1174.0071,2.601439209,1.7404,0.0,0.0,0.0,5.0,1.0,song_indices/Mood_24kGoldnianndior.csv,,,,,,,,,,,,,,,,,,,,,,,,,,,,,,,,,,,,,,,,,,,,,,,,
,,,,,781731,1,2024-06-17_10h37.14.200,experiment,2024.1.5,MacIntel,59.52380952,667045947eb812cbdacbf325,667049e74bd4a99a00f3b85f,,,,,,,,,,,,,,,,,,,,,,,,,,,,,,,,,,,,1174.0085,1180.0403,0.0,0.0,0.0,1.0,1.0,SoundStimuli/IWantToHoldYourHand_TheBeatles_Cover5S.wav,,,,,,,,,,,,,,,,,,,,,,,,,,,,,,,,,,,,,,,,,,,,,,,,,,,,,,,,,,
,,,,,781731,1,2024-06-17_10h37.14.200,experiment,2024.1.5,MacIntel,59.52380952,667045947eb812cbdacbf325,667049e74bd4a99a00f3b85f,,,,,,,,,,,,,,,,,,,,,,,,,,,,,,,,,,,,1180.0566,1185.8403,0.0,1.0,1.0,0.0,1.0,SoundStimuli/IWantToHoldYourHand_TheBeatles_Original5S.wav,,,,,,,,,,,,,,,,,,,,,,,,,,,,,,,,,,,,,,,,,,,,,,,,,,,,,,,,,,
,,,,,781731,1,2024-06-17_10h37.14.200,experiment,2024.1.5,MacIntel,59.52380952,667045947eb812cbdacbf325,667049e74bd4a99a00f3b85f,,,,,,,,,,,,,,,,,,,,,,,,,,,,,,,,,,,,,,,,,,,,1185.8406,1187.7395,4.709957682,1.8738,0.0,1.0,1.0,19.0,1.0,song_indices/IWantToHoldYourHand_TheBeatles.csv,,,,,,,,,,,,,,,,,,,,,,,,,,,,,,,,,,,,,,,,,,,,,,,,
,,,,,781731,1,2024-06-17_10h37.14.200,experiment,2024.1.5,MacIntel,59.52380952,667045947eb812cbdacbf325,667049e74bd4a99a00f3b85f,,,,,,,,,,,,,,,,,,,,,,,,,,,,,,,,,,,,1187.741,1192.1401,0.0,0.0,0.0,1.0,1.0,SoundStimuli/LikeARollingStone_BobDylan_Cover5S.wav,,,,,,,,,,,,,,,,,,,,,,,,,,,,,,,,,,,,,,,,,,,,,,,,,,,,,,,,,,
,,,,,781731,1,2024-06-17_10h37.14.200,experiment,2024.1.5,MacIntel,59.52380952,667045947eb812cbdacbf325,667049e74bd4a99a00f3b85f,,,,,,,,,,,,,,,,,,,,,,,,,,,,,,,,,,,,1192.1564,1198.3068,0.0,1.0,1.0,0.0,1.0,SoundStimuli/LikeARollingStone_BobDylan_Original5S.wav,,,,,,,,,,,,,,,,,,,,,,,,,,,,,,,,,,,,,,,,,,,,,,,,,,,,,,,,,,
,,,,,781731,1,2024-06-17_10h37.14.200,experiment,2024.1.5,MacIntel,59.52380952,667045947eb812cbdacbf325,667049e74bd4a99a00f3b85f,,,,,,,,,,,,,,,,,,,,,,,,,,,,,,,,,,,,,,,,,,,,1198.307,1199.2402,4.709957682,0.9075,0.0,2.0,2.0,12.0,1.0,song_indices/LikeARollingStone_BobDylan.csv,,,,,,,,,,,,,,,,,,,,,,,,,,,,,,,,,,,,,,,,,,,,,,,,
,,,,,781731,1,2024-06-17_10h37.14.200,experiment,2024.1.5,MacIntel,59.52380952,667045947eb812cbdacbf325,667049e74bd4a99a00f3b85f,,,,,,,,,,,,,,,,,,,,,,,,,,,,,,,,,,,,1199.2418,1205.8063,0.0,0.0,0.0,0.0,1.0,SoundStimuli/Despacito_LuisFonsiDaddyYankee_Original5S.wav,,,,,,,,,,,,,,,,,,,,,,,,,,,,,,,,,,,,,,,,,,,,,,,,,,,,,,,,,,
,,,,,781731,1,2024-06-17_10h37.14.200,experiment,2024.1.5,MacIntel,59.52380952,667045947eb812cbdacbf325,667049e74bd4a99a00f3b85f,,,,,,,,,,,,,,,,,,,,,,,,,,,,,,,,,,,,1205.8226,1212.39,0.0,1.0,1.0,1.0,1.0,SoundStimuli/Despacito_LuisFonsiDaddyYankee_Cover5S.wav,,,,,,,,,,,,,,,,,,,,,,,,,,,,,,,,,,,,,,,,,,,,,,,,,,,,,,,,,,
,,,,,781731,1,2024-06-17_10h37.14.200,experiment,2024.1.5,MacIntel,59.52380952,667045947eb812cbdacbf325,667049e74bd4a99a00f3b85f,,,,,,,,,,,,,,,,,,,,,,,,,,,,,,,,,,,,,,,,,,,,1212.3902,1214.2398,4.709957682,1.8236,0.0,3.0,3.0,11.0,1.0,song_indices/Despacito_LuisFonsiDaddyYankee.csv,,,,,,,,,,,,,,,,,,,,,,,,,,,,,,,,,,,,,,,,,,,,,,,,
,,,,,781731,1,2024-06-17_10h37.14.200,experiment,2024.1.5,MacIntel,59.52380952,667045947eb812cbdacbf325,667049e74bd4a99a00f3b85f,,,,,,,,,,,,,,,,,,,,,,,,,,,,,,,,,,,,1214.2411,1220.7555,0.0,0.0,0.0,1.0,1.0,SoundStimuli/OldTownRoad_LilNasX_Cover5S.wav,,,,,,,,,,,,,,,,,,,,,,,,,,,,,,,,,,,,,,,,,,,,,,,,,,,,,,,,,,
,,,,,781731,1,2024-06-17_10h37.14.200,experiment,2024.1.5,MacIntel,59.52380952,667045947eb812cbdacbf325,667049e74bd4a99a00f3b85f,,,,,,,,,,,,,,,,,,,,,,,,,,,,,,,,,,,,1220.7717,1228.1398,0.0,1.0,1.0,0.0,1.0,SoundStimuli/OldTownRoad_LilNasX_Original5S.wav,,,,,,,,,,,,,,,,,,,,,,,,,,,,,,,,,,,,,,,,,,,,,,,,,,,,,,,,,,
,,,,,781731,1,2024-06-17_10h37.14.200,experiment,2024.1.5,MacIntel,59.52380952,667045947eb812cbdacbf325,667049e74bd4a99a00f3b85f,,,,,,,,,,,,,,,,,,,,,,,,,,,,,,,,,,,,,,,,,,,,1228.1401,1228.7555,4.709957682,0.5901,0.0,4.0,4.0,20.0,1.0,song_indices/OldTownRoad_LilNasX.csv,,,,,,,,,,,,,,,,,,,,,,,,,,,,,,,,,,,,,,,,,,,,,,,,
,,,,,781731,1,2024-06-17_10h37.14.200,experiment,2024.1.5,MacIntel,59.52380952,667045947eb812cbdacbf325,667049e74bd4a99a00f3b85f,,,,,,,,,,,,,,,,,,,,,,,,,,,,,,,,,,,,1228.7567,1235.0216,0.0,0.0,0.0,1.0,1.0,SoundStimuli/MackTheKnife_BobbyDarin_Cover5S.wav,,,,,,,,,,,,,,,,,,,,,,,,,,,,,,,,,,,,,,,,,,,,,,,,,,,,,,,,,,
,,,,,781731,1,2024-06-17_10h37.14.200,experiment,2024.1.5,MacIntel,59.52380952,667045947eb812cbdacbf325,667049e74bd4a99a00f3b85f,,,,,,,,,,,,,,,,,,,,,,,,,,,,,,,,,,,,1235.0326,1241.1728,0.0,1.0,1.0,0.0,1.0,SoundStimuli/MackTheKnife_BobbyDarin_Original5S.wav,,,,,,,,,,,,,,,,,,,,,,,,,,,,,,,,,,,,,,,,,,,,,,,,,,,,,,,,,,
,,,,,781731,1,2024-06-17_10h37.14.200,experiment,2024.1.5,MacIntel,59.52380952,667045947eb812cbdacbf325,667049e74bd4a99a00f3b85f,,,,,,,,,,,,,,,,,,,,,,,,,,,,,,,,,,,,,,,,,,,,1241.1731,1248.8393,4.709957682,7.6445,0.0,5.0,5.0,21.0,1.0,song_indices/MackTheKnife_BobbyDarin.csv,,,,,,,,,,,,,,,,,,,,,,,,,,,,,,,,,,,,,,,,,,,,,,,,
,,,,,781731,1,2024-06-17_10h37.14.200,experiment,2024.1.5,MacIntel,59.52380952,667045947eb812cbdacbf325,667049e74bd4a99a00f3b85f,,,,,,,,,,,,,,,,,,,,,,,,,,,,,,,,,,,,1248.8407,1255.1554,0.0,0.0,0.0,0.0,1.0,SoundStimuli/BridgeOverTroubledWater_SimonAndGarfunkel_Original5S.wav,,,,,,,,,,,,,,,,,,,,,,,,,,,,,,,,,,,,,,,,,,,,,,,,,,,,,,,,,,
,,,,,781731,1,2024-06-17_10h37.14.200,experiment,2024.1.5,MacIntel,59.52380952,667045947eb812cbdacbf325,667049e74bd4a99a00f3b85f,,,,,,,,,,,,,,,,,,,,,,,,,,,,,,,,,,,,1255.1693,1261.8559,0.0,1.0,1.0,1.0,1.0,SoundStimuli/BridgeOverTroubledWater_SimonAndGarfunkel_Cover5S.wav,,,,,,,,,,,,,,,,,,,,,,,,,,,,,,,,,,,,,,,,,,,,,,,,,,,,,,,,,,
,,,,,781731,1,2024-06-17_10h37.14.200,experiment,2024.1.5,MacIntel,59.52380952,667045947eb812cbdacbf325,667049e74bd4a99a00f3b85f,,,,,,,,,,,,,,,,,,,,,,,,,,,,,,,,,,,,,,,,,,,,1261.8561,1265.7053,4.709957682,3.8242,0.0,6.0,6.0,1.0,1.0,song_indices/BridgeOverTroubledWater_SimonAndGarfunkel.csv,,,,,,,,,,,,,,,,,,,,,,,,,,,,,,,,,,,,,,,,,,,,,,,,
,,,,,781731,1,2024-06-17_10h37.14.200,experiment,2024.1.5,MacIntel,59.52380952,667045947eb812cbdacbf325,667049e74bd4a99a00f3b85f,,,,,,,,,,,,,,,,,,,,,,,,,,,,,,,,,,,,1265.7063,1271.7396,0.0,0.0,0.0,0.0,1.0,SoundStimuli/AnotherOneBitesTheDust_Queen_Original5S.wav,,,,,,,,,,,,,,,,,,,,,,,,,,,,,,,,,,,,,,,,,,,,,,,,,,,,,,,,,,
,,,,,781731,1,2024-06-17_10h37.14.200,experiment,2024.1.5,MacIntel,59.52380952,667045947eb812cbdacbf325,667049e74bd4a99a00f3b85f,,,,,,,,,,,,,,,,,,,,,,,,,,,,,,,,,,,,1271.7558,1279.8894,0.0,1.0,1.0,1.0,1.0,SoundStimuli/AnotherOneBitesTheDust_Queen_Cover5S.wav,,,,,,,,,,,,,,,,,,,,,,,,,,,,,,,,,,,,,,,,,,,,,,,,,,,,,,,,,,
,,,,,781731,1,2024-06-17_10h37.14.200,experiment,2024.1.5,MacIntel,59.52380952,667045947eb812cbdacbf325,667049e74bd4a99a00f3b85f,,,,,,,,,,,,,,,,,,,,,,,,,,,,,,,,,,,,,,,,,,,,1279.8895,1280.4049,4.447874349,0.4913,0.0,7.0,7.0,9.0,1.0,song_indices/AnotherOneBitesTheDust_Queen.csv,,,,,,,,,,,,,,,,,,,,,,,,,,,,,,,,,,,,,,,,,,,,,,,,
,,,,,781731,1,2024-06-17_10h37.14.200,experiment,2024.1.5,MacIntel,59.52380952,667045947eb812cbdacbf325,667049e74bd4a99a00f3b85f,,,,,,,,,,,,,,,,,,,,,,,,,,,,,,,,,,,,1280.4065,1286.8547,0.0,0.0,0.0,0.0,1.0,SoundStimuli/BadDay_DanielPowter_Original5S.wav,,,,,,,,,,,,,,,,,,,,,,,,,,,,,,,,,,,,,,,,,,,,,,,,,,,,,,,,,,
,,,,,781731,1,2024-06-17_10h37.14.200,experiment,2024.1.5,MacIntel,59.52380952,667045947eb812cbdacbf325,667049e74bd4a99a00f3b85f,,,,,,,,,,,,,,,,,,,,,,,,,,,,,,,,,,,,1286.8633,1294.3555,0.0,1.0,1.0,1.0,1.0,SoundStimuli/BadDay_DanielPowter_Cover5S.wav,,,,,,,,,,,,,,,,,,,,,,,,,,,,,,,,,,,,,,,,,,,,,,,,,,,,,,,,,,
,,,,,781731,1,2024-06-17_10h37.14.200,experiment,2024.1.5,MacIntel,59.52380952,667045947eb812cbdacbf325,667049e74bd4a99a00f3b85f,,,,,,,,,,,,,,,,,,,,,,,,,,,,,,,,,,,,,,,,,,,,1294.3558,1294.872,4.993881022,0.4907,0.0,8.0,8.0,22.0,1.0,song_indices/BadDay_DanielPowter.csv,,,,,,,,,,,,,,,,,,,,,,,,,,,,,,,,,,,,,,,,,,,,,,,,
,,,,,781731,1,2024-06-17_10h37.14.200,experiment,2024.1.5,MacIntel,59.52380952,667045947eb812cbdacbf325,667049e74bd4a99a00f3b85f,,,,,,,,,,,,,,,,,,,,,,,,,,,,,,,,,,,,1294.8737,1301.0057,0.0,0.0,0.0,0.0,1.0,SoundStimuli/StrawberryFieldsForever_TheBeatles_Original5S.wav,,,,,,,,,,,,,,,,,,,,,,,,,,,,,,,,,,,,,,,,,,,,,,,,,,,,,,,,,,
,,,,,781731,1,2024-06-17_10h37.14.200,experiment,2024.1.5,MacIntel,59.52380952,667045947eb812cbdacbf325,667049e74bd4a99a00f3b85f,,,,,,,,,,,,,,,,,,,,,,,,,,,,,,,,,,,,1301.0217,1308.0552,0.0,1.0,1.0,1.0,1.0,SoundStimuli/StrawberryFieldsForever_TheBeatles_Cover5S.wav,,,,,,,,,,,,,,,,,,,,,,,,,,,,,,,,,,,,,,,,,,,,,,,,,,,,,,,,,,
,,,,,781731,1,2024-06-17_10h37.14.200,experiment,2024.1.5,MacIntel,59.52380952,667045947eb812cbdacbf325,667049e74bd4a99a00f3b85f,,,,,,,,,,,,,,,,,,,,,,,,,,,,,,,,,,,,,,,,,,,,1308.0554,1309.3877,3.549648031,1.3071,0.0,9.0,9.0,14.0,1.0,song_indices/StrawberryFieldsForever_TheBeatles.csv,,,,,,,,,,,,,,,,,,,,,,,,,,,,,,,,,,,,,,,,,,,,,,,,
,,,,,781731,1,2024-06-17_10h37.14.200,experiment,2024.1.5,MacIntel,59.52380952,667045947eb812cbdacbf325,667049e74bd4a99a00f3b85f,,,,,,,,,,,,,,,,,,,,,,,,,,,,,,,,,,,,1309.389,1316.2218,0.0,0.0,0.0,1.0,1.0,SoundStimuli/IWannaDanceWithSomebody_WhitneyHouston_Cover5S.wav,,,,,,,,,,,,,,,,,,,,,,,,,,,,,,,,,,,,,,,,,,,,,,,,,,,,,,,,,,
,,,,,781731,1,2024-06-17_10h37.14.200,experiment,2024.1.5,MacIntel,59.52380952,667045947eb812cbdacbf325,667049e74bd4a99a00f3b85f,,,,,,,,,,,,,,,,,,,,,,,,,,,,,,,,,,,,1316.2383,1321.8208,0.0,1.0,1.0,0.0,1.0,SoundStimuli/IWannaDanceWithSomebody_WhitneyHouston_Original5S.wav,,,,,,,,,,,,,,,,,,,,,,,,,,,,,,,,,,,,,,,,,,,,,,,,,,,,,,,,,,
,,,,,781731,1,2024-06-17_10h37.14.200,experiment,2024.1.5,MacIntel,59.52380952,667045947eb812cbdacbf325,667049e74bd4a99a00f3b85f,,,,,,,,,,,,,,,,,,,,,,,,,,,,,,,,,,,,,,,,,,,,1321.821,1322.2712,4.148475749,0.4274,0.0,10.0,10.0,13.0,1.0,song_indices/IWannaDanceWithSomebody_WhitneyHouston.csv,,,,,,,,,,,,,,,,,,,,,,,,,,,,,,,,,,,,,,,,,,,,,,,,
,,,,,781731,1,2024-06-17_10h37.14.200,experiment,2024.1.5,MacIntel,59.52380952,667045947eb812cbdacbf325,667049e74bd4a99a00f3b85f,,,,,,,,,,,,,,,,,,,,,,,,,,,,,,,,,,,,1322.2741,1326.9882,0.0,0.0,0.0,1.0,1.0,SoundStimuli/AChangeIsGonnaCome_SamCooke_Cover5S.wav,,,,,,,,,,,,,,,,,,,,,,,,,,,,,,,,,,,,,,,,,,,,,,,,,,,,,,,,,,
,,,,,781731,1,2024-06-17_10h37.14.200,experiment,2024.1.5,MacIntel,59.52380952,667045947eb812cbdacbf325,667049e74bd4a99a00f3b85f,,,,,,,,,,,,,,,,,,,,,,,,,,,,,,,,,,,,1327.0021,1333.0204,0.0,1.0,1.0,0.0,1.0,SoundStimuli/AChangeIsGonnaCome_SamCooke_Original5S.wav,,,,,,,,,,,,,,,,,,,,,,,,,,,,,,,,,,,,,,,,,,,,,,,,,,,,,,,,,,
,,,,,781731,1,2024-06-17_10h37.14.200,experiment,2024.1.5,MacIntel,59.52380952,667045947eb812cbdacbf325,667049e74bd4a99a00f3b85f,,,,,,,,,,,,,,,,,,,,,,,,,,,,,,,,,,,,,,,,,,,,1333.0206,1333.788,6.627866211,0.7508,0.0,11.0,11.0,17.0,1.0,song_indices/AChangeIsGonnaCome_SamCooke.csv,,,,,,,,,,,,,,,,,,,,,,,,,,,,,,,,,,,,,,,,,,,,,,,,
,,,,,781731,1,2024-06-17_10h37.14.200,experiment,2024.1.5,MacIntel,59.52380952,667045947eb812cbdacbf325,667049e74bd4a99a00f3b85f,,,,,,,,,,,,,,,,,,,,,,,,,,,,,,,,,,,,1333.7891,1339.9872,0.0,0.0,0.0,0.0,1.0,SoundStimuli/LikeAPrayer_Madonna_Original5S.wav,,,,,,,,,,,,,,,,,,,,,,,,,,,,,,,,,,,,,,,,,,,,,,,,,,,,,,,,,,
,,,,,781731,1,2024-06-17_10h37.14.200,experiment,2024.1.5,MacIntel,59.52380952,667045947eb812cbdacbf325,667049e74bd4a99a00f3b85f,,,,,,,,,,,,,,,,,,,,,,,,,,,,,,,,,,,,1340.0035,1346.2035,0.0,1.0,1.0,1.0,1.0,SoundStimuli/LikeAPrayer_Madonna_Cover5S.wav,,,,,,,,,,,,,,,,,,,,,,,,,,,,,,,,,,,,,,,,,,,,,,,,,,,,,,,,,,
,,,,,781731,1,2024-06-17_10h37.14.200,experiment,2024.1.5,MacIntel,59.52380952,667045947eb812cbdacbf325,667049e74bd4a99a00f3b85f,,,,,,,,,,,,,,,,,,,,,,,,,,,,,,,,,,,,,,,,,,,,1346.2037,1347.0203,6.793627116,0.7946,0.0,12.0,12.0,7.0,1.0,song_indices/LikeAPrayer_Madonna.csv,,,,,,,,,,,,,,,,,,,,,,,,,,,,,,,,,,,,,,,,,,,,,,,,
,,,,,781731,1,2024-06-17_10h37.14.200,experiment,2024.1.5,MacIntel,59.52380952,667045947eb812cbdacbf325,667049e74bd4a99a00f3b85f,,,,,,,,,,,,,,,,,,,,,,,,,,,,,,,,,,,,1347.0213,1354.5206,0.0,0.0,0.0,1.0,1.0,SoundStimuli/EndlessLove_DianaRossLionelRichie_Cover5S.wav,,,,,,,,,,,,,,,,,,,,,,,,,,,,,,,,,,,,,,,,,,,,,,,,,,,,,,,,,,
,,,,,781731,1,2024-06-17_10h37.14.200,experiment,2024.1.5,MacIntel,59.52380952,667045947eb812cbdacbf325,667049e74bd4a99a00f3b85f,,,,,,,,,,,,,,,,,,,,,,,,,,,,,,,,,,,,1354.5369,1360.8712,0.0,1.0,1.0,0.0,1.0,SoundStimuli/EndlessLove_DianaRossLionelRichie_Original5S.wav,,,,,,,,,,,,,,,,,,,,,,,,,,,,,,,,,,,,,,,,,,,,,,,,,,,,,,,,,,
,,,,,781731,1,2024-06-17_10h37.14.200,experiment,2024.1.5,MacIntel,59.52380952,667045947eb812cbdacbf325,667049e74bd4a99a00f3b85f,,,,,,,,,,,,,,,,,,,,,,,,,,,,,,,,,,,,,,,,,,,,1360.8714,1362.1877,5.939630941,1.2926,0.0,13.0,13.0,3.0,1.0,song_indices/EndlessLove_DianaRossLionelRichie.csv,,,,,,,,,,,,,,,,,,,,,,,,,,,,,,,,,,,,,,,,,,,,,,,,
,,,,,781731,1,2024-06-17_10h37.14.200,experiment,2024.1.5,MacIntel,59.52380952,667045947eb812cbdacbf325,667049e74bd4a99a00f3b85f,,,,,,,,,,,,,,,,,,,,,,,,,,,,,,,,,,,,1362.1891,1368.137,0.0,0.0,0.0,1.0,1.0,SoundStimuli/IllMakeLoveToYou_BoyzIIMen_Cover5S.wav,,,,,,,,,,,,,,,,,,,,,,,,,,,,,,,,,,,,,,,,,,,,,,,,,,,,,,,,,,
,,,,,781731,1,2024-06-17_10h37.14.200,experiment,2024.1.5,MacIntel,59.52380952,667045947eb812cbdacbf325,667049e74bd4a99a00f3b85f,,,,,,,,,,,,,,,,,,,,,,,,,,,,,,,,,,,,1368.1532,1374.221,0.0,1.0,1.0,0.0,1.0,SoundStimuli/IllMakeLoveToYou_BoyzIIMen_Original5S.wav,,,,,,,,,,,,,,,,,,,,,,,,,,,,,,,,,,,,,,,,,,,,,,,,,,,,,,,,,,
,,,,,781731,1,2024-06-17_10h37.14.200,experiment,2024.1.5,MacIntel,59.52380952,667045947eb812cbdacbf325,667049e74bd4a99a00f3b85f,,,,,,,,,,,,,,,,,,,,,,,,,,,,,,,,,,,,,,,,,,,,1374.2214,1379.5901,5.939630941,5.3524,0.0,14.0,14.0,6.0,1.0,song_indices/IllMakeLoveToYou_BoyzIIMen.csv,,,,,,,,,,,,,,,,,,,,,,,,,,,,,,,,,,,,,,,,,,,,,,,,
,,,,,781731,1,2024-06-17_10h37.14.200,experiment,2024.1.5,MacIntel,59.52380952,667045947eb812cbdacbf325,667049e74bd4a99a00f3b85f,,,,,,,,,,,,,,,,,,,,,,,,,,,,,,,,,,,,1379.5915,1383.6709,0.0,0.0,0.0,1.0,1.0,SoundStimuli/BohemianRhapsody_Queen_Cover5S.wav,,,,,,,,,,,,,,,,,,,,,,,,,,,,,,,,,,,,,,,,,,,,,,,,,,,,,,,,,,
,,,,,781731,1,2024-06-17_10h37.14.200,experiment,2024.1.5,MacIntel,59.52380952,667045947eb812cbdacbf325,667049e74bd4a99a00f3b85f,,,,,,,,,,,,,,,,,,,,,,,,,,,,,,,,,,,,1383.6873,1389.6375,0.0,1.0,1.0,0.0,1.0,SoundStimuli/BohemianRhapsody_Queen_Original5S.wav,,,,,,,,,,,,,,,,,,,,,,,,,,,,,,,,,,,,,,,,,,,,,,,,,,,,,,,,,,
,,,,,781731,1,2024-06-17_10h37.14.200,experiment,2024.1.5,MacIntel,59.52380952,667045947eb812cbdacbf325,667049e74bd4a99a00f3b85f,,,,,,,,,,,,,,,,,,,,,,,,,,,,,,,,,,,,,,,,,,,,1389.6377,1390.72,1.983294271,1.0573,0.0,15.0,15.0,18.0,1.0,song_indices/BohemianRhapsody_Queen.csv,,,,,,,,,,,,,,,,,,,,,,,,,,,,,,,,,,,,,,,,,,,,,,,,
,,,,,781731,1,2024-06-17_10h37.14.200,experiment,2024.1.5,MacIntel,59.52380952,667045947eb812cbdacbf325,667049e74bd4a99a00f3b85f,,,,,,,,,,,,,,,,,,,,,,,,,,,,,,,,,,,,1390.721,1396.7541,0.0,0.0,0.0,0.0,1.0,SoundStimuli/StayinAlive_BeeGees_Original5S.wav,,,,,,,,,,,,,,,,,,,,,,,,,,,,,,,,,,,,,,,,,,,,,,,,,,,,,,,,,,
,,,,,781731,1,2024-06-17_10h37.14.200,experiment,2024.1.5,MacIntel,59.52380952,667045947eb812cbdacbf325,667049e74bd4a99a00f3b85f,,,,,,,,,,,,,,,,,,,,,,,,,,,,,,,,,,,,1396.7698,1402.6041,0.0,1.0,1.0,1.0,1.0,SoundStimuli/StayinAlive_BeeGees_Cover5S.wav,,,,,,,,,,,,,,,,,,,,,,,,,,,,,,,,,,,,,,,,,,,,,,,,,,,,,,,,,,
,,,,,781731,1,2024-06-17_10h37.14.200,experiment,2024.1.5,MacIntel,59.52380952,667045947eb812cbdacbf325,667049e74bd4a99a00f3b85f,,,,,,,,,,,,,,,,,,,,,,,,,,,,,,,,,,,,,,,,,,,,1402.6043,1409.637,1.983294271,7.0075,0.0,16.0,16.0,2.0,1.0,song_indices/StayinAlive_BeeGees.csv,,,,,,,,,,,,,,,,,,,,,,,,,,,,,,,,,,,,,,,,,,,,,,,,
,,,,,781731,1,2024-06-17_10h37.14.200,experiment,2024.1.5,MacIntel,59.52380952,667045947eb812cbdacbf325,667049e74bd4a99a00f3b85f,,,,,,,,,,,,,,,,,,,,,,,,,,,,,,,,,,,,1409.6384,1416.5037,0.0,0.0,0.0,1.0,1.0,SoundStimuli/GodOnlyKnows_TheBeachBoys_Cover5S.wav,,,,,,,,,,,,,,,,,,,,,,,,,,,,,,,,,,,,,,,,,,,,,,,,,,,,,,,,,,
,,,,,781731,1,2024-06-17_10h37.14.200,experiment,2024.1.5,MacIntel,59.52380952,667045947eb812cbdacbf325,667049e74bd4a99a00f3b85f,,,,,,,,,,,,,,,,,,,,,,,,,,,,,,,,,,,,1416.5202,1422.7528,0.0,1.0,1.0,0.0,1.0,SoundStimuli/GodOnlyKnows_TheBeachBoys_Original5S.wav,,,,,,,,,,,,,,,,,,,,,,,,,,,,,,,,,,,,,,,,,,,,,,,,,,,,,,,,,,
,,,,,781731,1,2024-06-17_10h37.14.200,experiment,2024.1.5,MacIntel,59.52380952,667045947eb812cbdacbf325,667049e74bd4a99a00f3b85f,,,,,,,,,,,,,,,,,,,,,,,,,,,,,,,,,,,,,,,,,,,,1422.7529,1427.9529,5.390800374,5.1766,0.0,17.0,17.0,8.0,1.0,song_indices/GodOnlyKnows_TheBeachBoys.csv,,,,,,,,,,,,,,,,,,,,,,,,,,,,,,,,,,,,,,,,,,,,,,,,
,,,,,781731,1,2024-06-17_10h37.14.200,experiment,2024.1.5,MacIntel,59.52380952,667045947eb812cbdacbf325,667049e74bd4a99a00f3b85f,,,,,,,,,,,,,,,,,,,,,,,,,,,,,,,,,,,,1427.9541,1434.054,0.0,0.0,0.0,0.0,1.0,SoundStimuli/HeatWaves_GlassAnimals_Original5S.wav,,,,,,,,,,,,,,,,,,,,,,,,,,,,,,,,,,,,,,,,,,,,,,,,,,,,,,,,,,
,,,,,781731,1,2024-06-17_10h37.14.200,experiment,2024.1.5,MacIntel,59.52380952,667045947eb812cbdacbf325,667049e74bd4a99a00f3b85f,,,,,,,,,,,,,,,,,,,,,,,,,,,,,,,,,,,,1434.07,1442.6534,0.0,1.0,1.0,1.0,1.0,SoundStimuli/HeatWaves_GlassAnimals_Cover5S.wav,,,,,,,,,,,,,,,,,,,,,,,,,,,,,,,,,,,,,,,,,,,,,,,,,,,,,,,,,,
,,,,,781731,1,2024-06-17_10h37.14.200,experiment,2024.1.5,MacIntel,59.52380952,667045947eb812cbdacbf325,667049e74bd4a99a00f3b85f,,,,,,,,,,,,,,,,,,,,,,,,,,,,,,,,,,,,,,,,,,,,1442.6536,1443.4367,3.724924723,0.7574,0.0,18.0,18.0,10.0,1.0,song_indices/HeatWaves_GlassAnimals.csv,,,,,,,,,,,,,,,,,,,,,,,,,,,,,,,,,,,,,,,,,,,,,,,,
,,,,,781731,1,2024-06-17_10h37.14.200,experiment,2024.1.5,MacIntel,59.52380952,667045947eb812cbdacbf325,667049e74bd4a99a00f3b85f,,,,,,,,,,,,,,,,,,,,,,,,,,,,,,,,,,,,1443.4381,1451.1198,0.0,0.0,0.0,1.0,1.0,SoundStimuli/LivinOnAPrayer_BonJovi_Cover5S.wav,,,,,,,,,,,,,,,,,,,,,,,,,,,,,,,,,,,,,,,,,,,,,,,,,,,,,,,,,,
,,,,,781731,1,2024-06-17_10h37.14.200,experiment,2024.1.5,MacIntel,59.52380952,667045947eb812cbdacbf325,667049e74bd4a99a00f3b85f,,,,,,,,,,,,,,,,,,,,,,,,,,,,,,,,,,,,1451.1362,1457.3689,0.0,1.0,1.0,0.0,1.0,SoundStimuli/LivinOnAPrayer_BonJovi_Original5S.wav,,,,,,,,,,,,,,,,,,,,,,,,,,,,,,,,,,,,,,,,,,,,,,,,,,,,,,,,,,
,,,,,781731,1,2024-06-17_10h37.14.200,experiment,2024.1.5,MacIntel,59.52380952,667045947eb812cbdacbf325,667049e74bd4a99a00f3b85f,,,,,,,,,,,,,,,,,,,,,,,,,,,,,,,,,,,,,,,,,,,,1457.3691,1460.9864,3.724924723,3.5914,0.0,19.0,19.0,16.0,1.0,song_indices/LivinOnAPrayer_BonJovi.csv,,,,,,,,,,,,,,,,,,,,,,,,,,,,,,,,,,,,,,,,,,,,,,,,
,,,,,781731,1,2024-06-17_10h37.14.200,experiment,2024.1.5,MacIntel,59.52380952,667045947eb812cbdacbf325,667049e74bd4a99a00f3b85f,,,,,,,,,,,,,,,,,,,,,,,,,,,,,,,,,,,,1460.9879,1467.2023,0.0,0.0,0.0,0.0,1.0,SoundStimuli/Smooth_SantanaRobThomas_Original5S.wav,,,,,,,,,,,,,,,,,,,,,,,,,,,,,,,,,,,,,,,,,,,,,,,,,,,,,,,,,,
,,,,,781731,1,2024-06-17_10h37.14.200,experiment,2024.1.5,MacIntel,59.52380952,667045947eb812cbdacbf325,667049e74bd4a99a00f3b85f,,,,,,,,,,,,,,,,,,,,,,,,,,,,,,,,,,,,1467.2186,1473.3363,0.0,1.0,1.0,1.0,1.0,SoundStimuli/Smooth_SantanaRobThomas_Cover5S.wav,,,,,,,,,,,,,,,,,,,,,,,,,,,,,,,,,,,,,,,,,,,,,,,,,,,,,,,,,,
,,,,,781731,1,2024-06-17_10h37.14.200,experiment,2024.1.5,MacIntel,59.52380952,667045947eb812cbdacbf325,667049e74bd4a99a00f3b85f,,,,,,,,,,,,,,,,,,,,,,,,,,,,,,,,,,,,,,,,,,,,1473.3365,1474.6029,3.374364827,1.2408,0.0,20.0,20.0,4.0,1.0,song_indices/Smooth_SantanaRobThomas.csv,,,,,,,,,,,,,,,,,,,,,,,,,,,,,,,,,,,,,,,,,,,,,,,,
,,,,,781731,1,2024-06-17_10h37.14.200,experiment,2024.1.5,MacIntel,59.52380952,667045947eb812cbdacbf325,667049e74bd4a99a00f3b85f,,,,,,,,,,,,,,,,,,,,,,,,,,,,,,,,,,,,1474.6048,1482.8695,0.0,0.0,0.0,1.0,1.0,SoundStimuli/Perfect_EdSheeran_Cover5S.wav,,,,,,,,,,,,,,,,,,,,,,,,,,,,,,,,,,,,,,,,,,,,,,,,,,,,,,,,,,
,,,,,781731,1,2024-06-17_10h37.14.200,experiment,2024.1.5,MacIntel,59.52380952,667045947eb812cbdacbf325,667049e74bd4a99a00f3b85f,,,,,,,,,,,,,,,,,,,,,,,,,,,,,,,,,,,,1482.8857,1491.7361,0.0,1.0,1.0,0.0,1.0,SoundStimuli/Perfect_EdSheeran_Original5S.wav,,,,,,,,,,,,,,,,,,,,,,,,,,,,,,,,,,,,,,,,,,,,,,,,,,,,,,,,,,
,,,,,781731,1,2024-06-17_10h37.14.200,experiment,2024.1.5,MacIntel,59.52380952,667045947eb812cbdacbf325,667049e74bd4a99a00f3b85f,,,,,,,,,,,,,,,,,,,,,,,,,,,,,,,,,,,,,,,,,,,,1491.7363,1492.1193,5.61468099,0.3566,0.0,21.0,21.0,0.0,1.0,song_indices/Perfect_EdSheeran.csv,,,,,,,,,,,,,,,,,,,,,,,,,,,,,,,,,,,,,,,,,,,,,,,,
,,,,,781731,1,2024-06-17_10h37.14.200,experiment,2024.1.5,MacIntel,59.52380952,667045947eb812cbdacbf325,667049e74bd4a99a00f3b85f,,,,,,,,,,,,,,,,,,,,,,,,,,,,,,,,,,,,1492.1207,1498.5193,0.0,0.0,0.0,0.0,1.0,SoundStimuli/MyGirl_TheTemptations_Original5S.wav,,,,,,,,,,,,,,,,,,,,,,,,,,,,,,,,,,,,,,,,,,,,,,,,,,,,,,,,,,
,,,,,781731,1,2024-06-17_10h37.14.200,experiment,2024.1.5,MacIntel,59.52380952,667045947eb812cbdacbf325,667049e74bd4a99a00f3b85f,,,,,,,,,,,,,,,,,,,,,,,,,,,,,,,,,,,,1498.5355,1506.1858,0.0,1.0,1.0,1.0,1.0,SoundStimuli/MyGirl_TheTemptations_Cover5S.wav,,,,,,,,,,,,,,,,,,,,,,,,,,,,,,,,,,,,,,,,,,,,,,,,,,,,,,,,,,
,,,,,781731,1,2024-06-17_10h37.14.200,experiment,2024.1.5,MacIntel,59.52380952,667045947eb812cbdacbf325,667049e74bd4a99a00f3b85f,,,,,,,,,,,,,,,,,,,,,,,,,,,,,,,,,,,,,,,,,,,,1506.186,1512.4691,5.61468099,6.2577,0.0,22.0,22.0,15.0,1.0,song_indices/MyGirl_TheTemptations.csv,,,,,,,,,,,,,,,,,,,,,,,,,,,,,,,,,,,,,,,,,,,,,,,,
,,,,,781731,1,2024-06-17_10h37.14.200,experiment,2024.1.5,MacIntel,59.52380952,667045947eb812cbdacbf325,667049e74bd4a99a00f3b85f,,,,,,,,,,,,,,,,,,,,,,,,,,,,,,,,,,,,,,,,,,,,,,,,,,,,,,1512.4692,1512.4693,,,,0.0,2.0,2.0,0.0,1.0,choose_song_b1.csv,,,,,,,,,,,,,,,,,,,,,,,,,,,,,,,,,,,,,
,,,,,781731,1,2024-06-17_10h37.14.200,experiment,2024.1.5,MacIntel,59.52380952,667045947eb812cbdacbf325,667049e74bd4a99a00f3b85f,,,,,,,,,,,,,,,,,,,,,,,,,,,,,,,,,,,,,,,,,,,,,,,,,,,,,,,,,,,,,,,,,26.0,Item 2,"Around middle school I was in band, i played the trombone and moved over to percussion and did marimba and drums    ",Item 3,apple music ,3.0,5.0,"chores, homework, driving, working out ",Always,Sometimes,Rarely,Sometimes,Rarely,Sometimes,Sometimes,Always,Rarely,Always,Often,Often,Rarely,Unsure,Often,Always,Not sure i think thats all the genres ,hip hop,r&b,latin,not really they are still the same ,"I listen to music almost every day, when new stuff comes out on fridays i listen more on my way to work ",0.0,0.0,0.0,0.0,1.0,,
,,,,,781731,1,2024-06-17_10h37.14.200,experiment,2024.1.5,MacIntel,59.52380952,667045947eb812cbdacbf325,667049e74bd4a99a00f3b85f,,,,,,,,,,,,,,,,,,,,,,,,,,,,,,,,,,,,,,,,,,,,,,,,,,,,,,,,,,,,,,,,,,,,,,,,,,,,,,,,,,,,,,,,,,,,,,,,,,,,1724.0698,1726.1665
