welcome.started,welcome.stopped,space_to_continue.keys,space_to_continue.rt,space_to_continue.duration,participant,session,date,expName,psychopyVersion,OS,frameRate,STUDY_ID,SESSION_ID,consent.consent,consent.consent_recontact,consent_check.started,consent_check.stopped,calibration_ready.started,calibration_ready.stopped,cal_ready.keys,cal_ready.rt,cal_ready.duration,calibration.started,calibration.stopped,mouse.x,mouse.y,mouse.leftButton,mouse.midButton,mouse.rightButton,mouse.time,mouse.clicked_name,move_on.keys,move_on.rt,move_on.duration,instructions.started,instructions.stopped,next.keys,next.rt,next.duration,practice_trial.started,practice_trial.stopped,practice_slider.response,practice_slider.rt,ready.started,ready.stopped,key_resp.keys,key_resp.rt,key_resp.duration,play_sound.started,play_sound.stopped,trials.thisRepN,trials.thisTrialN,trials.thisN,trials.thisIndex,trials.ran,orig_or_cover,rating.started,rating.stopped,slider.response,slider.rt,songs.thisRepN,songs.thisTrialN,songs.thisN,songs.thisIndex,songs.ran,song_id,short_break.started,short_break.stopped,space_to_move_on.keys,space_to_move_on.rt,space_to_move_on.duration,blocks.thisRepN,blocks.thisTrialN,blocks.thisN,blocks.thisIndex,blocks.ran,block,survey.age,survey.musician,survey.music_making,survey.listen_time,survey.medium,survey.music_seeking,survey.music_choice,survey.activities,survey.question1.Hip hop,survey.question1.Country,survey.question1.Latin,survey.question1.Alternative rock,survey.question1.Folk/indie,survey.question1.Classical,survey.question1.A cappella,survey.question1.Ambient,survey.question1.Disco,survey.question1.R&B,survey.question1.Classic rock,survey.question1.Reggae,survey.question1.Metal,survey.question1.Jazz,survey.question1.Electronic (EDM),survey.other_genres,survey.genres_ranked.text1,survey.genres_ranked.text2,survey.genres_ranked.text3,survey.habit_change,survey.habits,experiment.thisRepN,experiment.thisTrialN,experiment.thisN,experiment.thisIndex,experiment.ran,goodbye.started,goodbye.stopped
0.0003,1.8892,space,1.863,,842067,1,2024-06-17_10h34.07.864,experiment,2024.1.5,Win32,59.88023952,667045947eb812cbdacbf325,667056b7a28e2ba14957656f,,,,,,,,,,,,,,,,,,,,,,,,,,,,,,,,,,,,,,,,,,,,,,,,,,,,,,,,,,,,,,,,,,,,,,,,,,,,,,,,,,,,,,,,,,,,,,,,,,,,
,,,,,842067,1,2024-06-17_10h34.07.864,experiment,2024.1.5,Win32,59.88023952,667045947eb812cbdacbf325,667056b7a28e2ba14957656f,yes,no,,,,,,,,,,,,,,,,,,,,,,,,,,,,,,,,,,,,,,,,,,,,,,,,,,,,,,,,,,,,,,,,,,,,,,,,,,,,,,,,,,,,,,,,,,,,,,,,,,
,,,,,842067,1,2024-06-17_10h34.07.864,experiment,2024.1.5,Win32,59.88023952,667045947eb812cbdacbf325,667056b7a28e2ba14957656f,,,32.4118,32.4126,,,,,,,,,,,,,,,,,,,,,,,,,,,,,,,,,,,,,,,,,,,,,,,,,,,,,,,,,,,,,,,,,,,,,,,,,,,,,,,,,,,,,,,,,,,,,,,,
,,,,,842067,1,2024-06-17_10h34.07.864,experiment,2024.1.5,Win32,59.88023952,667045947eb812cbdacbf325,667056b7a28e2ba14957656f,,,,,32.423,36.5586,space,4.07,,36.5591,51.8145,[0.4255555555555556],[-0.035555555555555556],[1],[0],[0],[7.508299999982114],[],right,5.2186,,51.8561,63.4008,space,11.5071,,63.4017,78.099,4.546667074,14.6588,78.0996,80.4954,space,2.3802,,80.5273,87.3612,0.0,0.0,0.0,1.0,1.0,SoundStimuli/BlindingLights_TheWeeknd_Cover5S.wav,,,,,,,,,,,,,,,,,,,,,,,,,,,,,,,,,,,,,,,,,,,,,,,,,,,,,,,,,
,,,,,842067,1,2024-06-17_10h34.07.864,experiment,2024.1.5,Win32,59.88023952,667045947eb812cbdacbf325,667056b7a28e2ba14957656f,,,,,,,,,,,,,,,,,,,,,,,,,,,,,,,,,,,,87.3683,93.9181,0.0,1.0,1.0,0.0,1.0,SoundStimuli/BlindingLights_TheWeeknd_Original5S.wav,,,,,,,,,,,,,,,,,,,,,,,,,,,,,,,,,,,,,,,,,,,,,,,,,,,,,,,,,
,,,,,842067,1,2024-06-17_10h34.07.864,experiment,2024.1.5,Win32,59.88023952,667045947eb812cbdacbf325,667056b7a28e2ba14957656f,,,,,,,,,,,,,,,,,,,,,,,,,,,,,,,,,,,,,,,,,,,,93.9193,97.0282,2.133333333,3.1056,0.0,0.0,0.0,21.0,1.0,song_indices/BlindingLights_TheWeeknd.csv,,,,,,,,,,,,,,,,,,,,,,,,,,,,,,,,,,,,,,,,,,,,,,,
,,,,,842067,1,2024-06-17_10h34.07.864,experiment,2024.1.5,Win32,59.88023952,667045947eb812cbdacbf325,667056b7a28e2ba14957656f,,,,,,,,,,,,,,,,,,,,,,,,,,,,,,,,,,,,97.0314,103.2323,0.0,0.0,0.0,0.0,1.0,SoundStimuli/Dilemma_NellyKellyRowland_Original5S.wav,,,,,,,,,,,,,,,,,,,,,,,,,,,,,,,,,,,,,,,,,,,,,,,,,,,,,,,,,
,,,,,842067,1,2024-06-17_10h34.07.864,experiment,2024.1.5,Win32,59.88023952,667045947eb812cbdacbf325,667056b7a28e2ba14957656f,,,,,,,,,,,,,,,,,,,,,,,,,,,,,,,,,,,,103.2726,110.2552,0.0,1.0,1.0,1.0,1.0,SoundStimuli/Dilemma_NellyKellyRowland_Cover5S.wav,,,,,,,,,,,,,,,,,,,,,,,,,,,,,,,,,,,,,,,,,,,,,,,,,,,,,,,,,
,,,,,842067,1,2024-06-17_10h34.07.864,experiment,2024.1.5,Win32,59.88023952,667045947eb812cbdacbf325,667056b7a28e2ba14957656f,,,,,,,,,,,,,,,,,,,,,,,,,,,,,,,,,,,,,,,,,,,,110.2567,113.011,4.373333333,2.7092,0.0,1.0,1.0,2.0,1.0,song_indices/Dilemma_NellyKellyRowland.csv,,,,,,,,,,,,,,,,,,,,,,,,,,,,,,,,,,,,,,,,,,,,,,,
,,,,,842067,1,2024-06-17_10h34.07.864,experiment,2024.1.5,Win32,59.88023952,667045947eb812cbdacbf325,667056b7a28e2ba14957656f,,,,,,,,,,,,,,,,,,,,,,,,,,,,,,,,,,,,113.0153,119.0755,0.0,0.0,0.0,1.0,1.0,SoundStimuli/Respect_ArethaFranklin_Cover5S.wav,,,,,,,,,,,,,,,,,,,,,,,,,,,,,,,,,,,,,,,,,,,,,,,,,,,,,,,,,
,,,,,842067,1,2024-06-17_10h34.07.864,experiment,2024.1.5,Win32,59.88023952,667045947eb812cbdacbf325,667056b7a28e2ba14957656f,,,,,,,,,,,,,,,,,,,,,,,,,,,,,,,,,,,,119.0947,125.0216,0.0,1.0,1.0,0.0,1.0,SoundStimuli/Respect_ArethaFranklin_Original5S.wav,,,,,,,,,,,,,,,,,,,,,,,,,,,,,,,,,,,,,,,,,,,,,,,,,,,,,,,,,
,,,,,842067,1,2024-06-17_10h34.07.864,experiment,2024.1.5,Win32,59.88023952,667045947eb812cbdacbf325,667056b7a28e2ba14957656f,,,,,,,,,,,,,,,,,,,,,,,,,,,,,,,,,,,,,,,,,,,,125.0218,128.1916,2.846666667,3.1448,0.0,2.0,2.0,0.0,1.0,song_indices/Respect_ArethaFranklin.csv,,,,,,,,,,,,,,,,,,,,,,,,,,,,,,,,,,,,,,,,,,,,,,,
,,,,,842067,1,2024-06-17_10h34.07.864,experiment,2024.1.5,Win32,59.88023952,667045947eb812cbdacbf325,667056b7a28e2ba14957656f,,,,,,,,,,,,,,,,,,,,,,,,,,,,,,,,,,,,128.1939,135.0448,0.0,0.0,0.0,1.0,1.0,SoundStimuli/PokerFace_LadyGaga_Cover5S.wav,,,,,,,,,,,,,,,,,,,,,,,,,,,,,,,,,,,,,,,,,,,,,,,,,,,,,,,,,
,,,,,842067,1,2024-06-17_10h34.07.864,experiment,2024.1.5,Win32,59.88023952,667045947eb812cbdacbf325,667056b7a28e2ba14957656f,,,,,,,,,,,,,,,,,,,,,,,,,,,,,,,,,,,,135.095,142.1183,0.0,1.0,1.0,0.0,1.0,SoundStimuli/PokerFace_LadyGaga_Original5S.wav,,,,,,,,,,,,,,,,,,,,,,,,,,,,,,,,,,,,,,,,,,,,,,,,,,,,,,,,,
,,,,,842067,1,2024-06-17_10h34.07.864,experiment,2024.1.5,Win32,59.88023952,667045947eb812cbdacbf325,667056b7a28e2ba14957656f,,,,,,,,,,,,,,,,,,,,,,,,,,,,,,,,,,,,,,,,,,,,142.1188,148.1445,4.756666667,5.9938,0.0,3.0,3.0,23.0,1.0,song_indices/PokerFace_LadyGaga.csv,,,,,,,,,,,,,,,,,,,,,,,,,,,,,,,,,,,,,,,,,,,,,,,
,,,,,842067,1,2024-06-17_10h34.07.864,experiment,2024.1.5,Win32,59.88023952,667045947eb812cbdacbf325,667056b7a28e2ba14957656f,,,,,,,,,,,,,,,,,,,,,,,,,,,,,,,,,,,,148.1457,155.4096,0.0,0.0,0.0,0.0,1.0,SoundStimuli/SomebodyThatIUsedtoKnow_Gotye_Original5S.wav,,,,,,,,,,,,,,,,,,,,,,,,,,,,,,,,,,,,,,,,,,,,,,,,,,,,,,,,,
,,,,,842067,1,2024-06-17_10h34.07.864,experiment,2024.1.5,Win32,59.88023952,667045947eb812cbdacbf325,667056b7a28e2ba14957656f,,,,,,,,,,,,,,,,,,,,,,,,,,,,,,,,,,,,155.4546,162.2765,0.0,1.0,1.0,1.0,1.0,SoundStimuli/SomebodyThatIUsedtoKnow_Gotye_Cover5S.wav,,,,,,,,,,,,,,,,,,,,,,,,,,,,,,,,,,,,,,,,,,,,,,,,,,,,,,,,,
,,,,,842067,1,2024-06-17_10h34.07.864,experiment,2024.1.5,Win32,59.88023952,667045947eb812cbdacbf325,667056b7a28e2ba14957656f,,,,,,,,,,,,,,,,,,,,,,,,,,,,,,,,,,,,,,,,,,,,162.2772,163.1857,5.79,0.8696,0.0,4.0,4.0,7.0,1.0,song_indices/SomebodyThatIUsedtoKnow_Gotye.csv,,,,,,,,,,,,,,,,,,,,,,,,,,,,,,,,,,,,,,,,,,,,,,,
,,,,,842067,1,2024-06-17_10h34.07.864,experiment,2024.1.5,Win32,59.88023952,667045947eb812cbdacbf325,667056b7a28e2ba14957656f,,,,,,,,,,,,,,,,,,,,,,,,,,,,,,,,,,,,163.1886,169.6248,0.0,0.0,0.0,0.0,1.0,SoundStimuli/FlashdanceWhatAFeeling_IreneCara_Original5S.wav,,,,,,,,,,,,,,,,,,,,,,,,,,,,,,,,,,,,,,,,,,,,,,,,,,,,,,,,,
,,,,,842067,1,2024-06-17_10h34.07.864,experiment,2024.1.5,Win32,59.88023952,667045947eb812cbdacbf325,667056b7a28e2ba14957656f,,,,,,,,,,,,,,,,,,,,,,,,,,,,,,,,,,,,169.643,176.9902,0.0,1.0,1.0,1.0,1.0,SoundStimuli/FlashdanceWhatAFeeling_IreneCara_Cover5S.wav,,,,,,,,,,,,,,,,,,,,,,,,,,,,,,,,,,,,,,,,,,,,,,,,,,,,,,,,,
,,,,,842067,1,2024-06-17_10h34.07.864,experiment,2024.1.5,Win32,59.88023952,667045947eb812cbdacbf325,667056b7a28e2ba14957656f,,,,,,,,,,,,,,,,,,,,,,,,,,,,,,,,,,,,,,,,,,,,176.9925,177.8405,6.856666667,0.8097,0.0,5.0,5.0,18.0,1.0,song_indices/FlashdanceWhatAFeeling_IreneCara.csv,,,,,,,,,,,,,,,,,,,,,,,,,,,,,,,,,,,,,,,,,,,,,,,
,,,,,842067,1,2024-06-17_10h34.07.864,experiment,2024.1.5,Win32,59.88023952,667045947eb812cbdacbf325,667056b7a28e2ba14957656f,,,,,,,,,,,,,,,,,,,,,,,,,,,,,,,,,,,,177.8421,184.0106,0.0,0.0,0.0,0.0,1.0,SoundStimuli/TheSign_AceOfBase_Original5S.wav,,,,,,,,,,,,,,,,,,,,,,,,,,,,,,,,,,,,,,,,,,,,,,,,,,,,,,,,,
,,,,,842067,1,2024-06-17_10h34.07.864,experiment,2024.1.5,Win32,59.88023952,667045947eb812cbdacbf325,667056b7a28e2ba14957656f,,,,,,,,,,,,,,,,,,,,,,,,,,,,,,,,,,,,184.0299,190.0375,0.0,1.0,1.0,1.0,1.0,SoundStimuli/TheSign_AceOfBase_Cover5S.wav,,,,,,,,,,,,,,,,,,,,,,,,,,,,,,,,,,,,,,,,,,,,,,,,,,,,,,,,,
,,,,,842067,1,2024-06-17_10h34.07.864,experiment,2024.1.5,Win32,59.88023952,667045947eb812cbdacbf325,667056b7a28e2ba14957656f,,,,,,,,,,,,,,,,,,,,,,,,,,,,,,,,,,,,,,,,,,,,190.0383,195.8659,4.966666667,5.7995,0.0,6.0,6.0,5.0,1.0,song_indices/TheSign_AceOfBase.csv,,,,,,,,,,,,,,,,,,,,,,,,,,,,,,,,,,,,,,,,,,,,,,,
,,,,,842067,1,2024-06-17_10h34.07.864,experiment,2024.1.5,Win32,59.88023952,667045947eb812cbdacbf325,667056b7a28e2ba14957656f,,,,,,,,,,,,,,,,,,,,,,,,,,,,,,,,,,,,195.8674,202.9724,0.0,0.0,0.0,1.0,1.0,SoundStimuli/BlurredLines_RobinThicke_Cover5S.wav,,,,,,,,,,,,,,,,,,,,,,,,,,,,,,,,,,,,,,,,,,,,,,,,,,,,,,,,,
,,,,,842067,1,2024-06-17_10h34.07.864,experiment,2024.1.5,Win32,59.88023952,667045947eb812cbdacbf325,667056b7a28e2ba14957656f,,,,,,,,,,,,,,,,,,,,,,,,,,,,,,,,,,,,203.0136,209.7923,0.0,1.0,1.0,0.0,1.0,SoundStimuli/BlurredLines_RobinThicke_Original5S.wav,,,,,,,,,,,,,,,,,,,,,,,,,,,,,,,,,,,,,,,,,,,,,,,,,,,,,,,,,
,,,,,842067,1,2024-06-17_10h34.07.864,experiment,2024.1.5,Win32,59.88023952,667045947eb812cbdacbf325,667056b7a28e2ba14957656f,,,,,,,,,,,,,,,,,,,,,,,,,,,,,,,,,,,,,,,,,,,,209.7934,212.0102,6.1,2.1778,0.0,7.0,7.0,9.0,1.0,song_indices/BlurredLines_RobinThicke.csv,,,,,,,,,,,,,,,,,,,,,,,,,,,,,,,,,,,,,,,,,,,,,,,
,,,,,842067,1,2024-06-17_10h34.07.864,experiment,2024.1.5,Win32,59.88023952,667045947eb812cbdacbf325,667056b7a28e2ba14957656f,,,,,,,,,,,,,,,,,,,,,,,,,,,,,,,,,,,,212.012,218.1311,0.0,0.0,0.0,1.0,1.0,SoundStimuli/TossinAndTurnin_BobbyLewis_Cover5S.wav,,,,,,,,,,,,,,,,,,,,,,,,,,,,,,,,,,,,,,,,,,,,,,,,,,,,,,,,,
,,,,,842067,1,2024-06-17_10h34.07.864,experiment,2024.1.5,Win32,59.88023952,667045947eb812cbdacbf325,667056b7a28e2ba14957656f,,,,,,,,,,,,,,,,,,,,,,,,,,,,,,,,,,,,218.1685,224.2476,0.0,1.0,1.0,0.0,1.0,SoundStimuli/TossinAndTurnin_BobbyLewis_Original5S.wav,,,,,,,,,,,,,,,,,,,,,,,,,,,,,,,,,,,,,,,,,,,,,,,,,,,,,,,,,
,,,,,842067,1,2024-06-17_10h34.07.864,experiment,2024.1.5,Win32,59.88023952,667045947eb812cbdacbf325,667056b7a28e2ba14957656f,,,,,,,,,,,,,,,,,,,,,,,,,,,,,,,,,,,,,,,,,,,,224.2481,225.116,1.913333333,0.8162,0.0,8.0,8.0,13.0,1.0,song_indices/TossinAndTurnin_BobbyLewis.csv,,,,,,,,,,,,,,,,,,,,,,,,,,,,,,,,,,,,,,,,,,,,,,,
,,,,,842067,1,2024-06-17_10h34.07.864,experiment,2024.1.5,Win32,59.88023952,667045947eb812cbdacbf325,667056b7a28e2ba14957656f,,,,,,,,,,,,,,,,,,,,,,,,,,,,,,,,,,,,225.1229,232.5624,0.0,0.0,0.0,0.0,1.0,SoundStimuli/Kiss_Prince_Original5S.wav,,,,,,,,,,,,,,,,,,,,,,,,,,,,,,,,,,,,,,,,,,,,,,,,,,,,,,,,,
,,,,,842067,1,2024-06-17_10h34.07.864,experiment,2024.1.5,Win32,59.88023952,667045947eb812cbdacbf325,667056b7a28e2ba14957656f,,,,,,,,,,,,,,,,,,,,,,,,,,,,,,,,,,,,232.5935,238.8803,0.0,1.0,1.0,1.0,1.0,SoundStimuli/Kiss_Prince_Cover5S.wav,,,,,,,,,,,,,,,,,,,,,,,,,,,,,,,,,,,,,,,,,,,,,,,,,,,,,,,,,
,,,,,842067,1,2024-06-17_10h34.07.864,experiment,2024.1.5,Win32,59.88023952,667045947eb812cbdacbf325,667056b7a28e2ba14957656f,,,,,,,,,,,,,,,,,,,,,,,,,,,,,,,,,,,,,,,,,,,,238.8811,240.8508,3.3,1.9327,0.0,9.0,9.0,14.0,1.0,song_indices/Kiss_Prince.csv,,,,,,,,,,,,,,,,,,,,,,,,,,,,,,,,,,,,,,,,,,,,,,,
,,,,,842067,1,2024-06-17_10h34.07.864,experiment,2024.1.5,Win32,59.88023952,667045947eb812cbdacbf325,667056b7a28e2ba14957656f,,,,,,,,,,,,,,,,,,,,,,,,,,,,,,,,,,,,240.8581,246.8073,0.0,0.0,0.0,0.0,1.0,SoundStimuli/Irreplaceable_Beyonce_Original5S.wav,,,,,,,,,,,,,,,,,,,,,,,,,,,,,,,,,,,,,,,,,,,,,,,,,,,,,,,,,
,,,,,842067,1,2024-06-17_10h34.07.864,experiment,2024.1.5,Win32,59.88023952,667045947eb812cbdacbf325,667056b7a28e2ba14957656f,,,,,,,,,,,,,,,,,,,,,,,,,,,,,,,,,,,,246.8611,252.7783,0.0,1.0,1.0,1.0,1.0,SoundStimuli/Irreplaceable_Beyonce_Cover5S.wav,,,,,,,,,,,,,,,,,,,,,,,,,,,,,,,,,,,,,,,,,,,,,,,,,,,,,,,,,
,,,,,842067,1,2024-06-17_10h34.07.864,experiment,2024.1.5,Win32,59.88023952,667045947eb812cbdacbf325,667056b7a28e2ba14957656f,,,,,,,,,,,,,,,,,,,,,,,,,,,,,,,,,,,,,,,,,,,,252.7799,256.0283,5.526666667,3.2127,0.0,10.0,10.0,19.0,1.0,song_indices/Irreplaceable_Beyonce.csv,,,,,,,,,,,,,,,,,,,,,,,,,,,,,,,,,,,,,,,,,,,,,,,
,,,,,842067,1,2024-06-17_10h34.07.864,experiment,2024.1.5,Win32,59.88023952,667045947eb812cbdacbf325,667056b7a28e2ba14957656f,,,,,,,,,,,,,,,,,,,,,,,,,,,,,,,,,,,,256.0324,263.8879,0.0,0.0,0.0,1.0,1.0,SoundStimuli/Dreams_FleetwoodMac_Cover5S.wav,,,,,,,,,,,,,,,,,,,,,,,,,,,,,,,,,,,,,,,,,,,,,,,,,,,,,,,,,
,,,,,842067,1,2024-06-17_10h34.07.864,experiment,2024.1.5,Win32,59.88023952,667045947eb812cbdacbf325,667056b7a28e2ba14957656f,,,,,,,,,,,,,,,,,,,,,,,,,,,,,,,,,,,,263.9218,270.424,0.0,1.0,1.0,0.0,1.0,SoundStimuli/Dreams_FleetwoodMac_Original5S.wav,,,,,,,,,,,,,,,,,,,,,,,,,,,,,,,,,,,,,,,,,,,,,,,,,,,,,,,,,
,,,,,842067,1,2024-06-17_10h34.07.864,experiment,2024.1.5,Win32,59.88023952,667045947eb812cbdacbf325,667056b7a28e2ba14957656f,,,,,,,,,,,,,,,,,,,,,,,,,,,,,,,,,,,,,,,,,,,,270.4245,274.0633,5.01,3.6037,0.0,11.0,11.0,1.0,1.0,song_indices/Dreams_FleetwoodMac.csv,,,,,,,,,,,,,,,,,,,,,,,,,,,,,,,,,,,,,,,,,,,,,,,
,,,,,842067,1,2024-06-17_10h34.07.864,experiment,2024.1.5,Win32,59.88023952,667045947eb812cbdacbf325,667056b7a28e2ba14957656f,,,,,,,,,,,,,,,,,,,,,,,,,,,,,,,,,,,,274.0653,280.5274,0.0,0.0,0.0,1.0,1.0,SoundStimuli/YouLightUpMyLife_DebbyBoone_Cover5S.wav,,,,,,,,,,,,,,,,,,,,,,,,,,,,,,,,,,,,,,,,,,,,,,,,,,,,,,,,,
,,,,,842067,1,2024-06-17_10h34.07.864,experiment,2024.1.5,Win32,59.88023952,667045947eb812cbdacbf325,667056b7a28e2ba14957656f,,,,,,,,,,,,,,,,,,,,,,,,,,,,,,,,,,,,280.5596,286.647,0.0,1.0,1.0,0.0,1.0,SoundStimuli/YouLightUpMyLife_DebbyBoone_Original5S.wav,,,,,,,,,,,,,,,,,,,,,,,,,,,,,,,,,,,,,,,,,,,,,,,,,,,,,,,,,
,,,,,842067,1,2024-06-17_10h34.07.864,experiment,2024.1.5,Win32,59.88023952,667045947eb812cbdacbf325,667056b7a28e2ba14957656f,,,,,,,,,,,,,,,,,,,,,,,,,,,,,,,,,,,,,,,,,,,,286.6476,291.9875,5.626666667,5.3079,0.0,12.0,12.0,4.0,1.0,song_indices/YouLightUpMyLife_DebbyBoone.csv,,,,,,,,,,,,,,,,,,,,,,,,,,,,,,,,,,,,,,,,,,,,,,,
,,,,,842067,1,2024-06-17_10h34.07.864,experiment,2024.1.5,Win32,59.88023952,667045947eb812cbdacbf325,667056b7a28e2ba14957656f,,,,,,,,,,,,,,,,,,,,,,,,,,,,,,,,,,,,291.989,298.2236,0.0,0.0,0.0,0.0,1.0,SoundStimuli/TikTok_Kesha_Original5S.wav,,,,,,,,,,,,,,,,,,,,,,,,,,,,,,,,,,,,,,,,,,,,,,,,,,,,,,,,,
,,,,,842067,1,2024-06-17_10h34.07.864,experiment,2024.1.5,Win32,59.88023952,667045947eb812cbdacbf325,667056b7a28e2ba14957656f,,,,,,,,,,,,,,,,,,,,,,,,,,,,,,,,,,,,298.2625,305.8055,0.0,1.0,1.0,1.0,1.0,SoundStimuli/TikTok_Kesha_Cover5S.wav,,,,,,,,,,,,,,,,,,,,,,,,,,,,,,,,,,,,,,,,,,,,,,,,,,,,,,,,,
,,,,,842067,1,2024-06-17_10h34.07.864,experiment,2024.1.5,Win32,59.88023952,667045947eb812cbdacbf325,667056b7a28e2ba14957656f,,,,,,,,,,,,,,,,,,,,,,,,,,,,,,,,,,,,,,,,,,,,305.8058,311.064,5.536666667,5.2212,0.0,13.0,13.0,3.0,1.0,song_indices/TikTok_Kesha.csv,,,,,,,,,,,,,,,,,,,,,,,,,,,,,,,,,,,,,,,,,,,,,,,
,,,,,842067,1,2024-06-17_10h34.07.864,experiment,2024.1.5,Win32,59.88023952,667045947eb812cbdacbf325,667056b7a28e2ba14957656f,,,,,,,,,,,,,,,,,,,,,,,,,,,,,,,,,,,,311.0679,316.7833,0.0,0.0,0.0,1.0,1.0,SoundStimuli/Levitating_DuaLipa_Cover5S.wav,,,,,,,,,,,,,,,,,,,,,,,,,,,,,,,,,,,,,,,,,,,,,,,,,,,,,,,,,
,,,,,842067,1,2024-06-17_10h34.07.864,experiment,2024.1.5,Win32,59.88023952,667045947eb812cbdacbf325,667056b7a28e2ba14957656f,,,,,,,,,,,,,,,,,,,,,,,,,,,,,,,,,,,,316.8227,322.8192,0.0,1.0,1.0,0.0,1.0,SoundStimuli/Levitating_DuaLipa_Original5S.wav,,,,,,,,,,,,,,,,,,,,,,,,,,,,,,,,,,,,,,,,,,,,,,,,,,,,,,,,,
,,,,,842067,1,2024-06-17_10h34.07.864,experiment,2024.1.5,Win32,59.88023952,667045947eb812cbdacbf325,667056b7a28e2ba14957656f,,,,,,,,,,,,,,,,,,,,,,,,,,,,,,,,,,,,,,,,,,,,322.8194,326.1855,5.63,3.3349,0.0,14.0,14.0,10.0,1.0,song_indices/Levitating_DuaLipa.csv,,,,,,,,,,,,,,,,,,,,,,,,,,,,,,,,,,,,,,,,,,,,,,,
,,,,,842067,1,2024-06-17_10h34.07.864,experiment,2024.1.5,Win32,59.88023952,667045947eb812cbdacbf325,667056b7a28e2ba14957656f,,,,,,,,,,,,,,,,,,,,,,,,,,,,,,,,,,,,326.1869,332.2177,0.0,0.0,0.0,0.0,1.0,SoundStimuli/HowDoILive_LeAnnRimes_Original5S.wav,,,,,,,,,,,,,,,,,,,,,,,,,,,,,,,,,,,,,,,,,,,,,,,,,,,,,,,,,
,,,,,842067,1,2024-06-17_10h34.07.864,experiment,2024.1.5,Win32,59.88023952,667045947eb812cbdacbf325,667056b7a28e2ba14957656f,,,,,,,,,,,,,,,,,,,,,,,,,,,,,,,,,,,,332.2395,337.791,0.0,1.0,1.0,1.0,1.0,SoundStimuli/HowDoILive_LeAnnRimes_Cover5S.wav,,,,,,,,,,,,,,,,,,,,,,,,,,,,,,,,,,,,,,,,,,,,,,,,,,,,,,,,,
,,,,,842067,1,2024-06-17_10h34.07.864,experiment,2024.1.5,Win32,59.88023952,667045947eb812cbdacbf325,667056b7a28e2ba14957656f,,,,,,,,,,,,,,,,,,,,,,,,,,,,,,,,,,,,,,,,,,,,337.7921,340.5807,6.036666667,2.7466,0.0,15.0,15.0,17.0,1.0,song_indices/HowDoILive_LeAnnRimes.csv,,,,,,,,,,,,,,,,,,,,,,,,,,,,,,,,,,,,,,,,,,,,,,,
,,,,,842067,1,2024-06-17_10h34.07.864,experiment,2024.1.5,Win32,59.88023952,667045947eb812cbdacbf325,667056b7a28e2ba14957656f,,,,,,,,,,,,,,,,,,,,,,,,,,,,,,,,,,,,340.5842,347.0569,0.0,0.0,0.0,1.0,1.0,SoundStimuli/Weak_SWV_Cover5S.wav,,,,,,,,,,,,,,,,,,,,,,,,,,,,,,,,,,,,,,,,,,,,,,,,,,,,,,,,,
,,,,,842067,1,2024-06-17_10h34.07.864,experiment,2024.1.5,Win32,59.88023952,667045947eb812cbdacbf325,667056b7a28e2ba14957656f,,,,,,,,,,,,,,,,,,,,,,,,,,,,,,,,,,,,347.084,353.1752,0.0,1.0,1.0,0.0,1.0,SoundStimuli/Weak_SWV_Original5S.wav,,,,,,,,,,,,,,,,,,,,,,,,,,,,,,,,,,,,,,,,,,,,,,,,,,,,,,,,,
,,,,,842067,1,2024-06-17_10h34.07.864,experiment,2024.1.5,Win32,59.88023952,667045947eb812cbdacbf325,667056b7a28e2ba14957656f,,,,,,,,,,,,,,,,,,,,,,,,,,,,,,,,,,,,,,,,,,,,353.1758,359.7199,2.713333333,6.5019,0.0,16.0,16.0,6.0,1.0,song_indices/Weak_SWV.csv,,,,,,,,,,,,,,,,,,,,,,,,,,,,,,,,,,,,,,,,,,,,,,,
,,,,,842067,1,2024-06-17_10h34.07.864,experiment,2024.1.5,Win32,59.88023952,667045947eb812cbdacbf325,667056b7a28e2ba14957656f,,,,,,,,,,,,,,,,,,,,,,,,,,,,,,,,,,,,359.7269,365.9917,0.0,0.0,0.0,0.0,1.0,SoundStimuli/Superstition_StevieWonder_Original5S.wav,,,,,,,,,,,,,,,,,,,,,,,,,,,,,,,,,,,,,,,,,,,,,,,,,,,,,,,,,
,,,,,842067,1,2024-06-17_10h34.07.864,experiment,2024.1.5,Win32,59.88023952,667045947eb812cbdacbf325,667056b7a28e2ba14957656f,,,,,,,,,,,,,,,,,,,,,,,,,,,,,,,,,,,,366.0302,371.3882,0.0,1.0,1.0,1.0,1.0,SoundStimuli/Superstition_StevieWonder_Cover5S.wav,,,,,,,,,,,,,,,,,,,,,,,,,,,,,,,,,,,,,,,,,,,,,,,,,,,,,,,,,
,,,,,842067,1,2024-06-17_10h34.07.864,experiment,2024.1.5,Win32,59.88023952,667045947eb812cbdacbf325,667056b7a28e2ba14957656f,,,,,,,,,,,,,,,,,,,,,,,,,,,,,,,,,,,,,,,,,,,,371.3894,374.7193,3.176666667,3.282,0.0,17.0,17.0,15.0,1.0,song_indices/Superstition_StevieWonder.csv,,,,,,,,,,,,,,,,,,,,,,,,,,,,,,,,,,,,,,,,,,,,,,,
,,,,,842067,1,2024-06-17_10h34.07.864,experiment,2024.1.5,Win32,59.88023952,667045947eb812cbdacbf325,667056b7a28e2ba14957656f,,,,,,,,,,,,,,,,,,,,,,,,,,,,,,,,,,,,374.7207,380.9257,0.0,0.0,0.0,0.0,1.0,SoundStimuli/SaveYourTears_TheWeekndArianaGrande_Original5S.wav,,,,,,,,,,,,,,,,,,,,,,,,,,,,,,,,,,,,,,,,,,,,,,,,,,,,,,,,,
,,,,,842067,1,2024-06-17_10h34.07.864,experiment,2024.1.5,Win32,59.88023952,667045947eb812cbdacbf325,667056b7a28e2ba14957656f,,,,,,,,,,,,,,,,,,,,,,,,,,,,,,,,,,,,380.9716,386.8687,0.0,1.0,1.0,1.0,1.0,SoundStimuli/SaveYourTears_TheWeekndArianaGrande_Cover5S.wav,,,,,,,,,,,,,,,,,,,,,,,,,,,,,,,,,,,,,,,,,,,,,,,,,,,,,,,,,
,,,,,842067,1,2024-06-17_10h34.07.864,experiment,2024.1.5,Win32,59.88023952,667045947eb812cbdacbf325,667056b7a28e2ba14957656f,,,,,,,,,,,,,,,,,,,,,,,,,,,,,,,,,,,,,,,,,,,,386.869,387.722,4.516666667,0.8203,0.0,18.0,18.0,12.0,1.0,song_indices/SaveYourTears_TheWeekndArianaGrande.csv,,,,,,,,,,,,,,,,,,,,,,,,,,,,,,,,,,,,,,,,,,,,,,,
,,,,,842067,1,2024-06-17_10h34.07.864,experiment,2024.1.5,Win32,59.88023952,667045947eb812cbdacbf325,667056b7a28e2ba14957656f,,,,,,,,,,,,,,,,,,,,,,,,,,,,,,,,,,,,387.7266,393.7644,0.0,0.0,0.0,0.0,1.0,SoundStimuli/LeFreak_Chic_Original5S.wav,,,,,,,,,,,,,,,,,,,,,,,,,,,,,,,,,,,,,,,,,,,,,,,,,,,,,,,,,
,,,,,842067,1,2024-06-17_10h34.07.864,experiment,2024.1.5,Win32,59.88023952,667045947eb812cbdacbf325,667056b7a28e2ba14957656f,,,,,,,,,,,,,,,,,,,,,,,,,,,,,,,,,,,,393.7946,399.3144,0.0,1.0,1.0,1.0,1.0,SoundStimuli/LeFreak_Chic_Cover5S.wav,,,,,,,,,,,,,,,,,,,,,,,,,,,,,,,,,,,,,,,,,,,,,,,,,,,,,,,,,
,,,,,842067,1,2024-06-17_10h34.07.864,experiment,2024.1.5,Win32,59.88023952,667045947eb812cbdacbf325,667056b7a28e2ba14957656f,,,,,,,,,,,,,,,,,,,,,,,,,,,,,,,,,,,,,,,,,,,,399.3148,400.651,5.86,1.3003,0.0,19.0,19.0,11.0,1.0,song_indices/LeFreak_Chic.csv,,,,,,,,,,,,,,,,,,,,,,,,,,,,,,,,,,,,,,,,,,,,,,,
,,,,,842067,1,2024-06-17_10h34.07.864,experiment,2024.1.5,Win32,59.88023952,667045947eb812cbdacbf325,667056b7a28e2ba14957656f,,,,,,,,,,,,,,,,,,,,,,,,,,,,,,,,,,,,400.6543,405.7831,0.0,0.0,0.0,1.0,1.0,SoundStimuli/JoyToTheWorld_ThreeDogNight_Cover5S.wav,,,,,,,,,,,,,,,,,,,,,,,,,,,,,,,,,,,,,,,,,,,,,,,,,,,,,,,,,
,,,,,842067,1,2024-06-17_10h34.07.864,experiment,2024.1.5,Win32,59.88023952,667045947eb812cbdacbf325,667056b7a28e2ba14957656f,,,,,,,,,,,,,,,,,,,,,,,,,,,,,,,,,,,,405.8221,411.95,0.0,1.0,1.0,0.0,1.0,SoundStimuli/JoyToTheWorld_ThreeDogNight_Original5S.wav,,,,,,,,,,,,,,,,,,,,,,,,,,,,,,,,,,,,,,,,,,,,,,,,,,,,,,,,,
,,,,,842067,1,2024-06-17_10h34.07.864,experiment,2024.1.5,Win32,59.88023952,667045947eb812cbdacbf325,667056b7a28e2ba14957656f,,,,,,,,,,,,,,,,,,,,,,,,,,,,,,,,,,,,,,,,,,,,411.9505,414.3967,6.24,2.4182,0.0,20.0,20.0,8.0,1.0,song_indices/JoyToTheWorld_ThreeDogNight.csv,,,,,,,,,,,,,,,,,,,,,,,,,,,,,,,,,,,,,,,,,,,,,,,
,,,,,842067,1,2024-06-17_10h34.07.864,experiment,2024.1.5,Win32,59.88023952,667045947eb812cbdacbf325,667056b7a28e2ba14957656f,,,,,,,,,,,,,,,,,,,,,,,,,,,,,,,,,,,,414.3983,420.5459,0.0,0.0,0.0,0.0,1.0,SoundStimuli/ComeAndGetYourLove_Redbone_Original5S.wav,,,,,,,,,,,,,,,,,,,,,,,,,,,,,,,,,,,,,,,,,,,,,,,,,,,,,,,,,
,,,,,842067,1,2024-06-17_10h34.07.864,experiment,2024.1.5,Win32,59.88023952,667045947eb812cbdacbf325,667056b7a28e2ba14957656f,,,,,,,,,,,,,,,,,,,,,,,,,,,,,,,,,,,,420.6008,427.6628,0.0,1.0,1.0,1.0,1.0,SoundStimuli/ComeAndGetYourLove_Redbone_Cover5S.wav,,,,,,,,,,,,,,,,,,,,,,,,,,,,,,,,,,,,,,,,,,,,,,,,,,,,,,,,,
,,,,,842067,1,2024-06-17_10h34.07.864,experiment,2024.1.5,Win32,59.88023952,667045947eb812cbdacbf325,667056b7a28e2ba14957656f,,,,,,,,,,,,,,,,,,,,,,,,,,,,,,,,,,,,,,,,,,,,427.6636,429.6871,5.153333333,1.9837,0.0,21.0,21.0,22.0,1.0,song_indices/ComeAndGetYourLove_Redbone.csv,,,,,,,,,,,,,,,,,,,,,,,,,,,,,,,,,,,,,,,,,,,,,,,
,,,,,842067,1,2024-06-17_10h34.07.864,experiment,2024.1.5,Win32,59.88023952,667045947eb812cbdacbf325,667056b7a28e2ba14957656f,,,,,,,,,,,,,,,,,,,,,,,,,,,,,,,,,,,,429.6899,436.0446,0.0,0.0,0.0,0.0,1.0,SoundStimuli/LetsGetItOn_MarvinGaye_Original5S.wav,,,,,,,,,,,,,,,,,,,,,,,,,,,,,,,,,,,,,,,,,,,,,,,,,,,,,,,,,
,,,,,842067,1,2024-06-17_10h34.07.864,experiment,2024.1.5,Win32,59.88023952,667045947eb812cbdacbf325,667056b7a28e2ba14957656f,,,,,,,,,,,,,,,,,,,,,,,,,,,,,,,,,,,,436.0647,442.8076,0.0,1.0,1.0,1.0,1.0,SoundStimuli/LetsGetItOn_MarvinGaye_Cover5S.wav,,,,,,,,,,,,,,,,,,,,,,,,,,,,,,,,,,,,,,,,,,,,,,,,,,,,,,,,,
,,,,,842067,1,2024-06-17_10h34.07.864,experiment,2024.1.5,Win32,59.88023952,667045947eb812cbdacbf325,667056b7a28e2ba14957656f,,,,,,,,,,,,,,,,,,,,,,,,,,,,,,,,,,,,,,,,,,,,442.8111,447.3175,4.373333333,4.4549,0.0,22.0,22.0,20.0,1.0,song_indices/LetsGetItOn_MarvinGaye.csv,,,,,,,,,,,,,,,,,,,,,,,,,,,,,,,,,,,,,,,,,,,,,,,
,,,,,842067,1,2024-06-17_10h34.07.864,experiment,2024.1.5,Win32,59.88023952,667045947eb812cbdacbf325,667056b7a28e2ba14957656f,,,,,,,,,,,,,,,,,,,,,,,,,,,,,,,,,,,,447.3197,453.4517,0.0,0.0,0.0,0.0,1.0,SoundStimuli/UnbreakMyHeart_ToniBraxton_Original5S.wav,,,,,,,,,,,,,,,,,,,,,,,,,,,,,,,,,,,,,,,,,,,,,,,,,,,,,,,,,
,,,,,842067,1,2024-06-17_10h34.07.864,experiment,2024.1.5,Win32,59.88023952,667045947eb812cbdacbf325,667056b7a28e2ba14957656f,,,,,,,,,,,,,,,,,,,,,,,,,,,,,,,,,,,,453.4883,457.5262,0.0,1.0,1.0,1.0,1.0,SoundStimuli/UnbreakMyHeart_ToniBraxton_Cover5S.wav,,,,,,,,,,,,,,,,,,,,,,,,,,,,,,,,,,,,,,,,,,,,,,,,,,,,,,,,,
,,,,,842067,1,2024-06-17_10h34.07.864,experiment,2024.1.5,Win32,59.88023952,667045947eb812cbdacbf325,667056b7a28e2ba14957656f,,,,,,,,,,,,,,,,,,,,,,,,,,,,,,,,,,,,,,,,,,,,457.5272,461.4616,5.56,3.9099,0.0,23.0,23.0,16.0,1.0,song_indices/UnbreakMyHeart_ToniBraxton.csv,,,,,,,,,,,,,,,,,,,,,,,,,,,,,,,,,,,,,,,,,,,,,,,
,,,,,842067,1,2024-06-17_10h34.07.864,experiment,2024.1.5,Win32,59.88023952,667045947eb812cbdacbf325,667056b7a28e2ba14957656f,,,,,,,,,,,,,,,,,,,,,,,,,,,,,,,,,,,,,,,,,,,,,,,,,,,,,,461.464,508.3999,space,46.9025,,0.0,0.0,0.0,2.0,1.0,choose_song_b3.csv,,,,,,,,,,,,,,,,,,,,,,,,,,,,,,,,,,,,
,,,,,842067,1,2024-06-17_10h34.07.864,experiment,2024.1.5,Win32,59.88023952,667045947eb812cbdacbf325,667056b7a28e2ba14957656f,,,,,,,,,,,,,,,,,,,,,,,,,,,,,,,,,,,,508.4405,515.805,0.0,0.0,0.0,1.0,1.0,SoundStimuli/Happy_PharellWilliams_Cover5S.wav,,,,,,,,,,,,,,,,,,,,,,,,,,,,,,,,,,,,,,,,,,,,,,,,,,,,,,,,,
,,,,,842067,1,2024-06-17_10h34.07.864,experiment,2024.1.5,Win32,59.88023952,667045947eb812cbdacbf325,667056b7a28e2ba14957656f,,,,,,,,,,,,,,,,,,,,,,,,,,,,,,,,,,,,515.8415,523.2246,0.0,1.0,1.0,0.0,1.0,SoundStimuli/Happy_PharellWilliams_Original5S.wav,,,,,,,,,,,,,,,,,,,,,,,,,,,,,,,,,,,,,,,,,,,,,,,,,,,,,,,,,
,,,,,842067,1,2024-06-17_10h34.07.864,experiment,2024.1.5,Win32,59.88023952,667045947eb812cbdacbf325,667056b7a28e2ba14957656f,,,,,,,,,,,,,,,,,,,,,,,,,,,,,,,,,,,,,,,,,,,,523.2253,523.9928,6.763333333,0.7278,0.0,0.0,0.0,7.0,1.0,song_indices/Happy_PharellWilliams.csv,,,,,,,,,,,,,,,,,,,,,,,,,,,,,,,,,,,,,,,,,,,,,,,
,,,,,842067,1,2024-06-17_10h34.07.864,experiment,2024.1.5,Win32,59.88023952,667045947eb812cbdacbf325,667056b7a28e2ba14957656f,,,,,,,,,,,,,,,,,,,,,,,,,,,,,,,,,,,,523.9949,530.0365,0.0,0.0,0.0,1.0,1.0,SoundStimuli/StandByMe_BenEKing_Cover5S.wav,,,,,,,,,,,,,,,,,,,,,,,,,,,,,,,,,,,,,,,,,,,,,,,,,,,,,,,,,
,,,,,842067,1,2024-06-17_10h34.07.864,experiment,2024.1.5,Win32,59.88023952,667045947eb812cbdacbf325,667056b7a28e2ba14957656f,,,,,,,,,,,,,,,,,,,,,,,,,,,,,,,,,,,,530.0776,536.0052,0.0,1.0,1.0,0.0,1.0,SoundStimuli/StandByMe_BenEKing_Original5S.wav,,,,,,,,,,,,,,,,,,,,,,,,,,,,,,,,,,,,,,,,,,,,,,,,,,,,,,,,,
,,,,,842067,1,2024-06-17_10h34.07.864,experiment,2024.1.5,Win32,59.88023952,667045947eb812cbdacbf325,667056b7a28e2ba14957656f,,,,,,,,,,,,,,,,,,,,,,,,,,,,,,,,,,,,,,,,,,,,536.0059,538.6604,5.166666667,2.6073,0.0,1.0,1.0,1.0,1.0,song_indices/StandByMe_BenEKing.csv,,,,,,,,,,,,,,,,,,,,,,,,,,,,,,,,,,,,,,,,,,,,,,,
,,,,,842067,1,2024-06-17_10h34.07.864,experiment,2024.1.5,Win32,59.88023952,667045947eb812cbdacbf325,667056b7a28e2ba14957656f,,,,,,,,,,,,,,,,,,,,,,,,,,,,,,,,,,,,538.6629,545.0562,0.0,0.0,0.0,0.0,1.0,SoundStimuli/IWillAlwaysLoveYou_WhitneyHouston_Original5S.wav,,,,,,,,,,,,,,,,,,,,,,,,,,,,,,,,,,,,,,,,,,,,,,,,,,,,,,,,,
,,,,,842067,1,2024-06-17_10h34.07.864,experiment,2024.1.5,Win32,59.88023952,667045947eb812cbdacbf325,667056b7a28e2ba14957656f,,,,,,,,,,,,,,,,,,,,,,,,,,,,,,,,,,,,545.0895,550.9623,0.0,1.0,1.0,1.0,1.0,SoundStimuli/IWillAlwaysLoveYou_WhitneyHouston_Cover5S.wav,,,,,,,,,,,,,,,,,,,,,,,,,,,,,,,,,,,,,,,,,,,,,,,,,,,,,,,,,
,,,,,842067,1,2024-06-17_10h34.07.864,experiment,2024.1.5,Win32,59.88023952,667045947eb812cbdacbf325,667056b7a28e2ba14957656f,,,,,,,,,,,,,,,,,,,,,,,,,,,,,,,,,,,,,,,,,,,,550.9626,552.6742,6.596666667,1.6737,0.0,2.0,2.0,10.0,1.0,song_indices/IWillAlwaysLoveYou_WhitneyHouston.csv,,,,,,,,,,,,,,,,,,,,,,,,,,,,,,,,,,,,,,,,,,,,,,,
,,,,,842067,1,2024-06-17_10h34.07.864,experiment,2024.1.5,Win32,59.88023952,667045947eb812cbdacbf325,667056b7a28e2ba14957656f,,,,,,,,,,,,,,,,,,,,,,,,,,,,,,,,,,,,552.6767,558.8199,0.0,0.0,0.0,1.0,1.0,SoundStimuli/EyeOfTheTiger_Survivor_Cover5S.wav,,,,,,,,,,,,,,,,,,,,,,,,,,,,,,,,,,,,,,,,,,,,,,,,,,,,,,,,,
,,,,,842067,1,2024-06-17_10h34.07.864,experiment,2024.1.5,Win32,59.88023952,667045947eb812cbdacbf325,667056b7a28e2ba14957656f,,,,,,,,,,,,,,,,,,,,,,,,,,,,,,,,,,,,558.8588,564.7571,0.0,1.0,1.0,0.0,1.0,SoundStimuli/EyeOfTheTiger_Survivor_Original5S.wav,,,,,,,,,,,,,,,,,,,,,,,,,,,,,,,,,,,,,,,,,,,,,,,,,,,,,,,,,
,,,,,842067,1,2024-06-17_10h34.07.864,experiment,2024.1.5,Win32,59.88023952,667045947eb812cbdacbf325,667056b7a28e2ba14957656f,,,,,,,,,,,,,,,,,,,,,,,,,,,,,,,,,,,,,,,,,,,,564.7575,569.4738,5.686666667,4.6876,0.0,3.0,3.0,11.0,1.0,song_indices/EyeOfTheTiger_Survivor.csv,,,,,,,,,,,,,,,,,,,,,,,,,,,,,,,,,,,,,,,,,,,,,,,
,,,,,842067,1,2024-06-17_10h34.07.864,experiment,2024.1.5,Win32,59.88023952,667045947eb812cbdacbf325,667056b7a28e2ba14957656f,,,,,,,,,,,,,,,,,,,,,,,,,,,,,,,,,,,,569.4751,577.4714,0.0,0.0,0.0,1.0,1.0,SoundStimuli/TheBattleOfNewOrleans_JohnnyHorton_Cover5S.wav,,,,,,,,,,,,,,,,,,,,,,,,,,,,,,,,,,,,,,,,,,,,,,,,,,,,,,,,,
,,,,,842067,1,2024-06-17_10h34.07.864,experiment,2024.1.5,Win32,59.88023952,667045947eb812cbdacbf325,667056b7a28e2ba14957656f,,,,,,,,,,,,,,,,,,,,,,,,,,,,,,,,,,,,577.5306,583.7475,0.0,1.0,1.0,0.0,1.0,SoundStimuli/TheBattleOfNewOrleans_JohnnyHorton_Original5S.wav,,,,,,,,,,,,,,,,,,,,,,,,,,,,,,,,,,,,,,,,,,,,,,,,,,,,,,,,,
,,,,,842067,1,2024-06-17_10h34.07.864,experiment,2024.1.5,Win32,59.88023952,667045947eb812cbdacbf325,667056b7a28e2ba14957656f,,,,,,,,,,,,,,,,,,,,,,,,,,,,,,,,,,,,,,,,,,,,583.748,584.7289,1.773333537,0.938,0.0,4.0,4.0,4.0,1.0,song_indices/TheBattleOfNewOrleans_JohnnyHorton.csv,,,,,,,,,,,,,,,,,,,,,,,,,,,,,,,,,,,,,,,,,,,,,,,
,,,,,842067,1,2024-06-17_10h34.07.864,experiment,2024.1.5,Win32,59.88023952,667045947eb812cbdacbf325,667056b7a28e2ba14957656f,,,,,,,,,,,,,,,,,,,,,,,,,,,,,,,,,,,,584.7307,590.8065,0.0,0.0,0.0,0.0,1.0,SoundStimuli/GoodGollyMissMolly_LittleRichard_Original5S.wav,,,,,,,,,,,,,,,,,,,,,,,,,,,,,,,,,,,,,,,,,,,,,,,,,,,,,,,,,
,,,,,842067,1,2024-06-17_10h34.07.864,experiment,2024.1.5,Win32,59.88023952,667045947eb812cbdacbf325,667056b7a28e2ba14957656f,,,,,,,,,,,,,,,,,,,,,,,,,,,,,,,,,,,,590.8644,597.2291,0.0,1.0,1.0,1.0,1.0,SoundStimuli/GoodGollyMissMolly_LittleRichard_Cover5S.wav,,,,,,,,,,,,,,,,,,,,,,,,,,,,,,,,,,,,,,,,,,,,,,,,,,,,,,,,,
,,,,,842067,1,2024-06-17_10h34.07.864,experiment,2024.1.5,Win32,59.88023952,667045947eb812cbdacbf325,667056b7a28e2ba14957656f,,,,,,,,,,,,,,,,,,,,,,,,,,,,,,,,,,,,,,,,,,,,597.2296,598.2785,1.77,1.0047,0.0,5.0,5.0,0.0,1.0,song_indices/GoodGollyMissMolly_LittleRichard.csv,,,,,,,,,,,,,,,,,,,,,,,,,,,,,,,,,,,,,,,,,,,,,,,
,,,,,842067,1,2024-06-17_10h34.07.864,experiment,2024.1.5,Win32,59.88023952,667045947eb812cbdacbf325,667056b7a28e2ba14957656f,,,,,,,,,,,,,,,,,,,,,,,,,,,,,,,,,,,,598.2813,604.5084,0.0,0.0,0.0,1.0,1.0,SoundStimuli/NoOne_AliciaKeys_Cover5S.wav,,,,,,,,,,,,,,,,,,,,,,,,,,,,,,,,,,,,,,,,,,,,,,,,,,,,,,,,,
,,,,,842067,1,2024-06-17_10h34.07.864,experiment,2024.1.5,Win32,59.88023952,667045947eb812cbdacbf325,667056b7a28e2ba14957656f,,,,,,,,,,,,,,,,,,,,,,,,,,,,,,,,,,,,604.5446,612.276,0.0,1.0,1.0,0.0,1.0,SoundStimuli/NoOne_AliciaKeys_Original5S.wav,,,,,,,,,,,,,,,,,,,,,,,,,,,,,,,,,,,,,,,,,,,,,,,,,,,,,,,,,
,,,,,842067,1,2024-06-17_10h34.07.864,experiment,2024.1.5,Win32,59.88023952,667045947eb812cbdacbf325,667056b7a28e2ba14957656f,,,,,,,,,,,,,,,,,,,,,,,,,,,,,,,,,,,,,,,,,,,,612.2763,613.2872,1.503333333,0.9898,0.0,6.0,6.0,19.0,1.0,song_indices/NoOne_AliciaKeys.csv,,,,,,,,,,,,,,,,,,,,,,,,,,,,,,,,,,,,,,,,,,,,,,,
,,,,,842067,1,2024-06-17_10h34.07.864,experiment,2024.1.5,Win32,59.88023952,667045947eb812cbdacbf325,667056b7a28e2ba14957656f,,,,,,,,,,,,,,,,,,,,,,,,,,,,,,,,,,,,613.2921,619.4826,0.0,0.0,0.0,0.0,1.0,SoundStimuli/SmellsLikeTeenSpirit_Nirvana_Original5S.wav,,,,,,,,,,,,,,,,,,,,,,,,,,,,,,,,,,,,,,,,,,,,,,,,,,,,,,,,,
,,,,,842067,1,2024-06-17_10h34.07.864,experiment,2024.1.5,Win32,59.88023952,667045947eb812cbdacbf325,667056b7a28e2ba14957656f,,,,,,,,,,,,,,,,,,,,,,,,,,,,,,,,,,,,619.5121,625.3034,0.0,1.0,1.0,1.0,1.0,SoundStimuli/SmellsLikeTeenSpirit_Nirvana_Cover5S.wav,,,,,,,,,,,,,,,,,,,,,,,,,,,,,,,,,,,,,,,,,,,,,,,,,,,,,,,,,
,,,,,842067,1,2024-06-17_10h34.07.864,experiment,2024.1.5,Win32,59.88023952,667045947eb812cbdacbf325,667056b7a28e2ba14957656f,,,,,,,,,,,,,,,,,,,,,,,,,,,,,,,,,,,,,,,,,,,,625.3037,627.3638,5.216666667,2.0186,0.0,7.0,7.0,8.0,1.0,song_indices/SmellsLikeTeenSpirit_Nirvana.csv,,,,,,,,,,,,,,,,,,,,,,,,,,,,,,,,,,,,,,,,,,,,,,,
,,,,,842067,1,2024-06-17_10h34.07.864,experiment,2024.1.5,Win32,59.88023952,667045947eb812cbdacbf325,667056b7a28e2ba14957656f,,,,,,,,,,,,,,,,,,,,,,,,,,,,,,,,,,,,627.3672,633.7189,0.0,0.0,0.0,1.0,1.0,SoundStimuli/Stronger_KanyeWest_Cover5S.wav,,,,,,,,,,,,,,,,,,,,,,,,,,,,,,,,,,,,,,,,,,,,,,,,,,,,,,,,,
,,,,,842067,1,2024-06-17_10h34.07.864,experiment,2024.1.5,Win32,59.88023952,667045947eb812cbdacbf325,667056b7a28e2ba14957656f,,,,,,,,,,,,,,,,,,,,,,,,,,,,,,,,,,,,633.7541,639.837,0.0,1.0,1.0,0.0,1.0,SoundStimuli/Stronger_KanyeWest_Original5S.wav,,,,,,,,,,,,,,,,,,,,,,,,,,,,,,,,,,,,,,,,,,,,,,,,,,,,,,,,,
,,,,,842067,1,2024-06-17_10h34.07.864,experiment,2024.1.5,Win32,59.88023952,667045947eb812cbdacbf325,667056b7a28e2ba14957656f,,,,,,,,,,,,,,,,,,,,,,,,,,,,,,,,,,,,,,,,,,,,639.8375,640.8259,2.503333333,0.9404,0.0,8.0,8.0,9.0,1.0,song_indices/Stronger_KanyeWest.csv,,,,,,,,,,,,,,,,,,,,,,,,,,,,,,,,,,,,,,,,,,,,,,,
,,,,,842067,1,2024-06-17_10h34.07.864,experiment,2024.1.5,Win32,59.88023952,667045947eb812cbdacbf325,667056b7a28e2ba14957656f,,,,,,,,,,,,,,,,,,,,,,,,,,,,,,,,,,,,640.8272,649.7565,0.0,0.0,0.0,1.0,1.0,SoundStimuli/HeyYa_Outkast_Cover5S.wav,,,,,,,,,,,,,,,,,,,,,,,,,,,,,,,,,,,,,,,,,,,,,,,,,,,,,,,,,
,,,,,842067,1,2024-06-17_10h34.07.864,experiment,2024.1.5,Win32,59.88023952,667045947eb812cbdacbf325,667056b7a28e2ba14957656f,,,,,,,,,,,,,,,,,,,,,,,,,,,,,,,,,,,,649.7946,656.0814,0.0,1.0,1.0,0.0,1.0,SoundStimuli/HeyYa_Outkast_Original5S.wav,,,,,,,,,,,,,,,,,,,,,,,,,,,,,,,,,,,,,,,,,,,,,,,,,,,,,,,,,
,,,,,842067,1,2024-06-17_10h34.07.864,experiment,2024.1.5,Win32,59.88023952,667045947eb812cbdacbf325,667056b7a28e2ba14957656f,,,,,,,,,,,,,,,,,,,,,,,,,,,,,,,,,,,,,,,,,,,,656.0822,659.2095,3.430000407,3.0929,0.0,9.0,9.0,22.0,1.0,song_indices/HeyYa_Outkast.csv,,,,,,,,,,,,,,,,,,,,,,,,,,,,,,,,,,,,,,,,,,,,,,,
,,,,,842067,1,2024-06-17_10h34.07.864,experiment,2024.1.5,Win32,59.88023952,667045947eb812cbdacbf325,667056b7a28e2ba14957656f,,,,,,,,,,,,,,,,,,,,,,,,,,,,,,,,,,,,659.2117,665.3984,0.0,0.0,0.0,0.0,1.0,SoundStimuli/Fallin_AliciaKeys_Original5S.wav,,,,,,,,,,,,,,,,,,,,,,,,,,,,,,,,,,,,,,,,,,,,,,,,,,,,,,,,,
,,,,,842067,1,2024-06-17_10h34.07.864,experiment,2024.1.5,Win32,59.88023952,667045947eb812cbdacbf325,667056b7a28e2ba14957656f,,,,,,,,,,,,,,,,,,,,,,,,,,,,,,,,,,,,665.4372,671.908,0.0,1.0,1.0,1.0,1.0,SoundStimuli/Fallin_AliciaKeys_Cover5S.wav,,,,,,,,,,,,,,,,,,,,,,,,,,,,,,,,,,,,,,,,,,,,,,,,,,,,,,,,,
,,,,,842067,1,2024-06-17_10h34.07.864,experiment,2024.1.5,Win32,59.88023952,667045947eb812cbdacbf325,667056b7a28e2ba14957656f,,,,,,,,,,,,,,,,,,,,,,,,,,,,,,,,,,,,,,,,,,,,671.9092,673.2053,5.59,1.2493,0.0,10.0,10.0,12.0,1.0,song_indices/Fallin_AliciaKeys.csv,,,,,,,,,,,,,,,,,,,,,,,,,,,,,,,,,,,,,,,,,,,,,,,
,,,,,842067,1,2024-06-17_10h34.07.864,experiment,2024.1.5,Win32,59.88023952,667045947eb812cbdacbf325,667056b7a28e2ba14957656f,,,,,,,,,,,,,,,,,,,,,,,,,,,,,,,,,,,,673.2093,680.3534,0.0,0.0,0.0,1.0,1.0,SoundStimuli/IWalkTheLine_JohnnyCash_Cover5S.wav,,,,,,,,,,,,,,,,,,,,,,,,,,,,,,,,,,,,,,,,,,,,,,,,,,,,,,,,,
,,,,,842067,1,2024-06-17_10h34.07.864,experiment,2024.1.5,Win32,59.88023952,667045947eb812cbdacbf325,667056b7a28e2ba14957656f,,,,,,,,,,,,,,,,,,,,,,,,,,,,,,,,,,,,680.3936,686.4029,0.0,1.0,1.0,0.0,1.0,SoundStimuli/IWalkTheLine_JohnnyCash_Original5S.wav,,,,,,,,,,,,,,,,,,,,,,,,,,,,,,,,,,,,,,,,,,,,,,,,,,,,,,,,,
,,,,,842067,1,2024-06-17_10h34.07.864,experiment,2024.1.5,Win32,59.88023952,667045947eb812cbdacbf325,667056b7a28e2ba14957656f,,,,,,,,,,,,,,,,,,,,,,,,,,,,,,,,,,,,,,,,,,,,686.4037,690.2548,5.330000407,3.811,0.0,11.0,11.0,17.0,1.0,song_indices/IWalkTheLine_JohnnyCash.csv,,,,,,,,,,,,,,,,,,,,,,,,,,,,,,,,,,,,,,,,,,,,,,,
,,,,,842067,1,2024-06-17_10h34.07.864,experiment,2024.1.5,Win32,59.88023952,667045947eb812cbdacbf325,667056b7a28e2ba14957656f,,,,,,,,,,,,,,,,,,,,,,,,,,,,,,,,,,,,690.256,696.4584,0.0,0.0,0.0,0.0,1.0,SoundStimuli/TheBoyIsMine_BrandyMonica_Original5S.wav,,,,,,,,,,,,,,,,,,,,,,,,,,,,,,,,,,,,,,,,,,,,,,,,,,,,,,,,,
,,,,,842067,1,2024-06-17_10h34.07.864,experiment,2024.1.5,Win32,59.88023952,667045947eb812cbdacbf325,667056b7a28e2ba14957656f,,,,,,,,,,,,,,,,,,,,,,,,,,,,,,,,,,,,696.5221,702.49,0.0,1.0,1.0,1.0,1.0,SoundStimuli/TheBoyIsMine_BrandyMonica_Cover5S.wav,,,,,,,,,,,,,,,,,,,,,,,,,,,,,,,,,,,,,,,,,,,,,,,,,,,,,,,,,
,,,,,842067,1,2024-06-17_10h34.07.864,experiment,2024.1.5,Win32,59.88023952,667045947eb812cbdacbf325,667056b7a28e2ba14957656f,,,,,,,,,,,,,,,,,,,,,,,,,,,,,,,,,,,,,,,,,,,,702.4905,703.6812,6.93,1.1417,0.0,12.0,12.0,6.0,1.0,song_indices/TheBoyIsMine_BrandyMonica.csv,,,,,,,,,,,,,,,,,,,,,,,,,,,,,,,,,,,,,,,,,,,,,,,
,,,,,842067,1,2024-06-17_10h34.07.864,experiment,2024.1.5,Win32,59.88023952,667045947eb812cbdacbf325,667056b7a28e2ba14957656f,,,,,,,,,,,,,,,,,,,,,,,,,,,,,,,,,,,,703.6838,709.9265,0.0,0.0,0.0,1.0,1.0,SoundStimuli/ItsAllInTheGame_TommyEdwards_Cover5S.wav,,,,,,,,,,,,,,,,,,,,,,,,,,,,,,,,,,,,,,,,,,,,,,,,,,,,,,,,,
,,,,,842067,1,2024-06-17_10h34.07.864,experiment,2024.1.5,Win32,59.88023952,667045947eb812cbdacbf325,667056b7a28e2ba14957656f,,,,,,,,,,,,,,,,,,,,,,,,,,,,,,,,,,,,709.9662,716.2271,0.0,1.0,1.0,0.0,1.0,SoundStimuli/ItsAllInTheGame_TommyEdwards_Original5S.wav,,,,,,,,,,,,,,,,,,,,,,,,,,,,,,,,,,,,,,,,,,,,,,,,,,,,,,,,,
,,,,,842067,1,2024-06-17_10h34.07.864,experiment,2024.1.5,Win32,59.88023952,667045947eb812cbdacbf325,667056b7a28e2ba14957656f,,,,,,,,,,,,,,,,,,,,,,,,,,,,,,,,,,,,,,,,,,,,716.2277,717.2743,5.586666667,1.0093,0.0,13.0,13.0,13.0,1.0,song_indices/ItsAllInTheGame_TommyEdwards.csv,,,,,,,,,,,,,,,,,,,,,,,,,,,,,,,,,,,,,,,,,,,,,,,
,,,,,842067,1,2024-06-17_10h34.07.864,experiment,2024.1.5,Win32,59.88023952,667045947eb812cbdacbf325,667056b7a28e2ba14957656f,,,,,,,,,,,,,,,,,,,,,,,,,,,,,,,,,,,,717.2766,723.8081,0.0,0.0,0.0,0.0,1.0,SoundStimuli/CrazyInLove_BeyonceFtJayZ_Original5S.wav,,,,,,,,,,,,,,,,,,,,,,,,,,,,,,,,,,,,,,,,,,,,,,,,,,,,,,,,,
,,,,,842067,1,2024-06-17_10h34.07.864,experiment,2024.1.5,Win32,59.88023952,667045947eb812cbdacbf325,667056b7a28e2ba14957656f,,,,,,,,,,,,,,,,,,,,,,,,,,,,,,,,,,,,723.84,734.1067,0.0,1.0,1.0,1.0,1.0,SoundStimuli/CrazyInLove_BeyonceFtJayZ_Cover5S.wav,,,,,,,,,,,,,,,,,,,,,,,,,,,,,,,,,,,,,,,,,,,,,,,,,,,,,,,,,
,,,,,842067,1,2024-06-17_10h34.07.864,experiment,2024.1.5,Win32,59.88023952,667045947eb812cbdacbf325,667056b7a28e2ba14957656f,,,,,,,,,,,,,,,,,,,,,,,,,,,,,,,,,,,,,,,,,,,,734.107,736.6399,3.153333333,2.5,0.0,14.0,14.0,3.0,1.0,song_indices/CrazyInLove_BeyonceFtJayZ.csv,,,,,,,,,,,,,,,,,,,,,,,,,,,,,,,,,,,,,,,,,,,,,,,
,,,,,842067,1,2024-06-17_10h34.07.864,experiment,2024.1.5,Win32,59.88023952,667045947eb812cbdacbf325,667056b7a28e2ba14957656f,,,,,,,,,,,,,,,,,,,,,,,,,,,,,,,,,,,,736.6421,743.1147,0.0,0.0,0.0,0.0,1.0,SoundStimuli/ShapeofYou_EdSheeran_Original5S.wav,,,,,,,,,,,,,,,,,,,,,,,,,,,,,,,,,,,,,,,,,,,,,,,,,,,,,,,,,
,,,,,842067,1,2024-06-17_10h34.07.864,experiment,2024.1.5,Win32,59.88023952,667045947eb812cbdacbf325,667056b7a28e2ba14957656f,,,,,,,,,,,,,,,,,,,,,,,,,,,,,,,,,,,,743.148,749.482,0.0,1.0,1.0,1.0,1.0,SoundStimuli/ShapeofYou_EdSheeran_Cover5S.wav,,,,,,,,,,,,,,,,,,,,,,,,,,,,,,,,,,,,,,,,,,,,,,,,,,,,,,,,,
,,,,,842067,1,2024-06-17_10h34.07.864,experiment,2024.1.5,Win32,59.88023952,667045947eb812cbdacbf325,667056b7a28e2ba14957656f,,,,,,,,,,,,,,,,,,,,,,,,,,,,,,,,,,,,,,,,,,,,749.4834,752.6274,5.5,3.1005,0.0,15.0,15.0,21.0,1.0,song_indices/ShapeofYou_EdSheeran.csv,,,,,,,,,,,,,,,,,,,,,,,,,,,,,,,,,,,,,,,,,,,,,,,
,,,,,842067,1,2024-06-17_10h34.07.864,experiment,2024.1.5,Win32,59.88023952,667045947eb812cbdacbf325,667056b7a28e2ba14957656f,,,,,,,,,,,,,,,,,,,,,,,,,,,,,,,,,,,,752.6291,759.3849,0.0,0.0,0.0,0.0,1.0,SoundStimuli/PartyRockAnthem_LMFAO_Original5S.wav,,,,,,,,,,,,,,,,,,,,,,,,,,,,,,,,,,,,,,,,,,,,,,,,,,,,,,,,,
,,,,,842067,1,2024-06-17_10h34.07.864,experiment,2024.1.5,Win32,59.88023952,667045947eb812cbdacbf325,667056b7a28e2ba14957656f,,,,,,,,,,,,,,,,,,,,,,,,,,,,,,,,,,,,759.4188,766.1972,0.0,1.0,1.0,1.0,1.0,SoundStimuli/PartyRockAnthem_LMFAO_Cover5S.wav,,,,,,,,,,,,,,,,,,,,,,,,,,,,,,,,,,,,,,,,,,,,,,,,,,,,,,,,,
,,,,,842067,1,2024-06-17_10h34.07.864,experiment,2024.1.5,Win32,59.88023952,667045947eb812cbdacbf325,667056b7a28e2ba14957656f,,,,,,,,,,,,,,,,,,,,,,,,,,,,,,,,,,,,,,,,,,,,766.1978,767.1308,5.423333333,0.8825,0.0,16.0,16.0,2.0,1.0,song_indices/PartyRockAnthem_LMFAO.csv,,,,,,,,,,,,,,,,,,,,,,,,,,,,,,,,,,,,,,,,,,,,,,,
,,,,,842067,1,2024-06-17_10h34.07.864,experiment,2024.1.5,Win32,59.88023952,667045947eb812cbdacbf325,667056b7a28e2ba14957656f,,,,,,,,,,,,,,,,,,,,,,,,,,,,,,,,,,,,767.1344,772.8447,0.0,0.0,0.0,1.0,1.0,SoundStimuli/BetteDavisEyes_KimCarnes_Cover5S.wav,,,,,,,,,,,,,,,,,,,,,,,,,,,,,,,,,,,,,,,,,,,,,,,,,,,,,,,,,
,,,,,842067,1,2024-06-17_10h34.07.864,experiment,2024.1.5,Win32,59.88023952,667045947eb812cbdacbf325,667056b7a28e2ba14957656f,,,,,,,,,,,,,,,,,,,,,,,,,,,,,,,,,,,,772.885,779.1019,0.0,1.0,1.0,0.0,1.0,SoundStimuli/BetteDavisEyes_KimCarnes_Original5S.wav,,,,,,,,,,,,,,,,,,,,,,,,,,,,,,,,,,,,,,,,,,,,,,,,,,,,,,,,,
,,,,,842067,1,2024-06-17_10h34.07.864,experiment,2024.1.5,Win32,59.88023952,667045947eb812cbdacbf325,667056b7a28e2ba14957656f,,,,,,,,,,,,,,,,,,,,,,,,,,,,,,,,,,,,,,,,,,,,779.1036,780.8897,6.273333333,1.7377,0.0,17.0,17.0,5.0,1.0,song_indices/BetteDavisEyes_KimCarnes.csv,,,,,,,,,,,,,,,,,,,,,,,,,,,,,,,,,,,,,,,,,,,,,,,
,,,,,842067,1,2024-06-17_10h34.07.864,experiment,2024.1.5,Win32,59.88023952,667045947eb812cbdacbf325,667056b7a28e2ba14957656f,,,,,,,,,,,,,,,,,,,,,,,,,,,,,,,,,,,,780.8955,787.1201,0.0,0.0,0.0,1.0,1.0,SoundStimuli/GimmeShelter_RollingStones_Cover5S.wav,,,,,,,,,,,,,,,,,,,,,,,,,,,,,,,,,,,,,,,,,,,,,,,,,,,,,,,,,
,,,,,842067,1,2024-06-17_10h34.07.864,experiment,2024.1.5,Win32,59.88023952,667045947eb812cbdacbf325,667056b7a28e2ba14957656f,,,,,,,,,,,,,,,,,,,,,,,,,,,,,,,,,,,,787.1941,793.3032,0.0,1.0,1.0,0.0,1.0,SoundStimuli/GimmeShelter_RollingStones_Original5S.wav,,,,,,,,,,,,,,,,,,,,,,,,,,,,,,,,,,,,,,,,,,,,,,,,,,,,,,,,,
,,,,,842067,1,2024-06-17_10h34.07.864,experiment,2024.1.5,Win32,59.88023952,667045947eb812cbdacbf325,667056b7a28e2ba14957656f,,,,,,,,,,,,,,,,,,,,,,,,,,,,,,,,,,,,,,,,,,,,793.3034,795.4263,5.87,2.0844,0.0,18.0,18.0,20.0,1.0,song_indices/GimmeShelter_RollingStones.csv,,,,,,,,,,,,,,,,,,,,,,,,,,,,,,,,,,,,,,,,,,,,,,,
,,,,,842067,1,2024-06-17_10h34.07.864,experiment,2024.1.5,Win32,59.88023952,667045947eb812cbdacbf325,667056b7a28e2ba14957656f,,,,,,,,,,,,,,,,,,,,,,,,,,,,,,,,,,,,795.4281,802.6583,0.0,0.0,0.0,0.0,1.0,SoundStimuli/UptownFunk_MarkRonson_Original5S.wav,,,,,,,,,,,,,,,,,,,,,,,,,,,,,,,,,,,,,,,,,,,,,,,,,,,,,,,,,
,,,,,842067,1,2024-06-17_10h34.07.864,experiment,2024.1.5,Win32,59.88023952,667045947eb812cbdacbf325,667056b7a28e2ba14957656f,,,,,,,,,,,,,,,,,,,,,,,,,,,,,,,,,,,,802.6983,809.7327,0.0,1.0,1.0,1.0,1.0,SoundStimuli/UptownFunk_MarkRonson_Cover5S.wav,,,,,,,,,,,,,,,,,,,,,,,,,,,,,,,,,,,,,,,,,,,,,,,,,,,,,,,,,
,,,,,842067,1,2024-06-17_10h34.07.864,experiment,2024.1.5,Win32,59.88023952,667045947eb812cbdacbf325,667056b7a28e2ba14957656f,,,,,,,,,,,,,,,,,,,,,,,,,,,,,,,,,,,,,,,,,,,,809.7332,811.935,6.37,2.1635,0.0,19.0,19.0,15.0,1.0,song_indices/UptownFunk_MarkRonson.csv,,,,,,,,,,,,,,,,,,,,,,,,,,,,,,,,,,,,,,,,,,,,,,,
,,,,,842067,1,2024-06-17_10h34.07.864,experiment,2024.1.5,Win32,59.88023952,667045947eb812cbdacbf325,667056b7a28e2ba14957656f,,,,,,,,,,,,,,,,,,,,,,,,,,,,,,,,,,,,811.937,818.0881,0.0,0.0,0.0,1.0,1.0,SoundStimuli/NoScrubs_TLC_Cover5S.wav,,,,,,,,,,,,,,,,,,,,,,,,,,,,,,,,,,,,,,,,,,,,,,,,,,,,,,,,,
,,,,,842067,1,2024-06-17_10h34.07.864,experiment,2024.1.5,Win32,59.88023952,667045947eb812cbdacbf325,667056b7a28e2ba14957656f,,,,,,,,,,,,,,,,,,,,,,,,,,,,,,,,,,,,818.1231,824.323,0.0,1.0,1.0,0.0,1.0,SoundStimuli/NoScrubs_TLC_Original5S.wav,,,,,,,,,,,,,,,,,,,,,,,,,,,,,,,,,,,,,,,,,,,,,,,,,,,,,,,,,
,,,,,842067,1,2024-06-17_10h34.07.864,experiment,2024.1.5,Win32,59.88023952,667045947eb812cbdacbf325,667056b7a28e2ba14957656f,,,,,,,,,,,,,,,,,,,,,,,,,,,,,,,,,,,,,,,,,,,,824.3234,826.1778,6.066666667,1.8205,0.0,20.0,20.0,14.0,1.0,song_indices/NoScrubs_TLC.csv,,,,,,,,,,,,,,,,,,,,,,,,,,,,,,,,,,,,,,,,,,,,,,,
,,,,,842067,1,2024-06-17_10h34.07.864,experiment,2024.1.5,Win32,59.88023952,667045947eb812cbdacbf325,667056b7a28e2ba14957656f,,,,,,,,,,,,,,,,,,,,,,,,,,,,,,,,,,,,826.1803,832.2682,0.0,0.0,0.0,0.0,1.0,SoundStimuli/GetUrFreakOn_MissyElliot_Original5S.wav,,,,,,,,,,,,,,,,,,,,,,,,,,,,,,,,,,,,,,,,,,,,,,,,,,,,,,,,,
,,,,,842067,1,2024-06-17_10h34.07.864,experiment,2024.1.5,Win32,59.88023952,667045947eb812cbdacbf325,667056b7a28e2ba14957656f,,,,,,,,,,,,,,,,,,,,,,,,,,,,,,,,,,,,832.3128,838.8932,0.0,1.0,1.0,1.0,1.0,SoundStimuli/GetUrFreakOn_MissyElliot_Cover5S.wav,,,,,,,,,,,,,,,,,,,,,,,,,,,,,,,,,,,,,,,,,,,,,,,,,,,,,,,,,
,,,,,842067,1,2024-06-17_10h34.07.864,experiment,2024.1.5,Win32,59.88023952,667045947eb812cbdacbf325,667056b7a28e2ba14957656f,,,,,,,,,,,,,,,,,,,,,,,,,,,,,,,,,,,,,,,,,,,,838.8935,842.8785,4.916666667,3.9413,0.0,21.0,21.0,18.0,1.0,song_indices/GetUrFreakOn_MissyElliot.csv,,,,,,,,,,,,,,,,,,,,,,,,,,,,,,,,,,,,,,,,,,,,,,,
,,,,,842067,1,2024-06-17_10h34.07.864,experiment,2024.1.5,Win32,59.88023952,667045947eb812cbdacbf325,667056b7a28e2ba14957656f,,,,,,,,,,,,,,,,,,,,,,,,,,,,,,,,,,,,842.883,849.2196,0.0,0.0,0.0,0.0,1.0,SoundStimuli/RockWithYou_MichaelJackson_Original5S.wav,,,,,,,,,,,,,,,,,,,,,,,,,,,,,,,,,,,,,,,,,,,,,,,,,,,,,,,,,
,,,,,842067,1,2024-06-17_10h34.07.864,experiment,2024.1.5,Win32,59.88023952,667045947eb812cbdacbf325,667056b7a28e2ba14957656f,,,,,,,,,,,,,,,,,,,,,,,,,,,,,,,,,,,,849.2684,855.3185,0.0,1.0,1.0,1.0,1.0,SoundStimuli/RockWithYou_MichaelJackson_Cover5S.wav,,,,,,,,,,,,,,,,,,,,,,,,,,,,,,,,,,,,,,,,,,,,,,,,,,,,,,,,,
,,,,,842067,1,2024-06-17_10h34.07.864,experiment,2024.1.5,Win32,59.88023952,667045947eb812cbdacbf325,667056b7a28e2ba14957656f,,,,,,,,,,,,,,,,,,,,,,,,,,,,,,,,,,,,,,,,,,,,855.3189,858.5091,3.546667074,3.1515,0.0,22.0,22.0,16.0,1.0,song_indices/RockWithYou_MichaelJackson.csv,,,,,,,,,,,,,,,,,,,,,,,,,,,,,,,,,,,,,,,,,,,,,,,
,,,,,842067,1,2024-06-17_10h34.07.864,experiment,2024.1.5,Win32,59.88023952,667045947eb812cbdacbf325,667056b7a28e2ba14957656f,,,,,,,,,,,,,,,,,,,,,,,,,,,,,,,,,,,,,,,,,,,,,,,,,,,,,,858.5094,908.9618,space,50.4286,,0.0,1.0,1.0,1.0,1.0,choose_song_b2.csv,,,,,,,,,,,,,,,,,,,,,,,,,,,,,,,,,,,,
,,,,,842067,1,2024-06-17_10h34.07.864,experiment,2024.1.5,Win32,59.88023952,667045947eb812cbdacbf325,667056b7a28e2ba14957656f,,,,,,,,,,,,,,,,,,,,,,,,,,,,,,,,,,,,909.001,915.2042,0.0,0.0,0.0,1.0,1.0,SoundStimuli/LikeAPrayer_Madonna_Cover5S.wav,,,,,,,,,,,,,,,,,,,,,,,,,,,,,,,,,,,,,,,,,,,,,,,,,,,,,,,,,
,,,,,842067,1,2024-06-17_10h34.07.864,experiment,2024.1.5,Win32,59.88023952,667045947eb812cbdacbf325,667056b7a28e2ba14957656f,,,,,,,,,,,,,,,,,,,,,,,,,,,,,,,,,,,,915.2368,921.4577,0.0,1.0,1.0,0.0,1.0,SoundStimuli/LikeAPrayer_Madonna_Original5S.wav,,,,,,,,,,,,,,,,,,,,,,,,,,,,,,,,,,,,,,,,,,,,,,,,,,,,,,,,,
,,,,,842067,1,2024-06-17_10h34.07.864,experiment,2024.1.5,Win32,59.88023952,667045947eb812cbdacbf325,667056b7a28e2ba14957656f,,,,,,,,,,,,,,,,,,,,,,,,,,,,,,,,,,,,,,,,,,,,921.4581,923.1575,5.433333333,1.6642,0.0,0.0,0.0,7.0,1.0,song_indices/LikeAPrayer_Madonna.csv,,,,,,,,,,,,,,,,,,,,,,,,,,,,,,,,,,,,,,,,,,,,,,,
,,,,,842067,1,2024-06-17_10h34.07.864,experiment,2024.1.5,Win32,59.88023952,667045947eb812cbdacbf325,667056b7a28e2ba14957656f,,,,,,,,,,,,,,,,,,,,,,,,,,,,,,,,,,,,923.1586,929.1395,0.0,0.0,0.0,0.0,1.0,SoundStimuli/BohemianRhapsody_Queen_Original5S.wav,,,,,,,,,,,,,,,,,,,,,,,,,,,,,,,,,,,,,,,,,,,,,,,,,,,,,,,,,
,,,,,842067,1,2024-06-17_10h34.07.864,experiment,2024.1.5,Win32,59.88023952,667045947eb812cbdacbf325,667056b7a28e2ba14957656f,,,,,,,,,,,,,,,,,,,,,,,,,,,,,,,,,,,,929.2096,933.2941,0.0,1.0,1.0,1.0,1.0,SoundStimuli/BohemianRhapsody_Queen_Cover5S.wav,,,,,,,,,,,,,,,,,,,,,,,,,,,,,,,,,,,,,,,,,,,,,,,,,,,,,,,,,
,,,,,842067,1,2024-06-17_10h34.07.864,experiment,2024.1.5,Win32,59.88023952,667045947eb812cbdacbf325,667056b7a28e2ba14957656f,,,,,,,,,,,,,,,,,,,,,,,,,,,,,,,,,,,,,,,,,,,,933.2943,934.631,3.206666667,1.2884,0.0,1.0,1.0,18.0,1.0,song_indices/BohemianRhapsody_Queen.csv,,,,,,,,,,,,,,,,,,,,,,,,,,,,,,,,,,,,,,,,,,,,,,,
,,,,,842067,1,2024-06-17_10h34.07.864,experiment,2024.1.5,Win32,59.88023952,667045947eb812cbdacbf325,667056b7a28e2ba14957656f,,,,,,,,,,,,,,,,,,,,,,,,,,,,,,,,,,,,934.6331,940.4142,0.0,0.0,0.0,0.0,1.0,SoundStimuli/IWantToHoldYourHand_TheBeatles_Original5S.wav,,,,,,,,,,,,,,,,,,,,,,,,,,,,,,,,,,,,,,,,,,,,,,,,,,,,,,,,,
,,,,,842067,1,2024-06-17_10h34.07.864,experiment,2024.1.5,Win32,59.88023952,667045947eb812cbdacbf325,667056b7a28e2ba14957656f,,,,,,,,,,,,,,,,,,,,,,,,,,,,,,,,,,,,940.4534,946.5052,0.0,1.0,1.0,1.0,1.0,SoundStimuli/IWantToHoldYourHand_TheBeatles_Cover5S.wav,,,,,,,,,,,,,,,,,,,,,,,,,,,,,,,,,,,,,,,,,,,,,,,,,,,,,,,,,
,,,,,842067,1,2024-06-17_10h34.07.864,experiment,2024.1.5,Win32,59.88023952,667045947eb812cbdacbf325,667056b7a28e2ba14957656f,,,,,,,,,,,,,,,,,,,,,,,,,,,,,,,,,,,,,,,,,,,,946.5055,950.3137,2.543333333,3.7711,0.0,2.0,2.0,19.0,1.0,song_indices/IWantToHoldYourHand_TheBeatles.csv,,,,,,,,,,,,,,,,,,,,,,,,,,,,,,,,,,,,,,,,,,,,,,,
,,,,,842067,1,2024-06-17_10h34.07.864,experiment,2024.1.5,Win32,59.88023952,667045947eb812cbdacbf325,667056b7a28e2ba14957656f,,,,,,,,,,,,,,,,,,,,,,,,,,,,,,,,,,,,950.3151,956.65,0.0,0.0,0.0,0.0,1.0,SoundStimuli/BridgeOverTroubledWater_SimonAndGarfunkel_Original5S.wav,,,,,,,,,,,,,,,,,,,,,,,,,,,,,,,,,,,,,,,,,,,,,,,,,,,,,,,,,
,,,,,842067,1,2024-06-17_10h34.07.864,experiment,2024.1.5,Win32,59.88023952,667045947eb812cbdacbf325,667056b7a28e2ba14957656f,,,,,,,,,,,,,,,,,,,,,,,,,,,,,,,,,,,,956.6873,963.39,0.0,1.0,1.0,1.0,1.0,SoundStimuli/BridgeOverTroubledWater_SimonAndGarfunkel_Cover5S.wav,,,,,,,,,,,,,,,,,,,,,,,,,,,,,,,,,,,,,,,,,,,,,,,,,,,,,,,,,
,,,,,842067,1,2024-06-17_10h34.07.864,experiment,2024.1.5,Win32,59.88023952,667045947eb812cbdacbf325,667056b7a28e2ba14957656f,,,,,,,,,,,,,,,,,,,,,,,,,,,,,,,,,,,,,,,,,,,,963.3906,966.1018,2.673333333,2.6763,0.0,3.0,3.0,1.0,1.0,song_indices/BridgeOverTroubledWater_SimonAndGarfunkel.csv,,,,,,,,,,,,,,,,,,,,,,,,,,,,,,,,,,,,,,,,,,,,,,,
,,,,,842067,1,2024-06-17_10h34.07.864,experiment,2024.1.5,Win32,59.88023952,667045947eb812cbdacbf325,667056b7a28e2ba14957656f,,,,,,,,,,,,,,,,,,,,,,,,,,,,,,,,,,,,966.1042,972.1427,0.0,0.0,0.0,0.0,1.0,SoundStimuli/StayinAlive_BeeGees_Original5S.wav,,,,,,,,,,,,,,,,,,,,,,,,,,,,,,,,,,,,,,,,,,,,,,,,,,,,,,,,,
,,,,,842067,1,2024-06-17_10h34.07.864,experiment,2024.1.5,Win32,59.88023952,667045947eb812cbdacbf325,667056b7a28e2ba14957656f,,,,,,,,,,,,,,,,,,,,,,,,,,,,,,,,,,,,972.188,978.0438,0.0,1.0,1.0,1.0,1.0,SoundStimuli/StayinAlive_BeeGees_Cover5S.wav,,,,,,,,,,,,,,,,,,,,,,,,,,,,,,,,,,,,,,,,,,,,,,,,,,,,,,,,,
,,,,,842067,1,2024-06-17_10h34.07.864,experiment,2024.1.5,Win32,59.88023952,667045947eb812cbdacbf325,667056b7a28e2ba14957656f,,,,,,,,,,,,,,,,,,,,,,,,,,,,,,,,,,,,,,,,,,,,978.0444,980.5092,5.72,2.4349,0.0,4.0,4.0,2.0,1.0,song_indices/StayinAlive_BeeGees.csv,,,,,,,,,,,,,,,,,,,,,,,,,,,,,,,,,,,,,,,,,,,,,,,
,,,,,842067,1,2024-06-17_10h34.07.864,experiment,2024.1.5,Win32,59.88023952,667045947eb812cbdacbf325,667056b7a28e2ba14957656f,,,,,,,,,,,,,,,,,,,,,,,,,,,,,,,,,,,,980.5121,986.7699,0.0,0.0,0.0,1.0,1.0,SoundStimuli/MackTheKnife_BobbyDarin_Cover5S.wav,,,,,,,,,,,,,,,,,,,,,,,,,,,,,,,,,,,,,,,,,,,,,,,,,,,,,,,,,
,,,,,842067,1,2024-06-17_10h34.07.864,experiment,2024.1.5,Win32,59.88023952,667045947eb812cbdacbf325,667056b7a28e2ba14957656f,,,,,,,,,,,,,,,,,,,,,,,,,,,,,,,,,,,,986.7901,992.9552,0.0,1.0,1.0,0.0,1.0,SoundStimuli/MackTheKnife_BobbyDarin_Original5S.wav,,,,,,,,,,,,,,,,,,,,,,,,,,,,,,,,,,,,,,,,,,,,,,,,,,,,,,,,,
,,,,,842067,1,2024-06-17_10h34.07.864,experiment,2024.1.5,Win32,59.88023952,667045947eb812cbdacbf325,667056b7a28e2ba14957656f,,,,,,,,,,,,,,,,,,,,,,,,,,,,,,,,,,,,,,,,,,,,992.9561,996.5915,3.34,3.5836,0.0,5.0,5.0,21.0,1.0,song_indices/MackTheKnife_BobbyDarin.csv,,,,,,,,,,,,,,,,,,,,,,,,,,,,,,,,,,,,,,,,,,,,,,,
,,,,,842067,1,2024-06-17_10h34.07.864,experiment,2024.1.5,Win32,59.88023952,667045947eb812cbdacbf325,667056b7a28e2ba14957656f,,,,,,,,,,,,,,,,,,,,,,,,,,,,,,,,,,,,996.5934,1002.717,0.0,0.0,0.0,0.0,1.0,SoundStimuli/StrawberryFieldsForever_TheBeatles_Original5S.wav,,,,,,,,,,,,,,,,,,,,,,,,,,,,,,,,,,,,,,,,,,,,,,,,,,,,,,,,,
,,,,,842067,1,2024-06-17_10h34.07.864,experiment,2024.1.5,Win32,59.88023952,667045947eb812cbdacbf325,667056b7a28e2ba14957656f,,,,,,,,,,,,,,,,,,,,,,,,,,,,,,,,,,,,1002.7533,1009.7947,0.0,1.0,1.0,1.0,1.0,SoundStimuli/StrawberryFieldsForever_TheBeatles_Cover5S.wav,,,,,,,,,,,,,,,,,,,,,,,,,,,,,,,,,,,,,,,,,,,,,,,,,,,,,,,,,
,,,,,842067,1,2024-06-17_10h34.07.864,experiment,2024.1.5,Win32,59.88023952,667045947eb812cbdacbf325,667056b7a28e2ba14957656f,,,,,,,,,,,,,,,,,,,,,,,,,,,,,,,,,,,,,,,,,,,,1009.7952,1011.9551,5.16333374,2.1207,0.0,6.0,6.0,14.0,1.0,song_indices/StrawberryFieldsForever_TheBeatles.csv,,,,,,,,,,,,,,,,,,,,,,,,,,,,,,,,,,,,,,,,,,,,,,,
,,,,,842067,1,2024-06-17_10h34.07.864,experiment,2024.1.5,Win32,59.88023952,667045947eb812cbdacbf325,667056b7a28e2ba14957656f,,,,,,,,,,,,,,,,,,,,,,,,,,,,,,,,,,,,1011.9564,1018.5652,0.0,0.0,0.0,1.0,1.0,SoundStimuli/Despacito_LuisFonsiDaddyYankee_Cover5S.wav,,,,,,,,,,,,,,,,,,,,,,,,,,,,,,,,,,,,,,,,,,,,,,,,,,,,,,,,,
,,,,,842067,1,2024-06-17_10h34.07.864,experiment,2024.1.5,Win32,59.88023952,667045947eb812cbdacbf325,667056b7a28e2ba14957656f,,,,,,,,,,,,,,,,,,,,,,,,,,,,,,,,,,,,1018.6163,1025.187,0.0,1.0,1.0,0.0,1.0,SoundStimuli/Despacito_LuisFonsiDaddyYankee_Original5S.wav,,,,,,,,,,,,,,,,,,,,,,,,,,,,,,,,,,,,,,,,,,,,,,,,,,,,,,,,,
,,,,,842067,1,2024-06-17_10h34.07.864,experiment,2024.1.5,Win32,59.88023952,667045947eb812cbdacbf325,667056b7a28e2ba14957656f,,,,,,,,,,,,,,,,,,,,,,,,,,,,,,,,,,,,,,,,,,,,1025.1875,1026.3749,5.67,1.1439,0.0,7.0,7.0,11.0,1.0,song_indices/Despacito_LuisFonsiDaddyYankee.csv,,,,,,,,,,,,,,,,,,,,,,,,,,,,,,,,,,,,,,,,,,,,,,,
,,,,,842067,1,2024-06-17_10h34.07.864,experiment,2024.1.5,Win32,59.88023952,667045947eb812cbdacbf325,667056b7a28e2ba14957656f,,,,,,,,,,,,,,,,,,,,,,,,,,,,,,,,,,,,1026.3766,1034.6436,0.0,0.0,0.0,1.0,1.0,SoundStimuli/Perfect_EdSheeran_Cover5S.wav,,,,,,,,,,,,,,,,,,,,,,,,,,,,,,,,,,,,,,,,,,,,,,,,,,,,,,,,,
,,,,,842067,1,2024-06-17_10h34.07.864,experiment,2024.1.5,Win32,59.88023952,667045947eb812cbdacbf325,667056b7a28e2ba14957656f,,,,,,,,,,,,,,,,,,,,,,,,,,,,,,,,,,,,1034.6819,1043.5469,0.0,1.0,1.0,0.0,1.0,SoundStimuli/Perfect_EdSheeran_Original5S.wav,,,,,,,,,,,,,,,,,,,,,,,,,,,,,,,,,,,,,,,,,,,,,,,,,,,,,,,,,
,,,,,842067,1,2024-06-17_10h34.07.864,experiment,2024.1.5,Win32,59.88023952,667045947eb812cbdacbf325,667056b7a28e2ba14957656f,,,,,,,,,,,,,,,,,,,,,,,,,,,,,,,,,,,,,,,,,,,,1043.5477,1044.3681,6.253333333,0.7731,0.0,8.0,8.0,0.0,1.0,song_indices/Perfect_EdSheeran.csv,,,,,,,,,,,,,,,,,,,,,,,,,,,,,,,,,,,,,,,,,,,,,,,
,,,,,842067,1,2024-06-17_10h34.07.864,experiment,2024.1.5,Win32,59.88023952,667045947eb812cbdacbf325,667056b7a28e2ba14957656f,,,,,,,,,,,,,,,,,,,,,,,,,,,,,,,,,,,,1044.375,1051.2207,0.0,0.0,0.0,1.0,1.0,SoundStimuli/IWannaDanceWithSomebody_WhitneyHouston_Cover5S.wav,,,,,,,,,,,,,,,,,,,,,,,,,,,,,,,,,,,,,,,,,,,,,,,,,,,,,,,,,
,,,,,842067,1,2024-06-17_10h34.07.864,experiment,2024.1.5,Win32,59.88023952,667045947eb812cbdacbf325,667056b7a28e2ba14957656f,,,,,,,,,,,,,,,,,,,,,,,,,,,,,,,,,,,,1051.2694,1056.8497,0.0,1.0,1.0,0.0,1.0,SoundStimuli/IWannaDanceWithSomebody_WhitneyHouston_Original5S.wav,,,,,,,,,,,,,,,,,,,,,,,,,,,,,,,,,,,,,,,,,,,,,,,,,,,,,,,,,
,,,,,842067,1,2024-06-17_10h34.07.864,experiment,2024.1.5,Win32,59.88023952,667045947eb812cbdacbf325,667056b7a28e2ba14957656f,,,,,,,,,,,,,,,,,,,,,,,,,,,,,,,,,,,,,,,,,,,,1056.8502,1057.8156,1.016666667,0.9182,0.0,9.0,9.0,13.0,1.0,song_indices/IWannaDanceWithSomebody_WhitneyHouston.csv,,,,,,,,,,,,,,,,,,,,,,,,,,,,,,,,,,,,,,,,,,,,,,,
,,,,,842067,1,2024-06-17_10h34.07.864,experiment,2024.1.5,Win32,59.88023952,667045947eb812cbdacbf325,667056b7a28e2ba14957656f,,,,,,,,,,,,,,,,,,,,,,,,,,,,,,,,,,,,1057.8192,1064.6964,0.0,0.0,0.0,1.0,1.0,SoundStimuli/GodOnlyKnows_TheBeachBoys_Cover5S.wav,,,,,,,,,,,,,,,,,,,,,,,,,,,,,,,,,,,,,,,,,,,,,,,,,,,,,,,,,
,,,,,842067,1,2024-06-17_10h34.07.864,experiment,2024.1.5,Win32,59.88023952,667045947eb812cbdacbf325,667056b7a28e2ba14957656f,,,,,,,,,,,,,,,,,,,,,,,,,,,,,,,,,,,,1064.731,1070.9845,0.0,1.0,1.0,0.0,1.0,SoundStimuli/GodOnlyKnows_TheBeachBoys_Original5S.wav,,,,,,,,,,,,,,,,,,,,,,,,,,,,,,,,,,,,,,,,,,,,,,,,,,,,,,,,,
,,,,,842067,1,2024-06-17_10h34.07.864,experiment,2024.1.5,Win32,59.88023952,667045947eb812cbdacbf325,667056b7a28e2ba14957656f,,,,,,,,,,,,,,,,,,,,,,,,,,,,,,,,,,,,,,,,,,,,1070.9849,1072.9155,4.673333333,1.8947,0.0,10.0,10.0,8.0,1.0,song_indices/GodOnlyKnows_TheBeachBoys.csv,,,,,,,,,,,,,,,,,,,,,,,,,,,,,,,,,,,,,,,,,,,,,,,
,,,,,842067,1,2024-06-17_10h34.07.864,experiment,2024.1.5,Win32,59.88023952,667045947eb812cbdacbf325,667056b7a28e2ba14957656f,,,,,,,,,,,,,,,,,,,,,,,,,,,,,,,,,,,,1072.9177,1080.3195,0.0,0.0,0.0,0.0,1.0,SoundStimuli/OldTownRoad_LilNasX_Original5S.wav,,,,,,,,,,,,,,,,,,,,,,,,,,,,,,,,,,,,,,,,,,,,,,,,,,,,,,,,,
,,,,,842067,1,2024-06-17_10h34.07.864,experiment,2024.1.5,Win32,59.88023952,667045947eb812cbdacbf325,667056b7a28e2ba14957656f,,,,,,,,,,,,,,,,,,,,,,,,,,,,,,,,,,,,1080.3403,1086.8565,0.0,1.0,1.0,1.0,1.0,SoundStimuli/OldTownRoad_LilNasX_Cover5S.wav,,,,,,,,,,,,,,,,,,,,,,,,,,,,,,,,,,,,,,,,,,,,,,,,,,,,,,,,,
,,,,,842067,1,2024-06-17_10h34.07.864,experiment,2024.1.5,Win32,59.88023952,667045947eb812cbdacbf325,667056b7a28e2ba14957656f,,,,,,,,,,,,,,,,,,,,,,,,,,,,,,,,,,,,,,,,,,,,1086.8575,1087.5674,5.1,0.6801,0.0,11.0,11.0,20.0,1.0,song_indices/OldTownRoad_LilNasX.csv,,,,,,,,,,,,,,,,,,,,,,,,,,,,,,,,,,,,,,,,,,,,,,,
,,,,,842067,1,2024-06-17_10h34.07.864,experiment,2024.1.5,Win32,59.88023952,667045947eb812cbdacbf325,667056b7a28e2ba14957656f,,,,,,,,,,,,,,,,,,,,,,,,,,,,,,,,,,,,1087.5691,1093.7249,0.0,0.0,0.0,0.0,1.0,SoundStimuli/LikeARollingStone_BobDylan_Original5S.wav,,,,,,,,,,,,,,,,,,,,,,,,,,,,,,,,,,,,,,,,,,,,,,,,,,,,,,,,,
,,,,,842067,1,2024-06-17_10h34.07.864,experiment,2024.1.5,Win32,59.88023952,667045947eb812cbdacbf325,667056b7a28e2ba14957656f,,,,,,,,,,,,,,,,,,,,,,,,,,,,,,,,,,,,1093.7654,1098.159,0.0,1.0,1.0,1.0,1.0,SoundStimuli/LikeARollingStone_BobDylan_Cover5S.wav,,,,,,,,,,,,,,,,,,,,,,,,,,,,,,,,,,,,,,,,,,,,,,,,,,,,,,,,,
,,,,,842067,1,2024-06-17_10h34.07.864,experiment,2024.1.5,Win32,59.88023952,667045947eb812cbdacbf325,667056b7a28e2ba14957656f,,,,,,,,,,,,,,,,,,,,,,,,,,,,,,,,,,,,,,,,,,,,1098.1592,1099.2427,1.113333333,1.0527,0.0,12.0,12.0,12.0,1.0,song_indices/LikeARollingStone_BobDylan.csv,,,,,,,,,,,,,,,,,,,,,,,,,,,,,,,,,,,,,,,,,,,,,,,
,,,,,842067,1,2024-06-17_10h34.07.864,experiment,2024.1.5,Win32,59.88023952,667045947eb812cbdacbf325,667056b7a28e2ba14957656f,,,,,,,,,,,,,,,,,,,,,,,,,,,,,,,,,,,,1099.2451,1105.6927,0.0,0.0,0.0,0.0,1.0,SoundStimuli/BadDay_DanielPowter_Original5S.wav,,,,,,,,,,,,,,,,,,,,,,,,,,,,,,,,,,,,,,,,,,,,,,,,,,,,,,,,,
,,,,,842067,1,2024-06-17_10h34.07.864,experiment,2024.1.5,Win32,59.88023952,667045947eb812cbdacbf325,667056b7a28e2ba14957656f,,,,,,,,,,,,,,,,,,,,,,,,,,,,,,,,,,,,1105.722,1113.2137,0.0,1.0,1.0,1.0,1.0,SoundStimuli/BadDay_DanielPowter_Cover5S.wav,,,,,,,,,,,,,,,,,,,,,,,,,,,,,,,,,,,,,,,,,,,,,,,,,,,,,,,,,
,,,,,842067,1,2024-06-17_10h34.07.864,experiment,2024.1.5,Win32,59.88023952,667045947eb812cbdacbf325,667056b7a28e2ba14957656f,,,,,,,,,,,,,,,,,,,,,,,,,,,,,,,,,,,,,,,,,,,,1113.2139,1114.0641,6.176666667,0.8262,0.0,13.0,13.0,22.0,1.0,song_indices/BadDay_DanielPowter.csv,,,,,,,,,,,,,,,,,,,,,,,,,,,,,,,,,,,,,,,,,,,,,,,
,,,,,842067,1,2024-06-17_10h34.07.864,experiment,2024.1.5,Win32,59.88023952,667045947eb812cbdacbf325,667056b7a28e2ba14957656f,,,,,,,,,,,,,,,,,,,,,,,,,,,,,,,,,,,,1114.0666,1122.3499,0.0,0.0,0.0,1.0,1.0,SoundStimuli/Mood_24kGoldnianndior_Cover5S.wav,,,,,,,,,,,,,,,,,,,,,,,,,,,,,,,,,,,,,,,,,,,,,,,,,,,,,,,,,
,,,,,842067,1,2024-06-17_10h34.07.864,experiment,2024.1.5,Win32,59.88023952,667045947eb812cbdacbf325,667056b7a28e2ba14957656f,,,,,,,,,,,,,,,,,,,,,,,,,,,,,,,,,,,,1122.3716,1128.6682,0.0,1.0,1.0,0.0,1.0,SoundStimuli/Mood_24kGoldnianndior_Original5S.wav,,,,,,,,,,,,,,,,,,,,,,,,,,,,,,,,,,,,,,,,,,,,,,,,,,,,,,,,,
,,,,,842067,1,2024-06-17_10h34.07.864,experiment,2024.1.5,Win32,59.88023952,667045947eb812cbdacbf325,667056b7a28e2ba14957656f,,,,,,,,,,,,,,,,,,,,,,,,,,,,,,,,,,,,,,,,,,,,1128.6685,1129.4062,3.2,0.7148,0.0,14.0,14.0,5.0,1.0,song_indices/Mood_24kGoldnianndior.csv,,,,,,,,,,,,,,,,,,,,,,,,,,,,,,,,,,,,,,,,,,,,,,,
,,,,,842067,1,2024-06-17_10h34.07.864,experiment,2024.1.5,Win32,59.88023952,667045947eb812cbdacbf325,667056b7a28e2ba14957656f,,,,,,,,,,,,,,,,,,,,,,,,,,,,,,,,,,,,1129.4082,1137.0859,0.0,0.0,0.0,1.0,1.0,SoundStimuli/LivinOnAPrayer_BonJovi_Cover5S.wav,,,,,,,,,,,,,,,,,,,,,,,,,,,,,,,,,,,,,,,,,,,,,,,,,,,,,,,,,
,,,,,842067,1,2024-06-17_10h34.07.864,experiment,2024.1.5,Win32,59.88023952,667045947eb812cbdacbf325,667056b7a28e2ba14957656f,,,,,,,,,,,,,,,,,,,,,,,,,,,,,,,,,,,,1137.1281,1143.3705,0.0,1.0,1.0,0.0,1.0,SoundStimuli/LivinOnAPrayer_BonJovi_Original5S.wav,,,,,,,,,,,,,,,,,,,,,,,,,,,,,,,,,,,,,,,,,,,,,,,,,,,,,,,,,
,,,,,842067,1,2024-06-17_10h34.07.864,experiment,2024.1.5,Win32,59.88023952,667045947eb812cbdacbf325,667056b7a28e2ba14957656f,,,,,,,,,,,,,,,,,,,,,,,,,,,,,,,,,,,,,,,,,,,,1143.3708,1144.0912,1.096666667,0.701,0.0,15.0,15.0,16.0,1.0,song_indices/LivinOnAPrayer_BonJovi.csv,,,,,,,,,,,,,,,,,,,,,,,,,,,,,,,,,,,,,,,,,,,,,,,
,,,,,842067,1,2024-06-17_10h34.07.864,experiment,2024.1.5,Win32,59.88023952,667045947eb812cbdacbf325,667056b7a28e2ba14957656f,,,,,,,,,,,,,,,,,,,,,,,,,,,,,,,,,,,,1144.0939,1150.4811,0.0,0.0,0.0,0.0,1.0,SoundStimuli/MyGirl_TheTemptations_Original5S.wav,,,,,,,,,,,,,,,,,,,,,,,,,,,,,,,,,,,,,,,,,,,,,,,,,,,,,,,,,
,,,,,842067,1,2024-06-17_10h34.07.864,experiment,2024.1.5,Win32,59.88023952,667045947eb812cbdacbf325,667056b7a28e2ba14957656f,,,,,,,,,,,,,,,,,,,,,,,,,,,,,,,,,,,,1150.5211,1158.1968,0.0,1.0,1.0,1.0,1.0,SoundStimuli/MyGirl_TheTemptations_Cover5S.wav,,,,,,,,,,,,,,,,,,,,,,,,,,,,,,,,,,,,,,,,,,,,,,,,,,,,,,,,,
,,,,,842067,1,2024-06-17_10h34.07.864,experiment,2024.1.5,Win32,59.88023952,667045947eb812cbdacbf325,667056b7a28e2ba14957656f,,,,,,,,,,,,,,,,,,,,,,,,,,,,,,,,,,,,,,,,,,,,1158.1976,1159.1633,1.090000203,0.9144,0.0,16.0,16.0,15.0,1.0,song_indices/MyGirl_TheTemptations.csv,,,,,,,,,,,,,,,,,,,,,,,,,,,,,,,,,,,,,,,,,,,,,,,
,,,,,842067,1,2024-06-17_10h34.07.864,experiment,2024.1.5,Win32,59.88023952,667045947eb812cbdacbf325,667056b7a28e2ba14957656f,,,,,,,,,,,,,,,,,,,,,,,,,,,,,,,,,,,,1159.1663,1167.2976,0.0,0.0,0.0,1.0,1.0,SoundStimuli/AnotherOneBitesTheDust_Queen_Cover5S.wav,,,,,,,,,,,,,,,,,,,,,,,,,,,,,,,,,,,,,,,,,,,,,,,,,,,,,,,,,
,,,,,842067,1,2024-06-17_10h34.07.864,experiment,2024.1.5,Win32,59.88023952,667045947eb812cbdacbf325,667056b7a28e2ba14957656f,,,,,,,,,,,,,,,,,,,,,,,,,,,,,,,,,,,,1167.3502,1173.3918,0.0,1.0,1.0,0.0,1.0,SoundStimuli/AnotherOneBitesTheDust_Queen_Original5S.wav,,,,,,,,,,,,,,,,,,,,,,,,,,,,,,,,,,,,,,,,,,,,,,,,,,,,,,,,,
,,,,,842067,1,2024-06-17_10h34.07.864,experiment,2024.1.5,Win32,59.88023952,667045947eb812cbdacbf325,667056b7a28e2ba14957656f,,,,,,,,,,,,,,,,,,,,,,,,,,,,,,,,,,,,,,,,,,,,1173.3929,1174.3313,2.873333333,0.8939,0.0,17.0,17.0,9.0,1.0,song_indices/AnotherOneBitesTheDust_Queen.csv,,,,,,,,,,,,,,,,,,,,,,,,,,,,,,,,,,,,,,,,,,,,,,,
,,,,,842067,1,2024-06-17_10h34.07.864,experiment,2024.1.5,Win32,59.88023952,667045947eb812cbdacbf325,667056b7a28e2ba14957656f,,,,,,,,,,,,,,,,,,,,,,,,,,,,,,,,,,,,1174.3339,1180.4446,0.0,0.0,0.0,1.0,1.0,SoundStimuli/Smooth_SantanaRobThomas_Cover5S.wav,,,,,,,,,,,,,,,,,,,,,,,,,,,,,,,,,,,,,,,,,,,,,,,,,,,,,,,,,
,,,,,842067,1,2024-06-17_10h34.07.864,experiment,2024.1.5,Win32,59.88023952,667045947eb812cbdacbf325,667056b7a28e2ba14957656f,,,,,,,,,,,,,,,,,,,,,,,,,,,,,,,,,,,,1180.4891,1186.7149,0.0,1.0,1.0,0.0,1.0,SoundStimuli/Smooth_SantanaRobThomas_Original5S.wav,,,,,,,,,,,,,,,,,,,,,,,,,,,,,,,,,,,,,,,,,,,,,,,,,,,,,,,,,
,,,,,842067,1,2024-06-17_10h34.07.864,experiment,2024.1.5,Win32,59.88023952,667045947eb812cbdacbf325,667056b7a28e2ba14957656f,,,,,,,,,,,,,,,,,,,,,,,,,,,,,,,,,,,,,,,,,,,,1186.7155,1188.7096,5.646666667,1.9515,0.0,18.0,18.0,4.0,1.0,song_indices/Smooth_SantanaRobThomas.csv,,,,,,,,,,,,,,,,,,,,,,,,,,,,,,,,,,,,,,,,,,,,,,,
,,,,,842067,1,2024-06-17_10h34.07.864,experiment,2024.1.5,Win32,59.88023952,667045947eb812cbdacbf325,667056b7a28e2ba14957656f,,,,,,,,,,,,,,,,,,,,,,,,,,,,,,,,,,,,1188.7111,1197.3267,0.0,0.0,0.0,1.0,1.0,SoundStimuli/HeatWaves_GlassAnimals_Cover5S.wav,,,,,,,,,,,,,,,,,,,,,,,,,,,,,,,,,,,,,,,,,,,,,,,,,,,,,,,,,
,,,,,842067,1,2024-06-17_10h34.07.864,experiment,2024.1.5,Win32,59.88023952,667045947eb812cbdacbf325,667056b7a28e2ba14957656f,,,,,,,,,,,,,,,,,,,,,,,,,,,,,,,,,,,,1197.3951,1203.4989,0.0,1.0,1.0,0.0,1.0,SoundStimuli/HeatWaves_GlassAnimals_Original5S.wav,,,,,,,,,,,,,,,,,,,,,,,,,,,,,,,,,,,,,,,,,,,,,,,,,,,,,,,,,
,,,,,842067,1,2024-06-17_10h34.07.864,experiment,2024.1.5,Win32,59.88023952,667045947eb812cbdacbf325,667056b7a28e2ba14957656f,,,,,,,,,,,,,,,,,,,,,,,,,,,,,,,,,,,,,,,,,,,,1203.4991,1205.3098,5.153333333,1.7767,0.0,19.0,19.0,10.0,1.0,song_indices/HeatWaves_GlassAnimals.csv,,,,,,,,,,,,,,,,,,,,,,,,,,,,,,,,,,,,,,,,,,,,,,,
,,,,,842067,1,2024-06-17_10h34.07.864,experiment,2024.1.5,Win32,59.88023952,667045947eb812cbdacbf325,667056b7a28e2ba14957656f,,,,,,,,,,,,,,,,,,,,,,,,,,,,,,,,,,,,1205.3113,1212.8092,0.0,0.0,0.0,1.0,1.0,SoundStimuli/EndlessLove_DianaRossLionelRichie_Cover5S.wav,,,,,,,,,,,,,,,,,,,,,,,,,,,,,,,,,,,,,,,,,,,,,,,,,,,,,,,,,
,,,,,842067,1,2024-06-17_10h34.07.864,experiment,2024.1.5,Win32,59.88023952,667045947eb812cbdacbf325,667056b7a28e2ba14957656f,,,,,,,,,,,,,,,,,,,,,,,,,,,,,,,,,,,,1212.85,1219.2027,0.0,1.0,1.0,0.0,1.0,SoundStimuli/EndlessLove_DianaRossLionelRichie_Original5S.wav,,,,,,,,,,,,,,,,,,,,,,,,,,,,,,,,,,,,,,,,,,,,,,,,,,,,,,,,,
,,,,,842067,1,2024-06-17_10h34.07.864,experiment,2024.1.5,Win32,59.88023952,667045947eb812cbdacbf325,667056b7a28e2ba14957656f,,,,,,,,,,,,,,,,,,,,,,,,,,,,,,,,,,,,,,,,,,,,1219.2029,1220.4267,5.806666667,1.1969,0.0,20.0,20.0,3.0,1.0,song_indices/EndlessLove_DianaRossLionelRichie.csv,,,,,,,,,,,,,,,,,,,,,,,,,,,,,,,,,,,,,,,,,,,,,,,
,,,,,842067,1,2024-06-17_10h34.07.864,experiment,2024.1.5,Win32,59.88023952,667045947eb812cbdacbf325,667056b7a28e2ba14957656f,,,,,,,,,,,,,,,,,,,,,,,,,,,,,,,,,,,,1220.432,1226.4711,0.0,0.0,0.0,0.0,1.0,SoundStimuli/AChangeIsGonnaCome_SamCooke_Original5S.wav,,,,,,,,,,,,,,,,,,,,,,,,,,,,,,,,,,,,,,,,,,,,,,,,,,,,,,,,,
,,,,,842067,1,2024-06-17_10h34.07.864,experiment,2024.1.5,Win32,59.88023952,667045947eb812cbdacbf325,667056b7a28e2ba14957656f,,,,,,,,,,,,,,,,,,,,,,,,,,,,,,,,,,,,1226.5324,1231.2836,0.0,1.0,1.0,1.0,1.0,SoundStimuli/AChangeIsGonnaCome_SamCooke_Cover5S.wav,,,,,,,,,,,,,,,,,,,,,,,,,,,,,,,,,,,,,,,,,,,,,,,,,,,,,,,,,
,,,,,842067,1,2024-06-17_10h34.07.864,experiment,2024.1.5,Win32,59.88023952,667045947eb812cbdacbf325,667056b7a28e2ba14957656f,,,,,,,,,,,,,,,,,,,,,,,,,,,,,,,,,,,,,,,,,,,,1231.2844,1232.9758,4.596667074,1.6466,0.0,21.0,21.0,17.0,1.0,song_indices/AChangeIsGonnaCome_SamCooke.csv,,,,,,,,,,,,,,,,,,,,,,,,,,,,,,,,,,,,,,,,,,,,,,,
,,,,,842067,1,2024-06-17_10h34.07.864,experiment,2024.1.5,Win32,59.88023952,667045947eb812cbdacbf325,667056b7a28e2ba14957656f,,,,,,,,,,,,,,,,,,,,,,,,,,,,,,,,,,,,1232.978,1239.0653,0.0,0.0,0.0,0.0,1.0,SoundStimuli/IllMakeLoveToYou_BoyzIIMen_Original5S.wav,,,,,,,,,,,,,,,,,,,,,,,,,,,,,,,,,,,,,,,,,,,,,,,,,,,,,,,,,
,,,,,842067,1,2024-06-17_10h34.07.864,experiment,2024.1.5,Win32,59.88023952,667045947eb812cbdacbf325,667056b7a28e2ba14957656f,,,,,,,,,,,,,,,,,,,,,,,,,,,,,,,,,,,,1239.0992,1245.0314,0.0,1.0,1.0,1.0,1.0,SoundStimuli/IllMakeLoveToYou_BoyzIIMen_Cover5S.wav,,,,,,,,,,,,,,,,,,,,,,,,,,,,,,,,,,,,,,,,,,,,,,,,,,,,,,,,,
,,,,,842067,1,2024-06-17_10h34.07.864,experiment,2024.1.5,Win32,59.88023952,667045947eb812cbdacbf325,667056b7a28e2ba14957656f,,,,,,,,,,,,,,,,,,,,,,,,,,,,,,,,,,,,,,,,,,,,1245.0316,1247.2653,4.566666667,2.2149,0.0,22.0,22.0,6.0,1.0,song_indices/IllMakeLoveToYou_BoyzIIMen.csv,,,,,,,,,,,,,,,,,,,,,,,,,,,,,,,,,,,,,,,,,,,,,,,
,,,,,842067,1,2024-06-17_10h34.07.864,experiment,2024.1.5,Win32,59.88023952,667045947eb812cbdacbf325,667056b7a28e2ba14957656f,,,,,,,,,,,,,,,,,,,,,,,,,,,,,,,,,,,,,,,,,,,,,,,,,,,,,,1247.2654,1247.2654,,,,0.0,2.0,2.0,0.0,1.0,choose_song_b1.csv,,,,,,,,,,,,,,,,,,,,,,,,,,,,,,,,,,,,
,,,,,842067,1,2024-06-17_10h34.07.864,experiment,2024.1.5,Win32,59.88023952,667045947eb812cbdacbf325,667056b7a28e2ba14957656f,,,,,,,,,,,,,,,,,,,,,,,,,,,,,,,,,,,,,,,,,,,,,,,,,,,,,,,,,,,,,,,,,51.0,Item 2,I am not a musician,Item 4,Apple music and spotify,2.0,5.0,"Folding laundry, exercising, driving",Sometimes,Always,Never,Rarely,Rarely,Often,Sometimes,Rarely,Often,Always,Rarely,Rarely,Sometimes,Often,Sometimes,,R&B,Country,Classical,No,Everything is covered by previous questions,0.0,0.0,0.0,0.0,1.0,,
,,,,,842067,1,2024-06-17_10h34.07.864,experiment,2024.1.5,Win32,59.88023952,667045947eb812cbdacbf325,667056b7a28e2ba14957656f,,,,,,,,,,,,,,,,,,,,,,,,,,,,,,,,,,,,,,,,,,,,,,,,,,,,,,,,,,,,,,,,,,,,,,,,,,,,,,,,,,,,,,,,,,,,,,,,,,,1515.4347,1515.888
