welcome.started,welcome.stopped,space_to_continue.keys,space_to_continue.rt,space_to_continue.duration,participant,session,date,expName,psychopyVersion,OS,frameRate,STUDY_ID,SESSION_ID,consent.consent,consent.consent_recontact,consent_check.started,consent_check.stopped,calibration_ready.started,calibration_ready.stopped,cal_ready.keys,cal_ready.rt,cal_ready.duration,calibration.started,calibration.stopped,mouse.x,mouse.y,mouse.leftButton,mouse.midButton,mouse.rightButton,mouse.time,mouse.clicked_name,move_on.keys,move_on.rt,move_on.duration,instructions.started,instructions.stopped,next.keys,next.rt,next.duration,practice_trial.started,practice_trial.stopped,practice_slider.response,practice_slider.rt,ready.started,ready.stopped,key_resp.keys,key_resp.rt,key_resp.duration,play_sound.started,play_sound.stopped,trials.thisRepN,trials.thisTrialN,trials.thisN,trials.thisIndex,trials.ran,orig_or_cover,rating.started,rating.stopped,slider.response,slider.rt,songs.thisRepN,songs.thisTrialN,songs.thisN,songs.thisIndex,songs.ran,song_id,short_break.started,short_break.stopped,space_to_move_on.keys,space_to_move_on.rt,space_to_move_on.duration,blocks.thisRepN,blocks.thisTrialN,blocks.thisN,blocks.thisIndex,blocks.ran,block,survey.age,survey.musician,survey.music_making,survey.listen_time,survey.medium,survey.music_seeking,survey.music_choice,survey.activities,survey.question1.Metal,survey.question1.A cappella,survey.question1.Electronic (EDM),survey.question1.Classical,survey.question1.Reggae,survey.question1.Hip hop,survey.question1.Folk/indie,survey.question1.Pop,survey.question1.Country,survey.question1.Disco,survey.question1.Jazz,survey.question1.Alternative rock,survey.question1.Latin,survey.question1.R&B,survey.question1.Classic rock,survey.question1.Ambient,survey.other_genres,survey.genres_ranked.text1,survey.genres_ranked.text2,survey.genres_ranked.text3,survey.habit_change,survey.habits,experiment.thisRepN,experiment.thisTrialN,experiment.thisN,experiment.thisIndex,experiment.ran,goodbye.started,goodbye.stopped
0.0004,3.4053,space,3.3846,,991830,1,2024-06-17_07h39.21.921,experiment,2024.1.5,MacIntel,60.24096386,667045947eb812cbdacbf325,66704a68f5ca71c26122881e,,,,,,,,,,,,,,,,,,,,,,,,,,,,,,,,,,,,,,,,,,,,,,,,,,,,,,,,,,,,,,,,,,,,,,,,,,,,,,,,,,,,,,,,,,,,,,,,,,,,,
,,,,,991830,1,2024-06-17_07h39.21.921,experiment,2024.1.5,MacIntel,60.24096386,667045947eb812cbdacbf325,66704a68f5ca71c26122881e,yes,yes,,,,,,,,,,,,,,,,,,,,,,,,,,,,,,,,,,,,,,,,,,,,,,,,,,,,,,,,,,,,,,,,,,,,,,,,,,,,,,,,,,,,,,,,,,,,,,,,,,,
,,,,,991830,1,2024-06-17_07h39.21.921,experiment,2024.1.5,MacIntel,60.24096386,667045947eb812cbdacbf325,66704a68f5ca71c26122881e,,,21.948,21.9482,,,,,,,,,,,,,,,,,,,,,,,,,,,,,,,,,,,,,,,,,,,,,,,,,,,,,,,,,,,,,,,,,,,,,,,,,,,,,,,,,,,,,,,,,,,,,,,,,
,,,,,991830,1,2024-06-17_07h39.21.921,experiment,2024.1.5,MacIntel,60.24096386,667045947eb812cbdacbf325,66704a68f5ca71c26122881e,,,,,21.9508,179.5082,space,157.5361,,179.5085,194.7925,[],[],[],[],[],[],[],right,5.2386,,194.8037,208.4108,space,13.5787,,208.4111,236.3607,5.053098958,27.933,236.361,239.7089,space,3.3322,,239.7353,245.8433,0.0,0.0,0.0,0.0,1.0,SoundStimuli/JoyToTheWorld_ThreeDogNight_Original5S.wav,,,,,,,,,,,,,,,,,,,,,,,,,,,,,,,,,,,,,,,,,,,,,,,,,,,,,,,,,,
,,,,,991830,1,2024-06-17_07h39.21.921,experiment,2024.1.5,MacIntel,60.24096386,667045947eb812cbdacbf325,66704a68f5ca71c26122881e,,,,,,,,,,,,,,,,,,,,,,,,,,,,,,,,,,,,245.8441,250.978,0.0,1.0,1.0,1.0,1.0,SoundStimuli/JoyToTheWorld_ThreeDogNight_Cover5S.wav,,,,,,,,,,,,,,,,,,,,,,,,,,,,,,,,,,,,,,,,,,,,,,,,,,,,,,,,,,
,,,,,991830,1,2024-06-17_07h39.21.921,experiment,2024.1.5,MacIntel,60.24096386,667045947eb812cbdacbf325,66704a68f5ca71c26122881e,,,,,,,,,,,,,,,,,,,,,,,,,,,,,,,,,,,,,,,,,,,,250.9801,255.6675,6.51125,4.6783,0.0,0.0,0.0,8.0,1.0,song_indices/JoyToTheWorld_ThreeDogNight.csv,,,,,,,,,,,,,,,,,,,,,,,,,,,,,,,,,,,,,,,,,,,,,,,,
,,,,,991830,1,2024-06-17_07h39.21.921,experiment,2024.1.5,MacIntel,60.24096386,667045947eb812cbdacbf325,66704a68f5ca71c26122881e,,,,,,,,,,,,,,,,,,,,,,,,,,,,,,,,,,,,255.6683,262.6602,0.0,0.0,0.0,1.0,1.0,SoundStimuli/Dilemma_NellyKellyRowland_Cover5S.wav,,,,,,,,,,,,,,,,,,,,,,,,,,,,,,,,,,,,,,,,,,,,,,,,,,,,,,,,,,
,,,,,991830,1,2024-06-17_07h39.21.921,experiment,2024.1.5,MacIntel,60.24096386,667045947eb812cbdacbf325,66704a68f5ca71c26122881e,,,,,,,,,,,,,,,,,,,,,,,,,,,,,,,,,,,,262.6733,268.8602,0.0,1.0,1.0,0.0,1.0,SoundStimuli/Dilemma_NellyKellyRowland_Original5S.wav,,,,,,,,,,,,,,,,,,,,,,,,,,,,,,,,,,,,,,,,,,,,,,,,,,,,,,,,,,
,,,,,991830,1,2024-06-17_07h39.21.921,experiment,2024.1.5,MacIntel,60.24096386,667045947eb812cbdacbf325,66704a68f5ca71c26122881e,,,,,,,,,,,,,,,,,,,,,,,,,,,,,,,,,,,,,,,,,,,,268.8605,275.5012,3.996380208,6.621,0.0,1.0,1.0,2.0,1.0,song_indices/Dilemma_NellyKellyRowland.csv,,,,,,,,,,,,,,,,,,,,,,,,,,,,,,,,,,,,,,,,,,,,,,,,
,,,,,991830,1,2024-06-17_07h39.21.921,experiment,2024.1.5,MacIntel,60.24096386,667045947eb812cbdacbf325,66704a68f5ca71c26122881e,,,,,,,,,,,,,,,,,,,,,,,,,,,,,,,,,,,,275.5018,282.2939,0.0,0.0,0.0,1.0,1.0,SoundStimuli/BlindingLights_TheWeeknd_Cover5S.wav,,,,,,,,,,,,,,,,,,,,,,,,,,,,,,,,,,,,,,,,,,,,,,,,,,,,,,,,,,
,,,,,991830,1,2024-06-17_07h39.21.921,experiment,2024.1.5,MacIntel,60.24096386,667045947eb812cbdacbf325,66704a68f5ca71c26122881e,,,,,,,,,,,,,,,,,,,,,,,,,,,,,,,,,,,,282.3044,288.777,0.0,1.0,1.0,0.0,1.0,SoundStimuli/BlindingLights_TheWeeknd_Original5S.wav,,,,,,,,,,,,,,,,,,,,,,,,,,,,,,,,,,,,,,,,,,,,,,,,,,,,,,,,,,
,,,,,991830,1,2024-06-17_07h39.21.921,experiment,2024.1.5,MacIntel,60.24096386,667045947eb812cbdacbf325,66704a68f5ca71c26122881e,,,,,,,,,,,,,,,,,,,,,,,,,,,,,,,,,,,,,,,,,,,,288.7771,290.8603,6.553828125,2.0763,0.0,2.0,2.0,21.0,1.0,song_indices/BlindingLights_TheWeeknd.csv,,,,,,,,,,,,,,,,,,,,,,,,,,,,,,,,,,,,,,,,,,,,,,,,
,,,,,991830,1,2024-06-17_07h39.21.921,experiment,2024.1.5,MacIntel,60.24096386,667045947eb812cbdacbf325,66704a68f5ca71c26122881e,,,,,,,,,,,,,,,,,,,,,,,,,,,,,,,,,,,,290.8611,296.9607,0.0,0.0,0.0,0.0,1.0,SoundStimuli/ComeAndGetYourLove_Redbone_Original5S.wav,,,,,,,,,,,,,,,,,,,,,,,,,,,,,,,,,,,,,,,,,,,,,,,,,,,,,,,,,,
,,,,,991830,1,2024-06-17_07h39.21.921,experiment,2024.1.5,MacIntel,60.24096386,667045947eb812cbdacbf325,66704a68f5ca71c26122881e,,,,,,,,,,,,,,,,,,,,,,,,,,,,,,,,,,,,296.972,304.0277,0.0,1.0,1.0,1.0,1.0,SoundStimuli/ComeAndGetYourLove_Redbone_Cover5S.wav,,,,,,,,,,,,,,,,,,,,,,,,,,,,,,,,,,,,,,,,,,,,,,,,,,,,,,,,,,
,,,,,991830,1,2024-06-17_07h39.21.921,experiment,2024.1.5,MacIntel,60.24096386,667045947eb812cbdacbf325,66704a68f5ca71c26122881e,,,,,,,,,,,,,,,,,,,,,,,,,,,,,,,,,,,,,,,,,,,,304.028,306.1606,4.949765625,2.1215,0.0,3.0,3.0,22.0,1.0,song_indices/ComeAndGetYourLove_Redbone.csv,,,,,,,,,,,,,,,,,,,,,,,,,,,,,,,,,,,,,,,,,,,,,,,,
,,,,,991830,1,2024-06-17_07h39.21.921,experiment,2024.1.5,MacIntel,60.24096386,667045947eb812cbdacbf325,66704a68f5ca71c26122881e,,,,,,,,,,,,,,,,,,,,,,,,,,,,,,,,,,,,306.1613,312.2612,0.0,0.0,0.0,0.0,1.0,SoundStimuli/UnbreakMyHeart_ToniBraxton_Original5S.wav,,,,,,,,,,,,,,,,,,,,,,,,,,,,,,,,,,,,,,,,,,,,,,,,,,,,,,,,,,
,,,,,991830,1,2024-06-17_07h39.21.921,experiment,2024.1.5,MacIntel,60.24096386,667045947eb812cbdacbf325,66704a68f5ca71c26122881e,,,,,,,,,,,,,,,,,,,,,,,,,,,,,,,,,,,,312.2737,316.2445,0.0,1.0,1.0,1.0,1.0,SoundStimuli/UnbreakMyHeart_ToniBraxton_Cover5S.wav,,,,,,,,,,,,,,,,,,,,,,,,,,,,,,,,,,,,,,,,,,,,,,,,,,,,,,,,,,
,,,,,991830,1,2024-06-17_07h39.21.921,experiment,2024.1.5,MacIntel,60.24096386,667045947eb812cbdacbf325,66704a68f5ca71c26122881e,,,,,,,,,,,,,,,,,,,,,,,,,,,,,,,,,,,,,,,,,,,,316.2446,325.9044,4.042369792,9.6378,0.0,4.0,4.0,16.0,1.0,song_indices/UnbreakMyHeart_ToniBraxton.csv,,,,,,,,,,,,,,,,,,,,,,,,,,,,,,,,,,,,,,,,,,,,,,,,
,,,,,991830,1,2024-06-17_07h39.21.921,experiment,2024.1.5,MacIntel,60.24096386,667045947eb812cbdacbf325,66704a68f5ca71c26122881e,,,,,,,,,,,,,,,,,,,,,,,,,,,,,,,,,,,,325.905,331.2115,0.0,0.0,0.0,1.0,1.0,SoundStimuli/Superstition_StevieWonder_Cover5S.wav,,,,,,,,,,,,,,,,,,,,,,,,,,,,,,,,,,,,,,,,,,,,,,,,,,,,,,,,,,
,,,,,991830,1,2024-06-17_07h39.21.921,experiment,2024.1.5,MacIntel,60.24096386,667045947eb812cbdacbf325,66704a68f5ca71c26122881e,,,,,,,,,,,,,,,,,,,,,,,,,,,,,,,,,,,,331.2225,337.3622,0.0,1.0,1.0,0.0,1.0,SoundStimuli/Superstition_StevieWonder_Original5S.wav,,,,,,,,,,,,,,,,,,,,,,,,,,,,,,,,,,,,,,,,,,,,,,,,,,,,,,,,,,
,,,,,991830,1,2024-06-17_07h39.21.921,experiment,2024.1.5,MacIntel,60.24096386,667045947eb812cbdacbf325,66704a68f5ca71c26122881e,,,,,,,,,,,,,,,,,,,,,,,,,,,,,,,,,,,,,,,,,,,,337.3623,339.1946,3.508671875,1.8218,0.0,5.0,5.0,15.0,1.0,song_indices/Superstition_StevieWonder.csv,,,,,,,,,,,,,,,,,,,,,,,,,,,,,,,,,,,,,,,,,,,,,,,,
,,,,,991830,1,2024-06-17_07h39.21.921,experiment,2024.1.5,MacIntel,60.24096386,667045947eb812cbdacbf325,66704a68f5ca71c26122881e,,,,,,,,,,,,,,,,,,,,,,,,,,,,,,,,,,,,339.1954,345.2786,0.0,0.0,0.0,0.0,1.0,SoundStimuli/Weak_SWV_Original5S.wav,,,,,,,,,,,,,,,,,,,,,,,,,,,,,,,,,,,,,,,,,,,,,,,,,,,,,,,,,,
,,,,,991830,1,2024-06-17_07h39.21.921,experiment,2024.1.5,MacIntel,60.24096386,667045947eb812cbdacbf325,66704a68f5ca71c26122881e,,,,,,,,,,,,,,,,,,,,,,,,,,,,,,,,,,,,345.2903,351.762,0.0,1.0,1.0,1.0,1.0,SoundStimuli/Weak_SWV_Cover5S.wav,,,,,,,,,,,,,,,,,,,,,,,,,,,,,,,,,,,,,,,,,,,,,,,,,,,,,,,,,,
,,,,,991830,1,2024-06-17_07h39.21.921,experiment,2024.1.5,MacIntel,60.24096386,667045947eb812cbdacbf325,66704a68f5ca71c26122881e,,,,,,,,,,,,,,,,,,,,,,,,,,,,,,,,,,,,,,,,,,,,351.7622,354.4115,2.538776042,2.6315,0.0,6.0,6.0,6.0,1.0,song_indices/Weak_SWV.csv,,,,,,,,,,,,,,,,,,,,,,,,,,,,,,,,,,,,,,,,,,,,,,,,
,,,,,991830,1,2024-06-17_07h39.21.921,experiment,2024.1.5,MacIntel,60.24096386,667045947eb812cbdacbf325,66704a68f5ca71c26122881e,,,,,,,,,,,,,,,,,,,,,,,,,,,,,,,,,,,,354.4122,360.2946,0.0,0.0,0.0,0.0,1.0,SoundStimuli/Irreplaceable_Beyonce_Original5S.wav,,,,,,,,,,,,,,,,,,,,,,,,,,,,,,,,,,,,,,,,,,,,,,,,,,,,,,,,,,
,,,,,991830,1,2024-06-17_07h39.21.921,experiment,2024.1.5,MacIntel,60.24096386,667045947eb812cbdacbf325,66704a68f5ca71c26122881e,,,,,,,,,,,,,,,,,,,,,,,,,,,,,,,,,,,,360.3058,366.2112,0.0,1.0,1.0,1.0,1.0,SoundStimuli/Irreplaceable_Beyonce_Cover5S.wav,,,,,,,,,,,,,,,,,,,,,,,,,,,,,,,,,,,,,,,,,,,,,,,,,,,,,,,,,,
,,,,,991830,1,2024-06-17_07h39.21.921,experiment,2024.1.5,MacIntel,60.24096386,667045947eb812cbdacbf325,66704a68f5ca71c26122881e,,,,,,,,,,,,,,,,,,,,,,,,,,,,,,,,,,,,,,,,,,,,366.2117,369.4118,4.009453125,3.1871,0.0,7.0,7.0,19.0,1.0,song_indices/Irreplaceable_Beyonce.csv,,,,,,,,,,,,,,,,,,,,,,,,,,,,,,,,,,,,,,,,,,,,,,,,
,,,,,991830,1,2024-06-17_07h39.21.921,experiment,2024.1.5,MacIntel,60.24096386,667045947eb812cbdacbf325,66704a68f5ca71c26122881e,,,,,,,,,,,,,,,,,,,,,,,,,,,,,,,,,,,,369.4127,375.8623,0.0,0.0,0.0,1.0,1.0,SoundStimuli/YouLightUpMyLife_DebbyBoone_Cover5S.wav,,,,,,,,,,,,,,,,,,,,,,,,,,,,,,,,,,,,,,,,,,,,,,,,,,,,,,,,,,
,,,,,991830,1,2024-06-17_07h39.21.921,experiment,2024.1.5,MacIntel,60.24096386,667045947eb812cbdacbf325,66704a68f5ca71c26122881e,,,,,,,,,,,,,,,,,,,,,,,,,,,,,,,,,,,,375.874,381.9451,0.0,1.0,1.0,0.0,1.0,SoundStimuli/YouLightUpMyLife_DebbyBoone_Original5S.wav,,,,,,,,,,,,,,,,,,,,,,,,,,,,,,,,,,,,,,,,,,,,,,,,,,,,,,,,,,
,,,,,991830,1,2024-06-17_07h39.21.921,experiment,2024.1.5,MacIntel,60.24096386,667045947eb812cbdacbf325,66704a68f5ca71c26122881e,,,,,,,,,,,,,,,,,,,,,,,,,,,,,,,,,,,,,,,,,,,,381.9454,387.3122,6.034817708,5.3509,0.0,8.0,8.0,4.0,1.0,song_indices/YouLightUpMyLife_DebbyBoone.csv,,,,,,,,,,,,,,,,,,,,,,,,,,,,,,,,,,,,,,,,,,,,,,,,
,,,,,991830,1,2024-06-17_07h39.21.921,experiment,2024.1.5,MacIntel,60.24096386,667045947eb812cbdacbf325,66704a68f5ca71c26122881e,,,,,,,,,,,,,,,,,,,,,,,,,,,,,,,,,,,,387.3128,393.2127,0.0,0.0,0.0,1.0,1.0,SoundStimuli/SaveYourTears_TheWeekndArianaGrande_Cover5S.wav,,,,,,,,,,,,,,,,,,,,,,,,,,,,,,,,,,,,,,,,,,,,,,,,,,,,,,,,,,
,,,,,991830,1,2024-06-17_07h39.21.921,experiment,2024.1.5,MacIntel,60.24096386,667045947eb812cbdacbf325,66704a68f5ca71c26122881e,,,,,,,,,,,,,,,,,,,,,,,,,,,,,,,,,,,,393.2248,399.4118,0.0,1.0,1.0,0.0,1.0,SoundStimuli/SaveYourTears_TheWeekndArianaGrande_Original5S.wav,,,,,,,,,,,,,,,,,,,,,,,,,,,,,,,,,,,,,,,,,,,,,,,,,,,,,,,,,,
,,,,,991830,1,2024-06-17_07h39.21.921,experiment,2024.1.5,MacIntel,60.24096386,667045947eb812cbdacbf325,66704a68f5ca71c26122881e,,,,,,,,,,,,,,,,,,,,,,,,,,,,,,,,,,,,,,,,,,,,399.4122,404.4948,4.997890625,5.0661,0.0,9.0,9.0,12.0,1.0,song_indices/SaveYourTears_TheWeekndArianaGrande.csv,,,,,,,,,,,,,,,,,,,,,,,,,,,,,,,,,,,,,,,,,,,,,,,,
,,,,,991830,1,2024-06-17_07h39.21.921,experiment,2024.1.5,MacIntel,60.24096386,667045947eb812cbdacbf325,66704a68f5ca71c26122881e,,,,,,,,,,,,,,,,,,,,,,,,,,,,,,,,,,,,404.4955,411.2455,0.0,0.0,0.0,0.0,1.0,SoundStimuli/BlurredLines_RobinThicke_Original5S.wav,,,,,,,,,,,,,,,,,,,,,,,,,,,,,,,,,,,,,,,,,,,,,,,,,,,,,,,,,,
,,,,,991830,1,2024-06-17_07h39.21.921,experiment,2024.1.5,MacIntel,60.24096386,667045947eb812cbdacbf325,66704a68f5ca71c26122881e,,,,,,,,,,,,,,,,,,,,,,,,,,,,,,,,,,,,411.2573,418.3465,0.0,1.0,1.0,1.0,1.0,SoundStimuli/BlurredLines_RobinThicke_Cover5S.wav,,,,,,,,,,,,,,,,,,,,,,,,,,,,,,,,,,,,,,,,,,,,,,,,,,,,,,,,,,
,,,,,991830,1,2024-06-17_07h39.21.921,experiment,2024.1.5,MacIntel,60.24096386,667045947eb812cbdacbf325,66704a68f5ca71c26122881e,,,,,,,,,,,,,,,,,,,,,,,,,,,,,,,,,,,,,,,,,,,,418.347,420.8297,5.997421875,2.4583,0.0,10.0,10.0,9.0,1.0,song_indices/BlurredLines_RobinThicke.csv,,,,,,,,,,,,,,,,,,,,,,,,,,,,,,,,,,,,,,,,,,,,,,,,
,,,,,991830,1,2024-06-17_07h39.21.921,experiment,2024.1.5,MacIntel,60.24096386,667045947eb812cbdacbf325,66704a68f5ca71c26122881e,,,,,,,,,,,,,,,,,,,,,,,,,,,,,,,,,,,,420.8305,428.2634,0.0,0.0,0.0,0.0,1.0,SoundStimuli/Kiss_Prince_Original5S.wav,,,,,,,,,,,,,,,,,,,,,,,,,,,,,,,,,,,,,,,,,,,,,,,,,,,,,,,,,,
,,,,,991830,1,2024-06-17_07h39.21.921,experiment,2024.1.5,MacIntel,60.24096386,667045947eb812cbdacbf325,66704a68f5ca71c26122881e,,,,,,,,,,,,,,,,,,,,,,,,,,,,,,,,,,,,428.2753,434.5458,0.0,1.0,1.0,1.0,1.0,SoundStimuli/Kiss_Prince_Cover5S.wav,,,,,,,,,,,,,,,,,,,,,,,,,,,,,,,,,,,,,,,,,,,,,,,,,,,,,,,,,,
,,,,,991830,1,2024-06-17_07h39.21.921,experiment,2024.1.5,MacIntel,60.24096386,667045947eb812cbdacbf325,66704a68f5ca71c26122881e,,,,,,,,,,,,,,,,,,,,,,,,,,,,,,,,,,,,,,,,,,,,434.5462,440.1654,3.997942708,5.5988,0.0,11.0,11.0,14.0,1.0,song_indices/Kiss_Prince.csv,,,,,,,,,,,,,,,,,,,,,,,,,,,,,,,,,,,,,,,,,,,,,,,,
,,,,,991830,1,2024-06-17_07h39.21.921,experiment,2024.1.5,MacIntel,60.24096386,667045947eb812cbdacbf325,66704a68f5ca71c26122881e,,,,,,,,,,,,,,,,,,,,,,,,,,,,,,,,,,,,440.1661,446.9638,0.0,0.0,0.0,1.0,1.0,SoundStimuli/SomebodyThatIUsedtoKnow_Gotye_Cover5S.wav,,,,,,,,,,,,,,,,,,,,,,,,,,,,,,,,,,,,,,,,,,,,,,,,,,,,,,,,,,
,,,,,991830,1,2024-06-17_07h39.21.921,experiment,2024.1.5,MacIntel,60.24096386,667045947eb812cbdacbf325,66704a68f5ca71c26122881e,,,,,,,,,,,,,,,,,,,,,,,,,,,,,,,,,,,,446.9737,454.1971,0.0,1.0,1.0,0.0,1.0,SoundStimuli/SomebodyThatIUsedtoKnow_Gotye_Original5S.wav,,,,,,,,,,,,,,,,,,,,,,,,,,,,,,,,,,,,,,,,,,,,,,,,,,,,,,,,,,
,,,,,991830,1,2024-06-17_07h39.21.921,experiment,2024.1.5,MacIntel,60.24096386,667045947eb812cbdacbf325,66704a68f5ca71c26122881e,,,,,,,,,,,,,,,,,,,,,,,,,,,,,,,,,,,,,,,,,,,,454.1973,456.9136,5.633880208,2.7039,0.0,12.0,12.0,7.0,1.0,song_indices/SomebodyThatIUsedtoKnow_Gotye.csv,,,,,,,,,,,,,,,,,,,,,,,,,,,,,,,,,,,,,,,,,,,,,,,,
,,,,,991830,1,2024-06-17_07h39.21.921,experiment,2024.1.5,MacIntel,60.24096386,667045947eb812cbdacbf325,66704a68f5ca71c26122881e,,,,,,,,,,,,,,,,,,,,,,,,,,,,,,,,,,,,456.9143,463.214,0.0,0.0,0.0,0.0,1.0,SoundStimuli/LetsGetItOn_MarvinGaye_Original5S.wav,,,,,,,,,,,,,,,,,,,,,,,,,,,,,,,,,,,,,,,,,,,,,,,,,,,,,,,,,,
,,,,,991830,1,2024-06-17_07h39.21.921,experiment,2024.1.5,MacIntel,60.24096386,667045947eb812cbdacbf325,66704a68f5ca71c26122881e,,,,,,,,,,,,,,,,,,,,,,,,,,,,,,,,,,,,463.2252,469.8643,0.0,1.0,1.0,1.0,1.0,SoundStimuli/LetsGetItOn_MarvinGaye_Cover5S.wav,,,,,,,,,,,,,,,,,,,,,,,,,,,,,,,,,,,,,,,,,,,,,,,,,,,,,,,,,,
,,,,,991830,1,2024-06-17_07h39.21.921,experiment,2024.1.5,MacIntel,60.24096386,667045947eb812cbdacbf325,66704a68f5ca71c26122881e,,,,,,,,,,,,,,,,,,,,,,,,,,,,,,,,,,,,,,,,,,,,469.8645,476.0039,5.447395833,6.1212,0.0,13.0,13.0,20.0,1.0,song_indices/LetsGetItOn_MarvinGaye.csv,,,,,,,,,,,,,,,,,,,,,,,,,,,,,,,,,,,,,,,,,,,,,,,,
,,,,,991830,1,2024-06-17_07h39.21.921,experiment,2024.1.5,MacIntel,60.24096386,667045947eb812cbdacbf325,66704a68f5ca71c26122881e,,,,,,,,,,,,,,,,,,,,,,,,,,,,,,,,,,,,476.0045,482.1644,0.0,0.0,0.0,0.0,1.0,SoundStimuli/TheSign_AceOfBase_Original5S.wav,,,,,,,,,,,,,,,,,,,,,,,,,,,,,,,,,,,,,,,,,,,,,,,,,,,,,,,,,,
,,,,,991830,1,2024-06-17_07h39.21.921,experiment,2024.1.5,MacIntel,60.24096386,667045947eb812cbdacbf325,66704a68f5ca71c26122881e,,,,,,,,,,,,,,,,,,,,,,,,,,,,,,,,,,,,482.1779,488.181,0.0,1.0,1.0,1.0,1.0,SoundStimuli/TheSign_AceOfBase_Cover5S.wav,,,,,,,,,,,,,,,,,,,,,,,,,,,,,,,,,,,,,,,,,,,,,,,,,,,,,,,,,,
,,,,,991830,1,2024-06-17_07h39.21.921,experiment,2024.1.5,MacIntel,60.24096386,667045947eb812cbdacbf325,66704a68f5ca71c26122881e,,,,,,,,,,,,,,,,,,,,,,,,,,,,,,,,,,,,,,,,,,,,488.1813,492.7637,4.987864583,4.5708,0.0,14.0,14.0,5.0,1.0,song_indices/TheSign_AceOfBase.csv,,,,,,,,,,,,,,,,,,,,,,,,,,,,,,,,,,,,,,,,,,,,,,,,
,,,,,991830,1,2024-06-17_07h39.21.921,experiment,2024.1.5,MacIntel,60.24096386,667045947eb812cbdacbf325,66704a68f5ca71c26122881e,,,,,,,,,,,,,,,,,,,,,,,,,,,,,,,,,,,,492.7642,498.2813,0.0,0.0,0.0,1.0,1.0,SoundStimuli/LeFreak_Chic_Cover5S.wav,,,,,,,,,,,,,,,,,,,,,,,,,,,,,,,,,,,,,,,,,,,,,,,,,,,,,,,,,,
,,,,,991830,1,2024-06-17_07h39.21.921,experiment,2024.1.5,MacIntel,60.24096386,667045947eb812cbdacbf325,66704a68f5ca71c26122881e,,,,,,,,,,,,,,,,,,,,,,,,,,,,,,,,,,,,498.2924,504.3149,0.0,1.0,1.0,0.0,1.0,SoundStimuli/LeFreak_Chic_Original5S.wav,,,,,,,,,,,,,,,,,,,,,,,,,,,,,,,,,,,,,,,,,,,,,,,,,,,,,,,,,,
,,,,,991830,1,2024-06-17_07h39.21.921,experiment,2024.1.5,MacIntel,60.24096386,667045947eb812cbdacbf325,66704a68f5ca71c26122881e,,,,,,,,,,,,,,,,,,,,,,,,,,,,,,,,,,,,,,,,,,,,504.3151,507.1311,4.486614583,2.8052,0.0,15.0,15.0,11.0,1.0,song_indices/LeFreak_Chic.csv,,,,,,,,,,,,,,,,,,,,,,,,,,,,,,,,,,,,,,,,,,,,,,,,
,,,,,991830,1,2024-06-17_07h39.21.921,experiment,2024.1.5,MacIntel,60.24096386,667045947eb812cbdacbf325,66704a68f5ca71c26122881e,,,,,,,,,,,,,,,,,,,,,,,,,,,,,,,,,,,,507.1318,514.4152,0.0,0.0,0.0,1.0,1.0,SoundStimuli/FlashdanceWhatAFeeling_IreneCara_Cover5S.wav,,,,,,,,,,,,,,,,,,,,,,,,,,,,,,,,,,,,,,,,,,,,,,,,,,,,,,,,,,
,,,,,991830,1,2024-06-17_07h39.21.921,experiment,2024.1.5,MacIntel,60.24096386,667045947eb812cbdacbf325,66704a68f5ca71c26122881e,,,,,,,,,,,,,,,,,,,,,,,,,,,,,,,,,,,,514.4289,520.8152,0.0,1.0,1.0,0.0,1.0,SoundStimuli/FlashdanceWhatAFeeling_IreneCara_Original5S.wav,,,,,,,,,,,,,,,,,,,,,,,,,,,,,,,,,,,,,,,,,,,,,,,,,,,,,,,,,,
,,,,,991830,1,2024-06-17_07h39.21.921,experiment,2024.1.5,MacIntel,60.24096386,667045947eb812cbdacbf325,66704a68f5ca71c26122881e,,,,,,,,,,,,,,,,,,,,,,,,,,,,,,,,,,,,,,,,,,,,520.8156,523.3815,6.02671875,2.5529,0.0,16.0,16.0,18.0,1.0,song_indices/FlashdanceWhatAFeeling_IreneCara.csv,,,,,,,,,,,,,,,,,,,,,,,,,,,,,,,,,,,,,,,,,,,,,,,,
,,,,,991830,1,2024-06-17_07h39.21.921,experiment,2024.1.5,MacIntel,60.24096386,667045947eb812cbdacbf325,66704a68f5ca71c26122881e,,,,,,,,,,,,,,,,,,,,,,,,,,,,,,,,,,,,523.3823,530.3986,0.0,0.0,0.0,0.0,1.0,SoundStimuli/PokerFace_LadyGaga_Original5S.wav,,,,,,,,,,,,,,,,,,,,,,,,,,,,,,,,,,,,,,,,,,,,,,,,,,,,,,,,,,
,,,,,991830,1,2024-06-17_07h39.21.921,experiment,2024.1.5,MacIntel,60.24096386,667045947eb812cbdacbf325,66704a68f5ca71c26122881e,,,,,,,,,,,,,,,,,,,,,,,,,,,,,,,,,,,,530.4115,537.2489,0.0,1.0,1.0,1.0,1.0,SoundStimuli/PokerFace_LadyGaga_Cover5S.wav,,,,,,,,,,,,,,,,,,,,,,,,,,,,,,,,,,,,,,,,,,,,,,,,,,,,,,,,,,
,,,,,991830,1,2024-06-17_07h39.21.921,experiment,2024.1.5,MacIntel,60.24096386,667045947eb812cbdacbf325,66704a68f5ca71c26122881e,,,,,,,,,,,,,,,,,,,,,,,,,,,,,,,,,,,,,,,,,,,,537.2492,540.0668,3.947604167,2.7981,0.0,17.0,17.0,23.0,1.0,song_indices/PokerFace_LadyGaga.csv,,,,,,,,,,,,,,,,,,,,,,,,,,,,,,,,,,,,,,,,,,,,,,,,
,,,,,991830,1,2024-06-17_07h39.21.921,experiment,2024.1.5,MacIntel,60.24096386,667045947eb812cbdacbf325,66704a68f5ca71c26122881e,,,,,,,,,,,,,,,,,,,,,,,,,,,,,,,,,,,,540.0674,546.1824,0.0,0.0,0.0,1.0,1.0,SoundStimuli/TossinAndTurnin_BobbyLewis_Cover5S.wav,,,,,,,,,,,,,,,,,,,,,,,,,,,,,,,,,,,,,,,,,,,,,,,,,,,,,,,,,,
,,,,,991830,1,2024-06-17_07h39.21.921,experiment,2024.1.5,MacIntel,60.24096386,667045947eb812cbdacbf325,66704a68f5ca71c26122881e,,,,,,,,,,,,,,,,,,,,,,,,,,,,,,,,,,,,546.1951,552.249,0.0,1.0,1.0,0.0,1.0,SoundStimuli/TossinAndTurnin_BobbyLewis_Original5S.wav,,,,,,,,,,,,,,,,,,,,,,,,,,,,,,,,,,,,,,,,,,,,,,,,,,,,,,,,,,
,,,,,991830,1,2024-06-17_07h39.21.921,experiment,2024.1.5,MacIntel,60.24096386,667045947eb812cbdacbf325,66704a68f5ca71c26122881e,,,,,,,,,,,,,,,,,,,,,,,,,,,,,,,,,,,,,,,,,,,,552.2492,557.0321,3.141901042,4.7675,0.0,18.0,18.0,13.0,1.0,song_indices/TossinAndTurnin_BobbyLewis.csv,,,,,,,,,,,,,,,,,,,,,,,,,,,,,,,,,,,,,,,,,,,,,,,,
,,,,,991830,1,2024-06-17_07h39.21.921,experiment,2024.1.5,MacIntel,60.24096386,667045947eb812cbdacbf325,66704a68f5ca71c26122881e,,,,,,,,,,,,,,,,,,,,,,,,,,,,,,,,,,,,557.0327,562.966,0.0,0.0,0.0,0.0,1.0,SoundStimuli/Respect_ArethaFranklin_Original5S.wav,,,,,,,,,,,,,,,,,,,,,,,,,,,,,,,,,,,,,,,,,,,,,,,,,,,,,,,,,,
,,,,,991830,1,2024-06-17_07h39.21.921,experiment,2024.1.5,MacIntel,60.24096386,667045947eb812cbdacbf325,66704a68f5ca71c26122881e,,,,,,,,,,,,,,,,,,,,,,,,,,,,,,,,,,,,562.9775,569.0326,0.0,1.0,1.0,1.0,1.0,SoundStimuli/Respect_ArethaFranklin_Cover5S.wav,,,,,,,,,,,,,,,,,,,,,,,,,,,,,,,,,,,,,,,,,,,,,,,,,,,,,,,,,,
,,,,,991830,1,2024-06-17_07h39.21.921,experiment,2024.1.5,MacIntel,60.24096386,667045947eb812cbdacbf325,66704a68f5ca71c26122881e,,,,,,,,,,,,,,,,,,,,,,,,,,,,,,,,,,,,,,,,,,,,569.0329,582.1746,2.999296875,13.1216,0.0,19.0,19.0,0.0,1.0,song_indices/Respect_ArethaFranklin.csv,,,,,,,,,,,,,,,,,,,,,,,,,,,,,,,,,,,,,,,,,,,,,,,,
,,,,,991830,1,2024-06-17_07h39.21.921,experiment,2024.1.5,MacIntel,60.24096386,667045947eb812cbdacbf325,66704a68f5ca71c26122881e,,,,,,,,,,,,,,,,,,,,,,,,,,,,,,,,,,,,582.1751,588.6827,0.0,0.0,0.0,0.0,1.0,SoundStimuli/Dreams_FleetwoodMac_Original5S.wav,,,,,,,,,,,,,,,,,,,,,,,,,,,,,,,,,,,,,,,,,,,,,,,,,,,,,,,,,,
,,,,,991830,1,2024-06-17_07h39.21.921,experiment,2024.1.5,MacIntel,60.24096386,667045947eb812cbdacbf325,66704a68f5ca71c26122881e,,,,,,,,,,,,,,,,,,,,,,,,,,,,,,,,,,,,588.6916,596.5167,0.0,1.0,1.0,1.0,1.0,SoundStimuli/Dreams_FleetwoodMac_Cover5S.wav,,,,,,,,,,,,,,,,,,,,,,,,,,,,,,,,,,,,,,,,,,,,,,,,,,,,,,,,,,
,,,,,991830,1,2024-06-17_07h39.21.921,experiment,2024.1.5,MacIntel,60.24096386,667045947eb812cbdacbf325,66704a68f5ca71c26122881e,,,,,,,,,,,,,,,,,,,,,,,,,,,,,,,,,,,,,,,,,,,,596.5171,599.083,3.9690625,2.5393,0.0,20.0,20.0,1.0,1.0,song_indices/Dreams_FleetwoodMac.csv,,,,,,,,,,,,,,,,,,,,,,,,,,,,,,,,,,,,,,,,,,,,,,,,
,,,,,991830,1,2024-06-17_07h39.21.921,experiment,2024.1.5,MacIntel,60.24096386,667045947eb812cbdacbf325,66704a68f5ca71c26122881e,,,,,,,,,,,,,,,,,,,,,,,,,,,,,,,,,,,,599.0838,605.0991,0.0,0.0,0.0,0.0,1.0,SoundStimuli/Levitating_DuaLipa_Original5S.wav,,,,,,,,,,,,,,,,,,,,,,,,,,,,,,,,,,,,,,,,,,,,,,,,,,,,,,,,,,
,,,,,991830,1,2024-06-17_07h39.21.921,experiment,2024.1.5,MacIntel,60.24096386,667045947eb812cbdacbf325,66704a68f5ca71c26122881e,,,,,,,,,,,,,,,,,,,,,,,,,,,,,,,,,,,,605.1108,610.8169,0.0,1.0,1.0,1.0,1.0,SoundStimuli/Levitating_DuaLipa_Cover5S.wav,,,,,,,,,,,,,,,,,,,,,,,,,,,,,,,,,,,,,,,,,,,,,,,,,,,,,,,,,,
,,,,,991830,1,2024-06-17_07h39.21.921,experiment,2024.1.5,MacIntel,60.24096386,667045947eb812cbdacbf325,66704a68f5ca71c26122881e,,,,,,,,,,,,,,,,,,,,,,,,,,,,,,,,,,,,,,,,,,,,610.8171,612.9488,2.984895833,2.1197,0.0,21.0,21.0,10.0,1.0,song_indices/Levitating_DuaLipa.csv,,,,,,,,,,,,,,,,,,,,,,,,,,,,,,,,,,,,,,,,,,,,,,,,
,,,,,991830,1,2024-06-17_07h39.21.921,experiment,2024.1.5,MacIntel,60.24096386,667045947eb812cbdacbf325,66704a68f5ca71c26122881e,,,,,,,,,,,,,,,,,,,,,,,,,,,,,,,,,,,,612.9492,619.1494,0.0,0.0,0.0,0.0,1.0,SoundStimuli/TikTok_Kesha_Original5S.wav,,,,,,,,,,,,,,,,,,,,,,,,,,,,,,,,,,,,,,,,,,,,,,,,,,,,,,,,,,
,,,,,991830,1,2024-06-17_07h39.21.921,experiment,2024.1.5,MacIntel,60.24096386,667045947eb812cbdacbf325,66704a68f5ca71c26122881e,,,,,,,,,,,,,,,,,,,,,,,,,,,,,,,,,,,,619.1602,626.6829,0.0,1.0,1.0,1.0,1.0,SoundStimuli/TikTok_Kesha_Cover5S.wav,,,,,,,,,,,,,,,,,,,,,,,,,,,,,,,,,,,,,,,,,,,,,,,,,,,,,,,,,,
,,,,,991830,1,2024-06-17_07h39.21.921,experiment,2024.1.5,MacIntel,60.24096386,667045947eb812cbdacbf325,66704a68f5ca71c26122881e,,,,,,,,,,,,,,,,,,,,,,,,,,,,,,,,,,,,,,,,,,,,626.683,628.0501,2.398697917,1.3543,0.0,22.0,22.0,3.0,1.0,song_indices/TikTok_Kesha.csv,,,,,,,,,,,,,,,,,,,,,,,,,,,,,,,,,,,,,,,,,,,,,,,,
,,,,,991830,1,2024-06-17_07h39.21.921,experiment,2024.1.5,MacIntel,60.24096386,667045947eb812cbdacbf325,66704a68f5ca71c26122881e,,,,,,,,,,,,,,,,,,,,,,,,,,,,,,,,,,,,628.0508,634.084,0.0,0.0,0.0,0.0,1.0,SoundStimuli/HowDoILive_LeAnnRimes_Original5S.wav,,,,,,,,,,,,,,,,,,,,,,,,,,,,,,,,,,,,,,,,,,,,,,,,,,,,,,,,,,
,,,,,991830,1,2024-06-17_07h39.21.921,experiment,2024.1.5,MacIntel,60.24096386,667045947eb812cbdacbf325,66704a68f5ca71c26122881e,,,,,,,,,,,,,,,,,,,,,,,,,,,,,,,,,,,,634.096,639.5665,0.0,1.0,1.0,1.0,1.0,SoundStimuli/HowDoILive_LeAnnRimes_Cover5S.wav,,,,,,,,,,,,,,,,,,,,,,,,,,,,,,,,,,,,,,,,,,,,,,,,,,,,,,,,,,
,,,,,991830,1,2024-06-17_07h39.21.921,experiment,2024.1.5,MacIntel,60.24096386,667045947eb812cbdacbf325,66704a68f5ca71c26122881e,,,,,,,,,,,,,,,,,,,,,,,,,,,,,,,,,,,,,,,,,,,,639.5668,641.4171,4.9878125,1.829,0.0,23.0,23.0,17.0,1.0,song_indices/HowDoILive_LeAnnRimes.csv,,,,,,,,,,,,,,,,,,,,,,,,,,,,,,,,,,,,,,,,,,,,,,,,
,,,,,991830,1,2024-06-17_07h39.21.921,experiment,2024.1.5,MacIntel,60.24096386,667045947eb812cbdacbf325,66704a68f5ca71c26122881e,,,,,,,,,,,,,,,,,,,,,,,,,,,,,,,,,,,,,,,,,,,,,,,,,,,,,,641.4189,675.1021,space,33.6745,,0.0,0.0,0.0,2.0,1.0,choose_song_b3.csv,,,,,,,,,,,,,,,,,,,,,,,,,,,,,,,,,,,,,
,,,,,991830,1,2024-06-17_07h39.21.921,experiment,2024.1.5,MacIntel,60.24096386,667045947eb812cbdacbf325,66704a68f5ca71c26122881e,,,,,,,,,,,,,,,,,,,,,,,,,,,,,,,,,,,,675.1042,681.6854,0.0,0.0,0.0,1.0,1.0,SoundStimuli/Despacito_LuisFonsiDaddyYankee_Cover5S.wav,,,,,,,,,,,,,,,,,,,,,,,,,,,,,,,,,,,,,,,,,,,,,,,,,,,,,,,,,,
,,,,,991830,1,2024-06-17_07h39.21.921,experiment,2024.1.5,MacIntel,60.24096386,667045947eb812cbdacbf325,66704a68f5ca71c26122881e,,,,,,,,,,,,,,,,,,,,,,,,,,,,,,,,,,,,681.6961,688.2513,0.0,1.0,1.0,0.0,1.0,SoundStimuli/Despacito_LuisFonsiDaddyYankee_Original5S.wav,,,,,,,,,,,,,,,,,,,,,,,,,,,,,,,,,,,,,,,,,,,,,,,,,,,,,,,,,,
,,,,,991830,1,2024-06-17_07h39.21.921,experiment,2024.1.5,MacIntel,60.24096386,667045947eb812cbdacbf325,66704a68f5ca71c26122881e,,,,,,,,,,,,,,,,,,,,,,,,,,,,,,,,,,,,,,,,,,,,688.2516,689.9846,5.588072917,1.7094,0.0,0.0,0.0,11.0,1.0,song_indices/Despacito_LuisFonsiDaddyYankee.csv,,,,,,,,,,,,,,,,,,,,,,,,,,,,,,,,,,,,,,,,,,,,,,,,
,,,,,991830,1,2024-06-17_07h39.21.921,experiment,2024.1.5,MacIntel,60.24096386,667045947eb812cbdacbf325,66704a68f5ca71c26122881e,,,,,,,,,,,,,,,,,,,,,,,,,,,,,,,,,,,,689.9853,696.5014,0.0,0.0,0.0,1.0,1.0,SoundStimuli/OldTownRoad_LilNasX_Cover5S.wav,,,,,,,,,,,,,,,,,,,,,,,,,,,,,,,,,,,,,,,,,,,,,,,,,,,,,,,,,,
,,,,,991830,1,2024-06-17_07h39.21.921,experiment,2024.1.5,MacIntel,60.24096386,667045947eb812cbdacbf325,66704a68f5ca71c26122881e,,,,,,,,,,,,,,,,,,,,,,,,,,,,,,,,,,,,696.5122,703.8843,0.0,1.0,1.0,0.0,1.0,SoundStimuli/OldTownRoad_LilNasX_Original5S.wav,,,,,,,,,,,,,,,,,,,,,,,,,,,,,,,,,,,,,,,,,,,,,,,,,,,,,,,,,,
,,,,,991830,1,2024-06-17_07h39.21.921,experiment,2024.1.5,MacIntel,60.24096386,667045947eb812cbdacbf325,66704a68f5ca71c26122881e,,,,,,,,,,,,,,,,,,,,,,,,,,,,,,,,,,,,,,,,,,,,703.8847,707.2341,4.965677083,3.3299,0.0,1.0,1.0,20.0,1.0,song_indices/OldTownRoad_LilNasX.csv,,,,,,,,,,,,,,,,,,,,,,,,,,,,,,,,,,,,,,,,,,,,,,,,
,,,,,991830,1,2024-06-17_07h39.21.921,experiment,2024.1.5,MacIntel,60.24096386,667045947eb812cbdacbf325,66704a68f5ca71c26122881e,,,,,,,,,,,,,,,,,,,,,,,,,,,,,,,,,,,,707.2348,713.4689,0.0,0.0,0.0,0.0,1.0,SoundStimuli/LivinOnAPrayer_BonJovi_Original5S.wav,,,,,,,,,,,,,,,,,,,,,,,,,,,,,,,,,,,,,,,,,,,,,,,,,,,,,,,,,,
,,,,,991830,1,2024-06-17_07h39.21.921,experiment,2024.1.5,MacIntel,60.24096386,667045947eb812cbdacbf325,66704a68f5ca71c26122881e,,,,,,,,,,,,,,,,,,,,,,,,,,,,,,,,,,,,713.481,721.1524,0.0,1.0,1.0,1.0,1.0,SoundStimuli/LivinOnAPrayer_BonJovi_Cover5S.wav,,,,,,,,,,,,,,,,,,,,,,,,,,,,,,,,,,,,,,,,,,,,,,,,,,,,,,,,,,
,,,,,991830,1,2024-06-17_07h39.21.921,experiment,2024.1.5,MacIntel,60.24096386,667045947eb812cbdacbf325,66704a68f5ca71c26122881e,,,,,,,,,,,,,,,,,,,,,,,,,,,,,,,,,,,,,,,,,,,,721.1526,724.8418,3.999713542,3.6685,0.0,2.0,2.0,16.0,1.0,song_indices/LivinOnAPrayer_BonJovi.csv,,,,,,,,,,,,,,,,,,,,,,,,,,,,,,,,,,,,,,,,,,,,,,,,
,,,,,991830,1,2024-06-17_07h39.21.921,experiment,2024.1.5,MacIntel,60.24096386,667045947eb812cbdacbf325,66704a68f5ca71c26122881e,,,,,,,,,,,,,,,,,,,,,,,,,,,,,,,,,,,,724.8423,731.1527,0.0,0.0,0.0,0.0,1.0,SoundStimuli/BridgeOverTroubledWater_SimonAndGarfunkel_Original5S.wav,,,,,,,,,,,,,,,,,,,,,,,,,,,,,,,,,,,,,,,,,,,,,,,,,,,,,,,,,,
,,,,,991830,1,2024-06-17_07h39.21.921,experiment,2024.1.5,MacIntel,60.24096386,667045947eb812cbdacbf325,66704a68f5ca71c26122881e,,,,,,,,,,,,,,,,,,,,,,,,,,,,,,,,,,,,731.1648,737.8527,0.0,1.0,1.0,1.0,1.0,SoundStimuli/BridgeOverTroubledWater_SimonAndGarfunkel_Cover5S.wav,,,,,,,,,,,,,,,,,,,,,,,,,,,,,,,,,,,,,,,,,,,,,,,,,,,,,,,,,,
,,,,,991830,1,2024-06-17_07h39.21.921,experiment,2024.1.5,MacIntel,60.24096386,667045947eb812cbdacbf325,66704a68f5ca71c26122881e,,,,,,,,,,,,,,,,,,,,,,,,,,,,,,,,,,,,,,,,,,,,737.853,741.2357,3.580390625,3.358,0.0,3.0,3.0,1.0,1.0,song_indices/BridgeOverTroubledWater_SimonAndGarfunkel.csv,,,,,,,,,,,,,,,,,,,,,,,,,,,,,,,,,,,,,,,,,,,,,,,,
,,,,,991830,1,2024-06-17_07h39.21.921,experiment,2024.1.5,MacIntel,60.24096386,667045947eb812cbdacbf325,66704a68f5ca71c26122881e,,,,,,,,,,,,,,,,,,,,,,,,,,,,,,,,,,,,741.2365,747.3361,0.0,0.0,0.0,0.0,1.0,SoundStimuli/HeatWaves_GlassAnimals_Original5S.wav,,,,,,,,,,,,,,,,,,,,,,,,,,,,,,,,,,,,,,,,,,,,,,,,,,,,,,,,,,
,,,,,991830,1,2024-06-17_07h39.21.921,experiment,2024.1.5,MacIntel,60.24096386,667045947eb812cbdacbf325,66704a68f5ca71c26122881e,,,,,,,,,,,,,,,,,,,,,,,,,,,,,,,,,,,,747.3469,755.9364,0.0,1.0,1.0,1.0,1.0,SoundStimuli/HeatWaves_GlassAnimals_Cover5S.wav,,,,,,,,,,,,,,,,,,,,,,,,,,,,,,,,,,,,,,,,,,,,,,,,,,,,,,,,,,
,,,,,991830,1,2024-06-17_07h39.21.921,experiment,2024.1.5,MacIntel,60.24096386,667045947eb812cbdacbf325,66704a68f5ca71c26122881e,,,,,,,,,,,,,,,,,,,,,,,,,,,,,,,,,,,,,,,,,,,,755.9366,765.1105,4.4325,9.1528,0.0,4.0,4.0,10.0,1.0,song_indices/HeatWaves_GlassAnimals.csv,,,,,,,,,,,,,,,,,,,,,,,,,,,,,,,,,,,,,,,,,,,,,,,,
,,,,,991830,1,2024-06-17_07h39.21.921,experiment,2024.1.5,MacIntel,60.24096386,667045947eb812cbdacbf325,66704a68f5ca71c26122881e,,,,,,,,,,,,,,,,,,,,,,,,,,,,,,,,,,,,765.1111,771.1366,0.0,0.0,0.0,0.0,1.0,SoundStimuli/AChangeIsGonnaCome_SamCooke_Original5S.wav,,,,,,,,,,,,,,,,,,,,,,,,,,,,,,,,,,,,,,,,,,,,,,,,,,,,,,,,,,
,,,,,991830,1,2024-06-17_07h39.21.921,experiment,2024.1.5,MacIntel,60.24096386,667045947eb812cbdacbf325,66704a68f5ca71c26122881e,,,,,,,,,,,,,,,,,,,,,,,,,,,,,,,,,,,,771.1473,775.8533,0.0,1.0,1.0,1.0,1.0,SoundStimuli/AChangeIsGonnaCome_SamCooke_Cover5S.wav,,,,,,,,,,,,,,,,,,,,,,,,,,,,,,,,,,,,,,,,,,,,,,,,,,,,,,,,,,
,,,,,991830,1,2024-06-17_07h39.21.921,experiment,2024.1.5,MacIntel,60.24096386,667045947eb812cbdacbf325,66704a68f5ca71c26122881e,,,,,,,,,,,,,,,,,,,,,,,,,,,,,,,,,,,,,,,,,,,,775.8535,778.0778,6.007552083,2.2023,0.0,5.0,5.0,17.0,1.0,song_indices/AChangeIsGonnaCome_SamCooke.csv,,,,,,,,,,,,,,,,,,,,,,,,,,,,,,,,,,,,,,,,,,,,,,,,
,,,,,991830,1,2024-06-17_07h39.21.921,experiment,2024.1.5,MacIntel,60.24096386,667045947eb812cbdacbf325,66704a68f5ca71c26122881e,,,,,,,,,,,,,,,,,,,,,,,,,,,,,,,,,,,,778.0782,784.5203,0.0,0.0,0.0,0.0,1.0,SoundStimuli/BadDay_DanielPowter_Original5S.wav,,,,,,,,,,,,,,,,,,,,,,,,,,,,,,,,,,,,,,,,,,,,,,,,,,,,,,,,,,
,,,,,991830,1,2024-06-17_07h39.21.921,experiment,2024.1.5,MacIntel,60.24096386,667045947eb812cbdacbf325,66704a68f5ca71c26122881e,,,,,,,,,,,,,,,,,,,,,,,,,,,,,,,,,,,,784.5336,792.0235,0.0,1.0,1.0,1.0,1.0,SoundStimuli/BadDay_DanielPowter_Cover5S.wav,,,,,,,,,,,,,,,,,,,,,,,,,,,,,,,,,,,,,,,,,,,,,,,,,,,,,,,,,,
,,,,,991830,1,2024-06-17_07h39.21.921,experiment,2024.1.5,MacIntel,60.24096386,667045947eb812cbdacbf325,66704a68f5ca71c26122881e,,,,,,,,,,,,,,,,,,,,,,,,,,,,,,,,,,,,,,,,,,,,792.0237,794.8866,5.028489583,2.8424,0.0,6.0,6.0,22.0,1.0,song_indices/BadDay_DanielPowter.csv,,,,,,,,,,,,,,,,,,,,,,,,,,,,,,,,,,,,,,,,,,,,,,,,
,,,,,991830,1,2024-06-17_07h39.21.921,experiment,2024.1.5,MacIntel,60.24096386,667045947eb812cbdacbf325,66704a68f5ca71c26122881e,,,,,,,,,,,,,,,,,,,,,,,,,,,,,,,,,,,,794.8872,801.0193,0.0,0.0,0.0,0.0,1.0,SoundStimuli/StrawberryFieldsForever_TheBeatles_Original5S.wav,,,,,,,,,,,,,,,,,,,,,,,,,,,,,,,,,,,,,,,,,,,,,,,,,,,,,,,,,,
,,,,,991830,1,2024-06-17_07h39.21.921,experiment,2024.1.5,MacIntel,60.24096386,667045947eb812cbdacbf325,66704a68f5ca71c26122881e,,,,,,,,,,,,,,,,,,,,,,,,,,,,,,,,,,,,801.0269,808.0558,0.0,1.0,1.0,1.0,1.0,SoundStimuli/StrawberryFieldsForever_TheBeatles_Cover5S.wav,,,,,,,,,,,,,,,,,,,,,,,,,,,,,,,,,,,,,,,,,,,,,,,,,,,,,,,,,,
,,,,,991830,1,2024-06-17_07h39.21.921,experiment,2024.1.5,MacIntel,60.24096386,667045947eb812cbdacbf325,66704a68f5ca71c26122881e,,,,,,,,,,,,,,,,,,,,,,,,,,,,,,,,,,,,,,,,,,,,808.056,811.3528,3.625338542,3.2744,0.0,7.0,7.0,14.0,1.0,song_indices/StrawberryFieldsForever_TheBeatles.csv,,,,,,,,,,,,,,,,,,,,,,,,,,,,,,,,,,,,,,,,,,,,,,,,
,,,,,991830,1,2024-06-17_07h39.21.921,experiment,2024.1.5,MacIntel,60.24096386,667045947eb812cbdacbf325,66704a68f5ca71c26122881e,,,,,,,,,,,,,,,,,,,,,,,,,,,,,,,,,,,,811.3534,817.5874,0.0,0.0,0.0,0.0,1.0,SoundStimuli/GodOnlyKnows_TheBeachBoys_Original5S.wav,,,,,,,,,,,,,,,,,,,,,,,,,,,,,,,,,,,,,,,,,,,,,,,,,,,,,,,,,,
,,,,,991830,1,2024-06-17_07h39.21.921,experiment,2024.1.5,MacIntel,60.24096386,667045947eb812cbdacbf325,66704a68f5ca71c26122881e,,,,,,,,,,,,,,,,,,,,,,,,,,,,,,,,,,,,817.5986,824.4534,0.0,1.0,1.0,1.0,1.0,SoundStimuli/GodOnlyKnows_TheBeachBoys_Cover5S.wav,,,,,,,,,,,,,,,,,,,,,,,,,,,,,,,,,,,,,,,,,,,,,,,,,,,,,,,,,,
,,,,,991830,1,2024-06-17_07h39.21.921,experiment,2024.1.5,MacIntel,60.24096386,667045947eb812cbdacbf325,66704a68f5ca71c26122881e,,,,,,,,,,,,,,,,,,,,,,,,,,,,,,,,,,,,,,,,,,,,824.4536,825.8704,4.077734375,1.4043,0.0,8.0,8.0,8.0,1.0,song_indices/GodOnlyKnows_TheBeachBoys.csv,,,,,,,,,,,,,,,,,,,,,,,,,,,,,,,,,,,,,,,,,,,,,,,,
,,,,,991830,1,2024-06-17_07h39.21.921,experiment,2024.1.5,MacIntel,60.24096386,667045947eb812cbdacbf325,66704a68f5ca71c26122881e,,,,,,,,,,,,,,,,,,,,,,,,,,,,,,,,,,,,825.871,832.2201,0.0,0.0,0.0,0.0,1.0,SoundStimuli/EndlessLove_DianaRossLionelRichie_Original5S.wav,,,,,,,,,,,,,,,,,,,,,,,,,,,,,,,,,,,,,,,,,,,,,,,,,,,,,,,,,,
,,,,,991830,1,2024-06-17_07h39.21.921,experiment,2024.1.5,MacIntel,60.24096386,667045947eb812cbdacbf325,66704a68f5ca71c26122881e,,,,,,,,,,,,,,,,,,,,,,,,,,,,,,,,,,,,832.2306,839.7381,0.0,1.0,1.0,1.0,1.0,SoundStimuli/EndlessLove_DianaRossLionelRichie_Cover5S.wav,,,,,,,,,,,,,,,,,,,,,,,,,,,,,,,,,,,,,,,,,,,,,,,,,,,,,,,,,,
,,,,,991830,1,2024-06-17_07h39.21.921,experiment,2024.1.5,MacIntel,60.24096386,667045947eb812cbdacbf325,66704a68f5ca71c26122881e,,,,,,,,,,,,,,,,,,,,,,,,,,,,,,,,,,,,,,,,,,,,839.7383,841.1875,6.019713542,1.4312,0.0,9.0,9.0,3.0,1.0,song_indices/EndlessLove_DianaRossLionelRichie.csv,,,,,,,,,,,,,,,,,,,,,,,,,,,,,,,,,,,,,,,,,,,,,,,,
,,,,,991830,1,2024-06-17_07h39.21.921,experiment,2024.1.5,MacIntel,60.24096386,667045947eb812cbdacbf325,66704a68f5ca71c26122881e,,,,,,,,,,,,,,,,,,,,,,,,,,,,,,,,,,,,841.1881,847.0204,0.0,0.0,0.0,1.0,1.0,SoundStimuli/StayinAlive_BeeGees_Cover5S.wav,,,,,,,,,,,,,,,,,,,,,,,,,,,,,,,,,,,,,,,,,,,,,,,,,,,,,,,,,,
,,,,,991830,1,2024-06-17_07h39.21.921,experiment,2024.1.5,MacIntel,60.24096386,667045947eb812cbdacbf325,66704a68f5ca71c26122881e,,,,,,,,,,,,,,,,,,,,,,,,,,,,,,,,,,,,847.0303,853.0548,0.0,1.0,1.0,0.0,1.0,SoundStimuli/StayinAlive_BeeGees_Original5S.wav,,,,,,,,,,,,,,,,,,,,,,,,,,,,,,,,,,,,,,,,,,,,,,,,,,,,,,,,,,
,,,,,991830,1,2024-06-17_07h39.21.921,experiment,2024.1.5,MacIntel,60.24096386,667045947eb812cbdacbf325,66704a68f5ca71c26122881e,,,,,,,,,,,,,,,,,,,,,,,,,,,,,,,,,,,,,,,,,,,,853.055,854.4547,5.970989583,1.3885,0.0,10.0,10.0,2.0,1.0,song_indices/StayinAlive_BeeGees.csv,,,,,,,,,,,,,,,,,,,,,,,,,,,,,,,,,,,,,,,,,,,,,,,,
,,,,,991830,1,2024-06-17_07h39.21.921,experiment,2024.1.5,MacIntel,60.24096386,667045947eb812cbdacbf325,66704a68f5ca71c26122881e,,,,,,,,,,,,,,,,,,,,,,,,,,,,,,,,,,,,854.4552,858.8549,0.0,0.0,0.0,1.0,1.0,SoundStimuli/LikeARollingStone_BobDylan_Cover5S.wav,,,,,,,,,,,,,,,,,,,,,,,,,,,,,,,,,,,,,,,,,,,,,,,,,,,,,,,,,,
,,,,,991830,1,2024-06-17_07h39.21.921,experiment,2024.1.5,MacIntel,60.24096386,667045947eb812cbdacbf325,66704a68f5ca71c26122881e,,,,,,,,,,,,,,,,,,,,,,,,,,,,,,,,,,,,858.8647,865.0049,0.0,1.0,1.0,0.0,1.0,SoundStimuli/LikeARollingStone_BobDylan_Original5S.wav,,,,,,,,,,,,,,,,,,,,,,,,,,,,,,,,,,,,,,,,,,,,,,,,,,,,,,,,,,
,,,,,991830,1,2024-06-17_07h39.21.921,experiment,2024.1.5,MacIntel,60.24096386,667045947eb812cbdacbf325,66704a68f5ca71c26122881e,,,,,,,,,,,,,,,,,,,,,,,,,,,,,,,,,,,,,,,,,,,,865.0053,867.6213,4.532994792,2.6024,0.0,11.0,11.0,12.0,1.0,song_indices/LikeARollingStone_BobDylan.csv,,,,,,,,,,,,,,,,,,,,,,,,,,,,,,,,,,,,,,,,,,,,,,,,
,,,,,991830,1,2024-06-17_07h39.21.921,experiment,2024.1.5,MacIntel,60.24096386,667045947eb812cbdacbf325,66704a68f5ca71c26122881e,,,,,,,,,,,,,,,,,,,,,,,,,,,,,,,,,,,,867.6219,873.7553,0.0,0.0,0.0,1.0,1.0,SoundStimuli/Smooth_SantanaRobThomas_Cover5S.wav,,,,,,,,,,,,,,,,,,,,,,,,,,,,,,,,,,,,,,,,,,,,,,,,,,,,,,,,,,
,,,,,991830,1,2024-06-17_07h39.21.921,experiment,2024.1.5,MacIntel,60.24096386,667045947eb812cbdacbf325,66704a68f5ca71c26122881e,,,,,,,,,,,,,,,,,,,,,,,,,,,,,,,,,,,,873.7662,879.972,0.0,1.0,1.0,0.0,1.0,SoundStimuli/Smooth_SantanaRobThomas_Original5S.wav,,,,,,,,,,,,,,,,,,,,,,,,,,,,,,,,,,,,,,,,,,,,,,,,,,,,,,,,,,
,,,,,991830,1,2024-06-17_07h39.21.921,experiment,2024.1.5,MacIntel,60.24096386,667045947eb812cbdacbf325,66704a68f5ca71c26122881e,,,,,,,,,,,,,,,,,,,,,,,,,,,,,,,,,,,,,,,,,,,,879.9722,881.705,5.49546875,1.7189,0.0,12.0,12.0,4.0,1.0,song_indices/Smooth_SantanaRobThomas.csv,,,,,,,,,,,,,,,,,,,,,,,,,,,,,,,,,,,,,,,,,,,,,,,,
,,,,,991830,1,2024-06-17_07h39.21.921,experiment,2024.1.5,MacIntel,60.24096386,667045947eb812cbdacbf325,66704a68f5ca71c26122881e,,,,,,,,,,,,,,,,,,,,,,,,,,,,,,,,,,,,881.7057,887.7888,0.0,0.0,0.0,0.0,1.0,SoundStimuli/IllMakeLoveToYou_BoyzIIMen_Original5S.wav,,,,,,,,,,,,,,,,,,,,,,,,,,,,,,,,,,,,,,,,,,,,,,,,,,,,,,,,,,
,,,,,991830,1,2024-06-17_07h39.21.921,experiment,2024.1.5,MacIntel,60.24096386,667045947eb812cbdacbf325,66704a68f5ca71c26122881e,,,,,,,,,,,,,,,,,,,,,,,,,,,,,,,,,,,,887.7991,893.7392,0.0,1.0,1.0,1.0,1.0,SoundStimuli/IllMakeLoveToYou_BoyzIIMen_Cover5S.wav,,,,,,,,,,,,,,,,,,,,,,,,,,,,,,,,,,,,,,,,,,,,,,,,,,,,,,,,,,
,,,,,991830,1,2024-06-17_07h39.21.921,experiment,2024.1.5,MacIntel,60.24096386,667045947eb812cbdacbf325,66704a68f5ca71c26122881e,,,,,,,,,,,,,,,,,,,,,,,,,,,,,,,,,,,,,,,,,,,,893.7395,896.3442,5.010703125,2.5867,0.0,13.0,13.0,6.0,1.0,song_indices/IllMakeLoveToYou_BoyzIIMen.csv,,,,,,,,,,,,,,,,,,,,,,,,,,,,,,,,,,,,,,,,,,,,,,,,
,,,,,991830,1,2024-06-17_07h39.21.921,experiment,2024.1.5,MacIntel,60.24096386,667045947eb812cbdacbf325,66704a68f5ca71c26122881e,,,,,,,,,,,,,,,,,,,,,,,,,,,,,,,,,,,,896.3447,902.7381,0.0,0.0,0.0,0.0,1.0,SoundStimuli/MyGirl_TheTemptations_Original5S.wav,,,,,,,,,,,,,,,,,,,,,,,,,,,,,,,,,,,,,,,,,,,,,,,,,,,,,,,,,,
,,,,,991830,1,2024-06-17_07h39.21.921,experiment,2024.1.5,MacIntel,60.24096386,667045947eb812cbdacbf325,66704a68f5ca71c26122881e,,,,,,,,,,,,,,,,,,,,,,,,,,,,,,,,,,,,902.7508,910.4059,0.0,1.0,1.0,1.0,1.0,SoundStimuli/MyGirl_TheTemptations_Cover5S.wav,,,,,,,,,,,,,,,,,,,,,,,,,,,,,,,,,,,,,,,,,,,,,,,,,,,,,,,,,,
,,,,,991830,1,2024-06-17_07h39.21.921,experiment,2024.1.5,MacIntel,60.24096386,667045947eb812cbdacbf325,66704a68f5ca71c26122881e,,,,,,,,,,,,,,,,,,,,,,,,,,,,,,,,,,,,,,,,,,,,910.4061,915.1303,2.935390625,4.7039,0.0,14.0,14.0,15.0,1.0,song_indices/MyGirl_TheTemptations.csv,,,,,,,,,,,,,,,,,,,,,,,,,,,,,,,,,,,,,,,,,,,,,,,,
,,,,,991830,1,2024-06-17_07h39.21.921,experiment,2024.1.5,MacIntel,60.24096386,667045947eb812cbdacbf325,66704a68f5ca71c26122881e,,,,,,,,,,,,,,,,,,,,,,,,,,,,,,,,,,,,915.1309,921.0895,0.0,0.0,0.0,0.0,1.0,SoundStimuli/BohemianRhapsody_Queen_Original5S.wav,,,,,,,,,,,,,,,,,,,,,,,,,,,,,,,,,,,,,,,,,,,,,,,,,,,,,,,,,,
,,,,,991830,1,2024-06-17_07h39.21.921,experiment,2024.1.5,MacIntel,60.24096386,667045947eb812cbdacbf325,66704a68f5ca71c26122881e,,,,,,,,,,,,,,,,,,,,,,,,,,,,,,,,,,,,921.0999,925.1562,0.0,1.0,1.0,1.0,1.0,SoundStimuli/BohemianRhapsody_Queen_Cover5S.wav,,,,,,,,,,,,,,,,,,,,,,,,,,,,,,,,,,,,,,,,,,,,,,,,,,,,,,,,,,
,,,,,991830,1,2024-06-17_07h39.21.921,experiment,2024.1.5,MacIntel,60.24096386,667045947eb812cbdacbf325,66704a68f5ca71c26122881e,,,,,,,,,,,,,,,,,,,,,,,,,,,,,,,,,,,,,,,,,,,,925.1566,928.0979,3.065026042,2.9215,0.0,15.0,15.0,18.0,1.0,song_indices/BohemianRhapsody_Queen.csv,,,,,,,,,,,,,,,,,,,,,,,,,,,,,,,,,,,,,,,,,,,,,,,,
,,,,,991830,1,2024-06-17_07h39.21.921,experiment,2024.1.5,MacIntel,60.24096386,667045947eb812cbdacbf325,66704a68f5ca71c26122881e,,,,,,,,,,,,,,,,,,,,,,,,,,,,,,,,,,,,928.0985,936.3562,0.0,0.0,0.0,1.0,1.0,SoundStimuli/Perfect_EdSheeran_Cover5S.wav,,,,,,,,,,,,,,,,,,,,,,,,,,,,,,,,,,,,,,,,,,,,,,,,,,,,,,,,,,
,,,,,991830,1,2024-06-17_07h39.21.921,experiment,2024.1.5,MacIntel,60.24096386,667045947eb812cbdacbf325,66704a68f5ca71c26122881e,,,,,,,,,,,,,,,,,,,,,,,,,,,,,,,,,,,,936.3665,945.2066,0.0,1.0,1.0,0.0,1.0,SoundStimuli/Perfect_EdSheeran_Original5S.wav,,,,,,,,,,,,,,,,,,,,,,,,,,,,,,,,,,,,,,,,,,,,,,,,,,,,,,,,,,
,,,,,991830,1,2024-06-17_07h39.21.921,experiment,2024.1.5,MacIntel,60.24096386,667045947eb812cbdacbf325,66704a68f5ca71c26122881e,,,,,,,,,,,,,,,,,,,,,,,,,,,,,,,,,,,,,,,,,,,,945.2068,948.3978,3.539375,3.1682,0.0,16.0,16.0,0.0,1.0,song_indices/Perfect_EdSheeran.csv,,,,,,,,,,,,,,,,,,,,,,,,,,,,,,,,,,,,,,,,,,,,,,,,
,,,,,991830,1,2024-06-17_07h39.21.921,experiment,2024.1.5,MacIntel,60.24096386,667045947eb812cbdacbf325,66704a68f5ca71c26122881e,,,,,,,,,,,,,,,,,,,,,,,,,,,,,,,,,,,,948.3983,955.2235,0.0,0.0,0.0,1.0,1.0,SoundStimuli/IWannaDanceWithSomebody_WhitneyHouston_Cover5S.wav,,,,,,,,,,,,,,,,,,,,,,,,,,,,,,,,,,,,,,,,,,,,,,,,,,,,,,,,,,
,,,,,991830,1,2024-06-17_07h39.21.921,experiment,2024.1.5,MacIntel,60.24096386,667045947eb812cbdacbf325,66704a68f5ca71c26122881e,,,,,,,,,,,,,,,,,,,,,,,,,,,,,,,,,,,,955.2341,960.8236,0.0,1.0,1.0,0.0,1.0,SoundStimuli/IWannaDanceWithSomebody_WhitneyHouston_Original5S.wav,,,,,,,,,,,,,,,,,,,,,,,,,,,,,,,,,,,,,,,,,,,,,,,,,,,,,,,,,,
,,,,,991830,1,2024-06-17_07h39.21.921,experiment,2024.1.5,MacIntel,60.24096386,667045947eb812cbdacbf325,66704a68f5ca71c26122881e,,,,,,,,,,,,,,,,,,,,,,,,,,,,,,,,,,,,,,,,,,,,960.8239,962.7398,2.966848958,1.9014,0.0,17.0,17.0,13.0,1.0,song_indices/IWannaDanceWithSomebody_WhitneyHouston.csv,,,,,,,,,,,,,,,,,,,,,,,,,,,,,,,,,,,,,,,,,,,,,,,,
,,,,,991830,1,2024-06-17_07h39.21.921,experiment,2024.1.5,MacIntel,60.24096386,667045947eb812cbdacbf325,66704a68f5ca71c26122881e,,,,,,,,,,,,,,,,,,,,,,,,,,,,,,,,,,,,962.7405,968.5405,0.0,0.0,0.0,0.0,1.0,SoundStimuli/IWantToHoldYourHand_TheBeatles_Original5S.wav,,,,,,,,,,,,,,,,,,,,,,,,,,,,,,,,,,,,,,,,,,,,,,,,,,,,,,,,,,
,,,,,991830,1,2024-06-17_07h39.21.921,experiment,2024.1.5,MacIntel,60.24096386,667045947eb812cbdacbf325,66704a68f5ca71c26122881e,,,,,,,,,,,,,,,,,,,,,,,,,,,,,,,,,,,,968.5539,974.5739,0.0,1.0,1.0,1.0,1.0,SoundStimuli/IWantToHoldYourHand_TheBeatles_Cover5S.wav,,,,,,,,,,,,,,,,,,,,,,,,,,,,,,,,,,,,,,,,,,,,,,,,,,,,,,,,,,
,,,,,991830,1,2024-06-17_07h39.21.921,experiment,2024.1.5,MacIntel,60.24096386,667045947eb812cbdacbf325,66704a68f5ca71c26122881e,,,,,,,,,,,,,,,,,,,,,,,,,,,,,,,,,,,,,,,,,,,,974.5742,975.2401,2.966848958,0.6552,0.0,18.0,18.0,19.0,1.0,song_indices/IWantToHoldYourHand_TheBeatles.csv,,,,,,,,,,,,,,,,,,,,,,,,,,,,,,,,,,,,,,,,,,,,,,,,
,,,,,991830,1,2024-06-17_07h39.21.921,experiment,2024.1.5,MacIntel,60.24096386,667045947eb812cbdacbf325,66704a68f5ca71c26122881e,,,,,,,,,,,,,,,,,,,,,,,,,,,,,,,,,,,,975.2407,981.2739,0.0,0.0,0.0,0.0,1.0,SoundStimuli/AnotherOneBitesTheDust_Queen_Original5S.wav,,,,,,,,,,,,,,,,,,,,,,,,,,,,,,,,,,,,,,,,,,,,,,,,,,,,,,,,,,
,,,,,991830,1,2024-06-17_07h39.21.921,experiment,2024.1.5,MacIntel,60.24096386,667045947eb812cbdacbf325,66704a68f5ca71c26122881e,,,,,,,,,,,,,,,,,,,,,,,,,,,,,,,,,,,,981.2865,989.4074,0.0,1.0,1.0,1.0,1.0,SoundStimuli/AnotherOneBitesTheDust_Queen_Cover5S.wav,,,,,,,,,,,,,,,,,,,,,,,,,,,,,,,,,,,,,,,,,,,,,,,,,,,,,,,,,,
,,,,,991830,1,2024-06-17_07h39.21.921,experiment,2024.1.5,MacIntel,60.24096386,667045947eb812cbdacbf325,66704a68f5ca71c26122881e,,,,,,,,,,,,,,,,,,,,,,,,,,,,,,,,,,,,,,,,,,,,989.4077,991.307,3.479921875,1.8865,0.0,19.0,19.0,9.0,1.0,song_indices/AnotherOneBitesTheDust_Queen.csv,,,,,,,,,,,,,,,,,,,,,,,,,,,,,,,,,,,,,,,,,,,,,,,,
,,,,,991830,1,2024-06-17_07h39.21.921,experiment,2024.1.5,MacIntel,60.24096386,667045947eb812cbdacbf325,66704a68f5ca71c26122881e,,,,,,,,,,,,,,,,,,,,,,,,,,,,,,,,,,,,991.3078,997.5243,0.0,0.0,0.0,1.0,1.0,SoundStimuli/LikeAPrayer_Madonna_Cover5S.wav,,,,,,,,,,,,,,,,,,,,,,,,,,,,,,,,,,,,,,,,,,,,,,,,,,,,,,,,,,
,,,,,991830,1,2024-06-17_07h39.21.921,experiment,2024.1.5,MacIntel,60.24096386,667045947eb812cbdacbf325,66704a68f5ca71c26122881e,,,,,,,,,,,,,,,,,,,,,,,,,,,,,,,,,,,,997.5357,1003.724,0.0,1.0,1.0,0.0,1.0,SoundStimuli/LikeAPrayer_Madonna_Original5S.wav,,,,,,,,,,,,,,,,,,,,,,,,,,,,,,,,,,,,,,,,,,,,,,,,,,,,,,,,,,
,,,,,991830,1,2024-06-17_07h39.21.921,experiment,2024.1.5,MacIntel,60.24096386,667045947eb812cbdacbf325,66704a68f5ca71c26122881e,,,,,,,,,,,,,,,,,,,,,,,,,,,,,,,,,,,,,,,,,,,,1003.724,1005.1738,4.598411458,1.4292,0.0,20.0,20.0,7.0,1.0,song_indices/LikeAPrayer_Madonna.csv,,,,,,,,,,,,,,,,,,,,,,,,,,,,,,,,,,,,,,,,,,,,,,,,
,,,,,991830,1,2024-06-17_07h39.21.921,experiment,2024.1.5,MacIntel,60.24096386,667045947eb812cbdacbf325,66704a68f5ca71c26122881e,,,,,,,,,,,,,,,,,,,,,,,,,,,,,,,,,,,,1005.1745,1011.3236,0.0,0.0,0.0,0.0,1.0,SoundStimuli/MackTheKnife_BobbyDarin_Original5S.wav,,,,,,,,,,,,,,,,,,,,,,,,,,,,,,,,,,,,,,,,,,,,,,,,,,,,,,,,,,
,,,,,991830,1,2024-06-17_07h39.21.921,experiment,2024.1.5,MacIntel,60.24096386,667045947eb812cbdacbf325,66704a68f5ca71c26122881e,,,,,,,,,,,,,,,,,,,,,,,,,,,,,,,,,,,,1011.3346,1017.5908,0.0,1.0,1.0,1.0,1.0,SoundStimuli/MackTheKnife_BobbyDarin_Cover5S.wav,,,,,,,,,,,,,,,,,,,,,,,,,,,,,,,,,,,,,,,,,,,,,,,,,,,,,,,,,,
,,,,,991830,1,2024-06-17_07h39.21.921,experiment,2024.1.5,MacIntel,60.24096386,667045947eb812cbdacbf325,66704a68f5ca71c26122881e,,,,,,,,,,,,,,,,,,,,,,,,,,,,,,,,,,,,,,,,,,,,1017.5909,1019.3742,2.463802083,1.7744,0.0,21.0,21.0,21.0,1.0,song_indices/MackTheKnife_BobbyDarin.csv,,,,,,,,,,,,,,,,,,,,,,,,,,,,,,,,,,,,,,,,,,,,,,,,
,,,,,991830,1,2024-06-17_07h39.21.921,experiment,2024.1.5,MacIntel,60.24096386,667045947eb812cbdacbf325,66704a68f5ca71c26122881e,,,,,,,,,,,,,,,,,,,,,,,,,,,,,,,,,,,,1019.375,1027.6748,0.0,0.0,0.0,1.0,1.0,SoundStimuli/Mood_24kGoldnianndior_Cover5S.wav,,,,,,,,,,,,,,,,,,,,,,,,,,,,,,,,,,,,,,,,,,,,,,,,,,,,,,,,,,
,,,,,991830,1,2024-06-17_07h39.21.921,experiment,2024.1.5,MacIntel,60.24096386,667045947eb812cbdacbf325,66704a68f5ca71c26122881e,,,,,,,,,,,,,,,,,,,,,,,,,,,,,,,,,,,,1027.6881,1033.9747,0.0,1.0,1.0,0.0,1.0,SoundStimuli/Mood_24kGoldnianndior_Original5S.wav,,,,,,,,,,,,,,,,,,,,,,,,,,,,,,,,,,,,,,,,,,,,,,,,,,,,,,,,,,
,,,,,991830,1,2024-06-17_07h39.21.921,experiment,2024.1.5,MacIntel,60.24096386,667045947eb812cbdacbf325,66704a68f5ca71c26122881e,,,,,,,,,,,,,,,,,,,,,,,,,,,,,,,,,,,,,,,,,,,,1033.9749,1035.4737,2.973645833,1.4865,0.0,22.0,22.0,5.0,1.0,song_indices/Mood_24kGoldnianndior.csv,,,,,,,,,,,,,,,,,,,,,,,,,,,,,,,,,,,,,,,,,,,,,,,,
,,,,,991830,1,2024-06-17_07h39.21.921,experiment,2024.1.5,MacIntel,60.24096386,667045947eb812cbdacbf325,66704a68f5ca71c26122881e,,,,,,,,,,,,,,,,,,,,,,,,,,,,,,,,,,,,,,,,,,,,,,,,,,,,,,1035.4738,1057.1085,space,21.622,,0.0,1.0,1.0,0.0,1.0,choose_song_b1.csv,,,,,,,,,,,,,,,,,,,,,,,,,,,,,,,,,,,,,
,,,,,991830,1,2024-06-17_07h39.21.921,experiment,2024.1.5,MacIntel,60.24096386,667045947eb812cbdacbf325,66704a68f5ca71c26122881e,,,,,,,,,,,,,,,,,,,,,,,,,,,,,,,,,,,,1057.1195,1063.3246,0.0,0.0,0.0,0.0,1.0,SoundStimuli/TheBoyIsMine_BrandyMonica_Original5S.wav,,,,,,,,,,,,,,,,,,,,,,,,,,,,,,,,,,,,,,,,,,,,,,,,,,,,,,,,,,
,,,,,991830,1,2024-06-17_07h39.21.921,experiment,2024.1.5,MacIntel,60.24096386,667045947eb812cbdacbf325,66704a68f5ca71c26122881e,,,,,,,,,,,,,,,,,,,,,,,,,,,,,,,,,,,,1063.3367,1069.2756,0.0,1.0,1.0,1.0,1.0,SoundStimuli/TheBoyIsMine_BrandyMonica_Cover5S.wav,,,,,,,,,,,,,,,,,,,,,,,,,,,,,,,,,,,,,,,,,,,,,,,,,,,,,,,,,,
,,,,,991830,1,2024-06-17_07h39.21.921,experiment,2024.1.5,MacIntel,60.24096386,667045947eb812cbdacbf325,66704a68f5ca71c26122881e,,,,,,,,,,,,,,,,,,,,,,,,,,,,,,,,,,,,,,,,,,,,1069.2757,1071.0752,6.662786458,1.7871,0.0,0.0,0.0,6.0,1.0,song_indices/TheBoyIsMine_BrandyMonica.csv,,,,,,,,,,,,,,,,,,,,,,,,,,,,,,,,,,,,,,,,,,,,,,,,
,,,,,991830,1,2024-06-17_07h39.21.921,experiment,2024.1.5,MacIntel,60.24096386,667045947eb812cbdacbf325,66704a68f5ca71c26122881e,,,,,,,,,,,,,,,,,,,,,,,,,,,,,,,,,,,,1071.0758,1077.4423,0.0,0.0,0.0,1.0,1.0,SoundStimuli/GoodGollyMissMolly_LittleRichard_Cover5S.wav,,,,,,,,,,,,,,,,,,,,,,,,,,,,,,,,,,,,,,,,,,,,,,,,,,,,,,,,,,
,,,,,991830,1,2024-06-17_07h39.21.921,experiment,2024.1.5,MacIntel,60.24096386,667045947eb812cbdacbf325,66704a68f5ca71c26122881e,,,,,,,,,,,,,,,,,,,,,,,,,,,,,,,,,,,,1077.4541,1083.5091,0.0,1.0,1.0,0.0,1.0,SoundStimuli/GoodGollyMissMolly_LittleRichard_Original5S.wav,,,,,,,,,,,,,,,,,,,,,,,,,,,,,,,,,,,,,,,,,,,,,,,,,,,,,,,,,,
,,,,,991830,1,2024-06-17_07h39.21.921,experiment,2024.1.5,MacIntel,60.24096386,667045947eb812cbdacbf325,66704a68f5ca71c26122881e,,,,,,,,,,,,,,,,,,,,,,,,,,,,,,,,,,,,,,,,,,,,1083.5093,1084.6913,5.996432292,1.1708,0.0,1.0,1.0,0.0,1.0,song_indices/GoodGollyMissMolly_LittleRichard.csv,,,,,,,,,,,,,,,,,,,,,,,,,,,,,,,,,,,,,,,,,,,,,,,,
,,,,,991830,1,2024-06-17_07h39.21.921,experiment,2024.1.5,MacIntel,60.24096386,667045947eb812cbdacbf325,66704a68f5ca71c26122881e,,,,,,,,,,,,,,,,,,,,,,,,,,,,,,,,,,,,1084.6918,1090.8759,0.0,0.0,0.0,0.0,1.0,SoundStimuli/NoScrubs_TLC_Original5S.wav,,,,,,,,,,,,,,,,,,,,,,,,,,,,,,,,,,,,,,,,,,,,,,,,,,,,,,,,,,
,,,,,991830,1,2024-06-17_07h39.21.921,experiment,2024.1.5,MacIntel,60.24096386,667045947eb812cbdacbf325,66704a68f5ca71c26122881e,,,,,,,,,,,,,,,,,,,,,,,,,,,,,,,,,,,,1090.8878,1097.0094,0.0,1.0,1.0,1.0,1.0,SoundStimuli/NoScrubs_TLC_Cover5S.wav,,,,,,,,,,,,,,,,,,,,,,,,,,,,,,,,,,,,,,,,,,,,,,,,,,,,,,,,,,
,,,,,991830,1,2024-06-17_07h39.21.921,experiment,2024.1.5,MacIntel,60.24096386,667045947eb812cbdacbf325,66704a68f5ca71c26122881e,,,,,,,,,,,,,,,,,,,,,,,,,,,,,,,,,,,,,,,,,,,,1097.0097,1100.7507,4.995807292,3.7198,0.0,2.0,2.0,14.0,1.0,song_indices/NoScrubs_TLC.csv,,,,,,,,,,,,,,,,,,,,,,,,,,,,,,,,,,,,,,,,,,,,,,,,
,,,,,991830,1,2024-06-17_07h39.21.921,experiment,2024.1.5,MacIntel,60.24096386,667045947eb812cbdacbf325,66704a68f5ca71c26122881e,,,,,,,,,,,,,,,,,,,,,,,,,,,,,,,,,,,,1100.7511,1107.0753,0.0,0.0,0.0,0.0,1.0,SoundStimuli/RockWithYou_MichaelJackson_Original5S.wav,,,,,,,,,,,,,,,,,,,,,,,,,,,,,,,,,,,,,,,,,,,,,,,,,,,,,,,,,,
,,,,,991830,1,2024-06-17_07h39.21.921,experiment,2024.1.5,MacIntel,60.24096386,667045947eb812cbdacbf325,66704a68f5ca71c26122881e,,,,,,,,,,,,,,,,,,,,,,,,,,,,,,,,,,,,1107.0868,1113.1428,0.0,1.0,1.0,1.0,1.0,SoundStimuli/RockWithYou_MichaelJackson_Cover5S.wav,,,,,,,,,,,,,,,,,,,,,,,,,,,,,,,,,,,,,,,,,,,,,,,,,,,,,,,,,,
,,,,,991830,1,2024-06-17_07h39.21.921,experiment,2024.1.5,MacIntel,60.24096386,667045947eb812cbdacbf325,66704a68f5ca71c26122881e,,,,,,,,,,,,,,,,,,,,,,,,,,,,,,,,,,,,,,,,,,,,1113.1431,1114.726,3.469869792,1.5581,0.0,3.0,3.0,16.0,1.0,song_indices/RockWithYou_MichaelJackson.csv,,,,,,,,,,,,,,,,,,,,,,,,,,,,,,,,,,,,,,,,,,,,,,,,
,,,,,991830,1,2024-06-17_07h39.21.921,experiment,2024.1.5,MacIntel,60.24096386,667045947eb812cbdacbf325,66704a68f5ca71c26122881e,,,,,,,,,,,,,,,,,,,,,,,,,,,,,,,,,,,,1114.7268,1121.51,0.0,0.0,0.0,1.0,1.0,SoundStimuli/PartyRockAnthem_LMFAO_Cover5S.wav,,,,,,,,,,,,,,,,,,,,,,,,,,,,,,,,,,,,,,,,,,,,,,,,,,,,,,,,,,
,,,,,991830,1,2024-06-17_07h39.21.921,experiment,2024.1.5,MacIntel,60.24096386,667045947eb812cbdacbf325,66704a68f5ca71c26122881e,,,,,,,,,,,,,,,,,,,,,,,,,,,,,,,,,,,,1121.5212,1128.26,0.0,1.0,1.0,0.0,1.0,SoundStimuli/PartyRockAnthem_LMFAO_Original5S.wav,,,,,,,,,,,,,,,,,,,,,,,,,,,,,,,,,,,,,,,,,,,,,,,,,,,,,,,,,,
,,,,,991830,1,2024-06-17_07h39.21.921,experiment,2024.1.5,MacIntel,60.24096386,667045947eb812cbdacbf325,66704a68f5ca71c26122881e,,,,,,,,,,,,,,,,,,,,,,,,,,,,,,,,,,,,,,,,,,,,1128.2601,1129.9588,4.025677083,1.6761,0.0,4.0,4.0,2.0,1.0,song_indices/PartyRockAnthem_LMFAO.csv,,,,,,,,,,,,,,,,,,,,,,,,,,,,,,,,,,,,,,,,,,,,,,,,
,,,,,991830,1,2024-06-17_07h39.21.921,experiment,2024.1.5,MacIntel,60.24096386,667045947eb812cbdacbf325,66704a68f5ca71c26122881e,,,,,,,,,,,,,,,,,,,,,,,,,,,,,,,,,,,,1129.9593,1140.1927,0.0,0.0,0.0,1.0,1.0,SoundStimuli/CrazyInLove_BeyonceFtJayZ_Cover5S.wav,,,,,,,,,,,,,,,,,,,,,,,,,,,,,,,,,,,,,,,,,,,,,,,,,,,,,,,,,,
,,,,,991830,1,2024-06-17_07h39.21.921,experiment,2024.1.5,MacIntel,60.24096386,667045947eb812cbdacbf325,66704a68f5ca71c26122881e,,,,,,,,,,,,,,,,,,,,,,,,,,,,,,,,,,,,1140.2054,1146.7436,0.0,1.0,1.0,0.0,1.0,SoundStimuli/CrazyInLove_BeyonceFtJayZ_Original5S.wav,,,,,,,,,,,,,,,,,,,,,,,,,,,,,,,,,,,,,,,,,,,,,,,,,,,,,,,,,,
,,,,,991830,1,2024-06-17_07h39.21.921,experiment,2024.1.5,MacIntel,60.24096386,667045947eb812cbdacbf325,66704a68f5ca71c26122881e,,,,,,,,,,,,,,,,,,,,,,,,,,,,,,,,,,,,,,,,,,,,1146.744,1148.3266,2.993723958,1.5575,0.0,5.0,5.0,3.0,1.0,song_indices/CrazyInLove_BeyonceFtJayZ.csv,,,,,,,,,,,,,,,,,,,,,,,,,,,,,,,,,,,,,,,,,,,,,,,,
,,,,,991830,1,2024-06-17_07h39.21.921,experiment,2024.1.5,MacIntel,60.24096386,667045947eb812cbdacbf325,66704a68f5ca71c26122881e,,,,,,,,,,,,,,,,,,,,,,,,,,,,,,,,,,,,1148.3272,1155.3605,0.0,0.0,0.0,1.0,1.0,SoundStimuli/UptownFunk_MarkRonson_Cover5S.wav,,,,,,,,,,,,,,,,,,,,,,,,,,,,,,,,,,,,,,,,,,,,,,,,,,,,,,,,,,
,,,,,991830,1,2024-06-17_07h39.21.921,experiment,2024.1.5,MacIntel,60.24096386,667045947eb812cbdacbf325,66704a68f5ca71c26122881e,,,,,,,,,,,,,,,,,,,,,,,,,,,,,,,,,,,,1155.3723,1162.594,0.0,1.0,1.0,0.0,1.0,SoundStimuli/UptownFunk_MarkRonson_Original5S.wav,,,,,,,,,,,,,,,,,,,,,,,,,,,,,,,,,,,,,,,,,,,,,,,,,,,,,,,,,,
,,,,,991830,1,2024-06-17_07h39.21.921,experiment,2024.1.5,MacIntel,60.24096386,667045947eb812cbdacbf325,66704a68f5ca71c26122881e,,,,,,,,,,,,,,,,,,,,,,,,,,,,,,,,,,,,,,,,,,,,1162.5943,1164.677,6.476901042,2.07,0.0,6.0,6.0,15.0,1.0,song_indices/UptownFunk_MarkRonson.csv,,,,,,,,,,,,,,,,,,,,,,,,,,,,,,,,,,,,,,,,,,,,,,,,
,,,,,991830,1,2024-06-17_07h39.21.921,experiment,2024.1.5,MacIntel,60.24096386,667045947eb812cbdacbf325,66704a68f5ca71c26122881e,,,,,,,,,,,,,,,,,,,,,,,,,,,,,,,,,,,,1164.6776,1170.8942,0.0,0.0,0.0,0.0,1.0,SoundStimuli/BetteDavisEyes_KimCarnes_Original5S.wav,,,,,,,,,,,,,,,,,,,,,,,,,,,,,,,,,,,,,,,,,,,,,,,,,,,,,,,,,,
,,,,,991830,1,2024-06-17_07h39.21.921,experiment,2024.1.5,MacIntel,60.24096386,667045947eb812cbdacbf325,66704a68f5ca71c26122881e,,,,,,,,,,,,,,,,,,,,,,,,,,,,,,,,,,,,1170.9059,1176.5943,0.0,1.0,1.0,1.0,1.0,SoundStimuli/BetteDavisEyes_KimCarnes_Cover5S.wav,,,,,,,,,,,,,,,,,,,,,,,,,,,,,,,,,,,,,,,,,,,,,,,,,,,,,,,,,,
,,,,,991830,1,2024-06-17_07h39.21.921,experiment,2024.1.5,MacIntel,60.24096386,667045947eb812cbdacbf325,66704a68f5ca71c26122881e,,,,,,,,,,,,,,,,,,,,,,,,,,,,,,,,,,,,,,,,,,,,1176.5945,1178.5939,4.01828125,1.985,0.0,7.0,7.0,5.0,1.0,song_indices/BetteDavisEyes_KimCarnes.csv,,,,,,,,,,,,,,,,,,,,,,,,,,,,,,,,,,,,,,,,,,,,,,,,
,,,,,991830,1,2024-06-17_07h39.21.921,experiment,2024.1.5,MacIntel,60.24096386,667045947eb812cbdacbf325,66704a68f5ca71c26122881e,,,,,,,,,,,,,,,,,,,,,,,,,,,,,,,,,,,,1178.5945,1184.8111,0.0,0.0,0.0,1.0,1.0,SoundStimuli/GimmeShelter_RollingStones_Cover5S.wav,,,,,,,,,,,,,,,,,,,,,,,,,,,,,,,,,,,,,,,,,,,,,,,,,,,,,,,,,,
,,,,,991830,1,2024-06-17_07h39.21.921,experiment,2024.1.5,MacIntel,60.24096386,667045947eb812cbdacbf325,66704a68f5ca71c26122881e,,,,,,,,,,,,,,,,,,,,,,,,,,,,,,,,,,,,1184.8215,1190.9113,0.0,1.0,1.0,0.0,1.0,SoundStimuli/GimmeShelter_RollingStones_Original5S.wav,,,,,,,,,,,,,,,,,,,,,,,,,,,,,,,,,,,,,,,,,,,,,,,,,,,,,,,,,,
,,,,,991830,1,2024-06-17_07h39.21.921,experiment,2024.1.5,MacIntel,60.24096386,667045947eb812cbdacbf325,66704a68f5ca71c26122881e,,,,,,,,,,,,,,,,,,,,,,,,,,,,,,,,,,,,,,,,,,,,1190.9116,1193.9775,4.485963542,3.0523,0.0,8.0,8.0,20.0,1.0,song_indices/GimmeShelter_RollingStones.csv,,,,,,,,,,,,,,,,,,,,,,,,,,,,,,,,,,,,,,,,,,,,,,,,
,,,,,991830,1,2024-06-17_07h39.21.921,experiment,2024.1.5,MacIntel,60.24096386,667045947eb812cbdacbf325,66704a68f5ca71c26122881e,,,,,,,,,,,,,,,,,,,,,,,,,,,,,,,,,,,,1193.9783,1200.2781,0.0,0.0,0.0,0.0,1.0,SoundStimuli/HeyYa_Outkast_Original5S.wav,,,,,,,,,,,,,,,,,,,,,,,,,,,,,,,,,,,,,,,,,,,,,,,,,,,,,,,,,,
,,,,,991830,1,2024-06-17_07h39.21.921,experiment,2024.1.5,MacIntel,60.24096386,667045947eb812cbdacbf325,66704a68f5ca71c26122881e,,,,,,,,,,,,,,,,,,,,,,,,,,,,,,,,,,,,1200.2897,1209.1956,0.0,1.0,1.0,1.0,1.0,SoundStimuli/HeyYa_Outkast_Cover5S.wav,,,,,,,,,,,,,,,,,,,,,,,,,,,,,,,,,,,,,,,,,,,,,,,,,,,,,,,,,,
,,,,,991830,1,2024-06-17_07h39.21.921,experiment,2024.1.5,MacIntel,60.24096386,667045947eb812cbdacbf325,66704a68f5ca71c26122881e,,,,,,,,,,,,,,,,,,,,,,,,,,,,,,,,,,,,,,,,,,,,1209.1959,1211.5112,3.026223958,2.3043,0.0,9.0,9.0,22.0,1.0,song_indices/HeyYa_Outkast.csv,,,,,,,,,,,,,,,,,,,,,,,,,,,,,,,,,,,,,,,,,,,,,,,,
,,,,,991830,1,2024-06-17_07h39.21.921,experiment,2024.1.5,MacIntel,60.24096386,667045947eb812cbdacbf325,66704a68f5ca71c26122881e,,,,,,,,,,,,,,,,,,,,,,,,,,,,,,,,,,,,1211.5119,1217.9785,0.0,0.0,0.0,0.0,1.0,SoundStimuli/ShapeofYou_EdSheeran_Original5S.wav,,,,,,,,,,,,,,,,,,,,,,,,,,,,,,,,,,,,,,,,,,,,,,,,,,,,,,,,,,
,,,,,991830,1,2024-06-17_07h39.21.921,experiment,2024.1.5,MacIntel,60.24096386,667045947eb812cbdacbf325,66704a68f5ca71c26122881e,,,,,,,,,,,,,,,,,,,,,,,,,,,,,,,,,,,,1217.991,1224.2952,0.0,1.0,1.0,1.0,1.0,SoundStimuli/ShapeofYou_EdSheeran_Cover5S.wav,,,,,,,,,,,,,,,,,,,,,,,,,,,,,,,,,,,,,,,,,,,,,,,,,,,,,,,,,,
,,,,,991830,1,2024-06-17_07h39.21.921,experiment,2024.1.5,MacIntel,60.24096386,667045947eb812cbdacbf325,66704a68f5ca71c26122881e,,,,,,,,,,,,,,,,,,,,,,,,,,,,,,,,,,,,,,,,,,,,1224.2956,1225.5281,3.368932292,1.222,0.0,10.0,10.0,21.0,1.0,song_indices/ShapeofYou_EdSheeran.csv,,,,,,,,,,,,,,,,,,,,,,,,,,,,,,,,,,,,,,,,,,,,,,,,
,,,,,991830,1,2024-06-17_07h39.21.921,experiment,2024.1.5,MacIntel,60.24096386,667045947eb812cbdacbf325,66704a68f5ca71c26122881e,,,,,,,,,,,,,,,,,,,,,,,,,,,,,,,,,,,,1225.529,1232.6782,0.0,0.0,0.0,1.0,1.0,SoundStimuli/IWalkTheLine_JohnnyCash_Cover5S.wav,,,,,,,,,,,,,,,,,,,,,,,,,,,,,,,,,,,,,,,,,,,,,,,,,,,,,,,,,,
,,,,,991830,1,2024-06-17_07h39.21.921,experiment,2024.1.5,MacIntel,60.24096386,667045947eb812cbdacbf325,66704a68f5ca71c26122881e,,,,,,,,,,,,,,,,,,,,,,,,,,,,,,,,,,,,1232.6894,1238.6612,0.0,1.0,1.0,0.0,1.0,SoundStimuli/IWalkTheLine_JohnnyCash_Original5S.wav,,,,,,,,,,,,,,,,,,,,,,,,,,,,,,,,,,,,,,,,,,,,,,,,,,,,,,,,,,
,,,,,991830,1,2024-06-17_07h39.21.921,experiment,2024.1.5,MacIntel,60.24096386,667045947eb812cbdacbf325,66704a68f5ca71c26122881e,,,,,,,,,,,,,,,,,,,,,,,,,,,,,,,,,,,,,,,,,,,,1238.6615,1241.1278,2.618515625,2.4544,0.0,11.0,11.0,17.0,1.0,song_indices/IWalkTheLine_JohnnyCash.csv,,,,,,,,,,,,,,,,,,,,,,,,,,,,,,,,,,,,,,,,,,,,,,,,
,,,,,991830,1,2024-06-17_07h39.21.921,experiment,2024.1.5,MacIntel,60.24096386,667045947eb812cbdacbf325,66704a68f5ca71c26122881e,,,,,,,,,,,,,,,,,,,,,,,,,,,,,,,,,,,,1241.1283,1248.4791,0.0,0.0,0.0,1.0,1.0,SoundStimuli/Happy_PharellWilliams_Cover5S.wav,,,,,,,,,,,,,,,,,,,,,,,,,,,,,,,,,,,,,,,,,,,,,,,,,,,,,,,,,,
,,,,,991830,1,2024-06-17_07h39.21.921,experiment,2024.1.5,MacIntel,60.24096386,667045947eb812cbdacbf325,66704a68f5ca71c26122881e,,,,,,,,,,,,,,,,,,,,,,,,,,,,,,,,,,,,1248.4886,1255.8465,0.0,1.0,1.0,0.0,1.0,SoundStimuli/Happy_PharellWilliams_Original5S.wav,,,,,,,,,,,,,,,,,,,,,,,,,,,,,,,,,,,,,,,,,,,,,,,,,,,,,,,,,,
,,,,,991830,1,2024-06-17_07h39.21.921,experiment,2024.1.5,MacIntel,60.24096386,667045947eb812cbdacbf325,66704a68f5ca71c26122881e,,,,,,,,,,,,,,,,,,,,,,,,,,,,,,,,,,,,,,,,,,,,1255.8468,1261.2654,4.444973958,5.3997,0.0,12.0,12.0,7.0,1.0,song_indices/Happy_PharellWilliams.csv,,,,,,,,,,,,,,,,,,,,,,,,,,,,,,,,,,,,,,,,,,,,,,,,
,,,,,991830,1,2024-06-17_07h39.21.921,experiment,2024.1.5,MacIntel,60.24096386,667045947eb812cbdacbf325,66704a68f5ca71c26122881e,,,,,,,,,,,,,,,,,,,,,,,,,,,,,,,,,,,,1261.266,1267.5285,0.0,0.0,0.0,0.0,1.0,SoundStimuli/ItsAllInTheGame_TommyEdwards_Original5S.wav,,,,,,,,,,,,,,,,,,,,,,,,,,,,,,,,,,,,,,,,,,,,,,,,,,,,,,,,,,
,,,,,991830,1,2024-06-17_07h39.21.921,experiment,2024.1.5,MacIntel,60.24096386,667045947eb812cbdacbf325,66704a68f5ca71c26122881e,,,,,,,,,,,,,,,,,,,,,,,,,,,,,,,,,,,,1267.5391,1273.7627,0.0,1.0,1.0,1.0,1.0,SoundStimuli/ItsAllInTheGame_TommyEdwards_Cover5S.wav,,,,,,,,,,,,,,,,,,,,,,,,,,,,,,,,,,,,,,,,,,,,,,,,,,,,,,,,,,
,,,,,991830,1,2024-06-17_07h39.21.921,experiment,2024.1.5,MacIntel,60.24096386,667045947eb812cbdacbf325,66704a68f5ca71c26122881e,,,,,,,,,,,,,,,,,,,,,,,,,,,,,,,,,,,,,,,,,,,,1273.7632,1277.0829,4.021666667,3.301,0.0,13.0,13.0,13.0,1.0,song_indices/ItsAllInTheGame_TommyEdwards.csv,,,,,,,,,,,,,,,,,,,,,,,,,,,,,,,,,,,,,,,,,,,,,,,,
,,,,,991830,1,2024-06-17_07h39.21.921,experiment,2024.1.5,MacIntel,60.24096386,667045947eb812cbdacbf325,66704a68f5ca71c26122881e,,,,,,,,,,,,,,,,,,,,,,,,,,,,,,,,,,,,1277.0835,1282.9797,0.0,0.0,0.0,0.0,1.0,SoundStimuli/EyeOfTheTiger_Survivor_Original5S.wav,,,,,,,,,,,,,,,,,,,,,,,,,,,,,,,,,,,,,,,,,,,,,,,,,,,,,,,,,,
,,,,,991830,1,2024-06-17_07h39.21.921,experiment,2024.1.5,MacIntel,60.24096386,667045947eb812cbdacbf325,66704a68f5ca71c26122881e,,,,,,,,,,,,,,,,,,,,,,,,,,,,,,,,,,,,1282.9908,1289.1122,0.0,1.0,1.0,1.0,1.0,SoundStimuli/EyeOfTheTiger_Survivor_Cover5S.wav,,,,,,,,,,,,,,,,,,,,,,,,,,,,,,,,,,,,,,,,,,,,,,,,,,,,,,,,,,
,,,,,991830,1,2024-06-17_07h39.21.921,experiment,2024.1.5,MacIntel,60.24096386,667045947eb812cbdacbf325,66704a68f5ca71c26122881e,,,,,,,,,,,,,,,,,,,,,,,,,,,,,,,,,,,,,,,,,,,,1289.1124,1290.7627,4.533854167,1.6374,0.0,14.0,14.0,11.0,1.0,song_indices/EyeOfTheTiger_Survivor.csv,,,,,,,,,,,,,,,,,,,,,,,,,,,,,,,,,,,,,,,,,,,,,,,,
,,,,,991830,1,2024-06-17_07h39.21.921,experiment,2024.1.5,MacIntel,60.24096386,667045947eb812cbdacbf325,66704a68f5ca71c26122881e,,,,,,,,,,,,,,,,,,,,,,,,,,,,,,,,,,,,1290.7632,1297.1465,0.0,0.0,0.0,0.0,1.0,SoundStimuli/IWillAlwaysLoveYou_WhitneyHouston_Original5S.wav,,,,,,,,,,,,,,,,,,,,,,,,,,,,,,,,,,,,,,,,,,,,,,,,,,,,,,,,,,
,,,,,991830,1,2024-06-17_07h39.21.921,experiment,2024.1.5,MacIntel,60.24096386,667045947eb812cbdacbf325,66704a68f5ca71c26122881e,,,,,,,,,,,,,,,,,,,,,,,,,,,,,,,,,,,,1297.157,1302.9958,0.0,1.0,1.0,1.0,1.0,SoundStimuli/IWillAlwaysLoveYou_WhitneyHouston_Cover5S.wav,,,,,,,,,,,,,,,,,,,,,,,,,,,,,,,,,,,,,,,,,,,,,,,,,,,,,,,,,,
,,,,,991830,1,2024-06-17_07h39.21.921,experiment,2024.1.5,MacIntel,60.24096386,667045947eb812cbdacbf325,66704a68f5ca71c26122881e,,,,,,,,,,,,,,,,,,,,,,,,,,,,,,,,,,,,,,,,,,,,1302.996,1304.062,6.710364583,1.042,0.0,15.0,15.0,10.0,1.0,song_indices/IWillAlwaysLoveYou_WhitneyHouston.csv,,,,,,,,,,,,,,,,,,,,,,,,,,,,,,,,,,,,,,,,,,,,,,,,
,,,,,991830,1,2024-06-17_07h39.21.921,experiment,2024.1.5,MacIntel,60.24096386,667045947eb812cbdacbf325,66704a68f5ca71c26122881e,,,,,,,,,,,,,,,,,,,,,,,,,,,,,,,,,,,,1304.0626,1310.4801,0.0,0.0,0.0,1.0,1.0,SoundStimuli/Fallin_AliciaKeys_Cover5S.wav,,,,,,,,,,,,,,,,,,,,,,,,,,,,,,,,,,,,,,,,,,,,,,,,,,,,,,,,,,
,,,,,991830,1,2024-06-17_07h39.21.921,experiment,2024.1.5,MacIntel,60.24096386,667045947eb812cbdacbf325,66704a68f5ca71c26122881e,,,,,,,,,,,,,,,,,,,,,,,,,,,,,,,,,,,,1310.4933,1316.6638,0.0,1.0,1.0,0.0,1.0,SoundStimuli/Fallin_AliciaKeys_Original5S.wav,,,,,,,,,,,,,,,,,,,,,,,,,,,,,,,,,,,,,,,,,,,,,,,,,,,,,,,,,,
,,,,,991830,1,2024-06-17_07h39.21.921,experiment,2024.1.5,MacIntel,60.24096386,667045947eb812cbdacbf325,66704a68f5ca71c26122881e,,,,,,,,,,,,,,,,,,,,,,,,,,,,,,,,,,,,,,,,,,,,1316.664,1317.4632,6.710364583,0.7864,0.0,16.0,16.0,12.0,1.0,song_indices/Fallin_AliciaKeys.csv,,,,,,,,,,,,,,,,,,,,,,,,,,,,,,,,,,,,,,,,,,,,,,,,
,,,,,991830,1,2024-06-17_07h39.21.921,experiment,2024.1.5,MacIntel,60.24096386,667045947eb812cbdacbf325,66704a68f5ca71c26122881e,,,,,,,,,,,,,,,,,,,,,,,,,,,,,,,,,,,,1317.4638,1323.3972,0.0,0.0,0.0,0.0,1.0,SoundStimuli/StandByMe_BenEKing_Original5S.wav,,,,,,,,,,,,,,,,,,,,,,,,,,,,,,,,,,,,,,,,,,,,,,,,,,,,,,,,,,
,,,,,991830,1,2024-06-17_07h39.21.921,experiment,2024.1.5,MacIntel,60.24096386,667045947eb812cbdacbf325,66704a68f5ca71c26122881e,,,,,,,,,,,,,,,,,,,,,,,,,,,,,,,,,,,,1323.4071,1329.4305,0.0,1.0,1.0,1.0,1.0,SoundStimuli/StandByMe_BenEKing_Cover5S.wav,,,,,,,,,,,,,,,,,,,,,,,,,,,,,,,,,,,,,,,,,,,,,,,,,,,,,,,,,,
,,,,,991830,1,2024-06-17_07h39.21.921,experiment,2024.1.5,MacIntel,60.24096386,667045947eb812cbdacbf325,66704a68f5ca71c26122881e,,,,,,,,,,,,,,,,,,,,,,,,,,,,,,,,,,,,,,,,,,,,1329.4308,1331.0801,5.664921875,1.6263,0.0,17.0,17.0,1.0,1.0,song_indices/StandByMe_BenEKing.csv,,,,,,,,,,,,,,,,,,,,,,,,,,,,,,,,,,,,,,,,,,,,,,,,
,,,,,991830,1,2024-06-17_07h39.21.921,experiment,2024.1.5,MacIntel,60.24096386,667045947eb812cbdacbf325,66704a68f5ca71c26122881e,,,,,,,,,,,,,,,,,,,,,,,,,,,,,,,,,,,,1331.0808,1337.2974,0.0,0.0,0.0,1.0,1.0,SoundStimuli/NoOne_AliciaKeys_Cover5S.wav,,,,,,,,,,,,,,,,,,,,,,,,,,,,,,,,,,,,,,,,,,,,,,,,,,,,,,,,,,
,,,,,991830,1,2024-06-17_07h39.21.921,experiment,2024.1.5,MacIntel,60.24096386,667045947eb812cbdacbf325,66704a68f5ca71c26122881e,,,,,,,,,,,,,,,,,,,,,,,,,,,,,,,,,,,,1337.3098,1345.0308,0.0,1.0,1.0,0.0,1.0,SoundStimuli/NoOne_AliciaKeys_Original5S.wav,,,,,,,,,,,,,,,,,,,,,,,,,,,,,,,,,,,,,,,,,,,,,,,,,,,,,,,,,,
,,,,,991830,1,2024-06-17_07h39.21.921,experiment,2024.1.5,MacIntel,60.24096386,667045947eb812cbdacbf325,66704a68f5ca71c26122881e,,,,,,,,,,,,,,,,,,,,,,,,,,,,,,,,,,,,,,,,,,,,1345.031,1354.1639,5.04390625,9.1106,0.0,18.0,18.0,19.0,1.0,song_indices/NoOne_AliciaKeys.csv,,,,,,,,,,,,,,,,,,,,,,,,,,,,,,,,,,,,,,,,,,,,,,,,
,,,,,991830,1,2024-06-17_07h39.21.921,experiment,2024.1.5,MacIntel,60.24096386,667045947eb812cbdacbf325,66704a68f5ca71c26122881e,,,,,,,,,,,,,,,,,,,,,,,,,,,,,,,,,,,,1354.1647,1360.4977,0.0,0.0,0.0,1.0,1.0,SoundStimuli/Stronger_KanyeWest_Cover5S.wav,,,,,,,,,,,,,,,,,,,,,,,,,,,,,,,,,,,,,,,,,,,,,,,,,,,,,,,,,,
,,,,,991830,1,2024-06-17_07h39.21.921,experiment,2024.1.5,MacIntel,60.24096386,667045947eb812cbdacbf325,66704a68f5ca71c26122881e,,,,,,,,,,,,,,,,,,,,,,,,,,,,,,,,,,,,1360.5112,1366.5646,0.0,1.0,1.0,0.0,1.0,SoundStimuli/Stronger_KanyeWest_Original5S.wav,,,,,,,,,,,,,,,,,,,,,,,,,,,,,,,,,,,,,,,,,,,,,,,,,,,,,,,,,,
,,,,,991830,1,2024-06-17_07h39.21.921,experiment,2024.1.5,MacIntel,60.24096386,667045947eb812cbdacbf325,66704a68f5ca71c26122881e,,,,,,,,,,,,,,,,,,,,,,,,,,,,,,,,,,,,,,,,,,,,1366.5648,1368.9974,2.621354167,2.4184,0.0,19.0,19.0,9.0,1.0,song_indices/Stronger_KanyeWest.csv,,,,,,,,,,,,,,,,,,,,,,,,,,,,,,,,,,,,,,,,,,,,,,,,
,,,,,991830,1,2024-06-17_07h39.21.921,experiment,2024.1.5,MacIntel,60.24096386,667045947eb812cbdacbf325,66704a68f5ca71c26122881e,,,,,,,,,,,,,,,,,,,,,,,,,,,,,,,,,,,,1368.9979,1375.0813,0.0,0.0,0.0,0.0,1.0,SoundStimuli/GetUrFreakOn_MissyElliot_Original5S.wav,,,,,,,,,,,,,,,,,,,,,,,,,,,,,,,,,,,,,,,,,,,,,,,,,,,,,,,,,,
,,,,,991830,1,2024-06-17_07h39.21.921,experiment,2024.1.5,MacIntel,60.24096386,667045947eb812cbdacbf325,66704a68f5ca71c26122881e,,,,,,,,,,,,,,,,,,,,,,,,,,,,,,,,,,,,1375.0917,1381.6648,0.0,1.0,1.0,1.0,1.0,SoundStimuli/GetUrFreakOn_MissyElliot_Cover5S.wav,,,,,,,,,,,,,,,,,,,,,,,,,,,,,,,,,,,,,,,,,,,,,,,,,,,,,,,,,,
,,,,,991830,1,2024-06-17_07h39.21.921,experiment,2024.1.5,MacIntel,60.24096386,667045947eb812cbdacbf325,66704a68f5ca71c26122881e,,,,,,,,,,,,,,,,,,,,,,,,,,,,,,,,,,,,,,,,,,,,1381.665,1385.9018,2.968151042,4.2171,0.0,20.0,20.0,18.0,1.0,song_indices/GetUrFreakOn_MissyElliot.csv,,,,,,,,,,,,,,,,,,,,,,,,,,,,,,,,,,,,,,,,,,,,,,,,
,,,,,991830,1,2024-06-17_07h39.21.921,experiment,2024.1.5,MacIntel,60.24096386,667045947eb812cbdacbf325,66704a68f5ca71c26122881e,,,,,,,,,,,,,,,,,,,,,,,,,,,,,,,,,,,,1385.9023,1392.1144,0.0,0.0,0.0,0.0,1.0,SoundStimuli/TheBattleOfNewOrleans_JohnnyHorton_Original5S.wav,,,,,,,,,,,,,,,,,,,,,,,,,,,,,,,,,,,,,,,,,,,,,,,,,,,,,,,,,,
,,,,,991830,1,2024-06-17_07h39.21.921,experiment,2024.1.5,MacIntel,60.24096386,667045947eb812cbdacbf325,66704a68f5ca71c26122881e,,,,,,,,,,,,,,,,,,,,,,,,,,,,,,,,,,,,1392.1269,1400.0986,0.0,1.0,1.0,1.0,1.0,SoundStimuli/TheBattleOfNewOrleans_JohnnyHorton_Cover5S.wav,,,,,,,,,,,,,,,,,,,,,,,,,,,,,,,,,,,,,,,,,,,,,,,,,,,,,,,,,,
,,,,,991830,1,2024-06-17_07h39.21.921,experiment,2024.1.5,MacIntel,60.24096386,667045947eb812cbdacbf325,66704a68f5ca71c26122881e,,,,,,,,,,,,,,,,,,,,,,,,,,,,,,,,,,,,,,,,,,,,1400.0989,1402.4563,2.591588542,2.3348,0.0,21.0,21.0,4.0,1.0,song_indices/TheBattleOfNewOrleans_JohnnyHorton.csv,,,,,,,,,,,,,,,,,,,,,,,,,,,,,,,,,,,,,,,,,,,,,,,,
,,,,,991830,1,2024-06-17_07h39.21.921,experiment,2024.1.5,MacIntel,60.24096386,667045947eb812cbdacbf325,66704a68f5ca71c26122881e,,,,,,,,,,,,,,,,,,,,,,,,,,,,,,,,,,,,1402.4567,1408.6486,0.0,0.0,0.0,0.0,1.0,SoundStimuli/SmellsLikeTeenSpirit_Nirvana_Original5S.wav,,,,,,,,,,,,,,,,,,,,,,,,,,,,,,,,,,,,,,,,,,,,,,,,,,,,,,,,,,
,,,,,991830,1,2024-06-17_07h39.21.921,experiment,2024.1.5,MacIntel,60.24096386,667045947eb812cbdacbf325,66704a68f5ca71c26122881e,,,,,,,,,,,,,,,,,,,,,,,,,,,,,,,,,,,,1408.6599,1414.4318,0.0,1.0,1.0,1.0,1.0,SoundStimuli/SmellsLikeTeenSpirit_Nirvana_Cover5S.wav,,,,,,,,,,,,,,,,,,,,,,,,,,,,,,,,,,,,,,,,,,,,,,,,,,,,,,,,,,
,,,,,991830,1,2024-06-17_07h39.21.921,experiment,2024.1.5,MacIntel,60.24096386,667045947eb812cbdacbf325,66704a68f5ca71c26122881e,,,,,,,,,,,,,,,,,,,,,,,,,,,,,,,,,,,,,,,,,,,,1414.4318,1415.7984,6.520546875,1.354,0.0,22.0,22.0,8.0,1.0,song_indices/SmellsLikeTeenSpirit_Nirvana.csv,,,,,,,,,,,,,,,,,,,,,,,,,,,,,,,,,,,,,,,,,,,,,,,,
,,,,,991830,1,2024-06-17_07h39.21.921,experiment,2024.1.5,MacIntel,60.24096386,667045947eb812cbdacbf325,66704a68f5ca71c26122881e,,,,,,,,,,,,,,,,,,,,,,,,,,,,,,,,,,,,,,,,,,,,,,,,,,,,,,1415.7985,1415.7986,,,,0.0,2.0,2.0,1.0,1.0,choose_song_b2.csv,,,,,,,,,,,,,,,,,,,,,,,,,,,,,,,,,,,,,
,,,,,991830,1,2024-06-17_07h39.21.921,experiment,2024.1.5,MacIntel,60.24096386,667045947eb812cbdacbf325,66704a68f5ca71c26122881e,,,,,,,,,,,,,,,,,,,,,,,,,,,,,,,,,,,,,,,,,,,,,,,,,,,,,,,,,,,,,,,,,58.0,Item 2,not a musician,Item 2,"Radio, Spotify, Apple Music and Pandora",3.0,4.0,"Driving, walking, cleaning, exercising, background music while at home",Never,Never,Sometimes,Rarely,Rarely,Sometimes,Sometimes,Often,Rarely,Often,Often,Always,Rarely,Often,Always,Often,none,Alternative,Classic Rock,Pop,They have stayed the same,,0.0,0.0,0.0,0.0,1.0,,
,,,,,991830,1,2024-06-17_07h39.21.921,experiment,2024.1.5,MacIntel,60.24096386,667045947eb812cbdacbf325,66704a68f5ca71c26122881e,,,,,,,,,,,,,,,,,,,,,,,,,,,,,,,,,,,,,,,,,,,,,,,,,,,,,,,,,,,,,,,,,,,,,,,,,,,,,,,,,,,,,,,,,,,,,,,,,,,,1754.2592,1756.206
