welcome.started,welcome.stopped,space_to_continue.keys,space_to_continue.rt,space_to_continue.duration,participant,session,date,expName,psychopyVersion,OS,frameRate,STUDY_ID,SESSION_ID,consent.consent,consent.consent_recontact,consent_check.started,consent_check.stopped,calibration_ready.started,calibration_ready.stopped,cal_ready.keys,cal_ready.rt,cal_ready.duration,calibration.started,calibration.stopped,mouse.x,mouse.y,mouse.leftButton,mouse.midButton,mouse.rightButton,mouse.time,mouse.clicked_name,move_on.keys,move_on.rt,move_on.duration,run_cal.thisRepN,run_cal.thisTrialN,run_cal.thisN,run_cal.thisIndex,run_cal.ran,emotion_training_ready.started,emotion_training_ready.stopped,training_move_on.keys,training_move_on.rt,training_move_on.duration,examples.started,examples.stopped,emotion_scale.started,emotion_scale.stopped,scale_next.keys,scale_next.rt,scale_next.duration,instructions.started,instructions.stopped,next.keys,next.rt,next.duration,practice_task.started,practice_task.stopped,mouse_rating_2.x,mouse_rating_2.y,mouse_rating_2.leftButton,mouse_rating_2.midButton,mouse_rating_2.rightButton,mouse_rating_2.time,mouse_rating_2.clicked_name,ready.started,ready.stopped,key_resp.keys,key_resp.rt,key_resp.duration,set_group.started,set_group.stopped,task.started,task.stopped,mouse_rating.x,mouse_rating.y,mouse_rating.leftButton,mouse_rating.midButton,mouse_rating.rightButton,mouse_rating.time,mouse_rating.clicked_name,trials.thisRepN,trials.thisTrialN,trials.thisN,trials.thisIndex,trials.ran,clip,short_break.started,short_break.stopped,space_to_move_on.keys,space_to_move_on.rt,space_to_move_on.duration,instruction_reminder.started,instruction_reminder.stopped,reminder_move_on.keys,reminder_move_on.rt,reminder_move_on.duration,blocks.thisRepN,blocks.thisTrialN,blocks.thisN,blocks.thisIndex,blocks.ran,block,post_survey.age,post_survey.musician,post_survey.music_making,post_survey.listen_time,post_survey.medium,post_survey.music_seeking,post_survey.music_choice,post_survey.activities,post_survey.question1.Metal,post_survey.question1.Ambient,post_survey.question1.Latin,post_survey.question1.Pop,post_survey.question1.Jazz,post_survey.question1.Country,post_survey.question1.Reggae,post_survey.question1.Disco,post_survey.question1.Classical,post_survey.question1.Hip hop,post_survey.question1.Alternative rock,post_survey.question1.Classic rock,post_survey.question1.Folk/indie,post_survey.question1.R&B,post_survey.question1.Electronic (EDM),post_survey.question1.A cappella,post_survey.other_genres,post_survey.genres_ranked.text1,post_survey.genres_ranked.text2,post_survey.genres_ranked.text3,post_survey.habit_change,show_exp.thisRepN,show_exp.thisTrialN,show_exp.thisN,show_exp.thisIndex,show_exp.ran,goodbye.started,goodbye.stopped
0.0002,2.9188,space,2.9066,,35559,1,2024-07-12_19h26.05.837,experiment,2024.1.5,Win32,59.52380952,6691931c2c63981b064e1f0c,6691bb6fc57d7fb5c45d56aa,,,,,,,,,,,,,,,,,,,,,,,,,,,,,,,,,,,,,,,,,,,,,,,,,,,,,,,,,,,,,,,,,,,,,,,,,,,,,,,,,,,,,,,,,,,,,,,,,,,,,,,,,,,,,,,,,,,,,,,,,,,,,,
,,,,,35559,1,2024-07-12_19h26.05.837,experiment,2024.1.5,Win32,59.52380952,6691931c2c63981b064e1f0c,6691bb6fc57d7fb5c45d56aa,yes,no,,,,,,,,,,,,,,,,,,,,,,,,,,,,,,,,,,,,,,,,,,,,,,,,,,,,,,,,,,,,,,,,,,,,,,,,,,,,,,,,,,,,,,,,,,,,,,,,,,,,,,,,,,,,,,,,,,,,,,,,,,,,
,,,,,35559,1,2024-07-12_19h26.05.837,experiment,2024.1.5,Win32,59.52380952,6691931c2c63981b064e1f0c,6691bb6fc57d7fb5c45d56aa,,,21.5564,21.5564,,,,,,,,,,,,,,,,,,,,,,,,,,,,,,,,,,,,,,,,,,,,,,,,,,,,,,,,,,,,,,,,,,,,,,,,,,,,,,,,,,,,,,,,,,,,,,,,,,,,,,,,,,,,,,,,,,,,,,,,,,
,,,,,35559,1,2024-07-12_19h26.05.837,experiment,2024.1.5,Win32,59.52380952,6691931c2c63981b064e1f0c,6691bb6fc57d7fb5c45d56aa,,,,,21.5576,26.1091,space,4.5393,,26.1103,57.8162,[-0.012962962962962963],[-0.41759259259259257],[1],[0],[0],[14.57930000001192],"[""play_button""]",y,30.6598,,0.0,0.0,0.0,0.0,1.0,,,,,,,,,,,,,,,,,,,,,,,,,,,,,,,,,,,,,,,,,,,,,,,,,,,,,,,,,,,,,,,,,,,,,,,,,,,,,,,,,,,,,,,,,,,,,,,,,,,,
,,,,,35559,1,2024-07-12_19h26.05.837,experiment,2024.1.5,Win32,59.52380952,6691931c2c63981b064e1f0c,6691bb6fc57d7fb5c45d56aa,,,,,,,,,,,,,,,,,,,,,,,,,,,57.817,93.8089,space,35.9667,,93.8092,213.8209,213.8218,235.3046,right,17.9515,,235.3056,244.3525,space,9.0212,,244.3527,250.6689,0.146296296,-0.219444444,1.0,0.0,0.0,0.3001,compass_2,250.6698,252.752,space,2.051,,252.7522,252.7596,252.7771,260.6522,0.143518519,-0.212037037,1.0,0.0,0.0,1.8669,compass,0.0,0.0,0.0,19.0,1.0,SoundStimuli/YouLightUpMyLife_DebbyBoone_Original5S.wav,,,,,,,,,,,,,,,,,,,,,,,,,,,,,,,,,,,,,,,,,,,,,,,,,,,,
,,,,,35559,1,2024-07-12_19h26.05.837,experiment,2024.1.5,Win32,59.52380952,6691931c2c63981b064e1f0c,6691bb6fc57d7fb5c45d56aa,,,,,,,,,,,,,,,,,,,,,,,,,,,,,,,,,,,,,,,,,,,,,,,,,,,,,,,,,,,,260.661,282.669,-0.127777778,0.152777778,1.0,0.0,0.0,16.0005,compass,0.0,1.0,1.0,7.0,1.0,SoundStimuli/MackTheKnife_BobbyDarin_Cover5S.wav,,,,,,,,,,,,,,,,,,,,,,,,,,,,,,,,,,,,,,,,,,,,,,,,,,,,
,,,,,35559,1,2024-07-12_19h26.05.837,experiment,2024.1.5,Win32,59.52380952,6691931c2c63981b064e1f0c,6691bb6fc57d7fb5c45d56aa,,,,,,,,,,,,,,,,,,,,,,,,,,,,,,,,,,,,,,,,,,,,,,,,,,,,,,,,,,,,282.681,290.002,0.209259259,-0.169444444,1.0,0.0,0.0,1.3167,compass,0.0,2.0,2.0,25.0,1.0,SoundStimuli/IllMakeLoveToYou_BoyzIIMen_Cover5S.wav,,,,,,,,,,,,,,,,,,,,,,,,,,,,,,,,,,,,,,,,,,,,,,,,,,,,
,,,,,35559,1,2024-07-12_19h26.05.837,experiment,2024.1.5,Win32,59.52380952,6691931c2c63981b064e1f0c,6691bb6fc57d7fb5c45d56aa,,,,,,,,,,,,,,,,,,,,,,,,,,,,,,,,,,,,,,,,,,,,,,,,,,,,,,,,,,,,290.0098,297.1356,-0.087037037,-0.144444444,1.0,0.0,0.0,1.1164,compass,0.0,3.0,3.0,24.0,1.0,SoundStimuli/Kiss_Prince_Cover5S.wav,,,,,,,,,,,,,,,,,,,,,,,,,,,,,,,,,,,,,,,,,,,,,,,,,,,,
,,,,,35559,1,2024-07-12_19h26.05.837,experiment,2024.1.5,Win32,59.52380952,6691931c2c63981b064e1f0c,6691bb6fc57d7fb5c45d56aa,,,,,,,,,,,,,,,,,,,,,,,,,,,,,,,,,,,,,,,,,,,,,,,,,,,,,,,,,,,,297.1446,303.7186,0.228703704,-0.198148148,1.0,0.0,0.0,0.5667,compass,0.0,4.0,4.0,32.0,1.0,SoundStimuli/Dilemma_NellyKellyRowland_Cover5S.wav,,,,,,,,,,,,,,,,,,,,,,,,,,,,,,,,,,,,,,,,,,,,,,,,,,,,
,,,,,35559,1,2024-07-12_19h26.05.837,experiment,2024.1.5,Win32,59.52380952,6691931c2c63981b064e1f0c,6691bb6fc57d7fb5c45d56aa,,,,,,,,,,,,,,,,,,,,,,,,,,,,,,,,,,,,,,,,,,,,,,,,,,,,,,,,,,,,303.7291,312.0188,-0.153703704,0.176851852,1.0,0.0,0.0,2.2834,compass,0.0,5.0,5.0,2.0,1.0,SoundStimuli/SmellsLikeTeenSpirit_Nirvana_Original5S.wav,,,,,,,,,,,,,,,,,,,,,,,,,,,,,,,,,,,,,,,,,,,,,,,,,,,,
,,,,,35559,1,2024-07-12_19h26.05.837,experiment,2024.1.5,Win32,59.52380952,6691931c2c63981b064e1f0c,6691bb6fc57d7fb5c45d56aa,,,,,,,,,,,,,,,,,,,,,,,,,,,,,,,,,,,,,,,,,,,,,,,,,,,,,,,,,,,,312.0266,318.3687,0.191666667,0.191666667,1.0,0.0,0.0,0.3334,compass,0.0,6.0,6.0,26.0,1.0,SoundStimuli/TheSign_AceOfBase_Cover5S.wav,,,,,,,,,,,,,,,,,,,,,,,,,,,,,,,,,,,,,,,,,,,,,,,,,,,,
,,,,,35559,1,2024-07-12_19h26.05.837,experiment,2024.1.5,Win32,59.52380952,6691931c2c63981b064e1f0c,6691bb6fc57d7fb5c45d56aa,,,,,,,,,,,,,,,,,,,,,,,,,,,,,,,,,,,,,,,,,,,,,,,,,,,,,,,,,,,,318.3789,324.7522,0.212037037,0.138888889,1.0,0.0,0.0,0.3672,compass,0.0,7.0,7.0,0.0,1.0,SoundStimuli/GimmeShelter_RollingStones_Original5S.wav,,,,,,,,,,,,,,,,,,,,,,,,,,,,,,,,,,,,,,,,,,,,,,,,,,,,
,,,,,35559,1,2024-07-12_19h26.05.837,experiment,2024.1.5,Win32,59.52380952,6691931c2c63981b064e1f0c,6691bb6fc57d7fb5c45d56aa,,,,,,,,,,,,,,,,,,,,,,,,,,,,,,,,,,,,,,,,,,,,,,,,,,,,,,,,,,,,324.7616,332.5524,-0.123148148,0.135185185,1.0,0.0,0.0,1.7837,compass,0.0,8.0,8.0,14.0,1.0,SoundStimuli/LikeARollingStone_BobDylan_Original5S.wav,,,,,,,,,,,,,,,,,,,,,,,,,,,,,,,,,,,,,,,,,,,,,,,,,,,,
,,,,,35559,1,2024-07-12_19h26.05.837,experiment,2024.1.5,Win32,59.52380952,6691931c2c63981b064e1f0c,6691bb6fc57d7fb5c45d56aa,,,,,,,,,,,,,,,,,,,,,,,,,,,,,,,,,,,,,,,,,,,,,,,,,,,,,,,,,,,,332.5603,338.8023,-0.161111111,-0.168518519,1.0,0.0,0.0,0.2334,compass,0.0,9.0,9.0,33.0,1.0,SoundStimuli/TheBoyIsMine_BrandyMonica_Original5S.wav,,,,,,,,,,,,,,,,,,,,,,,,,,,,,,,,,,,,,,,,,,,,,,,,,,,,
,,,,,35559,1,2024-07-12_19h26.05.837,experiment,2024.1.5,Win32,59.52380952,6691931c2c63981b064e1f0c,6691bb6fc57d7fb5c45d56aa,,,,,,,,,,,,,,,,,,,,,,,,,,,,,,,,,,,,,,,,,,,,,,,,,,,,,,,,,,,,338.8112,346.3856,0.176851852,-0.190740741,1.0,0.0,0.0,1.567,compass,0.0,10.0,10.0,13.0,1.0,SoundStimuli/Perfect_EdSheeran_Cover5S.wav,,,,,,,,,,,,,,,,,,,,,,,,,,,,,,,,,,,,,,,,,,,,,,,,,,,,
,,,,,35559,1,2024-07-12_19h26.05.837,experiment,2024.1.5,Win32,59.52380952,6691931c2c63981b064e1f0c,6691bb6fc57d7fb5c45d56aa,,,,,,,,,,,,,,,,,,,,,,,,,,,,,,,,,,,,,,,,,,,,,,,,,,,,,,,,,,,,346.3961,352.9855,0.173148148,0.101851852,1.0,0.0,0.0,0.5833,compass,0.0,11.0,11.0,28.0,1.0,SoundStimuli/IWantToHoldYourHand_TheBeatles_Original5S.wav,,,,,,,,,,,,,,,,,,,,,,,,,,,,,,,,,,,,,,,,,,,,,,,,,,,,
,,,,,35559,1,2024-07-12_19h26.05.837,experiment,2024.1.5,Win32,59.52380952,6691931c2c63981b064e1f0c,6691bb6fc57d7fb5c45d56aa,,,,,,,,,,,,,,,,,,,,,,,,,,,,,,,,,,,,,,,,,,,,,,,,,,,,,,,,,,,,352.9963,359.3858,0.160185185,0.114814815,1.0,0.0,0.0,0.3839,compass,0.0,12.0,12.0,3.0,1.0,SoundStimuli/PartyRockAnthem_LMFAO_Original5S.wav,,,,,,,,,,,,,,,,,,,,,,,,,,,,,,,,,,,,,,,,,,,,,,,,,,,,
,,,,,35559,1,2024-07-12_19h26.05.837,experiment,2024.1.5,Win32,59.52380952,6691931c2c63981b064e1f0c,6691bb6fc57d7fb5c45d56aa,,,,,,,,,,,,,,,,,,,,,,,,,,,,,,,,,,,,,,,,,,,,,,,,,,,,,,,,,,,,359.3962,365.7688,0.213888889,0.117592593,1.0,0.0,0.0,0.3666,compass,0.0,13.0,13.0,17.0,1.0,SoundStimuli/IWannaDanceWithSomebody_WhitneyHouston_Original5S.wav,,,,,,,,,,,,,,,,,,,,,,,,,,,,,,,,,,,,,,,,,,,,,,,,,,,,
,,,,,35559,1,2024-07-12_19h26.05.837,experiment,2024.1.5,Win32,59.52380952,6691931c2c63981b064e1f0c,6691bb6fc57d7fb5c45d56aa,,,,,,,,,,,,,,,,,,,,,,,,,,,,,,,,,,,,,,,,,,,,,,,,,,,,,,,,,,,,365.7783,372.3187,-0.065740741,-0.132407407,1.0,0.0,0.0,0.5333,compass,0.0,14.0,14.0,15.0,1.0,SoundStimuli/CrazyInLove_BeyonceFtJayZ_Cover5S.wav,,,,,,,,,,,,,,,,,,,,,,,,,,,,,,,,,,,,,,,,,,,,,,,,,,,,
,,,,,35559,1,2024-07-12_19h26.05.837,experiment,2024.1.5,Win32,59.52380952,6691931c2c63981b064e1f0c,6691bb6fc57d7fb5c45d56aa,,,,,,,,,,,,,,,,,,,,,,,,,,,,,,,,,,,,,,,,,,,,,,,,,,,,,,,,,,,,372.3272,378.8521,0.217592593,-0.224074074,1.0,0.0,0.0,0.517,compass,0.0,15.0,15.0,34.0,1.0,SoundStimuli/Irreplaceable_Beyonce_Cover5S.wav,,,,,,,,,,,,,,,,,,,,,,,,,,,,,,,,,,,,,,,,,,,,,,,,,,,,
,,,,,35559,1,2024-07-12_19h26.05.837,experiment,2024.1.5,Win32,59.52380952,6691931c2c63981b064e1f0c,6691bb6fc57d7fb5c45d56aa,,,,,,,,,,,,,,,,,,,,,,,,,,,,,,,,,,,,,,,,,,,,,,,,,,,,,,,,,,,,378.8611,385.6021,-0.130555556,-0.169444444,1.0,0.0,0.0,0.7335,compass,0.0,16.0,16.0,6.0,1.0,SoundStimuli/SaveYourTears_TheWeekndArianaGrande_Cover5S.wav,,,,,,,,,,,,,,,,,,,,,,,,,,,,,,,,,,,,,,,,,,,,,,,,,,,,
,,,,,35559,1,2024-07-12_19h26.05.837,experiment,2024.1.5,Win32,59.52380952,6691931c2c63981b064e1f0c,6691bb6fc57d7fb5c45d56aa,,,,,,,,,,,,,,,,,,,,,,,,,,,,,,,,,,,,,,,,,,,,,,,,,,,,,,,,,,,,385.6104,392.3024,0.161111111,-0.201851852,1.0,0.0,0.0,0.6839,compass,0.0,17.0,17.0,23.0,1.0,SoundStimuli/IWalkTheLine_JohnnyCash_Original5S.wav,,,,,,,,,,,,,,,,,,,,,,,,,,,,,,,,,,,,,,,,,,,,,,,,,,,,
,,,,,35559,1,2024-07-12_19h26.05.837,experiment,2024.1.5,Win32,59.52380952,6691931c2c63981b064e1f0c,6691bb6fc57d7fb5c45d56aa,,,,,,,,,,,,,,,,,,,,,,,,,,,,,,,,,,,,,,,,,,,,,,,,,,,,,,,,,,,,392.3128,399.4686,0.160185185,-0.201851852,1.0,0.0,0.0,1.1498,compass,0.0,18.0,18.0,8.0,1.0,SoundStimuli/EndlessLove_DianaRossLionelRichie_Cover5S.wav,,,,,,,,,,,,,,,,,,,,,,,,,,,,,,,,,,,,,,,,,,,,,,,,,,,,
,,,,,35559,1,2024-07-12_19h26.05.837,experiment,2024.1.5,Win32,59.52380952,6691931c2c63981b064e1f0c,6691bb6fc57d7fb5c45d56aa,,,,,,,,,,,,,,,,,,,,,,,,,,,,,,,,,,,,,,,,,,,,,,,,,,,,,,,,,,,,399.4781,408.0189,0.124074074,-0.105555556,1.0,0.0,0.0,2.5334,compass,0.0,19.0,19.0,5.0,1.0,SoundStimuli/JoyToTheWorld_ThreeDogNight_Original5S.wav,,,,,,,,,,,,,,,,,,,,,,,,,,,,,,,,,,,,,,,,,,,,,,,,,,,,
,,,,,35559,1,2024-07-12_19h26.05.837,experiment,2024.1.5,Win32,59.52380952,6691931c2c63981b064e1f0c,6691bb6fc57d7fb5c45d56aa,,,,,,,,,,,,,,,,,,,,,,,,,,,,,,,,,,,,,,,,,,,,,,,,,,,,,,,,,,,,408.0285,414.8185,0.309259259,0.312037037,1.0,0.0,0.0,0.7835,compass,0.0,20.0,20.0,22.0,1.0,SoundStimuli/Happy_PharellWilliams_Original5S.wav,,,,,,,,,,,,,,,,,,,,,,,,,,,,,,,,,,,,,,,,,,,,,,,,,,,,
,,,,,35559,1,2024-07-12_19h26.05.837,experiment,2024.1.5,Win32,59.52380952,6691931c2c63981b064e1f0c,6691bb6fc57d7fb5c45d56aa,,,,,,,,,,,,,,,,,,,,,,,,,,,,,,,,,,,,,,,,,,,,,,,,,,,,,,,,,,,,414.8284,421.8699,-0.215740741,-0.124074074,1.0,0.0,0.0,1.0345,compass,0.0,21.0,21.0,12.0,1.0,SoundStimuli/UnbreakMyHeart_ToniBraxton_Original5S.wav,,,,,,,,,,,,,,,,,,,,,,,,,,,,,,,,,,,,,,,,,,,,,,,,,,,,
,,,,,35559,1,2024-07-12_19h26.05.837,experiment,2024.1.5,Win32,59.52380952,6691931c2c63981b064e1f0c,6691bb6fc57d7fb5c45d56aa,,,,,,,,,,,,,,,,,,,,,,,,,,,,,,,,,,,,,,,,,,,,,,,,,,,,,,,,,,,,421.8836,429.8025,0.17962963,-0.184259259,1.0,0.0,0.0,1.9171,compass,0.0,22.0,22.0,21.0,1.0,SoundStimuli/BridgeOverTroubledWater_SimonAndGarfunkel_Original5S.wav,,,,,,,,,,,,,,,,,,,,,,,,,,,,,,,,,,,,,,,,,,,,,,,,,,,,
,,,,,35559,1,2024-07-12_19h26.05.837,experiment,2024.1.5,Win32,59.52380952,6691931c2c63981b064e1f0c,6691bb6fc57d7fb5c45d56aa,,,,,,,,,,,,,,,,,,,,,,,,,,,,,,,,,,,,,,,,,,,,,,,,,,,,,,,,,,,,429.8122,436.4521,-0.128703704,-0.17037037,1.0,0.0,0.0,0.6338,compass,0.0,23.0,23.0,29.0,1.0,SoundStimuli/BetteDavisEyes_KimCarnes_Original5S.wav,,,,,,,,,,,,,,,,,,,,,,,,,,,,,,,,,,,,,,,,,,,,,,,,,,,,
,,,,,35559,1,2024-07-12_19h26.05.837,experiment,2024.1.5,Win32,59.52380952,6691931c2c63981b064e1f0c,6691bb6fc57d7fb5c45d56aa,,,,,,,,,,,,,,,,,,,,,,,,,,,,,,,,,,,,,,,,,,,,,,,,,,,,,,,,,,,,436.4613,444.2687,0.222222222,-0.196296296,1.0,0.0,0.0,1.8001,compass,0.0,24.0,24.0,18.0,1.0,SoundStimuli/Weak_SWV_Cover5S.wav,,,,,,,,,,,,,,,,,,,,,,,,,,,,,,,,,,,,,,,,,,,,,,,,,,,,
,,,,,35559,1,2024-07-12_19h26.05.837,experiment,2024.1.5,Win32,59.52380952,6691931c2c63981b064e1f0c,6691bb6fc57d7fb5c45d56aa,,,,,,,,,,,,,,,,,,,,,,,,,,,,,,,,,,,,,,,,,,,,,,,,,,,,,,,,,,,,444.2789,450.7858,0.221296296,0.100925926,1.0,0.0,0.0,0.5001,compass,0.0,25.0,25.0,10.0,1.0,SoundStimuli/LeFreak_Chic_Cover5S.wav,,,,,,,,,,,,,,,,,,,,,,,,,,,,,,,,,,,,,,,,,,,,,,,,,,,,
,,,,,35559,1,2024-07-12_19h26.05.837,experiment,2024.1.5,Win32,59.52380952,6691931c2c63981b064e1f0c,6691bb6fc57d7fb5c45d56aa,,,,,,,,,,,,,,,,,,,,,,,,,,,,,,,,,,,,,,,,,,,,,,,,,,,,,,,,,,,,450.7956,459.1853,0.177777778,0.102777778,1.0,0.0,0.0,2.3837,compass,0.0,26.0,26.0,20.0,1.0,SoundStimuli/FlashdanceWhatAFeeling_IreneCara_Original5S.wav,,,,,,,,,,,,,,,,,,,,,,,,,,,,,,,,,,,,,,,,,,,,,,,,,,,,
,,,,,35559,1,2024-07-12_19h26.05.837,experiment,2024.1.5,Win32,59.52380952,6691931c2c63981b064e1f0c,6691bb6fc57d7fb5c45d56aa,,,,,,,,,,,,,,,,,,,,,,,,,,,,,,,,,,,,,,,,,,,,,,,,,,,,,,,,,,,,459.1949,466.9188,0.19537037,-0.137037037,1.0,0.0,0.0,1.7167,compass,0.0,27.0,27.0,9.0,1.0,SoundStimuli/HowDoILive_LeAnnRimes_Cover5S.wav,,,,,,,,,,,,,,,,,,,,,,,,,,,,,,,,,,,,,,,,,,,,,,,,,,,,
,,,,,35559,1,2024-07-12_19h26.05.837,experiment,2024.1.5,Win32,59.52380952,6691931c2c63981b064e1f0c,6691bb6fc57d7fb5c45d56aa,,,,,,,,,,,,,,,,,,,,,,,,,,,,,,,,,,,,,,,,,,,,,,,,,,,,,,,,,,,,466.9283,475.5861,0.228703704,-0.123148148,1.0,0.0,0.0,2.6503,compass,0.0,28.0,28.0,27.0,1.0,SoundStimuli/EyeOfTheTiger_Survivor_Cover5S.wav,,,,,,,,,,,,,,,,,,,,,,,,,,,,,,,,,,,,,,,,,,,,,,,,,,,,
,,,,,35559,1,2024-07-12_19h26.05.837,experiment,2024.1.5,Win32,59.52380952,6691931c2c63981b064e1f0c,6691bb6fc57d7fb5c45d56aa,,,,,,,,,,,,,,,,,,,,,,,,,,,,,,,,,,,,,,,,,,,,,,,,,,,,,,,,,,,,475.5976,483.4354,0.251851852,0.133333333,1.0,0.0,0.0,1.8332,compass,0.0,29.0,29.0,31.0,1.0,SoundStimuli/TossinAndTurnin_BobbyLewis_Original5S.wav,,,,,,,,,,,,,,,,,,,,,,,,,,,,,,,,,,,,,,,,,,,,,,,,,,,,
,,,,,35559,1,2024-07-12_19h26.05.837,experiment,2024.1.5,Win32,59.52380952,6691931c2c63981b064e1f0c,6691bb6fc57d7fb5c45d56aa,,,,,,,,,,,,,,,,,,,,,,,,,,,,,,,,,,,,,,,,,,,,,,,,,,,,,,,,,,,,483.4463,491.3024,0.207407407,-0.225925926,1.0,0.0,0.0,1.8503,compass,0.0,30.0,30.0,16.0,1.0,SoundStimuli/ItsAllInTheGame_TommyEdwards_Cover5S.wav,,,,,,,,,,,,,,,,,,,,,,,,,,,,,,,,,,,,,,,,,,,,,,,,,,,,
,,,,,35559,1,2024-07-12_19h26.05.837,experiment,2024.1.5,Win32,59.52380952,6691931c2c63981b064e1f0c,6691bb6fc57d7fb5c45d56aa,,,,,,,,,,,,,,,,,,,,,,,,,,,,,,,,,,,,,,,,,,,,,,,,,,,,,,,,,,,,491.3142,498.1686,0.248148148,0.233333333,1.0,0.0,0.0,0.8497,compass,0.0,31.0,31.0,11.0,1.0,SoundStimuli/BlurredLines_RobinThicke_Cover5S.wav,,,,,,,,,,,,,,,,,,,,,,,,,,,,,,,,,,,,,,,,,,,,,,,,,,,,
,,,,,35559,1,2024-07-12_19h26.05.837,experiment,2024.1.5,Win32,59.52380952,6691931c2c63981b064e1f0c,6691bb6fc57d7fb5c45d56aa,,,,,,,,,,,,,,,,,,,,,,,,,,,,,,,,,,,,,,,,,,,,,,,,,,,,,,,,,,,,498.1763,505.1354,0.216666667,0.096296296,1.0,0.0,0.0,0.9503,compass,0.0,32.0,32.0,1.0,1.0,SoundStimuli/Smooth_SantanaRobThomas_Original5S.wav,,,,,,,,,,,,,,,,,,,,,,,,,,,,,,,,,,,,,,,,,,,,,,,,,,,,
,,,,,35559,1,2024-07-12_19h26.05.837,experiment,2024.1.5,Win32,59.52380952,6691931c2c63981b064e1f0c,6691bb6fc57d7fb5c45d56aa,,,,,,,,,,,,,,,,,,,,,,,,,,,,,,,,,,,,,,,,,,,,,,,,,,,,,,,,,,,,505.145,511.7852,-0.253703704,-0.227777778,1.0,0.0,0.0,0.6334,compass,0.0,33.0,33.0,30.0,1.0,SoundStimuli/SomebodyThatIUsedtoKnow_Gotye_Original5S.wav,,,,,,,,,,,,,,,,,,,,,,,,,,,,,,,,,,,,,,,,,,,,,,,,,,,,
,,,,,35559,1,2024-07-12_19h26.05.837,experiment,2024.1.5,Win32,59.52380952,6691931c2c63981b064e1f0c,6691bb6fc57d7fb5c45d56aa,,,,,,,,,,,,,,,,,,,,,,,,,,,,,,,,,,,,,,,,,,,,,,,,,,,,,,,,,,,,511.7961,518.6688,0.187962963,-0.201851852,1.0,0.0,0.0,0.8671,compass,0.0,34.0,34.0,4.0,1.0,SoundStimuli/Dreams_FleetwoodMac_Original5S.wav,,,,,,,,,,,,,,,,,,,,,,,,,,,,,,,,,,,,,,,,,,,,,,,,,,,,
,,,,,35559,1,2024-07-12_19h26.05.837,experiment,2024.1.5,Win32,59.52380952,6691931c2c63981b064e1f0c,6691bb6fc57d7fb5c45d56aa,,,,,,,,,,,,,,,,,,,,,,,,,,,,,,,,,,,,,,,,,,,,,,,,,,,,,,,,,,,,,,,,,,,,,,,,,,,518.6782,523.8189,space,5.13,,523.8191,530.5027,right,6.6671,,0.0,0.0,0.0,0.0,1.0,block_order/blockD.xlsx,,,,,,,,,,,,,,,,,,,,,,,,,,,,,,,,,,,,
,,,,,35559,1,2024-07-12_19h26.05.837,experiment,2024.1.5,Win32,59.52380952,6691931c2c63981b064e1f0c,6691bb6fc57d7fb5c45d56aa,,,,,,,,,,,,,,,,,,,,,,,,,,,,,,,,,,,,,,,,,,,,,,,,,,,,,,,,,,,,530.5156,537.4351,0.243518519,0.112962963,1.0,0.0,0.0,0.9166,compass,0.0,0.0,0.0,1.0,1.0,SoundStimuli/Stronger_KanyeWest_Original5S.wav,,,,,,,,,,,,,,,,,,,,,,,,,,,,,,,,,,,,,,,,,,,,,,,,,,,,
,,,,,35559,1,2024-07-12_19h26.05.837,experiment,2024.1.5,Win32,59.52380952,6691931c2c63981b064e1f0c,6691bb6fc57d7fb5c45d56aa,,,,,,,,,,,,,,,,,,,,,,,,,,,,,,,,,,,,,,,,,,,,,,,,,,,,,,,,,,,,537.4453,543.9019,0.243518519,0.113888889,1.0,0.0,0.0,0.4498,compass,0.0,1.0,1.0,21.0,1.0,SoundStimuli/GoodGollyMissMolly_LittleRichard_Cover5S.wav,,,,,,,,,,,,,,,,,,,,,,,,,,,,,,,,,,,,,,,,,,,,,,,,,,,,
,,,,,35559,1,2024-07-12_19h26.05.837,experiment,2024.1.5,Win32,59.52380952,6691931c2c63981b064e1f0c,6691bb6fc57d7fb5c45d56aa,,,,,,,,,,,,,,,,,,,,,,,,,,,,,,,,,,,,,,,,,,,,,,,,,,,,,,,,,,,,543.9098,550.4351,-0.257407407,-0.268518519,1.0,0.0,0.0,0.5167,compass,0.0,2.0,2.0,10.0,1.0,SoundStimuli/BadDay_DanielPowter_Cover5S.wav,,,,,,,,,,,,,,,,,,,,,,,,,,,,,,,,,,,,,,,,,,,,,,,,,,,,
,,,,,35559,1,2024-07-12_19h26.05.837,experiment,2024.1.5,Win32,59.52380952,6691931c2c63981b064e1f0c,6691bb6fc57d7fb5c45d56aa,,,,,,,,,,,,,,,,,,,,,,,,,,,,,,,,,,,,,,,,,,,,,,,,,,,,,,,,,,,,550.4449,557.1353,0.262037037,-0.276851852,1.0,0.0,0.0,0.6829,compass,0.0,3.0,3.0,12.0,1.0,SoundStimuli/IWillAlwaysLoveYou_WhitneyHouston_Cover5S.wav,,,,,,,,,,,,,,,,,,,,,,,,,,,,,,,,,,,,,,,,,,,,,,,,,,,,
,,,,,35559,1,2024-07-12_19h26.05.837,experiment,2024.1.5,Win32,59.52380952,6691931c2c63981b064e1f0c,6691bb6fc57d7fb5c45d56aa,,,,,,,,,,,,,,,,,,,,,,,,,,,,,,,,,,,,,,,,,,,,,,,,,,,,,,,,,,,,557.1458,563.5519,0.22037037,-0.189814815,1.0,0.0,0.0,0.4001,compass,0.0,4.0,4.0,29.0,1.0,SoundStimuli/OldTownRoad_LilNasX_Original5S.wav,,,,,,,,,,,,,,,,,,,,,,,,,,,,,,,,,,,,,,,,,,,,,,,,,,,,
,,,,,35559,1,2024-07-12_19h26.05.837,experiment,2024.1.5,Win32,59.52380952,6691931c2c63981b064e1f0c,6691bb6fc57d7fb5c45d56aa,,,,,,,,,,,,,,,,,,,,,,,,,,,,,,,,,,,,,,,,,,,,,,,,,,,,,,,,,,,,563.5621,570.3519,-0.135185185,0.134259259,1.0,0.0,0.0,0.7836,compass,0.0,5.0,5.0,16.0,1.0,SoundStimuli/BohemianRhapsody_Queen_Original5S.wav,,,,,,,,,,,,,,,,,,,,,,,,,,,,,,,,,,,,,,,,,,,,,,,,,,,,
,,,,,35559,1,2024-07-12_19h26.05.837,experiment,2024.1.5,Win32,59.52380952,6691931c2c63981b064e1f0c,6691bb6fc57d7fb5c45d56aa,,,,,,,,,,,,,,,,,,,,,,,,,,,,,,,,,,,,,,,,,,,,,,,,,,,,,,,,,,,,570.3612,576.7185,0.252777778,-0.203703704,1.0,0.0,0.0,0.3499,compass,0.0,6.0,6.0,17.0,1.0,SoundStimuli/Fallin_AliciaKeys_Original5S.wav,,,,,,,,,,,,,,,,,,,,,,,,,,,,,,,,,,,,,,,,,,,,,,,,,,,,
,,,,,35559,1,2024-07-12_19h26.05.837,experiment,2024.1.5,Win32,59.52380952,6691931c2c63981b064e1f0c,6691bb6fc57d7fb5c45d56aa,,,,,,,,,,,,,,,,,,,,,,,,,,,,,,,,,,,,,,,,,,,,,,,,,,,,,,,,,,,,576.725,583.0851,-0.156481481,0.115740741,1.0,0.0,0.0,0.3501,compass,0.0,7.0,7.0,6.0,1.0,SoundStimuli/Levitating_DuaLipa_Cover5S.wav,,,,,,,,,,,,,,,,,,,,,,,,,,,,,,,,,,,,,,,,,,,,,,,,,,,,
,,,,,35559,1,2024-07-12_19h26.05.837,experiment,2024.1.5,Win32,59.52380952,6691931c2c63981b064e1f0c,6691bb6fc57d7fb5c45d56aa,,,,,,,,,,,,,,,,,,,,,,,,,,,,,,,,,,,,,,,,,,,,,,,,,,,,,,,,,,,,583.0934,590.5683,0.083333333,-0.167592593,1.0,0.0,0.0,1.4666,compass,0.0,8.0,8.0,15.0,1.0,SoundStimuli/TikTok_Kesha_Cover5S.wav,,,,,,,,,,,,,,,,,,,,,,,,,,,,,,,,,,,,,,,,,,,,,,,,,,,,
,,,,,35559,1,2024-07-12_19h26.05.837,experiment,2024.1.5,Win32,59.52380952,6691931c2c63981b064e1f0c,6691bb6fc57d7fb5c45d56aa,,,,,,,,,,,,,,,,,,,,,,,,,,,,,,,,,,,,,,,,,,,,,,,,,,,,,,,,,,,,590.575,597.0183,0.241666667,0.126851852,1.0,0.0,0.0,0.4332,compass,0.0,9.0,9.0,8.0,1.0,SoundStimuli/LikeAPrayer_Madonna_Original5S.wav,,,,,,,,,,,,,,,,,,,,,,,,,,,,,,,,,,,,,,,,,,,,,,,,,,,,
,,,,,35559,1,2024-07-12_19h26.05.837,experiment,2024.1.5,Win32,59.52380952,6691931c2c63981b064e1f0c,6691bb6fc57d7fb5c45d56aa,,,,,,,,,,,,,,,,,,,,,,,,,,,,,,,,,,,,,,,,,,,,,,,,,,,,,,,,,,,,597.0256,603.5681,0.241666667,0.126851852,1.0,0.0,0.0,0.5329,compass,0.0,10.0,10.0,27.0,1.0,SoundStimuli/ShapeofYou_EdSheeran_Original5S.wav,,,,,,,,,,,,,,,,,,,,,,,,,,,,,,,,,,,,,,,,,,,,,,,,,,,,
,,,,,35559,1,2024-07-12_19h26.05.837,experiment,2024.1.5,Win32,59.52380952,6691931c2c63981b064e1f0c,6691bb6fc57d7fb5c45d56aa,,,,,,,,,,,,,,,,,,,,,,,,,,,,,,,,,,,,,,,,,,,,,,,,,,,,,,,,,,,,603.5769,610.0518,0.19537037,-0.17037037,1.0,0.0,0.0,0.4657,compass,0.0,11.0,11.0,20.0,1.0,SoundStimuli/HeyYa_Outkast_Cover5S.wav,,,,,,,,,,,,,,,,,,,,,,,,,,,,,,,,,,,,,,,,,,,,,,,,,,,,
,,,,,35559,1,2024-07-12_19h26.05.837,experiment,2024.1.5,Win32,59.52380952,6691931c2c63981b064e1f0c,6691bb6fc57d7fb5c45d56aa,,,,,,,,,,,,,,,,,,,,,,,,,,,,,,,,,,,,,,,,,,,,,,,,,,,,,,,,,,,,610.0595,616.6351,0.260185185,0.219444444,1.0,0.0,0.0,0.5666,compass,0.0,12.0,12.0,22.0,1.0,SoundStimuli/RockWithYou_MichaelJackson_Original5S.wav,,,,,,,,,,,,,,,,,,,,,,,,,,,,,,,,,,,,,,,,,,,,,,,,,,,,
,,,,,35559,1,2024-07-12_19h26.05.837,experiment,2024.1.5,Win32,59.52380952,6691931c2c63981b064e1f0c,6691bb6fc57d7fb5c45d56aa,,,,,,,,,,,,,,,,,,,,,,,,,,,,,,,,,,,,,,,,,,,,,,,,,,,,,,,,,,,,616.6423,623.2019,0.162037037,-0.141666667,1.0,0.0,0.0,0.5503,compass,0.0,13.0,13.0,9.0,1.0,SoundStimuli/Despacito_LuisFonsiDaddyYankee_Cover5S.wav,,,,,,,,,,,,,,,,,,,,,,,,,,,,,,,,,,,,,,,,,,,,,,,,,,,,
,,,,,35559,1,2024-07-12_19h26.05.837,experiment,2024.1.5,Win32,59.52380952,6691931c2c63981b064e1f0c,6691bb6fc57d7fb5c45d56aa,,,,,,,,,,,,,,,,,,,,,,,,,,,,,,,,,,,,,,,,,,,,,,,,,,,,,,,,,,,,623.2148,629.7517,-0.200925926,-0.109259259,1.0,0.0,0.0,0.5328,compass,0.0,14.0,14.0,31.0,1.0,SoundStimuli/TheBattleOfNewOrleans_JohnnyHorton_Cover5S.wav,,,,,,,,,,,,,,,,,,,,,,,,,,,,,,,,,,,,,,,,,,,,,,,,,,,,
,,,,,35559,1,2024-07-12_19h26.05.837,experiment,2024.1.5,Win32,59.52380952,6691931c2c63981b064e1f0c,6691bb6fc57d7fb5c45d56aa,,,,,,,,,,,,,,,,,,,,,,,,,,,,,,,,,,,,,,,,,,,,,,,,,,,,,,,,,,,,629.7624,636.2024,-0.075,-0.110185185,1.0,0.0,0.0,0.433,compass,0.0,15.0,15.0,23.0,1.0,SoundStimuli/StrawberryFieldsForever_TheBeatles_Original5S.wav,,,,,,,,,,,,,,,,,,,,,,,,,,,,,,,,,,,,,,,,,,,,,,,,,,,,
,,,,,35559,1,2024-07-12_19h26.05.837,experiment,2024.1.5,Win32,59.52380952,6691931c2c63981b064e1f0c,6691bb6fc57d7fb5c45d56aa,,,,,,,,,,,,,,,,,,,,,,,,,,,,,,,,,,,,,,,,,,,,,,,,,,,,,,,,,,,,636.2089,642.7351,-0.074074074,-0.110185185,1.0,0.0,0.0,0.5169,compass,0.0,16.0,16.0,13.0,1.0,SoundStimuli/GodOnlyKnows_TheBeachBoys_Cover5S.wav,,,,,,,,,,,,,,,,,,,,,,,,,,,,,,,,,,,,,,,,,,,,,,,,,,,,
,,,,,35559,1,2024-07-12_19h26.05.837,experiment,2024.1.5,Win32,59.52380952,6691931c2c63981b064e1f0c,6691bb6fc57d7fb5c45d56aa,,,,,,,,,,,,,,,,,,,,,,,,,,,,,,,,,,,,,,,,,,,,,,,,,,,,,,,,,,,,642.7427,649.3188,-0.111111111,-0.110185185,1.0,0.0,0.0,0.5672,compass,0.0,17.0,17.0,2.0,1.0,SoundStimuli/Mood_24kGoldnianndior_Cover5S.wav,,,,,,,,,,,,,,,,,,,,,,,,,,,,,,,,,,,,,,,,,,,,,,,,,,,,
,,,,,35559,1,2024-07-12_19h26.05.837,experiment,2024.1.5,Win32,59.52380952,6691931c2c63981b064e1f0c,6691bb6fc57d7fb5c45d56aa,,,,,,,,,,,,,,,,,,,,,,,,,,,,,,,,,,,,,,,,,,,,,,,,,,,,,,,,,,,,649.3276,655.8855,0.241666667,0.107407407,1.0,0.0,0.0,0.5502,compass,0.0,18.0,18.0,28.0,1.0,SoundStimuli/ComeAndGetYourLove_Redbone_Original5S.wav,,,,,,,,,,,,,,,,,,,,,,,,,,,,,,,,,,,,,,,,,,,,,,,,,,,,
,,,,,35559,1,2024-07-12_19h26.05.837,experiment,2024.1.5,Win32,59.52380952,6691931c2c63981b064e1f0c,6691bb6fc57d7fb5c45d56aa,,,,,,,,,,,,,,,,,,,,,,,,,,,,,,,,,,,,,,,,,,,,,,,,,,,,,,,,,,,,655.8944,662.5018,0.241666667,0.107407407,1.0,0.0,0.0,0.5994,compass,0.0,19.0,19.0,24.0,1.0,SoundStimuli/UptownFunk_MarkRonson_Original5S.wav,,,,,,,,,,,,,,,,,,,,,,,,,,,,,,,,,,,,,,,,,,,,,,,,,,,,
,,,,,35559,1,2024-07-12_19h26.05.837,experiment,2024.1.5,Win32,59.52380952,6691931c2c63981b064e1f0c,6691bb6fc57d7fb5c45d56aa,,,,,,,,,,,,,,,,,,,,,,,,,,,,,,,,,,,,,,,,,,,,,,,,,,,,,,,,,,,,662.5105,669.8852,0.091666667,-0.211111111,1.0,0.0,0.0,1.3669,compass,0.0,20.0,20.0,34.0,1.0,SoundStimuli/AChangeIsGonnaCome_SamCooke_Cover5S.wav,,,,,,,,,,,,,,,,,,,,,,,,,,,,,,,,,,,,,,,,,,,,,,,,,,,,
,,,,,35559,1,2024-07-12_19h26.05.837,experiment,2024.1.5,Win32,59.52380952,6691931c2c63981b064e1f0c,6691bb6fc57d7fb5c45d56aa,,,,,,,,,,,,,,,,,,,,,,,,,,,,,,,,,,,,,,,,,,,,,,,,,,,,,,,,,,,,669.8945,676.4017,0.081481481,-0.201851852,1.0,0.0,0.0,0.5001,compass,0.0,21.0,21.0,11.0,1.0,SoundStimuli/Superstition_StevieWonder_Cover5S.wav,,,,,,,,,,,,,,,,,,,,,,,,,,,,,,,,,,,,,,,,,,,,,,,,,,,,
,,,,,35559,1,2024-07-12_19h26.05.837,experiment,2024.1.5,Win32,59.52380952,6691931c2c63981b064e1f0c,6691bb6fc57d7fb5c45d56aa,,,,,,,,,,,,,,,,,,,,,,,,,,,,,,,,,,,,,,,,,,,,,,,,,,,,,,,,,,,,676.4113,683.3683,0.09537037,-0.190740741,1.0,0.0,0.0,0.9496,compass,0.0,22.0,22.0,3.0,1.0,SoundStimuli/NoScrubs_TLC_Original5S.wav,,,,,,,,,,,,,,,,,,,,,,,,,,,,,,,,,,,,,,,,,,,,,,,,,,,,
,,,,,35559,1,2024-07-12_19h26.05.837,experiment,2024.1.5,Win32,59.52380952,6691931c2c63981b064e1f0c,6691bb6fc57d7fb5c45d56aa,,,,,,,,,,,,,,,,,,,,,,,,,,,,,,,,,,,,,,,,,,,,,,,,,,,,,,,,,,,,683.3801,690.2187,0.175925926,-0.147222222,1.0,0.0,0.0,0.8333,compass,0.0,23.0,23.0,33.0,1.0,SoundStimuli/StandByMe_BenEKing_Cover5S.wav,,,,,,,,,,,,,,,,,,,,,,,,,,,,,,,,,,,,,,,,,,,,,,,,,,,,
,,,,,35559,1,2024-07-12_19h26.05.837,experiment,2024.1.5,Win32,59.52380952,6691931c2c63981b064e1f0c,6691bb6fc57d7fb5c45d56aa,,,,,,,,,,,,,,,,,,,,,,,,,,,,,,,,,,,,,,,,,,,,,,,,,,,,,,,,,,,,690.2269,696.585,0.297222222,0.289814815,1.0,0.0,0.0,0.3496,compass,0.0,24.0,24.0,30.0,1.0,SoundStimuli/PokerFace_LadyGaga_Original5S.wav,,,,,,,,,,,,,,,,,,,,,,,,,,,,,,,,,,,,,,,,,,,,,,,,,,,,
,,,,,35559,1,2024-07-12_19h26.05.837,experiment,2024.1.5,Win32,59.52380952,6691931c2c63981b064e1f0c,6691bb6fc57d7fb5c45d56aa,,,,,,,,,,,,,,,,,,,,,,,,,,,,,,,,,,,,,,,,,,,,,,,,,,,,,,,,,,,,696.594,702.9862,0.299074074,0.107407407,1.0,0.0,0.0,0.3845,compass,0.0,25.0,25.0,7.0,1.0,SoundStimuli/NoOne_AliciaKeys_Cover5S.wav,,,,,,,,,,,,,,,,,,,,,,,,,,,,,,,,,,,,,,,,,,,,,,,,,,,,
,,,,,35559,1,2024-07-12_19h26.05.837,experiment,2024.1.5,Win32,59.52380952,6691931c2c63981b064e1f0c,6691bb6fc57d7fb5c45d56aa,,,,,,,,,,,,,,,,,,,,,,,,,,,,,,,,,,,,,,,,,,,,,,,,,,,,,,,,,,,,703.0037,710.7684,0.063888889,0.063888889,1.0,0.0,0.0,1.7502,compass,0.0,26.0,26.0,14.0,1.0,SoundStimuli/BlindingLights_TheWeeknd_Original5S.wav,,,,,,,,,,,,,,,,,,,,,,,,,,,,,,,,,,,,,,,,,,,,,,,,,,,,
,,,,,35559,1,2024-07-12_19h26.05.837,experiment,2024.1.5,Win32,59.52380952,6691931c2c63981b064e1f0c,6691bb6fc57d7fb5c45d56aa,,,,,,,,,,,,,,,,,,,,,,,,,,,,,,,,,,,,,,,,,,,,,,,,,,,,,,,,,,,,710.7771,718.0519,0.15,0.108333333,1.0,0.0,0.0,1.2673,compass,0.0,27.0,27.0,32.0,1.0,SoundStimuli/HeatWaves_GlassAnimals_Original5S.wav,,,,,,,,,,,,,,,,,,,,,,,,,,,,,,,,,,,,,,,,,,,,,,,,,,,,
,,,,,35559,1,2024-07-12_19h26.05.837,experiment,2024.1.5,Win32,59.52380952,6691931c2c63981b064e1f0c,6691bb6fc57d7fb5c45d56aa,,,,,,,,,,,,,,,,,,,,,,,,,,,,,,,,,,,,,,,,,,,,,,,,,,,,,,,,,,,,718.0592,724.435,0.150925926,0.108333333,1.0,0.0,0.0,0.367,compass,0.0,28.0,28.0,0.0,1.0,SoundStimuli/StayinAlive_BeeGees_Original5S.wav,,,,,,,,,,,,,,,,,,,,,,,,,,,,,,,,,,,,,,,,,,,,,,,,,,,,
,,,,,35559,1,2024-07-12_19h26.05.837,experiment,2024.1.5,Win32,59.52380952,6691931c2c63981b064e1f0c,6691bb6fc57d7fb5c45d56aa,,,,,,,,,,,,,,,,,,,,,,,,,,,,,,,,,,,,,,,,,,,,,,,,,,,,,,,,,,,,724.4417,730.5015,0.092592593,-0.148148148,1.0,0.0,0.0,0.0491,compass,0.0,29.0,29.0,25.0,1.0,SoundStimuli/Respect_ArethaFranklin_Original5S.wav,,,,,,,,,,,,,,,,,,,,,,,,,,,,,,,,,,,,,,,,,,,,,,,,,,,,
,,,,,35559,1,2024-07-12_19h26.05.837,experiment,2024.1.5,Win32,59.52380952,6691931c2c63981b064e1f0c,6691bb6fc57d7fb5c45d56aa,,,,,,,,,,,,,,,,,,,,,,,,,,,,,,,,,,,,,,,,,,,,,,,,,,,,,,,,,,,,730.5114,737.5017,0.205555556,-0.184259259,1.0,0.0,0.0,0.9833,compass,0.0,30.0,30.0,5.0,1.0,SoundStimuli/MyGirl_TheTemptations_Original5S.wav,,,,,,,,,,,,,,,,,,,,,,,,,,,,,,,,,,,,,,,,,,,,,,,,,,,,
,,,,,35559,1,2024-07-12_19h26.05.837,experiment,2024.1.5,Win32,59.52380952,6691931c2c63981b064e1f0c,6691bb6fc57d7fb5c45d56aa,,,,,,,,,,,,,,,,,,,,,,,,,,,,,,,,,,,,,,,,,,,,,,,,,,,,,,,,,,,,737.5094,744.4016,0.25,0.116666667,1.0,0.0,0.0,0.8832,compass,0.0,31.0,31.0,18.0,1.0,SoundStimuli/AnotherOneBitesTheDust_Queen_Original5S.wav,,,,,,,,,,,,,,,,,,,,,,,,,,,,,,,,,,,,,,,,,,,,,,,,,,,,
,,,,,35559,1,2024-07-12_19h26.05.837,experiment,2024.1.5,Win32,59.52380952,6691931c2c63981b064e1f0c,6691bb6fc57d7fb5c45d56aa,,,,,,,,,,,,,,,,,,,,,,,,,,,,,,,,,,,,,,,,,,,,,,,,,,,,,,,,,,,,744.4092,750.7352,0.126851852,-0.208333333,1.0,0.0,0.0,0.3164,compass,0.0,32.0,32.0,4.0,1.0,SoundStimuli/GetUrFreakOn_MissyElliot_Original5S.wav,,,,,,,,,,,,,,,,,,,,,,,,,,,,,,,,,,,,,,,,,,,,,,,,,,,,
,,,,,35559,1,2024-07-12_19h26.05.837,experiment,2024.1.5,Win32,59.52380952,6691931c2c63981b064e1f0c,6691bb6fc57d7fb5c45d56aa,,,,,,,,,,,,,,,,,,,,,,,,,,,,,,,,,,,,,,,,,,,,,,,,,,,,,,,,,,,,750.7448,757.6853,-0.105555556,-0.17037037,1.0,0.0,0.0,0.9336,compass,0.0,33.0,33.0,26.0,1.0,SoundStimuli/LivinOnAPrayer_BonJovi_Cover5S.wav,,,,,,,,,,,,,,,,,,,,,,,,,,,,,,,,,,,,,,,,,,,,,,,,,,,,
,,,,,35559,1,2024-07-12_19h26.05.837,experiment,2024.1.5,Win32,59.52380952,6691931c2c63981b064e1f0c,6691bb6fc57d7fb5c45d56aa,,,,,,,,,,,,,,,,,,,,,,,,,,,,,,,,,,,,,,,,,,,,,,,,,,,,,,,,,,,,757.6936,764.2019,-0.065740741,-0.187962963,1.0,0.0,0.0,0.5006,compass,0.0,34.0,34.0,19.0,1.0,SoundStimuli/LetsGetItOn_MarvinGaye_Cover5S.wav,,,,,,,,,,,,,,,,,,,,,,,,,,,,,,,,,,,,,,,,,,,,,,,,,,,,
,,,,,35559,1,2024-07-12_19h26.05.837,experiment,2024.1.5,Win32,59.52380952,6691931c2c63981b064e1f0c,6691bb6fc57d7fb5c45d56aa,,,,,,,,,,,,,,,,,,,,,,,,,,,,,,,,,,,,,,,,,,,,,,,,,,,,,,,,,,,,,,,,,,,,,,,,,,,764.202,767.0518,space,2.8339,,767.0518,772.7185,right,5.6537,,0.0,1.0,1.0,1.0,1.0,block_order/blockA.xlsx,,,,,,,,,,,,,,,,,,,,,,,,,,,,,,,,,,,,
,,,,,35559,1,2024-07-12_19h26.05.837,experiment,2024.1.5,Win32,59.52380952,6691931c2c63981b064e1f0c,6691bb6fc57d7fb5c45d56aa,,,,,,,,,,,,,,,,,,,,,,,,,,,,,,,,,,,,,,,,,,,,,,,,,,,,,,,,,,,,772.732,779.3516,-0.135185185,-0.171296296,1.0,0.0,0.0,0.6166,compass,0.0,0.0,0.0,21.0,1.0,SoundStimuli/BridgeOverTroubledWater_SimonAndGarfunkel_Cover5S.wav,,,,,,,,,,,,,,,,,,,,,,,,,,,,,,,,,,,,,,,,,,,,,,,,,,,,
,,,,,35559,1,2024-07-12_19h26.05.837,experiment,2024.1.5,Win32,59.52380952,6691931c2c63981b064e1f0c,6691bb6fc57d7fb5c45d56aa,,,,,,,,,,,,,,,,,,,,,,,,,,,,,,,,,,,,,,,,,,,,,,,,,,,,,,,,,,,,779.3593,785.9682,-0.09537037,-0.173148148,1.0,0.0,0.0,0.6,compass,0.0,1.0,1.0,28.0,1.0,SoundStimuli/IWantToHoldYourHand_TheBeatles_Cover5S.wav,,,,,,,,,,,,,,,,,,,,,,,,,,,,,,,,,,,,,,,,,,,,,,,,,,,,
,,,,,35559,1,2024-07-12_19h26.05.837,experiment,2024.1.5,Win32,59.52380952,6691931c2c63981b064e1f0c,6691bb6fc57d7fb5c45d56aa,,,,,,,,,,,,,,,,,,,,,,,,,,,,,,,,,,,,,,,,,,,,,,,,,,,,,,,,,,,,785.9742,792.4685,0.110185185,-0.192592593,1.0,0.0,0.0,0.4833,compass,0.0,2.0,2.0,13.0,1.0,SoundStimuli/Perfect_EdSheeran_Original5S.wav,,,,,,,,,,,,,,,,,,,,,,,,,,,,,,,,,,,,,,,,,,,,,,,,,,,,
,,,,,35559,1,2024-07-12_19h26.05.837,experiment,2024.1.5,Win32,59.52380952,6691931c2c63981b064e1f0c,6691bb6fc57d7fb5c45d56aa,,,,,,,,,,,,,,,,,,,,,,,,,,,,,,,,,,,,,,,,,,,,,,,,,,,,,,,,,,,,792.4763,799.9849,0.232407407,-0.205555556,1.0,0.0,0.0,1.4997,compass,0.0,3.0,3.0,34.0,1.0,SoundStimuli/Irreplaceable_Beyonce_Original5S.wav,,,,,,,,,,,,,,,,,,,,,,,,,,,,,,,,,,,,,,,,,,,,,,,,,,,,
,,,,,35559,1,2024-07-12_19h26.05.837,experiment,2024.1.5,Win32,59.52380952,6691931c2c63981b064e1f0c,6691bb6fc57d7fb5c45d56aa,,,,,,,,,,,,,,,,,,,,,,,,,,,,,,,,,,,,,,,,,,,,,,,,,,,,,,,,,,,,799.9918,806.4348,0.226851852,-0.222222222,1.0,0.0,0.0,0.433,compass,0.0,4.0,4.0,3.0,1.0,SoundStimuli/PartyRockAnthem_LMFAO_Cover5S.wav,,,,,,,,,,,,,,,,,,,,,,,,,,,,,,,,,,,,,,,,,,,,,,,,,,,,
,,,,,35559,1,2024-07-12_19h26.05.837,experiment,2024.1.5,Win32,59.52380952,6691931c2c63981b064e1f0c,6691bb6fc57d7fb5c45d56aa,,,,,,,,,,,,,,,,,,,,,,,,,,,,,,,,,,,,,,,,,,,,,,,,,,,,,,,,,,,,806.4413,813.0185,-0.072222222,-0.168518519,1.0,0.0,0.0,0.5651,compass,0.0,5.0,5.0,14.0,1.0,SoundStimuli/LikeARollingStone_BobDylan_Cover5S.wav,,,,,,,,,,,,,,,,,,,,,,,,,,,,,,,,,,,,,,,,,,,,,,,,,,,,
,,,,,35559,1,2024-07-12_19h26.05.837,experiment,2024.1.5,Win32,59.52380952,6691931c2c63981b064e1f0c,6691bb6fc57d7fb5c45d56aa,,,,,,,,,,,,,,,,,,,,,,,,,,,,,,,,,,,,,,,,,,,,,,,,,,,,,,,,,,,,813.0289,819.2716,-0.12962963,0.076851852,1.0,0.0,0.0,0.2366,compass,0.0,6.0,6.0,5.0,1.0,SoundStimuli/JoyToTheWorld_ThreeDogNight_Cover5S.wav,,,,,,,,,,,,,,,,,,,,,,,,,,,,,,,,,,,,,,,,,,,,,,,,,,,,
,,,,,35559,1,2024-07-12_19h26.05.837,experiment,2024.1.5,Win32,59.52380952,6691931c2c63981b064e1f0c,6691bb6fc57d7fb5c45d56aa,,,,,,,,,,,,,,,,,,,,,,,,,,,,,,,,,,,,,,,,,,,,,,,,,,,,,,,,,,,,819.2768,826.2182,0.223148148,0.175,1.0,0.0,0.0,0.9336,compass,0.0,7.0,7.0,15.0,1.0,SoundStimuli/CrazyInLove_BeyonceFtJayZ_Original5S.wav,,,,,,,,,,,,,,,,,,,,,,,,,,,,,,,,,,,,,,,,,,,,,,,,,,,,
,,,,,35559,1,2024-07-12_19h26.05.837,experiment,2024.1.5,Win32,59.52380952,6691931c2c63981b064e1f0c,6691bb6fc57d7fb5c45d56aa,,,,,,,,,,,,,,,,,,,,,,,,,,,,,,,,,,,,,,,,,,,,,,,,,,,,,,,,,,,,826.2278,832.5181,0.298148148,0.296296296,1.0,0.0,0.0,0.2831,compass,0.0,8.0,8.0,26.0,1.0,SoundStimuli/TheSign_AceOfBase_Original5S.wav,,,,,,,,,,,,,,,,,,,,,,,,,,,,,,,,,,,,,,,,,,,,,,,,,,,,
,,,,,35559,1,2024-07-12_19h26.05.837,experiment,2024.1.5,Win32,59.52380952,6691931c2c63981b064e1f0c,6691bb6fc57d7fb5c45d56aa,,,,,,,,,,,,,,,,,,,,,,,,,,,,,,,,,,,,,,,,,,,,,,,,,,,,,,,,,,,,832.526,839.3349,0.252777778,0.202777778,1.0,0.0,0.0,0.7999,compass,0.0,9.0,9.0,24.0,1.0,SoundStimuli/Kiss_Prince_Original5S.wav,,,,,,,,,,,,,,,,,,,,,,,,,,,,,,,,,,,,,,,,,,,,,,,,,,,,
,,,,,35559,1,2024-07-12_19h26.05.837,experiment,2024.1.5,Win32,59.52380952,6691931c2c63981b064e1f0c,6691bb6fc57d7fb5c45d56aa,,,,,,,,,,,,,,,,,,,,,,,,,,,,,,,,,,,,,,,,,,,,,,,,,,,,,,,,,,,,839.343,845.7684,0.272222222,0.253703704,1.0,0.0,0.0,0.417,compass,0.0,10.0,10.0,22.0,1.0,SoundStimuli/Happy_PharellWilliams_Cover5S.wav,,,,,,,,,,,,,,,,,,,,,,,,,,,,,,,,,,,,,,,,,,,,,,,,,,,,
,,,,,35559,1,2024-07-12_19h26.05.837,experiment,2024.1.5,Win32,59.52380952,6691931c2c63981b064e1f0c,6691bb6fc57d7fb5c45d56aa,,,,,,,,,,,,,,,,,,,,,,,,,,,,,,,,,,,,,,,,,,,,,,,,,,,,,,,,,,,,845.7763,852.0519,-0.169444444,-0.142592593,1.0,0.0,0.0,0.2672,compass,0.0,11.0,11.0,30.0,1.0,SoundStimuli/SomebodyThatIUsedtoKnow_Gotye_Cover5S.wav,,,,,,,,,,,,,,,,,,,,,,,,,,,,,,,,,,,,,,,,,,,,,,,,,,,,
,,,,,35559,1,2024-07-12_19h26.05.837,experiment,2024.1.5,Win32,59.52380952,6691931c2c63981b064e1f0c,6691bb6fc57d7fb5c45d56aa,,,,,,,,,,,,,,,,,,,,,,,,,,,,,,,,,,,,,,,,,,,,,,,,,,,,,,,,,,,,852.0626,859.0866,0.15,-0.12962963,1.0,0.0,0.0,1.0181,compass,0.0,12.0,12.0,29.0,1.0,SoundStimuli/BetteDavisEyes_KimCarnes_Cover5S.wav,,,,,,,,,,,,,,,,,,,,,,,,,,,,,,,,,,,,,,,,,,,,,,,,,,,,
,,,,,35559,1,2024-07-12_19h26.05.837,experiment,2024.1.5,Win32,59.52380952,6691931c2c63981b064e1f0c,6691bb6fc57d7fb5c45d56aa,,,,,,,,,,,,,,,,,,,,,,,,,,,,,,,,,,,,,,,,,,,,,,,,,,,,,,,,,,,,859.1002,867.0519,-0.137962963,-0.109259259,1.0,0.0,0.0,1.9503,compass,0.0,13.0,13.0,0.0,1.0,SoundStimuli/GimmeShelter_RollingStones_Cover5S.wav,,,,,,,,,,,,,,,,,,,,,,,,,,,,,,,,,,,,,,,,,,,,,,,,,,,,
,,,,,35559,1,2024-07-12_19h26.05.837,experiment,2024.1.5,Win32,59.52380952,6691931c2c63981b064e1f0c,6691bb6fc57d7fb5c45d56aa,,,,,,,,,,,,,,,,,,,,,,,,,,,,,,,,,,,,,,,,,,,,,,,,,,,,,,,,,,,,867.06,879.7687,0.200925926,-0.14537037,1.0,0.0,0.0,6.7005,compass,0.0,14.0,14.0,19.0,1.0,SoundStimuli/YouLightUpMyLife_DebbyBoone_Cover5S.wav,,,,,,,,,,,,,,,,,,,,,,,,,,,,,,,,,,,,,,,,,,,,,,,,,,,,
,,,,,35559,1,2024-07-12_19h26.05.837,experiment,2024.1.5,Win32,59.52380952,6691931c2c63981b064e1f0c,6691bb6fc57d7fb5c45d56aa,,,,,,,,,,,,,,,,,,,,,,,,,,,,,,,,,,,,,,,,,,,,,,,,,,,,,,,,,,,,879.7765,886.418,0.267592593,0.065740741,1.0,0.0,0.0,0.6329,compass,0.0,15.0,15.0,27.0,1.0,SoundStimuli/EyeOfTheTiger_Survivor_Original5S.wav,,,,,,,,,,,,,,,,,,,,,,,,,,,,,,,,,,,,,,,,,,,,,,,,,,,,
,,,,,35559,1,2024-07-12_19h26.05.837,experiment,2024.1.5,Win32,59.52380952,6691931c2c63981b064e1f0c,6691bb6fc57d7fb5c45d56aa,,,,,,,,,,,,,,,,,,,,,,,,,,,,,,,,,,,,,,,,,,,,,,,,,,,,,,,,,,,,886.4257,894.1352,0.099074074,-0.17037037,1.0,0.0,0.0,1.7,compass,0.0,16.0,16.0,23.0,1.0,SoundStimuli/IWalkTheLine_JohnnyCash_Cover5S.wav,,,,,,,,,,,,,,,,,,,,,,,,,,,,,,,,,,,,,,,,,,,,,,,,,,,,
,,,,,35559,1,2024-07-12_19h26.05.837,experiment,2024.1.5,Win32,59.52380952,6691931c2c63981b064e1f0c,6691bb6fc57d7fb5c45d56aa,,,,,,,,,,,,,,,,,,,,,,,,,,,,,,,,,,,,,,,,,,,,,,,,,,,,,,,,,,,,894.1417,900.6346,0.32037037,0.316666667,1.0,0.0,0.0,0.4832,compass,0.0,17.0,17.0,11.0,1.0,SoundStimuli/BlurredLines_RobinThicke_Original5S.wav,,,,,,,,,,,,,,,,,,,,,,,,,,,,,,,,,,,,,,,,,,,,,,,,,,,,
,,,,,35559,1,2024-07-12_19h26.05.837,experiment,2024.1.5,Win32,59.52380952,6691931c2c63981b064e1f0c,6691bb6fc57d7fb5c45d56aa,,,,,,,,,,,,,,,,,,,,,,,,,,,,,,,,,,,,,,,,,,,,,,,,,,,,,,,,,,,,900.6423,907.2525,0.224074074,-0.242592593,1.0,0.0,0.0,0.6003,compass,0.0,18.0,18.0,25.0,1.0,SoundStimuli/IllMakeLoveToYou_BoyzIIMen_Original5S.wav,,,,,,,,,,,,,,,,,,,,,,,,,,,,,,,,,,,,,,,,,,,,,,,,,,,,
,,,,,35559,1,2024-07-12_19h26.05.837,experiment,2024.1.5,Win32,59.52380952,6691931c2c63981b064e1f0c,6691bb6fc57d7fb5c45d56aa,,,,,,,,,,,,,,,,,,,,,,,,,,,,,,,,,,,,,,,,,,,,,,,,,,,,,,,,,,,,907.2631,913.6352,0.188888889,-0.199074074,1.0,0.0,0.0,0.3672,compass,0.0,19.0,19.0,20.0,1.0,SoundStimuli/FlashdanceWhatAFeeling_IreneCara_Cover5S.wav,,,,,,,,,,,,,,,,,,,,,,,,,,,,,,,,,,,,,,,,,,,,,,,,,,,,
,,,,,35559,1,2024-07-12_19h26.05.837,experiment,2024.1.5,Win32,59.52380952,6691931c2c63981b064e1f0c,6691bb6fc57d7fb5c45d56aa,,,,,,,,,,,,,,,,,,,,,,,,,,,,,,,,,,,,,,,,,,,,,,,,,,,,,,,,,,,,913.6436,922.3185,-0.064814815,-0.093518519,1.0,0.0,0.0,2.6666,compass,0.0,20.0,20.0,1.0,1.0,SoundStimuli/Smooth_SantanaRobThomas_Cover5S.wav,,,,,,,,,,,,,,,,,,,,,,,,,,,,,,,,,,,,,,,,,,,,,,,,,,,,
,,,,,35559,1,2024-07-12_19h26.05.837,experiment,2024.1.5,Win32,59.52380952,6691931c2c63981b064e1f0c,6691bb6fc57d7fb5c45d56aa,,,,,,,,,,,,,,,,,,,,,,,,,,,,,,,,,,,,,,,,,,,,,,,,,,,,,,,,,,,,922.3268,929.3683,-0.036111111,-0.037962963,1.0,0.0,0.0,1.0335,compass,0.0,21.0,21.0,6.0,1.0,SoundStimuli/SaveYourTears_TheWeekndArianaGrande_Original5S.wav,,,,,,,,,,,,,,,,,,,,,,,,,,,,,,,,,,,,,,,,,,,,,,,,,,,,
,,,,,35559,1,2024-07-12_19h26.05.837,experiment,2024.1.5,Win32,59.52380952,6691931c2c63981b064e1f0c,6691bb6fc57d7fb5c45d56aa,,,,,,,,,,,,,,,,,,,,,,,,,,,,,,,,,,,,,,,,,,,,,,,,,,,,,,,,,,,,929.3764,935.8688,0.115740741,-0.098148148,1.0,0.0,0.0,0.4838,compass,0.0,22.0,22.0,18.0,1.0,SoundStimuli/Weak_SWV_Original5S.wav,,,,,,,,,,,,,,,,,,,,,,,,,,,,,,,,,,,,,,,,,,,,,,,,,,,,
,,,,,35559,1,2024-07-12_19h26.05.837,experiment,2024.1.5,Win32,59.52380952,6691931c2c63981b064e1f0c,6691bb6fc57d7fb5c45d56aa,,,,,,,,,,,,,,,,,,,,,,,,,,,,,,,,,,,,,,,,,,,,,,,,,,,,,,,,,,,,935.876,942.1849,0.187962963,0.060185185,1.0,0.0,0.0,0.2998,compass,0.0,23.0,23.0,33.0,1.0,SoundStimuli/TheBoyIsMine_BrandyMonica_Cover5S.wav,,,,,,,,,,,,,,,,,,,,,,,,,,,,,,,,,,,,,,,,,,,,,,,,,,,,
,,,,,35559,1,2024-07-12_19h26.05.837,experiment,2024.1.5,Win32,59.52380952,6691931c2c63981b064e1f0c,6691bb6fc57d7fb5c45d56aa,,,,,,,,,,,,,,,,,,,,,,,,,,,,,,,,,,,,,,,,,,,,,,,,,,,,,,,,,,,,942.1929,949.1519,-0.061111111,-0.058333333,1.0,0.0,0.0,0.9504,compass,0.0,24.0,24.0,9.0,1.0,SoundStimuli/HowDoILive_LeAnnRimes_Original5S.wav,,,,,,,,,,,,,,,,,,,,,,,,,,,,,,,,,,,,,,,,,,,,,,,,,,,,
,,,,,35559,1,2024-07-12_19h26.05.837,experiment,2024.1.5,Win32,59.52380952,6691931c2c63981b064e1f0c,6691bb6fc57d7fb5c45d56aa,,,,,,,,,,,,,,,,,,,,,,,,,,,,,,,,,,,,,,,,,,,,,,,,,,,,,,,,,,,,949.1587,955.9512,-0.156481481,-0.133333333,1.0,0.0,0.0,0.7833,compass,0.0,25.0,25.0,4.0,1.0,SoundStimuli/Dreams_FleetwoodMac_Cover5S.wav,,,,,,,,,,,,,,,,,,,,,,,,,,,,,,,,,,,,,,,,,,,,,,,,,,,,
,,,,,35559,1,2024-07-12_19h26.05.837,experiment,2024.1.5,Win32,59.52380952,6691931c2c63981b064e1f0c,6691bb6fc57d7fb5c45d56aa,,,,,,,,,,,,,,,,,,,,,,,,,,,,,,,,,,,,,,,,,,,,,,,,,,,,,,,,,,,,955.9585,963.4522,-0.150925926,-0.146296296,1.0,0.0,0.0,1.4841,compass,0.0,26.0,26.0,8.0,1.0,SoundStimuli/EndlessLove_DianaRossLionelRichie_Original5S.wav,,,,,,,,,,,,,,,,,,,,,,,,,,,,,,,,,,,,,,,,,,,,,,,,,,,,
,,,,,35559,1,2024-07-12_19h26.05.837,experiment,2024.1.5,Win32,59.52380952,6691931c2c63981b064e1f0c,6691bb6fc57d7fb5c45d56aa,,,,,,,,,,,,,,,,,,,,,,,,,,,,,,,,,,,,,,,,,,,,,,,,,,,,,,,,,,,,963.4621,970.3515,0.176851852,-0.17962963,1.0,0.0,0.0,0.8837,compass,0.0,27.0,27.0,7.0,1.0,SoundStimuli/MackTheKnife_BobbyDarin_Original5S.wav,,,,,,,,,,,,,,,,,,,,,,,,,,,,,,,,,,,,,,,,,,,,,,,,,,,,
,,,,,35559,1,2024-07-12_19h26.05.837,experiment,2024.1.5,Win32,59.52380952,6691931c2c63981b064e1f0c,6691bb6fc57d7fb5c45d56aa,,,,,,,,,,,,,,,,,,,,,,,,,,,,,,,,,,,,,,,,,,,,,,,,,,,,,,,,,,,,970.3596,980.7181,-0.113888889,-0.072222222,1.0,0.0,0.0,4.3497,compass,0.0,28.0,28.0,2.0,1.0,SoundStimuli/SmellsLikeTeenSpirit_Nirvana_Cover5S.wav,,,,,,,,,,,,,,,,,,,,,,,,,,,,,,,,,,,,,,,,,,,,,,,,,,,,
,,,,,35559,1,2024-07-12_19h26.05.837,experiment,2024.1.5,Win32,59.52380952,6691931c2c63981b064e1f0c,6691bb6fc57d7fb5c45d56aa,,,,,,,,,,,,,,,,,,,,,,,,,,,,,,,,,,,,,,,,,,,,,,,,,,,,,,,,,,,,980.7245,987.8025,-0.202777778,-0.126851852,1.0,0.0,0.0,1.0676,compass,0.0,29.0,29.0,12.0,1.0,SoundStimuli/UnbreakMyHeart_ToniBraxton_Cover5S.wav,,,,,,,,,,,,,,,,,,,,,,,,,,,,,,,,,,,,,,,,,,,,,,,,,,,,
,,,,,35559,1,2024-07-12_19h26.05.837,experiment,2024.1.5,Win32,59.52380952,6691931c2c63981b064e1f0c,6691bb6fc57d7fb5c45d56aa,,,,,,,,,,,,,,,,,,,,,,,,,,,,,,,,,,,,,,,,,,,,,,,,,,,,,,,,,,,,987.8115,995.5349,0.10462963,-0.144444444,1.0,0.0,0.0,1.7165,compass,0.0,30.0,30.0,31.0,1.0,SoundStimuli/TossinAndTurnin_BobbyLewis_Cover5S.wav,,,,,,,,,,,,,,,,,,,,,,,,,,,,,,,,,,,,,,,,,,,,,,,,,,,,
,,,,,35559,1,2024-07-12_19h26.05.837,experiment,2024.1.5,Win32,59.52380952,6691931c2c63981b064e1f0c,6691bb6fc57d7fb5c45d56aa,,,,,,,,,,,,,,,,,,,,,,,,,,,,,,,,,,,,,,,,,,,,,,,,,,,,,,,,,,,,995.5444,1002.135,0.184259259,-0.134259259,1.0,0.0,0.0,0.5834,compass,0.0,31.0,31.0,16.0,1.0,SoundStimuli/ItsAllInTheGame_TommyEdwards_Original5S.wav,,,,,,,,,,,,,,,,,,,,,,,,,,,,,,,,,,,,,,,,,,,,,,,,,,,,
,,,,,35559,1,2024-07-12_19h26.05.837,experiment,2024.1.5,Win32,59.52380952,6691931c2c63981b064e1f0c,6691bb6fc57d7fb5c45d56aa,,,,,,,,,,,,,,,,,,,,,,,,,,,,,,,,,,,,,,,,,,,,,,,,,,,,,,,,,,,,1002.1413,1008.452,0.259259259,0.273148148,1.0,0.0,0.0,0.3003,compass,0.0,32.0,32.0,10.0,1.0,SoundStimuli/LeFreak_Chic_Original5S.wav,,,,,,,,,,,,,,,,,,,,,,,,,,,,,,,,,,,,,,,,,,,,,,,,,,,,
,,,,,35559,1,2024-07-12_19h26.05.837,experiment,2024.1.5,Win32,59.52380952,6691931c2c63981b064e1f0c,6691bb6fc57d7fb5c45d56aa,,,,,,,,,,,,,,,,,,,,,,,,,,,,,,,,,,,,,,,,,,,,,,,,,,,,,,,,,,,,1008.4593,1014.7846,0.261111111,-0.257407407,1.0,0.0,0.0,0.3115,compass,0.0,33.0,33.0,32.0,1.0,SoundStimuli/Dilemma_NellyKellyRowland_Original5S.wav,,,,,,,,,,,,,,,,,,,,,,,,,,,,,,,,,,,,,,,,,,,,,,,,,,,,
,,,,,35559,1,2024-07-12_19h26.05.837,experiment,2024.1.5,Win32,59.52380952,6691931c2c63981b064e1f0c,6691bb6fc57d7fb5c45d56aa,,,,,,,,,,,,,,,,,,,,,,,,,,,,,,,,,,,,,,,,,,,,,,,,,,,,,,,,,,,,1014.792,1021.4183,-0.136111111,-0.161111111,1.0,0.0,0.0,0.6169,compass,0.0,34.0,34.0,17.0,1.0,SoundStimuli/IWannaDanceWithSomebody_WhitneyHouston_Cover5S.wav,,,,,,,,,,,,,,,,,,,,,,,,,,,,,,,,,,,,,,,,,,,,,,,,,,,,
,,,,,35559,1,2024-07-12_19h26.05.837,experiment,2024.1.5,Win32,59.52380952,6691931c2c63981b064e1f0c,6691bb6fc57d7fb5c45d56aa,,,,,,,,,,,,,,,,,,,,,,,,,,,,,,,,,,,,,,,,,,,,,,,,,,,,,,,,,,,,,,,,,,,,,,,,,,,1021.4184,1025.2181,space,3.7828,,1025.2182,1027.5847,right,2.348,,0.0,2.0,2.0,2.0,1.0,block_order/blockB.xlsx,,,,,,,,,,,,,,,,,,,,,,,,,,,,,,,,,,,,
,,,,,35559,1,2024-07-12_19h26.05.837,experiment,2024.1.5,Win32,59.52380952,6691931c2c63981b064e1f0c,6691bb6fc57d7fb5c45d56aa,,,,,,,,,,,,,,,,,,,,,,,,,,,,,,,,,,,,,,,,,,,,,,,,,,,,,,,,,,,,1027.5946,1034.5845,0.161111111,0.124074074,1.0,0.0,0.0,0.983,compass,0.0,0.0,0.0,9.0,1.0,SoundStimuli/Despacito_LuisFonsiDaddyYankee_Original5S.wav,,,,,,,,,,,,,,,,,,,,,,,,,,,,,,,,,,,,,,,,,,,,,,,,,,,,
,,,,,35559,1,2024-07-12_19h26.05.837,experiment,2024.1.5,Win32,59.52380952,6691931c2c63981b064e1f0c,6691bb6fc57d7fb5c45d56aa,,,,,,,,,,,,,,,,,,,,,,,,,,,,,,,,,,,,,,,,,,,,,,,,,,,,,,,,,,,,1034.5912,1043.6514,0.138888889,0.074074074,1.0,0.0,0.0,3.0499,compass,0.0,1.0,1.0,25.0,1.0,SoundStimuli/Respect_ArethaFranklin_Cover5S.wav,,,,,,,,,,,,,,,,,,,,,,,,,,,,,,,,,,,,,,,,,,,,,,,,,,,,
,,,,,35559,1,2024-07-12_19h26.05.837,experiment,2024.1.5,Win32,59.52380952,6691931c2c63981b064e1f0c,6691bb6fc57d7fb5c45d56aa,,,,,,,,,,,,,,,,,,,,,,,,,,,,,,,,,,,,,,,,,,,,,,,,,,,,,,,,,,,,1043.659,1049.8019,0.080555556,0.034259259,1.0,0.0,0.0,0.1338,compass,0.0,2.0,2.0,17.0,1.0,SoundStimuli/Fallin_AliciaKeys_Cover5S.wav,,,,,,,,,,,,,,,,,,,,,,,,,,,,,,,,,,,,,,,,,,,,,,,,,,,,
,,,,,35559,1,2024-07-12_19h26.05.837,experiment,2024.1.5,Win32,59.52380952,6691931c2c63981b064e1f0c,6691bb6fc57d7fb5c45d56aa,,,,,,,,,,,,,,,,,,,,,,,,,,,,,,,,,,,,,,,,,,,,,,,,,,,,,,,,,,,,1049.8137,1058.6182,0.098148148,-0.091666667,1.0,0.0,0.0,2.8001,compass,0.0,3.0,3.0,27.0,1.0,SoundStimuli/ShapeofYou_EdSheeran_Cover5S.wav,,,,,,,,,,,,,,,,,,,,,,,,,,,,,,,,,,,,,,,,,,,,,,,,,,,,
,,,,,35559,1,2024-07-12_19h26.05.837,experiment,2024.1.5,Win32,59.52380952,6691931c2c63981b064e1f0c,6691bb6fc57d7fb5c45d56aa,,,,,,,,,,,,,,,,,,,,,,,,,,,,,,,,,,,,,,,,,,,,,,,,,,,,,,,,,,,,1058.6278,1068.3349,0.135185185,0.102777778,1.0,0.0,0.0,3.7004,compass,0.0,4.0,4.0,33.0,1.0,SoundStimuli/StandByMe_BenEKing_Original5S.wav,,,,,,,,,,,,,,,,,,,,,,,,,,,,,,,,,,,,,,,,,,,,,,,,,,,,
,,,,,35559,1,2024-07-12_19h26.05.837,experiment,2024.1.5,Win32,59.52380952,6691931c2c63981b064e1f0c,6691bb6fc57d7fb5c45d56aa,,,,,,,,,,,,,,,,,,,,,,,,,,,,,,,,,,,,,,,,,,,,,,,,,,,,,,,,,,,,1068.3419,1074.6678,-0.138888889,-0.166666667,1.0,0.0,0.0,0.3167,compass,0.0,5.0,5.0,7.0,1.0,SoundStimuli/NoOne_AliciaKeys_Original5S.wav,,,,,,,,,,,,,,,,,,,,,,,,,,,,,,,,,,,,,,,,,,,,,,,,,,,,
,,,,,35559,1,2024-07-12_19h26.05.837,experiment,2024.1.5,Win32,59.52380952,6691931c2c63981b064e1f0c,6691bb6fc57d7fb5c45d56aa,,,,,,,,,,,,,,,,,,,,,,,,,,,,,,,,,,,,,,,,,,,,,,,,,,,,,,,,,,,,1074.6747,1081.1183,0.318518519,0.323148148,1.0,0.0,0.0,0.4334,compass,0.0,6.0,6.0,15.0,1.0,SoundStimuli/TikTok_Kesha_Original5S.wav,,,,,,,,,,,,,,,,,,,,,,,,,,,,,,,,,,,,,,,,,,,,,,,,,,,,
,,,,,35559,1,2024-07-12_19h26.05.837,experiment,2024.1.5,Win32,59.52380952,6691931c2c63981b064e1f0c,6691bb6fc57d7fb5c45d56aa,,,,,,,,,,,,,,,,,,,,,,,,,,,,,,,,,,,,,,,,,,,,,,,,,,,,,,,,,,,,1081.1265,1088.2524,-0.077777778,-0.116666667,1.0,0.0,0.0,1.1176,compass,0.0,7.0,7.0,12.0,1.0,SoundStimuli/IWillAlwaysLoveYou_WhitneyHouston_Original5S.wav,,,,,,,,,,,,,,,,,,,,,,,,,,,,,,,,,,,,,,,,,,,,,,,,,,,,
,,,,,35559,1,2024-07-12_19h26.05.837,experiment,2024.1.5,Win32,59.52380952,6691931c2c63981b064e1f0c,6691bb6fc57d7fb5c45d56aa,,,,,,,,,,,,,,,,,,,,,,,,,,,,,,,,,,,,,,,,,,,,,,,,,,,,,,,,,,,,1088.2597,1094.7018,0.161111111,0.112962963,1.0,0.0,0.0,0.4339,compass,0.0,8.0,8.0,24.0,1.0,SoundStimuli/UptownFunk_MarkRonson_Cover5S.wav,,,,,,,,,,,,,,,,,,,,,,,,,,,,,,,,,,,,,,,,,,,,,,,,,,,,
,,,,,35559,1,2024-07-12_19h26.05.837,experiment,2024.1.5,Win32,59.52380952,6691931c2c63981b064e1f0c,6691bb6fc57d7fb5c45d56aa,,,,,,,,,,,,,,,,,,,,,,,,,,,,,,,,,,,,,,,,,,,,,,,,,,,,,,,,,,,,1094.7099,1101.1348,0.211111111,0.087962963,1.0,0.0,0.0,0.4167,compass,0.0,9.0,9.0,4.0,1.0,SoundStimuli/GetUrFreakOn_MissyElliot_Cover5S.wav,,,,,,,,,,,,,,,,,,,,,,,,,,,,,,,,,,,,,,,,,,,,,,,,,,,,
,,,,,35559,1,2024-07-12_19h26.05.837,experiment,2024.1.5,Win32,59.52380952,6691931c2c63981b064e1f0c,6691bb6fc57d7fb5c45d56aa,,,,,,,,,,,,,,,,,,,,,,,,,,,,,,,,,,,,,,,,,,,,,,,,,,,,,,,,,,,,1101.1414,1107.968,0.309259259,0.294444444,1.0,0.0,0.0,0.8163,compass,0.0,10.0,10.0,20.0,1.0,SoundStimuli/HeyYa_Outkast_Original5S.wav,,,,,,,,,,,,,,,,,,,,,,,,,,,,,,,,,,,,,,,,,,,,,,,,,,,,
,,,,,35559,1,2024-07-12_19h26.05.837,experiment,2024.1.5,Win32,59.52380952,6691931c2c63981b064e1f0c,6691bb6fc57d7fb5c45d56aa,,,,,,,,,,,,,,,,,,,,,,,,,,,,,,,,,,,,,,,,,,,,,,,,,,,,,,,,,,,,1107.9757,1114.8184,0.191666667,-0.125,1.0,0.0,0.0,0.8336,compass,0.0,11.0,11.0,22.0,1.0,SoundStimuli/RockWithYou_MichaelJackson_Cover5S.wav,,,,,,,,,,,,,,,,,,,,,,,,,,,,,,,,,,,,,,,,,,,,,,,,,,,,
,,,,,35559,1,2024-07-12_19h26.05.837,experiment,2024.1.5,Win32,59.52380952,6691931c2c63981b064e1f0c,6691bb6fc57d7fb5c45d56aa,,,,,,,,,,,,,,,,,,,,,,,,,,,,,,,,,,,,,,,,,,,,,,,,,,,,,,,,,,,,1114.8279,1122.368,0.184259259,-0.115740741,1.0,0.0,0.0,1.5334,compass,0.0,12.0,12.0,34.0,1.0,SoundStimuli/AChangeIsGonnaCome_SamCooke_Original5S.wav,,,,,,,,,,,,,,,,,,,,,,,,,,,,,,,,,,,,,,,,,,,,,,,,,,,,
,,,,,35559,1,2024-07-12_19h26.05.837,experiment,2024.1.5,Win32,59.52380952,6691931c2c63981b064e1f0c,6691bb6fc57d7fb5c45d56aa,,,,,,,,,,,,,,,,,,,,,,,,,,,,,,,,,,,,,,,,,,,,,,,,,,,,,,,,,,,,1122.3762,1131.6514,-0.075,-0.143518519,1.0,0.0,0.0,3.2669,compass,0.0,13.0,13.0,3.0,1.0,SoundStimuli/NoScrubs_TLC_Cover5S.wav,,,,,,,,,,,,,,,,,,,,,,,,,,,,,,,,,,,,,,,,,,,,,,,,,,,,
,,,,,35559,1,2024-07-12_19h26.05.837,experiment,2024.1.5,Win32,59.52380952,6691931c2c63981b064e1f0c,6691bb6fc57d7fb5c45d56aa,,,,,,,,,,,,,,,,,,,,,,,,,,,,,,,,,,,,,,,,,,,,,,,,,,,,,,,,,,,,1131.6599,1140.6019,-0.046296296,-0.135185185,1.0,0.0,0.0,2.9336,compass,0.0,14.0,14.0,32.0,1.0,SoundStimuli/HeatWaves_GlassAnimals_Cover5S.wav,,,,,,,,,,,,,,,,,,,,,,,,,,,,,,,,,,,,,,,,,,,,,,,,,,,,
,,,,,35559,1,2024-07-12_19h26.05.837,experiment,2024.1.5,Win32,59.52380952,6691931c2c63981b064e1f0c,6691bb6fc57d7fb5c45d56aa,,,,,,,,,,,,,,,,,,,,,,,,,,,,,,,,,,,,,,,,,,,,,,,,,,,,,,,,,,,,1140.6114,1147.168,-0.110185185,0.132407407,1.0,0.0,0.0,0.5502,compass,0.0,15.0,15.0,26.0,1.0,SoundStimuli/LivinOnAPrayer_BonJovi_Original5S.wav,,,,,,,,,,,,,,,,,,,,,,,,,,,,,,,,,,,,,,,,,,,,,,,,,,,,
,,,,,35559,1,2024-07-12_19h26.05.837,experiment,2024.1.5,Win32,59.52380952,6691931c2c63981b064e1f0c,6691bb6fc57d7fb5c45d56aa,,,,,,,,,,,,,,,,,,,,,,,,,,,,,,,,,,,,,,,,,,,,,,,,,,,,,,,,,,,,1147.1762,1153.6179,-0.072222222,-0.099074074,1.0,0.0,0.0,0.4333,compass,0.0,16.0,16.0,8.0,1.0,SoundStimuli/LikeAPrayer_Madonna_Cover5S.wav,,,,,,,,,,,,,,,,,,,,,,,,,,,,,,,,,,,,,,,,,,,,,,,,,,,,
,,,,,35559,1,2024-07-12_19h26.05.837,experiment,2024.1.5,Win32,59.52380952,6691931c2c63981b064e1f0c,6691bb6fc57d7fb5c45d56aa,,,,,,,,,,,,,,,,,,,,,,,,,,,,,,,,,,,,,,,,,,,,,,,,,,,,,,,,,,,,1153.6287,1160.7682,-0.109259259,0.048148148,1.0,0.0,0.0,1.1334,compass,0.0,17.0,17.0,23.0,1.0,SoundStimuli/StrawberryFieldsForever_TheBeatles_Cover5S.wav,,,,,,,,,,,,,,,,,,,,,,,,,,,,,,,,,,,,,,,,,,,,,,,,,,,,
,,,,,35559,1,2024-07-12_19h26.05.837,experiment,2024.1.5,Win32,59.52380952,6691931c2c63981b064e1f0c,6691bb6fc57d7fb5c45d56aa,,,,,,,,,,,,,,,,,,,,,,,,,,,,,,,,,,,,,,,,,,,,,,,,,,,,,,,,,,,,1160.7769,1169.3181,0.114814815,0.042592593,1.0,0.0,0.0,2.5334,compass,0.0,18.0,18.0,14.0,1.0,SoundStimuli/BlindingLights_TheWeeknd_Cover5S.wav,,,,,,,,,,,,,,,,,,,,,,,,,,,,,,,,,,,,,,,,,,,,,,,,,,,,
,,,,,35559,1,2024-07-12_19h26.05.837,experiment,2024.1.5,Win32,59.52380952,6691931c2c63981b064e1f0c,6691bb6fc57d7fb5c45d56aa,,,,,,,,,,,,,,,,,,,,,,,,,,,,,,,,,,,,,,,,,,,,,,,,,,,,,,,,,,,,1169.3288,1176.6681,0.071296296,0.05,1.0,0.0,0.0,1.3334,compass,0.0,19.0,19.0,0.0,1.0,SoundStimuli/StayinAlive_BeeGees_Cover5S.wav,,,,,,,,,,,,,,,,,,,,,,,,,,,,,,,,,,,,,,,,,,,,,,,,,,,,
,,,,,35559,1,2024-07-12_19h26.05.837,experiment,2024.1.5,Win32,59.52380952,6691931c2c63981b064e1f0c,6691bb6fc57d7fb5c45d56aa,,,,,,,,,,,,,,,,,,,,,,,,,,,,,,,,,,,,,,,,,,,,,,,,,,,,,,,,,,,,1176.6764,1183.618,0.094444444,0.082407407,1.0,0.0,0.0,0.9331,compass,0.0,20.0,20.0,28.0,1.0,SoundStimuli/ComeAndGetYourLove_Redbone_Cover5S.wav,,,,,,,,,,,,,,,,,,,,,,,,,,,,,,,,,,,,,,,,,,,,,,,,,,,,
,,,,,35559,1,2024-07-12_19h26.05.837,experiment,2024.1.5,Win32,59.52380952,6691931c2c63981b064e1f0c,6691bb6fc57d7fb5c45d56aa,,,,,,,,,,,,,,,,,,,,,,,,,,,,,,,,,,,,,,,,,,,,,,,,,,,,,,,,,,,,1183.6261,1190.1515,0.125925926,0.143518519,1.0,0.0,0.0,0.5169,compass,0.0,21.0,21.0,11.0,1.0,SoundStimuli/Superstition_StevieWonder_Original5S.wav,,,,,,,,,,,,,,,,,,,,,,,,,,,,,,,,,,,,,,,,,,,,,,,,,,,,
,,,,,35559,1,2024-07-12_19h26.05.837,experiment,2024.1.5,Win32,59.52380952,6691931c2c63981b064e1f0c,6691bb6fc57d7fb5c45d56aa,,,,,,,,,,,,,,,,,,,,,,,,,,,,,,,,,,,,,,,,,,,,,,,,,,,,,,,,,,,,1190.16,1196.4179,0.17962963,0.196296296,1.0,0.0,0.0,0.2498,compass,0.0,22.0,22.0,6.0,1.0,SoundStimuli/Levitating_DuaLipa_Original5S.wav,,,,,,,,,,,,,,,,,,,,,,,,,,,,,,,,,,,,,,,,,,,,,,,,,,,,
,,,,,35559,1,2024-07-12_19h26.05.837,experiment,2024.1.5,Win32,59.52380952,6691931c2c63981b064e1f0c,6691bb6fc57d7fb5c45d56aa,,,,,,,,,,,,,,,,,,,,,,,,,,,,,,,,,,,,,,,,,,,,,,,,,,,,,,,,,,,,1196.4253,1202.7847,0.19537037,0.183333333,1.0,0.0,0.0,0.35,compass,0.0,23.0,23.0,2.0,1.0,SoundStimuli/Mood_24kGoldnianndior_Original5S.wav,,,,,,,,,,,,,,,,,,,,,,,,,,,,,,,,,,,,,,,,,,,,,,,,,,,,
,,,,,35559,1,2024-07-12_19h26.05.837,experiment,2024.1.5,Win32,59.52380952,6691931c2c63981b064e1f0c,6691bb6fc57d7fb5c45d56aa,,,,,,,,,,,,,,,,,,,,,,,,,,,,,,,,,,,,,,,,,,,,,,,,,,,,,,,,,,,,1202.7916,1209.1179,0.162037037,-0.101851852,1.0,0.0,0.0,0.3167,compass,0.0,24.0,24.0,30.0,1.0,SoundStimuli/PokerFace_LadyGaga_Cover5S.wav,,,,,,,,,,,,,,,,,,,,,,,,,,,,,,,,,,,,,,,,,,,,,,,,,,,,
,,,,,35559,1,2024-07-12_19h26.05.837,experiment,2024.1.5,Win32,59.52380952,6691931c2c63981b064e1f0c,6691bb6fc57d7fb5c45d56aa,,,,,,,,,,,,,,,,,,,,,,,,,,,,,,,,,,,,,,,,,,,,,,,,,,,,,,,,,,,,1209.1311,1215.8031,-0.15462963,-0.164814815,1.0,0.0,0.0,0.6683,compass,0.0,25.0,25.0,18.0,1.0,SoundStimuli/AnotherOneBitesTheDust_Queen_Cover5S.wav,,,,,,,,,,,,,,,,,,,,,,,,,,,,,,,,,,,,,,,,,,,,,,,,,,,,
,,,,,35559,1,2024-07-12_19h26.05.837,experiment,2024.1.5,Win32,59.52380952,6691931c2c63981b064e1f0c,6691bb6fc57d7fb5c45d56aa,,,,,,,,,,,,,,,,,,,,,,,,,,,,,,,,,,,,,,,,,,,,,,,,,,,,,,,,,,,,1215.8107,1222.1516,0.116666667,-0.159259259,1.0,0.0,0.0,0.3338,compass,0.0,26.0,26.0,19.0,1.0,SoundStimuli/LetsGetItOn_MarvinGaye_Original5S.wav,,,,,,,,,,,,,,,,,,,,,,,,,,,,,,,,,,,,,,,,,,,,,,,,,,,,
,,,,,35559,1,2024-07-12_19h26.05.837,experiment,2024.1.5,Win32,59.52380952,6691931c2c63981b064e1f0c,6691bb6fc57d7fb5c45d56aa,,,,,,,,,,,,,,,,,,,,,,,,,,,,,,,,,,,,,,,,,,,,,,,,,,,,,,,,,,,,1222.1589,1228.4847,0.211111111,-0.182407407,1.0,0.0,0.0,0.317,compass,0.0,27.0,27.0,29.0,1.0,SoundStimuli/OldTownRoad_LilNasX_Cover5S.wav,,,,,,,,,,,,,,,,,,,,,,,,,,,,,,,,,,,,,,,,,,,,,,,,,,,,
,,,,,35559,1,2024-07-12_19h26.05.837,experiment,2024.1.5,Win32,59.52380952,6691931c2c63981b064e1f0c,6691bb6fc57d7fb5c45d56aa,,,,,,,,,,,,,,,,,,,,,,,,,,,,,,,,,,,,,,,,,,,,,,,,,,,,,,,,,,,,1228.4918,1237.1183,0.109259259,-0.135185185,1.0,0.0,0.0,2.617,compass,0.0,28.0,28.0,31.0,1.0,SoundStimuli/TheBattleOfNewOrleans_JohnnyHorton_Original5S.wav,,,,,,,,,,,,,,,,,,,,,,,,,,,,,,,,,,,,,,,,,,,,,,,,,,,,
,,,,,35559,1,2024-07-12_19h26.05.837,experiment,2024.1.5,Win32,59.52380952,6691931c2c63981b064e1f0c,6691bb6fc57d7fb5c45d56aa,,,,,,,,,,,,,,,,,,,,,,,,,,,,,,,,,,,,,,,,,,,,,,,,,,,,,,,,,,,,1237.1271,1244.4683,-0.140740741,-0.199074074,1.0,0.0,0.0,1.3317,compass,0.0,29.0,29.0,10.0,1.0,SoundStimuli/BadDay_DanielPowter_Original5S.wav,,,,,,,,,,,,,,,,,,,,,,,,,,,,,,,,,,,,,,,,,,,,,,,,,,,,
,,,,,35559,1,2024-07-12_19h26.05.837,experiment,2024.1.5,Win32,59.52380952,6691931c2c63981b064e1f0c,6691bb6fc57d7fb5c45d56aa,,,,,,,,,,,,,,,,,,,,,,,,,,,,,,,,,,,,,,,,,,,,,,,,,,,,,,,,,,,,1244.4768,1251.768,-0.15,0.115740741,1.0,0.0,0.0,1.2832,compass,0.0,30.0,30.0,16.0,1.0,SoundStimuli/BohemianRhapsody_Queen_Cover5S.wav,,,,,,,,,,,,,,,,,,,,,,,,,,,,,,,,,,,,,,,,,,,,,,,,,,,,
,,,,,35559,1,2024-07-12_19h26.05.837,experiment,2024.1.5,Win32,59.52380952,6691931c2c63981b064e1f0c,6691bb6fc57d7fb5c45d56aa,,,,,,,,,,,,,,,,,,,,,,,,,,,,,,,,,,,,,,,,,,,,,,,,,,,,,,,,,,,,1251.7791,1259.6681,-0.117592593,-0.100925926,1.0,0.0,0.0,1.8832,compass,0.0,31.0,31.0,13.0,1.0,SoundStimuli/GodOnlyKnows_TheBeachBoys_Original5S.wav,,,,,,,,,,,,,,,,,,,,,,,,,,,,,,,,,,,,,,,,,,,,,,,,,,,,
,,,,,35559,1,2024-07-12_19h26.05.837,experiment,2024.1.5,Win32,59.52380952,6691931c2c63981b064e1f0c,6691bb6fc57d7fb5c45d56aa,,,,,,,,,,,,,,,,,,,,,,,,,,,,,,,,,,,,,,,,,,,,,,,,,,,,,,,,,,,,1259.6757,1268.1848,0.142592593,-0.12962963,1.0,0.0,0.0,2.5001,compass,0.0,32.0,32.0,5.0,1.0,SoundStimuli/MyGirl_TheTemptations_Cover5S.wav,,,,,,,,,,,,,,,,,,,,,,,,,,,,,,,,,,,,,,,,,,,,,,,,,,,,
,,,,,35559,1,2024-07-12_19h26.05.837,experiment,2024.1.5,Win32,59.52380952,6691931c2c63981b064e1f0c,6691bb6fc57d7fb5c45d56aa,,,,,,,,,,,,,,,,,,,,,,,,,,,,,,,,,,,,,,,,,,,,,,,,,,,,,,,,,,,,1268.1937,1274.5012,0.263888889,0.293518519,1.0,0.0,0.0,0.2997,compass,0.0,33.0,33.0,21.0,1.0,SoundStimuli/GoodGollyMissMolly_LittleRichard_Original5S.wav,,,,,,,,,,,,,,,,,,,,,,,,,,,,,,,,,,,,,,,,,,,,,,,,,,,,
,,,,,35559,1,2024-07-12_19h26.05.837,experiment,2024.1.5,Win32,59.52380952,6691931c2c63981b064e1f0c,6691bb6fc57d7fb5c45d56aa,,,,,,,,,,,,,,,,,,,,,,,,,,,,,,,,,,,,,,,,,,,,,,,,,,,,,,,,,,,,1274.5095,1283.1681,-0.144444444,-0.130555556,1.0,0.0,0.0,2.6502,compass,0.0,34.0,34.0,1.0,1.0,SoundStimuli/Stronger_KanyeWest_Cover5S.wav,,,,,,,,,,,,,,,,,,,,,,,,,,,,,,,,,,,,,,,,,,,,,,,,,,,,
,,,,,35559,1,2024-07-12_19h26.05.837,experiment,2024.1.5,Win32,59.52380952,6691931c2c63981b064e1f0c,6691bb6fc57d7fb5c45d56aa,,,,,,,,,,,,,,,,,,,,,,,,,,,,,,,,,,,,,,,,,,,,,,,,,,,,,,,,,,,,,,,,,,,,,,,,,,,1283.1683,1283.1683,,,,1283.1683,1283.1684,,,,0.0,3.0,3.0,3.0,1.0,block_order/blockC.xlsx,,,,,,,,,,,,,,,,,,,,,,,,,,,,,,,,,,,,
,,,,,35559,1,2024-07-12_19h26.05.837,experiment,2024.1.5,Win32,59.52380952,6691931c2c63981b064e1f0c,6691bb6fc57d7fb5c45d56aa,,,,,,,,,,,,,,,,,,,,,,,,,,,,,,,,,,,,,,,,,,,,,,,,,,,,,,,,,,,,,,,,,,,,,,,,,,,,,,,,,,,,,,,,,,,36.0,Item 2,I play the clarinet from 13-15 years old. ,Item 5,"radio, apple music, xm radio",6.0,6.0,"driving, exercising",Never,Never,Never,Always,Never,Rarely,Rarely,Always,Never,Always,Never,Rarely,Never,Always,Never,Rarely,I listen to the ones listed. ,R&B,Hip hop,Disco,"The older I am getting the more I am wanting to listen to music from the 70s, 80s, 90s and early 2000s. ",0.0,0.0,0.0,0.0,1.0,,
,,,,,35559,1,2024-07-12_19h26.05.837,experiment,2024.1.5,Win32,59.52380952,6691931c2c63981b064e1f0c,6691bb6fc57d7fb5c45d56aa,,,,,,,,,,,,,,,,,,,,,,,,,,,,,,,,,,,,,,,,,,,,,,,,,,,,,,,,,,,,,,,,,,,,,,,,,,,,,,,,,,,,,,,,,,,,,,,,,,,,,,,,,,,,,,,,,,,,,,,,,,,,,1482.5334,1484.9848
