welcome.started,welcome.stopped,space_to_continue.keys,space_to_continue.rt,space_to_continue.duration,participant,session,date,expName,psychopyVersion,OS,frameRate,STUDY_ID,SESSION_ID,consent.consent,consent.consent_recontact,consent_check.started,consent_check.stopped,calibration_ready.started,calibration_ready.stopped,cal_ready.keys,cal_ready.rt,cal_ready.duration,calibration.started,calibration.stopped,mouse.x,mouse.y,mouse.leftButton,mouse.midButton,mouse.rightButton,mouse.time,mouse.clicked_name,move_on.keys,move_on.rt,move_on.duration,run_cal.thisRepN,run_cal.thisTrialN,run_cal.thisN,run_cal.thisIndex,run_cal.ran,emotion_training_ready.started,emotion_training_ready.stopped,training_move_on.keys,training_move_on.rt,training_move_on.duration,examples.started,examples.stopped,emotion_scale.started,emotion_scale.stopped,scale_next.keys,scale_next.rt,scale_next.duration,instructions.started,instructions.stopped,next.keys,next.rt,next.duration,practice_task.started,practice_task.stopped,mouse_rating_2.x,mouse_rating_2.y,mouse_rating_2.leftButton,mouse_rating_2.midButton,mouse_rating_2.rightButton,mouse_rating_2.time,mouse_rating_2.clicked_name,ready.started,ready.stopped,key_resp.keys,key_resp.rt,key_resp.duration,set_group.started,set_group.stopped,task.started,task.stopped,mouse_rating.x,mouse_rating.y,mouse_rating.leftButton,mouse_rating.midButton,mouse_rating.rightButton,mouse_rating.time,mouse_rating.clicked_name,trials.thisRepN,trials.thisTrialN,trials.thisN,trials.thisIndex,trials.ran,clip,short_break.started,short_break.stopped,space_to_move_on.keys,space_to_move_on.rt,space_to_move_on.duration,instruction_reminder.started,instruction_reminder.stopped,reminder_move_on.keys,reminder_move_on.rt,reminder_move_on.duration,blocks.thisRepN,blocks.thisTrialN,blocks.thisN,blocks.thisIndex,blocks.ran,block,post_survey.age,post_survey.musician,post_survey.music_making,post_survey.listen_time,post_survey.medium,post_survey.music_seeking,post_survey.music_choice,post_survey.activities,post_survey.question1.Classical,post_survey.question1.A cappella,post_survey.question1.Metal,post_survey.question1.Disco,post_survey.question1.Folk/indie,post_survey.question1.Latin,post_survey.question1.Alternative rock,post_survey.question1.Electronic (EDM),post_survey.question1.Reggae,post_survey.question1.Classic rock,post_survey.question1.Hip hop,post_survey.question1.Ambient,post_survey.question1.Jazz,post_survey.question1.Country,post_survey.question1.Pop,post_survey.question1.R&B,post_survey.genres_ranked.text1,post_survey.genres_ranked.text2,post_survey.genres_ranked.text3,post_survey.habit_change,show_exp.thisRepN,show_exp.thisTrialN,show_exp.thisN,show_exp.thisIndex,show_exp.ran,goodbye.started,goodbye.stopped
0.0002,1.5394,space,1.5327,,44945,1,2024-07-12_16h24.52.249,experiment,2024.1.5,MacIntel,63.69426752,6691931c2c63981b064e1f0c,6691bb1313c778c35283e6d5,,,,,,,,,,,,,,,,,,,,,,,,,,,,,,,,,,,,,,,,,,,,,,,,,,,,,,,,,,,,,,,,,,,,,,,,,,,,,,,,,,,,,,,,,,,,,,,,,,,,,,,,,,,,,,,,,,,,,,,,,,,,,
,,,,,44945,1,2024-07-12_16h24.52.249,experiment,2024.1.5,MacIntel,63.69426752,6691931c2c63981b064e1f0c,6691bb1313c778c35283e6d5,yes,yes,,,,,,,,,,,,,,,,,,,,,,,,,,,,,,,,,,,,,,,,,,,,,,,,,,,,,,,,,,,,,,,,,,,,,,,,,,,,,,,,,,,,,,,,,,,,,,,,,,,,,,,,,,,,,,,,,,,,,,,,,,,
,,,,,44945,1,2024-07-12_16h24.52.249,experiment,2024.1.5,MacIntel,63.69426752,6691931c2c63981b064e1f0c,6691bb1313c778c35283e6d5,,,13.127,13.1272,,,,,,,,,,,,,,,,,,,,,,,,,,,,,,,,,,,,,,,,,,,,,,,,,,,,,,,,,,,,,,,,,,,,,,,,,,,,,,,,,,,,,,,,,,,,,,,,,,,,,,,,,,,,,,,,,,,,,,,,,
,,,,,44945,1,2024-07-12_16h24.52.249,experiment,2024.1.5,MacIntel,63.69426752,6691931c2c63981b064e1f0c,6691bb1313c778c35283e6d5,,,,,13.1297,18.6716,space,5.5345,,18.6726,40.04,"[-0.005045572916666667,-0.007642505787037037]","[-0.41251808449074073,-0.4196976273148148]","[1,1]","[0,0]","[0,0]","[12.78940000003577,18.21560000002384]","[""play_button"",""play_button""]",y,20.3434,,0.0,0.0,0.0,0.0,1.0,,,,,,,,,,,,,,,,,,,,,,,,,,,,,,,,,,,,,,,,,,,,,,,,,,,,,,,,,,,,,,,,,,,,,,,,,,,,,,,,,,,,,,,,,,,,,,,,,,,
,,,,,44945,1,2024-07-12_16h24.52.249,experiment,2024.1.5,MacIntel,63.69426752,6691931c2c63981b064e1f0c,6691bb1313c778c35283e6d5,,,,,,,,,,,,,,,,,,,,,,,,,,,40.0406,60.9883,space,20.9336,,60.9885,181.0014,181.0017,188.0834,right,3.5483,,188.0835,195.2686,space,7.1602,,195.2688,210.2839,0.215668403,-0.122110098,1.0,0.0,0.0,9.0006,compass_2,210.2841,211.7664,space,1.4695,,211.7666,211.7742,211.7886,223.5177,-0.142353877,-0.130081742,1.0,0.0,0.0,5.7172,compass,0.0,0.0,0.0,16.0,1.0,SoundStimuli/ItsAllInTheGame_TommyEdwards_Cover5S.wav,,,,,,,,,,,,,,,,,,,,,,,,,,,,,,,,,,,,,,,,,,,,,,,,,,,
,,,,,44945,1,2024-07-12_16h24.52.249,experiment,2024.1.5,MacIntel,63.69426752,6691931c2c63981b064e1f0c,6691bb1313c778c35283e6d5,,,,,,,,,,,,,,,,,,,,,,,,,,,,,,,,,,,,,,,,,,,,,,,,,,,,,,,,,,,,223.524,235.8659,0.119357639,0.196021412,1.0,0.0,0.0,6.3331,compass,0.0,1.0,1.0,1.0,1.0,SoundStimuli/Smooth_SantanaRobThomas_Original5S.wav,,,,,,,,,,,,,,,,,,,,,,,,,,,,,,,,,,,,,,,,,,,,,,,,,,,
,,,,,44945,1,2024-07-12_16h24.52.249,experiment,2024.1.5,MacIntel,63.69426752,6691931c2c63981b064e1f0c,6691bb1313c778c35283e6d5,,,,,,,,,,,,,,,,,,,,,,,,,,,,,,,,,,,,,,,,,,,,,,,,,,,,,,,,,,,,235.8722,242.4323,0.155465133,-0.133817998,1.0,0.0,0.0,0.5501,compass,0.0,2.0,2.0,33.0,1.0,SoundStimuli/TheBoyIsMine_BrandyMonica_Original5S.wav,,,,,,,,,,,,,,,,,,,,,,,,,,,,,,,,,,,,,,,,,,,,,,,,,,,
,,,,,44945,1,2024-07-12_16h24.52.249,experiment,2024.1.5,MacIntel,63.69426752,6691931c2c63981b064e1f0c,6691bb1313c778c35283e6d5,,,,,,,,,,,,,,,,,,,,,,,,,,,,,,,,,,,,,,,,,,,,,,,,,,,,,,,,,,,,242.4388,249.433,-0.16572989,-0.114836516,1.0,0.0,0.0,0.9845,compass,0.0,3.0,3.0,0.0,1.0,SoundStimuli/GimmeShelter_RollingStones_Original5S.wav,,,,,,,,,,,,,,,,,,,,,,,,,,,,,,,,,,,,,,,,,,,,,,,,,,,
,,,,,44945,1,2024-07-12_16h24.52.249,experiment,2024.1.5,MacIntel,63.69426752,6691931c2c63981b064e1f0c,6691bb1313c778c35283e6d5,,,,,,,,,,,,,,,,,,,,,,,,,,,,,,,,,,,,,,,,,,,,,,,,,,,,,,,,,,,,249.4392,255.8826,0.187912326,0.174678096,1.0,0.0,0.0,0.4337,compass,0.0,4.0,4.0,20.0,1.0,SoundStimuli/FlashdanceWhatAFeeling_IreneCara_Original5S.wav,,,,,,,,,,,,,,,,,,,,,,,,,,,,,,,,,,,,,,,,,,,,,,,,,,,
,,,,,44945,1,2024-07-12_16h24.52.249,experiment,2024.1.5,MacIntel,63.69426752,6691931c2c63981b064e1f0c,6691bb1313c778c35283e6d5,,,,,,,,,,,,,,,,,,,,,,,,,,,,,,,,,,,,,,,,,,,,,,,,,,,,,,,,,,,,255.8886,262.4815,-0.125824653,-0.167408131,1.0,0.0,0.0,0.5824,compass,0.0,5.0,5.0,18.0,1.0,SoundStimuli/Weak_SWV_Cover5S.wav,,,,,,,,,,,,,,,,,,,,,,,,,,,,,,,,,,,,,,,,,,,,,,,,,,,
,,,,,44945,1,2024-07-12_16h24.52.249,experiment,2024.1.5,MacIntel,63.69426752,6691931c2c63981b064e1f0c,6691bb1313c778c35283e6d5,,,,,,,,,,,,,,,,,,,,,,,,,,,,,,,,,,,,,,,,,,,,,,,,,,,,,,,,,,,,262.4893,268.5821,0.200669126,-0.148289207,1.0,0.0,0.0,0.0834,compass,0.0,6.0,6.0,29.0,1.0,SoundStimuli/BetteDavisEyes_KimCarnes_Original5S.wav,,,,,,,,,,,,,,,,,,,,,,,,,,,,,,,,,,,,,,,,,,,,,,,,,,,
,,,,,44945,1,2024-07-12_16h24.52.249,experiment,2024.1.5,MacIntel,63.69426752,6691931c2c63981b064e1f0c,6691bb1313c778c35283e6d5,,,,,,,,,,,,,,,,,,,,,,,,,,,,,,,,,,,,,,,,,,,,,,,,,,,,,,,,,,,,268.5888,280.7314,-0.149493634,-0.178602431,1.0,0.0,0.0,6.1329,compass,0.0,7.0,7.0,9.0,1.0,SoundStimuli/HowDoILive_LeAnnRimes_Cover5S.wav,,,,,,,,,,,,,,,,,,,,,,,,,,,,,,,,,,,,,,,,,,,,,,,,,,,
,,,,,44945,1,2024-07-12_16h24.52.249,experiment,2024.1.5,MacIntel,63.69426752,6691931c2c63981b064e1f0c,6691bb1313c778c35283e6d5,,,,,,,,,,,,,,,,,,,,,,,,,,,,,,,,,,,,,,,,,,,,,,,,,,,,,,,,,,,,280.7325,287.1476,-0.201157407,-0.177173756,1.0,0.0,0.0,0.3988,compass,0.0,8.0,8.0,6.0,1.0,SoundStimuli/SaveYourTears_TheWeekndArianaGrande_Cover5S.wav,,,,,,,,,,,,,,,,,,,,,,,,,,,,,,,,,,,,,,,,,,,,,,,,,,,
,,,,,44945,1,2024-07-12_16h24.52.249,experiment,2024.1.5,MacIntel,63.69426752,6691931c2c63981b064e1f0c,6691bb1313c778c35283e6d5,,,,,,,,,,,,,,,,,,,,,,,,,,,,,,,,,,,,,,,,,,,,,,,,,,,,,,,,,,,,287.156,293.6152,0.221958189,-0.178208189,1.0,0.0,0.0,0.4503,compass,0.0,9.0,9.0,13.0,1.0,SoundStimuli/Perfect_EdSheeran_Cover5S.wav,,,,,,,,,,,,,,,,,,,,,,,,,,,,,,,,,,,,,,,,,,,,,,,,,,,
,,,,,44945,1,2024-07-12_16h24.52.249,experiment,2024.1.5,MacIntel,63.69426752,6691931c2c63981b064e1f0c,6691bb1313c778c35283e6d5,,,,,,,,,,,,,,,,,,,,,,,,,,,,,,,,,,,,,,,,,,,,,,,,,,,,,,,,,,,,293.6248,299.9472,0.186606626,-0.166030093,1.0,0.0,0.0,0.3165,compass,0.0,10.0,10.0,32.0,1.0,SoundStimuli/Dilemma_NellyKellyRowland_Cover5S.wav,,,,,,,,,,,,,,,,,,,,,,,,,,,,,,,,,,,,,,,,,,,,,,,,,,,
,,,,,44945,1,2024-07-12_16h24.52.249,experiment,2024.1.5,MacIntel,63.69426752,6691931c2c63981b064e1f0c,6691bb1313c778c35283e6d5,,,,,,,,,,,,,,,,,,,,,,,,,,,,,,,,,,,,,,,,,,,,,,,,,,,,,,,,,,,,299.9561,306.6651,0.158004196,-0.137666377,1.0,0.0,0.0,0.7012,compass,0.0,11.0,11.0,11.0,1.0,SoundStimuli/BlurredLines_RobinThicke_Cover5S.wav,,,,,,,,,,,,,,,,,,,,,,,,,,,,,,,,,,,,,,,,,,,,,,,,,,,
,,,,,44945,1,2024-07-12_16h24.52.249,experiment,2024.1.5,MacIntel,63.69426752,6691931c2c63981b064e1f0c,6691bb1313c778c35283e6d5,,,,,,,,,,,,,,,,,,,,,,,,,,,,,,,,,,,,,,,,,,,,,,,,,,,,,,,,,,,,306.6734,313.2143,0.21854022,0.140657552,1.0,0.0,0.0,0.5338,compass,0.0,12.0,12.0,17.0,1.0,SoundStimuli/IWannaDanceWithSomebody_WhitneyHouston_Original5S.wav,,,,,,,,,,,,,,,,,,,,,,,,,,,,,,,,,,,,,,,,,,,,,,,,,,,
,,,,,44945,1,2024-07-12_16h24.52.249,experiment,2024.1.5,MacIntel,63.69426752,6691931c2c63981b064e1f0c,6691bb1313c778c35283e6d5,,,,,,,,,,,,,,,,,,,,,,,,,,,,,,,,,,,,,,,,,,,,,,,,,,,,,,,,,,,,313.2223,320.0639,0.145294416,-0.131188513,1.0,0.0,0.0,0.8327,compass,0.0,13.0,13.0,19.0,1.0,SoundStimuli/YouLightUpMyLife_DebbyBoone_Original5S.wav,,,,,,,,,,,,,,,,,,,,,,,,,,,,,,,,,,,,,,,,,,,,,,,,,,,
,,,,,44945,1,2024-07-12_16h24.52.249,experiment,2024.1.5,MacIntel,63.69426752,6691931c2c63981b064e1f0c,6691bb1313c778c35283e6d5,,,,,,,,,,,,,,,,,,,,,,,,,,,,,,,,,,,,,,,,,,,,,,,,,,,,,,,,,,,,320.0733,326.2649,0.16244213,-0.104835793,1.0,0.0,0.0,0.1838,compass,0.0,14.0,14.0,28.0,1.0,SoundStimuli/IWantToHoldYourHand_TheBeatles_Original5S.wav,,,,,,,,,,,,,,,,,,,,,,,,,,,,,,,,,,,,,,,,,,,,,,,,,,,
,,,,,44945,1,2024-07-12_16h24.52.249,experiment,2024.1.5,MacIntel,63.69426752,6691931c2c63981b064e1f0c,6691bb1313c778c35283e6d5,,,,,,,,,,,,,,,,,,,,,,,,,,,,,,,,,,,,,,,,,,,,,,,,,,,,,,,,,,,,326.2731,332.5805,-0.186046007,-0.183937355,1.0,0.0,0.0,0.3002,compass,0.0,15.0,15.0,12.0,1.0,SoundStimuli/UnbreakMyHeart_ToniBraxton_Original5S.wav,,,,,,,,,,,,,,,,,,,,,,,,,,,,,,,,,,,,,,,,,,,,,,,,,,,
,,,,,44945,1,2024-07-12_16h24.52.249,experiment,2024.1.5,MacIntel,63.69426752,6691931c2c63981b064e1f0c,6691bb1313c778c35283e6d5,,,,,,,,,,,,,,,,,,,,,,,,,,,,,,,,,,,,,,,,,,,,,,,,,,,,,,,,,,,,332.5889,343.4149,0.293102575,0.190932436,1.0,0.0,0.0,4.8175,compass,0.0,16.0,16.0,3.0,1.0,SoundStimuli/PartyRockAnthem_LMFAO_Original5S.wav,,,,,,,,,,,,,,,,,,,,,,,,,,,,,,,,,,,,,,,,,,,,,,,,,,,
,,,,,44945,1,2024-07-12_16h24.52.249,experiment,2024.1.5,MacIntel,63.69426752,6691931c2c63981b064e1f0c,6691bb1313c778c35283e6d5,,,,,,,,,,,,,,,,,,,,,,,,,,,,,,,,,,,,,,,,,,,,,,,,,,,,,,,,,,,,343.4246,349.5966,-0.196401186,-0.150079572,1.0,0.0,0.0,0.166,compass,0.0,17.0,17.0,8.0,1.0,SoundStimuli/EndlessLove_DianaRossLionelRichie_Cover5S.wav,,,,,,,,,,,,,,,,,,,,,,,,,,,,,,,,,,,,,,,,,,,,,,,,,,,
,,,,,44945,1,2024-07-12_16h24.52.249,experiment,2024.1.5,MacIntel,63.69426752,6691931c2c63981b064e1f0c,6691bb1313c778c35283e6d5,,,,,,,,,,,,,,,,,,,,,,,,,,,,,,,,,,,,,,,,,,,,,,,,,,,,,,,,,,,,349.6044,356.4798,-0.12234158,0.147529659,1.0,0.0,0.0,0.8663,compass,0.0,18.0,18.0,26.0,1.0,SoundStimuli/TheSign_AceOfBase_Cover5S.wav,,,,,,,,,,,,,,,,,,,,,,,,,,,,,,,,,,,,,,,,,,,,,,,,,,,
,,,,,44945,1,2024-07-12_16h24.52.249,experiment,2024.1.5,MacIntel,63.69426752,6691931c2c63981b064e1f0c,6691bb1313c778c35283e6d5,,,,,,,,,,,,,,,,,,,,,,,,,,,,,,,,,,,,,,,,,,,,,,,,,,,,,,,,,,,,356.4875,363.0977,0.20447772,-0.183930122,1.0,0.0,0.0,0.601,compass,0.0,19.0,19.0,5.0,1.0,SoundStimuli/JoyToTheWorld_ThreeDogNight_Original5S.wav,,,,,,,,,,,,,,,,,,,,,,,,,,,,,,,,,,,,,,,,,,,,,,,,,,,
,,,,,44945,1,2024-07-12_16h24.52.249,experiment,2024.1.5,MacIntel,63.69426752,6691931c2c63981b064e1f0c,6691bb1313c778c35283e6d5,,,,,,,,,,,,,,,,,,,,,,,,,,,,,,,,,,,,,,,,,,,,,,,,,,,,,,,,,,,,363.1043,370.197,0.140954138,-0.157562934,1.0,0.0,0.0,1.0833,compass,0.0,20.0,20.0,34.0,1.0,SoundStimuli/Irreplaceable_Beyonce_Cover5S.wav,,,,,,,,,,,,,,,,,,,,,,,,,,,,,,,,,,,,,,,,,,,,,,,,,,,
,,,,,44945,1,2024-07-12_16h24.52.249,experiment,2024.1.5,MacIntel,63.69426752,6691931c2c63981b064e1f0c,6691bb1313c778c35283e6d5,,,,,,,,,,,,,,,,,,,,,,,,,,,,,,,,,,,,,,,,,,,,,,,,,,,,,,,,,,,,370.2047,376.7473,-0.143370226,-0.23432798,1.0,0.0,0.0,0.5334,compass,0.0,21.0,21.0,14.0,1.0,SoundStimuli/LikeARollingStone_BobDylan_Original5S.wav,,,,,,,,,,,,,,,,,,,,,,,,,,,,,,,,,,,,,,,,,,,,,,,,,,,
,,,,,44945,1,2024-07-12_16h24.52.249,experiment,2024.1.5,MacIntel,63.69426752,6691931c2c63981b064e1f0c,6691bb1313c778c35283e6d5,,,,,,,,,,,,,,,,,,,,,,,,,,,,,,,,,,,,,,,,,,,,,,,,,,,,,,,,,,,,376.756,384.1132,0.194194878,-0.190928819,1.0,0.0,0.0,1.3497,compass,0.0,22.0,22.0,27.0,1.0,SoundStimuli/EyeOfTheTiger_Survivor_Cover5S.wav,,,,,,,,,,,,,,,,,,,,,,,,,,,,,,,,,,,,,,,,,,,,,,,,,,,
,,,,,44945,1,2024-07-12_16h24.52.249,experiment,2024.1.5,MacIntel,63.69426752,6691931c2c63981b064e1f0c,6691bb1313c778c35283e6d5,,,,,,,,,,,,,,,,,,,,,,,,,,,,,,,,,,,,,,,,,,,,,,,,,,,,,,,,,,,,384.1215,390.397,0.246137153,-0.100444878,1.0,0.0,0.0,0.2669,compass,0.0,23.0,23.0,31.0,1.0,SoundStimuli/TossinAndTurnin_BobbyLewis_Original5S.wav,,,,,,,,,,,,,,,,,,,,,,,,,,,,,,,,,,,,,,,,,,,,,,,,,,,
,,,,,44945,1,2024-07-12_16h24.52.249,experiment,2024.1.5,MacIntel,63.69426752,6691931c2c63981b064e1f0c,6691bb1313c778c35283e6d5,,,,,,,,,,,,,,,,,,,,,,,,,,,,,,,,,,,,,,,,,,,,,,,,,,,,,,,,,,,,390.4055,399.4631,-0.087485532,-0.124981916,1.0,0.0,0.0,3.0484,compass,0.0,24.0,24.0,23.0,1.0,SoundStimuli/IWalkTheLine_JohnnyCash_Original5S.wav,,,,,,,,,,,,,,,,,,,,,,,,,,,,,,,,,,,,,,,,,,,,,,,,,,,
,,,,,44945,1,2024-07-12_16h24.52.249,experiment,2024.1.5,MacIntel,63.69426752,6691931c2c63981b064e1f0c,6691bb1313c778c35283e6d5,,,,,,,,,,,,,,,,,,,,,,,,,,,,,,,,,,,,,,,,,,,,,,,,,,,,,,,,,,,,399.4715,405.8147,-0.129973235,0.151851852,1.0,0.0,0.0,0.3344,compass,0.0,25.0,25.0,10.0,1.0,SoundStimuli/LeFreak_Chic_Cover5S.wav,,,,,,,,,,,,,,,,,,,,,,,,,,,,,,,,,,,,,,,,,,,,,,,,,,,
,,,,,44945,1,2024-07-12_16h24.52.249,experiment,2024.1.5,MacIntel,63.69426752,6691931c2c63981b064e1f0c,6691bb1313c778c35283e6d5,,,,,,,,,,,,,,,,,,,,,,,,,,,,,,,,,,,,,,,,,,,,,,,,,,,,,,,,,,,,405.823,412.881,-0.09983724,-0.174692564,1.0,0.0,0.0,1.0507,compass,0.0,26.0,26.0,21.0,1.0,SoundStimuli/BridgeOverTroubledWater_SimonAndGarfunkel_Original5S.wav,,,,,,,,,,,,,,,,,,,,,,,,,,,,,,,,,,,,,,,,,,,,,,,,,,,
,,,,,44945,1,2024-07-12_16h24.52.249,experiment,2024.1.5,MacIntel,63.69426752,6691931c2c63981b064e1f0c,6691bb1313c778c35283e6d5,,,,,,,,,,,,,,,,,,,,,,,,,,,,,,,,,,,,,,,,,,,,,,,,,,,,,,,,,,,,412.8891,419.0975,0.224616609,0.062868924,1.0,0.0,0.0,0.2004,compass,0.0,27.0,27.0,15.0,1.0,SoundStimuli/CrazyInLove_BeyonceFtJayZ_Cover5S.wav,,,,,,,,,,,,,,,,,,,,,,,,,,,,,,,,,,,,,,,,,,,,,,,,,,,
,,,,,44945,1,2024-07-12_16h24.52.249,experiment,2024.1.5,MacIntel,63.69426752,6691931c2c63981b064e1f0c,6691bb1313c778c35283e6d5,,,,,,,,,,,,,,,,,,,,,,,,,,,,,,,,,,,,,,,,,,,,,,,,,,,,,,,,,,,,419.1052,425.4811,0.214861834,0.139695457,1.0,0.0,0.0,0.3665,compass,0.0,28.0,28.0,22.0,1.0,SoundStimuli/Happy_PharellWilliams_Original5S.wav,,,,,,,,,,,,,,,,,,,,,,,,,,,,,,,,,,,,,,,,,,,,,,,,,,,
,,,,,44945,1,2024-07-12_16h24.52.249,experiment,2024.1.5,MacIntel,63.69426752,6691931c2c63981b064e1f0c,6691bb1313c778c35283e6d5,,,,,,,,,,,,,,,,,,,,,,,,,,,,,,,,,,,,,,,,,,,,,,,,,,,,,,,,,,,,425.4902,431.8141,-0.166619647,-0.150188079,1.0,0.0,0.0,0.3171,compass,0.0,29.0,29.0,25.0,1.0,SoundStimuli/IllMakeLoveToYou_BoyzIIMen_Cover5S.wav,,,,,,,,,,,,,,,,,,,,,,,,,,,,,,,,,,,,,,,,,,,,,,,,,,,
,,,,,44945,1,2024-07-12_16h24.52.249,experiment,2024.1.5,MacIntel,63.69426752,6691931c2c63981b064e1f0c,6691bb1313c778c35283e6d5,,,,,,,,,,,,,,,,,,,,,,,,,,,,,,,,,,,,,,,,,,,,,,,,,,,,,,,,,,,,431.8225,438.331,0.168793403,-0.138664641,1.0,0.0,0.0,0.5003,compass,0.0,30.0,30.0,4.0,1.0,SoundStimuli/Dreams_FleetwoodMac_Original5S.wav,,,,,,,,,,,,,,,,,,,,,,,,,,,,,,,,,,,,,,,,,,,,,,,,,,,
,,,,,44945,1,2024-07-12_16h24.52.249,experiment,2024.1.5,MacIntel,63.69426752,6691931c2c63981b064e1f0c,6691bb1313c778c35283e6d5,,,,,,,,,,,,,,,,,,,,,,,,,,,,,,,,,,,,,,,,,,,,,,,,,,,,,,,,,,,,438.3388,444.7137,-0.176414207,-0.20135272,1.0,0.0,0.0,0.3663,compass,0.0,31.0,31.0,30.0,1.0,SoundStimuli/SomebodyThatIUsedtoKnow_Gotye_Original5S.wav,,,,,,,,,,,,,,,,,,,,,,,,,,,,,,,,,,,,,,,,,,,,,,,,,,,
,,,,,44945,1,2024-07-12_16h24.52.249,experiment,2024.1.5,MacIntel,63.69426752,6691931c2c63981b064e1f0c,6691bb1313c778c35283e6d5,,,,,,,,,,,,,,,,,,,,,,,,,,,,,,,,,,,,,,,,,,,,,,,,,,,,,,,,,,,,444.7216,451.0471,-0.14567419,0.169350405,1.0,0.0,0.0,0.316,compass,0.0,32.0,32.0,2.0,1.0,SoundStimuli/SmellsLikeTeenSpirit_Nirvana_Original5S.wav,,,,,,,,,,,,,,,,,,,,,,,,,,,,,,,,,,,,,,,,,,,,,,,,,,,
,,,,,44945,1,2024-07-12_16h24.52.249,experiment,2024.1.5,MacIntel,63.69426752,6691931c2c63981b064e1f0c,6691bb1313c778c35283e6d5,,,,,,,,,,,,,,,,,,,,,,,,,,,,,,,,,,,,,,,,,,,,,,,,,,,,,,,,,,,,451.055,457.5302,-0.20339265,-0.247594763,1.0,0.0,0.0,0.4666,compass,0.0,33.0,33.0,24.0,1.0,SoundStimuli/Kiss_Prince_Cover5S.wav,,,,,,,,,,,,,,,,,,,,,,,,,,,,,,,,,,,,,,,,,,,,,,,,,,,
,,,,,44945,1,2024-07-12_16h24.52.249,experiment,2024.1.5,MacIntel,63.69426752,6691931c2c63981b064e1f0c,6691bb1313c778c35283e6d5,,,,,,,,,,,,,,,,,,,,,,,,,,,,,,,,,,,,,,,,,,,,,,,,,,,,,,,,,,,,457.54,463.9314,-0.140353733,0.086736834,1.0,0.0,0.0,0.3834,compass,0.0,34.0,34.0,7.0,1.0,SoundStimuli/MackTheKnife_BobbyDarin_Cover5S.wav,,,,,,,,,,,,,,,,,,,,,,,,,,,,,,,,,,,,,,,,,,,,,,,,,,,
,,,,,44945,1,2024-07-12_16h24.52.249,experiment,2024.1.5,MacIntel,63.69426752,6691931c2c63981b064e1f0c,6691bb1313c778c35283e6d5,,,,,,,,,,,,,,,,,,,,,,,,,,,,,,,,,,,,,,,,,,,,,,,,,,,,,,,,,,,,,,,,,,,,,,,,,,,463.9402,465.9135,space,1.9532,,465.9136,471.0803,right,5.1561,,0.0,0.0,0.0,0.0,1.0,block_order/blockD.xlsx,,,,,,,,,,,,,,,,,,,,,,,,,,,,,,,,,,,
,,,,,44945,1,2024-07-12_16h24.52.249,experiment,2024.1.5,MacIntel,63.69426752,6691931c2c63981b064e1f0c,6691bb1313c778c35283e6d5,,,,,,,,,,,,,,,,,,,,,,,,,,,,,,,,,,,,,,,,,,,,,,,,,,,,,,,,,,,,471.0955,477.3137,0.183192274,-0.168305122,1.0,0.0,0.0,0.2169,compass,0.0,0.0,0.0,14.0,1.0,SoundStimuli/BlindingLights_TheWeeknd_Cover5S.wav,,,,,,,,,,,,,,,,,,,,,,,,,,,,,,,,,,,,,,,,,,,,,,,,,,,
,,,,,44945,1,2024-07-12_16h24.52.249,experiment,2024.1.5,MacIntel,63.69426752,6691931c2c63981b064e1f0c,6691bb1313c778c35283e6d5,,,,,,,,,,,,,,,,,,,,,,,,,,,,,,,,,,,,,,,,,,,,,,,,,,,,,,,,,,,,477.3227,483.9816,0.179633247,0.140831163,1.0,0.0,0.0,0.651,compass,0.0,1.0,1.0,2.0,1.0,SoundStimuli/Mood_24kGoldnianndior_Original5S.wav,,,,,,,,,,,,,,,,,,,,,,,,,,,,,,,,,,,,,,,,,,,,,,,,,,,
,,,,,44945,1,2024-07-12_16h24.52.249,experiment,2024.1.5,MacIntel,63.69426752,6691931c2c63981b064e1f0c,6691bb1313c778c35283e6d5,,,,,,,,,,,,,,,,,,,,,,,,,,,,,,,,,,,,,,,,,,,,,,,,,,,,,,,,,,,,483.9903,490.4139,-0.074508102,-0.137691696,1.0,0.0,0.0,0.4161,compass,0.0,2.0,2.0,17.0,1.0,SoundStimuli/Fallin_AliciaKeys_Cover5S.wav,,,,,,,,,,,,,,,,,,,,,,,,,,,,,,,,,,,,,,,,,,,,,,,,,,,
,,,,,44945,1,2024-07-12_16h24.52.249,experiment,2024.1.5,MacIntel,63.69426752,6691931c2c63981b064e1f0c,6691bb1313c778c35283e6d5,,,,,,,,,,,,,,,,,,,,,,,,,,,,,,,,,,,,,,,,,,,,,,,,,,,,,,,,,,,,490.4219,496.5804,-0.200108507,0.172370515,1.0,0.0,0.0,0.149,compass,0.0,3.0,3.0,23.0,1.0,SoundStimuli/StrawberryFieldsForever_TheBeatles_Cover5S.wav,,,,,,,,,,,,,,,,,,,,,,,,,,,,,,,,,,,,,,,,,,,,,,,,,,,
,,,,,44945,1,2024-07-12_16h24.52.249,experiment,2024.1.5,MacIntel,63.69426752,6691931c2c63981b064e1f0c,6691bb1313c778c35283e6d5,,,,,,,,,,,,,,,,,,,,,,,,,,,,,,,,,,,,,,,,,,,,,,,,,,,,,,,,,,,,496.5883,503.6978,0.159277344,-0.152242477,1.0,0.0,0.0,1.1006,compass,0.0,4.0,4.0,0.0,1.0,SoundStimuli/StayinAlive_BeeGees_Cover5S.wav,,,,,,,,,,,,,,,,,,,,,,,,,,,,,,,,,,,,,,,,,,,,,,,,,,,
,,,,,44945,1,2024-07-12_16h24.52.249,experiment,2024.1.5,MacIntel,63.69426752,6691931c2c63981b064e1f0c,6691bb1313c778c35283e6d5,,,,,,,,,,,,,,,,,,,,,,,,,,,,,,,,,,,,,,,,,,,,,,,,,,,,,,,,,,,,503.7064,510.0807,0.186241319,0.136848958,1.0,0.0,0.0,0.3663,compass,0.0,5.0,5.0,11.0,1.0,SoundStimuli/Superstition_StevieWonder_Original5S.wav,,,,,,,,,,,,,,,,,,,,,,,,,,,,,,,,,,,,,,,,,,,,,,,,,,,
,,,,,44945,1,2024-07-12_16h24.52.249,experiment,2024.1.5,MacIntel,63.69426752,6691931c2c63981b064e1f0c,6691bb1313c778c35283e6d5,,,,,,,,,,,,,,,,,,,,,,,,,,,,,,,,,,,,,,,,,,,,,,,,,,,,,,,,,,,,510.0892,516.6147,-0.057512297,-0.117484086,1.0,0.0,0.0,0.5168,compass,0.0,6.0,6.0,32.0,1.0,SoundStimuli/HeatWaves_GlassAnimals_Cover5S.wav,,,,,,,,,,,,,,,,,,,,,,,,,,,,,,,,,,,,,,,,,,,,,,,,,,,
,,,,,44945,1,2024-07-12_16h24.52.249,experiment,2024.1.5,MacIntel,63.69426752,6691931c2c63981b064e1f0c,6691bb1313c778c35283e6d5,,,,,,,,,,,,,,,,,,,,,,,,,,,,,,,,,,,,,,,,,,,,,,,,,,,,,,,,,,,,516.6233,522.948,0.200455729,0.111074942,1.0,0.0,0.0,0.3171,compass,0.0,7.0,7.0,24.0,1.0,SoundStimuli/UptownFunk_MarkRonson_Cover5S.wav,,,,,,,,,,,,,,,,,,,,,,,,,,,,,,,,,,,,,,,,,,,,,,,,,,,
,,,,,44945,1,2024-07-12_16h24.52.249,experiment,2024.1.5,MacIntel,63.69426752,6691931c2c63981b064e1f0c,6691bb1313c778c35283e6d5,,,,,,,,,,,,,,,,,,,,,,,,,,,,,,,,,,,,,,,,,,,,,,,,,,,,,,,,,,,,522.9557,529.2314,-0.132523148,-0.144712095,1.0,0.0,0.0,0.2676,compass,0.0,8.0,8.0,33.0,1.0,SoundStimuli/StandByMe_BenEKing_Original5S.wav,,,,,,,,,,,,,,,,,,,,,,,,,,,,,,,,,,,,,,,,,,,,,,,,,,,
,,,,,44945,1,2024-07-12_16h24.52.249,experiment,2024.1.5,MacIntel,63.69426752,6691931c2c63981b064e1f0c,6691bb1313c778c35283e6d5,,,,,,,,,,,,,,,,,,,,,,,,,,,,,,,,,,,,,,,,,,,,,,,,,,,,,,,,,,,,529.2364,535.548,-0.132092737,-0.166279659,1.0,0.0,0.0,0.2997,compass,0.0,9.0,9.0,10.0,1.0,SoundStimuli/BadDay_DanielPowter_Original5S.wav,,,,,,,,,,,,,,,,,,,,,,,,,,,,,,,,,,,,,,,,,,,,,,,,,,,
,,,,,44945,1,2024-07-12_16h24.52.249,experiment,2024.1.5,MacIntel,63.69426752,6691931c2c63981b064e1f0c,6691bb1313c778c35283e6d5,,,,,,,,,,,,,,,,,,,,,,,,,,,,,,,,,,,,,,,,,,,,,,,,,,,,,,,,,,,,535.5573,542.298,0.171317998,-0.212619358,1.0,0.0,0.0,0.7336,compass,0.0,10.0,10.0,30.0,1.0,SoundStimuli/PokerFace_LadyGaga_Cover5S.wav,,,,,,,,,,,,,,,,,,,,,,,,,,,,,,,,,,,,,,,,,,,,,,,,,,,
,,,,,44945,1,2024-07-12_16h24.52.249,experiment,2024.1.5,MacIntel,63.69426752,6691931c2c63981b064e1f0c,6691bb1313c778c35283e6d5,,,,,,,,,,,,,,,,,,,,,,,,,,,,,,,,,,,,,,,,,,,,,,,,,,,,,,,,,,,,542.3071,548.6149,-0.137279369,-0.203714554,1.0,0.0,0.0,0.3005,compass,0.0,11.0,11.0,13.0,1.0,SoundStimuli/GodOnlyKnows_TheBeachBoys_Original5S.wav,,,,,,,,,,,,,,,,,,,,,,,,,,,,,,,,,,,,,,,,,,,,,,,,,,,
,,,,,44945,1,2024-07-12_16h24.52.249,experiment,2024.1.5,MacIntel,63.69426752,6691931c2c63981b064e1f0c,6691bb1313c778c35283e6d5,,,,,,,,,,,,,,,,,,,,,,,,,,,,,,,,,,,,,,,,,,,,,,,,,,,,,,,,,,,,548.6234,562.5475,0.142165799,-0.218174913,1.0,0.0,0.0,7.9162,compass,0.0,12.0,12.0,29.0,1.0,SoundStimuli/OldTownRoad_LilNasX_Cover5S.wav,,,,,,,,,,,,,,,,,,,,,,,,,,,,,,,,,,,,,,,,,,,,,,,,,,,
,,,,,44945,1,2024-07-12_16h24.52.249,experiment,2024.1.5,MacIntel,63.69426752,6691931c2c63981b064e1f0c,6691bb1313c778c35283e6d5,,,,,,,,,,,,,,,,,,,,,,,,,,,,,,,,,,,,,,,,,,,,,,,,,,,,,,,,,,,,562.5563,568.6313,-0.224034288,0.193449797,1.0,0.0,0.0,0.0671,compass,0.0,13.0,13.0,28.0,1.0,SoundStimuli/ComeAndGetYourLove_Redbone_Cover5S.wav,,,,,,,,,,,,,,,,,,,,,,,,,,,,,,,,,,,,,,,,,,,,,,,,,,,
,,,,,44945,1,2024-07-12_16h24.52.249,experiment,2024.1.5,MacIntel,63.69426752,6691931c2c63981b064e1f0c,6691bb1313c778c35283e6d5,,,,,,,,,,,,,,,,,,,,,,,,,,,,,,,,,,,,,,,,,,,,,,,,,,,,,,,,,,,,568.6392,581.764,-0.239022714,-0.072352431,1.0,0.0,0.0,7.1163,compass,0.0,14.0,14.0,5.0,1.0,SoundStimuli/MyGirl_TheTemptations_Cover5S.wav,,,,,,,,,,,,,,,,,,,,,,,,,,,,,,,,,,,,,,,,,,,,,,,,,,,
,,,,,44945,1,2024-07-12_16h24.52.249,experiment,2024.1.5,MacIntel,63.69426752,6691931c2c63981b064e1f0c,6691bb1313c778c35283e6d5,,,,,,,,,,,,,,,,,,,,,,,,,,,,,,,,,,,,,,,,,,,,,,,,,,,,,,,,,,,,581.7722,607.7816,,,,,,,,0.0,15.0,15.0,7.0,1.0,SoundStimuli/NoOne_AliciaKeys_Original5S.wav,,,,,,,,,,,,,,,,,,,,,,,,,,,,,,,,,,,,,,,,,,,,,,,,,,,
,,,,,44945,1,2024-07-12_16h24.52.249,experiment,2024.1.5,MacIntel,63.69426752,6691931c2c63981b064e1f0c,6691bb1313c778c35283e6d5,,,,,,,,,,,,,,,,,,,,,,,,,,,,,,,,,,,,,,,,,,,,,,,,,,,,,,,,,,,,607.7926,615.9982,0.19786603,0.15910735,1.0,0.0,0.0,2.2006,compass,0.0,16.0,16.0,15.0,1.0,SoundStimuli/TikTok_Kesha_Original5S.wav,,,,,,,,,,,,,,,,,,,,,,,,,,,,,,,,,,,,,,,,,,,,,,,,,,,
,,,,,44945,1,2024-07-12_16h24.52.249,experiment,2024.1.5,MacIntel,63.69426752,6691931c2c63981b064e1f0c,6691bb1313c778c35283e6d5,,,,,,,,,,,,,,,,,,,,,,,,,,,,,,,,,,,,,,,,,,,,,,,,,,,,,,,,,,,,616.0061,622.6473,-0.232335069,-0.180884693,1.0,0.0,0.0,0.6331,compass,0.0,17.0,17.0,18.0,1.0,SoundStimuli/AnotherOneBitesTheDust_Queen_Cover5S.wav,,,,,,,,,,,,,,,,,,,,,,,,,,,,,,,,,,,,,,,,,,,,,,,,,,,
,,,,,44945,1,2024-07-12_16h24.52.249,experiment,2024.1.5,MacIntel,63.69426752,6691931c2c63981b064e1f0c,6691bb1313c778c35283e6d5,,,,,,,,,,,,,,,,,,,,,,,,,,,,,,,,,,,,,,,,,,,,,,,,,,,,,,,,,,,,622.6551,628.8479,-0.15718316,0.083112703,1.0,0.0,0.0,0.1836,compass,0.0,18.0,18.0,21.0,1.0,SoundStimuli/GoodGollyMissMolly_LittleRichard_Original5S.wav,,,,,,,,,,,,,,,,,,,,,,,,,,,,,,,,,,,,,,,,,,,,,,,,,,,
,,,,,44945,1,2024-07-12_16h24.52.249,experiment,2024.1.5,MacIntel,63.69426752,6691931c2c63981b064e1f0c,6691bb1313c778c35283e6d5,,,,,,,,,,,,,,,,,,,,,,,,,,,,,,,,,,,,,,,,,,,,,,,,,,,,,,,,,,,,628.8557,635.7474,0.129691117,-0.217006655,1.0,0.0,0.0,0.883,compass,0.0,19.0,19.0,8.0,1.0,SoundStimuli/LikeAPrayer_Madonna_Cover5S.wav,,,,,,,,,,,,,,,,,,,,,,,,,,,,,,,,,,,,,,,,,,,,,,,,,,,
,,,,,44945,1,2024-07-12_16h24.52.249,experiment,2024.1.5,MacIntel,63.69426752,6691931c2c63981b064e1f0c,6691bb1313c778c35283e6d5,,,,,,,,,,,,,,,,,,,,,,,,,,,,,,,,,,,,,,,,,,,,,,,,,,,,,,,,,,,,635.7555,647.0317,0.16593967,-0.193308738,1.0,0.0,0.0,5.2665,compass,0.0,20.0,20.0,3.0,1.0,SoundStimuli/NoScrubs_TLC_Cover5S.wav,,,,,,,,,,,,,,,,,,,,,,,,,,,,,,,,,,,,,,,,,,,,,,,,,,,
,,,,,44945,1,2024-07-12_16h24.52.249,experiment,2024.1.5,MacIntel,63.69426752,6691931c2c63981b064e1f0c,6691bb1313c778c35283e6d5,,,,,,,,,,,,,,,,,,,,,,,,,,,,,,,,,,,,,,,,,,,,,,,,,,,,,,,,,,,,647.0396,653.0811,0.213284867,0.111820023,1.0,0.0,0.0,0.0327,compass,0.0,21.0,21.0,26.0,1.0,SoundStimuli/LivinOnAPrayer_BonJovi_Original5S.wav,,,,,,,,,,,,,,,,,,,,,,,,,,,,,,,,,,,,,,,,,,,,,,,,,,,
,,,,,44945,1,2024-07-12_16h24.52.249,experiment,2024.1.5,MacIntel,63.69426752,6691931c2c63981b064e1f0c,6691bb1313c778c35283e6d5,,,,,,,,,,,,,,,,,,,,,,,,,,,,,,,,,,,,,,,,,,,,,,,,,,,,,,,,,,,,653.0892,659.5988,0.108543113,-0.167042824,1.0,0.0,0.0,0.5009,compass,0.0,22.0,22.0,4.0,1.0,SoundStimuli/GetUrFreakOn_MissyElliot_Cover5S.wav,,,,,,,,,,,,,,,,,,,,,,,,,,,,,,,,,,,,,,,,,,,,,,,,,,,
,,,,,44945,1,2024-07-12_16h24.52.249,experiment,2024.1.5,MacIntel,63.69426752,6691931c2c63981b064e1f0c,6691bb1313c778c35283e6d5,,,,,,,,,,,,,,,,,,,,,,,,,,,,,,,,,,,,,,,,,,,,,,,,,,,,,,,,,,,,659.6073,666.1658,0.230598958,-0.223777488,1.0,0.0,0.0,0.5509,compass,0.0,23.0,23.0,12.0,1.0,SoundStimuli/IWillAlwaysLoveYou_WhitneyHouston_Original5S.wav,,,,,,,,,,,,,,,,,,,,,,,,,,,,,,,,,,,,,,,,,,,,,,,,,,,
,,,,,44945,1,2024-07-12_16h24.52.249,experiment,2024.1.5,MacIntel,63.69426752,6691931c2c63981b064e1f0c,6691bb1313c778c35283e6d5,,,,,,,,,,,,,,,,,,,,,,,,,,,,,,,,,,,,,,,,,,,,,,,,,,,,,,,,,,,,666.1745,672.7156,-0.185658999,-0.238780382,1.0,0.0,0.0,0.5336,compass,0.0,24.0,24.0,34.0,1.0,SoundStimuli/AChangeIsGonnaCome_SamCooke_Original5S.wav,,,,,,,,,,,,,,,,,,,,,,,,,,,,,,,,,,,,,,,,,,,,,,,,,,,
,,,,,44945,1,2024-07-12_16h24.52.249,experiment,2024.1.5,MacIntel,63.69426752,6691931c2c63981b064e1f0c,6691bb1313c778c35283e6d5,,,,,,,,,,,,,,,,,,,,,,,,,,,,,,,,,,,,,,,,,,,,,,,,,,,,,,,,,,,,672.7235,681.3142,-0.355287905,-0.215024595,1.0,0.0,0.0,1.5168,compass,0.0,25.0,25.0,19.0,1.0,SoundStimuli/LetsGetItOn_MarvinGaye_Original5S.wav,,,,,,,,,,,,,,,,,,,,,,,,,,,,,,,,,,,,,,,,,,,,,,,,,,,
,,,,,44945,1,2024-07-12_16h24.52.249,experiment,2024.1.5,MacIntel,63.69426752,6691931c2c63981b064e1f0c,6691bb1313c778c35283e6d5,,,,,,,,,,,,,,,,,,,,,,,,,,,,,,,,,,,,,,,,,,,,,,,,,,,,,,,,,,,,681.32,687.7815,0.163708044,-0.163245081,1.0,0.0,0.0,0.4491,compass,0.0,26.0,26.0,6.0,1.0,SoundStimuli/Levitating_DuaLipa_Original5S.wav,,,,,,,,,,,,,,,,,,,,,,,,,,,,,,,,,,,,,,,,,,,,,,,,,,,
,,,,,44945,1,2024-07-12_16h24.52.249,experiment,2024.1.5,MacIntel,63.69426752,6691931c2c63981b064e1f0c,6691bb1313c778c35283e6d5,,,,,,,,,,,,,,,,,,,,,,,,,,,,,,,,,,,,,,,,,,,,,,,,,,,,,,,,,,,,687.7897,700.1821,-0.093287037,-0.192006655,1.0,0.0,0.0,6.3832,compass,0.0,27.0,27.0,27.0,1.0,SoundStimuli/ShapeofYou_EdSheeran_Cover5S.wav,,,,,,,,,,,,,,,,,,,,,,,,,,,,,,,,,,,,,,,,,,,,,,,,,,,
,,,,,44945,1,2024-07-12_16h24.52.249,experiment,2024.1.5,MacIntel,63.69426752,6691931c2c63981b064e1f0c,6691bb1313c778c35283e6d5,,,,,,,,,,,,,,,,,,,,,,,,,,,,,,,,,,,,,,,,,,,,,,,,,,,,,,,,,,,,700.1903,707.065,-0.167343027,-0.168464265,1.0,0.0,0.0,0.866,compass,0.0,28.0,28.0,1.0,1.0,SoundStimuli/Stronger_KanyeWest_Cover5S.wav,,,,,,,,,,,,,,,,,,,,,,,,,,,,,,,,,,,,,,,,,,,,,,,,,,,
,,,,,44945,1,2024-07-12_16h24.52.249,experiment,2024.1.5,MacIntel,63.69426752,6691931c2c63981b064e1f0c,6691bb1313c778c35283e6d5,,,,,,,,,,,,,,,,,,,,,,,,,,,,,,,,,,,,,,,,,,,,,,,,,,,,,,,,,,,,707.0732,714.1149,0.171791811,0.147659867,1.0,0.0,0.0,1.0331,compass,0.0,29.0,29.0,20.0,1.0,SoundStimuli/HeyYa_Outkast_Original5S.wav,,,,,,,,,,,,,,,,,,,,,,,,,,,,,,,,,,,,,,,,,,,,,,,,,,,
,,,,,44945,1,2024-07-12_16h24.52.249,experiment,2024.1.5,MacIntel,63.69426752,6691931c2c63981b064e1f0c,6691bb1313c778c35283e6d5,,,,,,,,,,,,,,,,,,,,,,,,,,,,,,,,,,,,,,,,,,,,,,,,,,,,,,,,,,,,714.1237,721.7988,0.197634549,-0.054987703,1.0,0.0,0.0,1.6671,compass,0.0,30.0,30.0,31.0,1.0,SoundStimuli/TheBattleOfNewOrleans_JohnnyHorton_Original5S.wav,,,,,,,,,,,,,,,,,,,,,,,,,,,,,,,,,,,,,,,,,,,,,,,,,,,
,,,,,44945,1,2024-07-12_16h24.52.249,experiment,2024.1.5,MacIntel,63.69426752,6691931c2c63981b064e1f0c,6691bb1313c778c35283e6d5,,,,,,,,,,,,,,,,,,,,,,,,,,,,,,,,,,,,,,,,,,,,,,,,,,,,,,,,,,,,721.8073,728.5485,-0.180942564,0.167907263,1.0,0.0,0.0,0.7335,compass,0.0,31.0,31.0,25.0,1.0,SoundStimuli/Respect_ArethaFranklin_Cover5S.wav,,,,,,,,,,,,,,,,,,,,,,,,,,,,,,,,,,,,,,,,,,,,,,,,,,,
,,,,,44945,1,2024-07-12_16h24.52.249,experiment,2024.1.5,MacIntel,63.69426752,6691931c2c63981b064e1f0c,6691bb1313c778c35283e6d5,,,,,,,,,,,,,,,,,,,,,,,,,,,,,,,,,,,,,,,,,,,,,,,,,,,,,,,,,,,,728.557,734.965,0.179503038,-0.174699797,1.0,0.0,0.0,0.4002,compass,0.0,32.0,32.0,22.0,1.0,SoundStimuli/RockWithYou_MichaelJackson_Cover5S.wav,,,,,,,,,,,,,,,,,,,,,,,,,,,,,,,,,,,,,,,,,,,,,,,,,,,
,,,,,44945,1,2024-07-12_16h24.52.249,experiment,2024.1.5,MacIntel,63.69426752,6691931c2c63981b064e1f0c,6691bb1313c778c35283e6d5,,,,,,,,,,,,,,,,,,,,,,,,,,,,,,,,,,,,,,,,,,,,,,,,,,,,,,,,,,,,734.9736,745.7152,-0.135337095,-0.206741898,1.0,0.0,0.0,4.7331,compass,0.0,33.0,33.0,16.0,1.0,SoundStimuli/BohemianRhapsody_Queen_Cover5S.wav,,,,,,,,,,,,,,,,,,,,,,,,,,,,,,,,,,,,,,,,,,,,,,,,,,,
,,,,,44945,1,2024-07-12_16h24.52.249,experiment,2024.1.5,MacIntel,63.69426752,6691931c2c63981b064e1f0c,6691bb1313c778c35283e6d5,,,,,,,,,,,,,,,,,,,,,,,,,,,,,,,,,,,,,,,,,,,,,,,,,,,,,,,,,,,,745.7237,760.2985,-0.142223669,-0.19296875,1.0,0.0,0.0,8.5666,compass,0.0,34.0,34.0,9.0,1.0,SoundStimuli/Despacito_LuisFonsiDaddyYankee_Original5S.wav,,,,,,,,,,,,,,,,,,,,,,,,,,,,,,,,,,,,,,,,,,,,,,,,,,,
,,,,,44945,1,2024-07-12_16h24.52.249,experiment,2024.1.5,MacIntel,63.69426752,6691931c2c63981b064e1f0c,6691bb1313c778c35283e6d5,,,,,,,,,,,,,,,,,,,,,,,,,,,,,,,,,,,,,,,,,,,,,,,,,,,,,,,,,,,,,,,,,,,,,,,,,,,760.3069,796.4,space,36.0735,,796.4001,799.5828,right,3.1726,,0.0,1.0,1.0,1.0,1.0,block_order/blockC.xlsx,,,,,,,,,,,,,,,,,,,,,,,,,,,,,,,,,,,
,,,,,44945,1,2024-07-12_16h24.52.249,experiment,2024.1.5,MacIntel,63.69426752,6691931c2c63981b064e1f0c,6691bb1313c778c35283e6d5,,,,,,,,,,,,,,,,,,,,,,,,,,,,,,,,,,,,,,,,,,,,,,,,,,,,,,,,,,,,799.6018,806.2493,0.147330729,0.173187934,1.0,0.0,0.0,0.6333,compass,0.0,0.0,0.0,26.0,1.0,SoundStimuli/TheSign_AceOfBase_Original5S.wav,,,,,,,,,,,,,,,,,,,,,,,,,,,,,,,,,,,,,,,,,,,,,,,,,,,
,,,,,44945,1,2024-07-12_16h24.52.249,experiment,2024.1.5,MacIntel,63.69426752,6691931c2c63981b064e1f0c,6691bb1313c778c35283e6d5,,,,,,,,,,,,,,,,,,,,,,,,,,,,,,,,,,,,,,,,,,,,,,,,,,,,,,,,,,,,806.2576,812.6659,-0.186783854,-0.17166522,1.0,0.0,0.0,0.3996,compass,0.0,1.0,1.0,9.0,1.0,SoundStimuli/HowDoILive_LeAnnRimes_Original5S.wav,,,,,,,,,,,,,,,,,,,,,,,,,,,,,,,,,,,,,,,,,,,,,,,,,,,
,,,,,44945,1,2024-07-12_16h24.52.249,experiment,2024.1.5,MacIntel,63.69426752,6691931c2c63981b064e1f0c,6691bb1313c778c35283e6d5,,,,,,,,,,,,,,,,,,,,,,,,,,,,,,,,,,,,,,,,,,,,,,,,,,,,,,,,,,,,812.6744,827.3498,-0.196976273,-0.171053964,1.0,0.0,0.0,8.6663,compass,0.0,2.0,2.0,13.0,1.0,SoundStimuli/Perfect_EdSheeran_Original5S.wav,,,,,,,,,,,,,,,,,,,,,,,,,,,,,,,,,,,,,,,,,,,,,,,,,,,
,,,,,44945,1,2024-07-12_16h24.52.249,experiment,2024.1.5,MacIntel,63.69426752,6691931c2c63981b064e1f0c,6691bb1313c778c35283e6d5,,,,,,,,,,,,,,,,,,,,,,,,,,,,,,,,,,,,,,,,,,,,,,,,,,,,,,,,,,,,827.3586,833.7834,-0.175050637,0.151573351,1.0,0.0,0.0,0.4166,compass,0.0,3.0,3.0,31.0,1.0,SoundStimuli/TossinAndTurnin_BobbyLewis_Cover5S.wav,,,,,,,,,,,,,,,,,,,,,,,,,,,,,,,,,,,,,,,,,,,,,,,,,,,
,,,,,44945,1,2024-07-12_16h24.52.249,experiment,2024.1.5,MacIntel,63.69426752,6691931c2c63981b064e1f0c,6691bb1313c778c35283e6d5,,,,,,,,,,,,,,,,,,,,,,,,,,,,,,,,,,,,,,,,,,,,,,,,,,,,,,,,,,,,833.7919,843.166,-0.104282407,-0.161769387,1.0,0.0,0.0,3.3666,compass,0.0,4.0,4.0,25.0,1.0,SoundStimuli/IllMakeLoveToYou_BoyzIIMen_Original5S.wav,,,,,,,,,,,,,,,,,,,,,,,,,,,,,,,,,,,,,,,,,,,,,,,,,,,
,,,,,44945,1,2024-07-12_16h24.52.249,experiment,2024.1.5,MacIntel,63.69426752,6691931c2c63981b064e1f0c,6691bb1313c778c35283e6d5,,,,,,,,,,,,,,,,,,,,,,,,,,,,,,,,,,,,,,,,,,,,,,,,,,,,,,,,,,,,843.1737,849.7501,-0.143117043,-0.213270399,1.0,0.0,0.0,0.5665,compass,0.0,5.0,5.0,4.0,1.0,SoundStimuli/Dreams_FleetwoodMac_Cover5S.wav,,,,,,,,,,,,,,,,,,,,,,,,,,,,,,,,,,,,,,,,,,,,,,,,,,,
,,,,,44945,1,2024-07-12_16h24.52.249,experiment,2024.1.5,MacIntel,63.69426752,6691931c2c63981b064e1f0c,6691bb1313c778c35283e6d5,,,,,,,,,,,,,,,,,,,,,,,,,,,,,,,,,,,,,,,,,,,,,,,,,,,,,,,,,,,,849.7581,856.0666,0.192834925,-0.138237847,1.0,0.0,0.0,0.2995,compass,0.0,6.0,6.0,1.0,1.0,SoundStimuli/Smooth_SantanaRobThomas_Cover5S.wav,,,,,,,,,,,,,,,,,,,,,,,,,,,,,,,,,,,,,,,,,,,,,,,,,,,
,,,,,44945,1,2024-07-12_16h24.52.249,experiment,2024.1.5,MacIntel,63.69426752,6691931c2c63981b064e1f0c,6691bb1313c778c35283e6d5,,,,,,,,,,,,,,,,,,,,,,,,,,,,,,,,,,,,,,,,,,,,,,,,,,,,,,,,,,,,856.0751,862.4166,0.217856626,0.196976273,1.0,0.0,0.0,0.3325,compass,0.0,7.0,7.0,20.0,1.0,SoundStimuli/FlashdanceWhatAFeeling_IreneCara_Cover5S.wav,,,,,,,,,,,,,,,,,,,,,,,,,,,,,,,,,,,,,,,,,,,,,,,,,,,
,,,,,44945,1,2024-07-12_16h24.52.249,experiment,2024.1.5,MacIntel,63.69426752,6691931c2c63981b064e1f0c,6691bb1313c778c35283e6d5,,,,,,,,,,,,,,,,,,,,,,,,,,,,,,,,,,,,,,,,,,,,,,,,,,,,,,,,,,,,862.4246,868.8165,-0.131159578,-0.222967303,1.0,0.0,0.0,0.3835,compass,0.0,8.0,8.0,19.0,1.0,SoundStimuli/YouLightUpMyLife_DebbyBoone_Cover5S.wav,,,,,,,,,,,,,,,,,,,,,,,,,,,,,,,,,,,,,,,,,,,,,,,,,,,
,,,,,44945,1,2024-07-12_16h24.52.249,experiment,2024.1.5,MacIntel,63.69426752,6691931c2c63981b064e1f0c,6691bb1313c778c35283e6d5,,,,,,,,,,,,,,,,,,,,,,,,,,,,,,,,,,,,,,,,,,,,,,,,,,,,,,,,,,,,868.8241,875.2507,0.201692708,0.141438802,1.0,0.0,0.0,0.4176,compass,0.0,9.0,9.0,22.0,1.0,SoundStimuli/Happy_PharellWilliams_Cover5S.wav,,,,,,,,,,,,,,,,,,,,,,,,,,,,,,,,,,,,,,,,,,,,,,,,,,,
,,,,,44945,1,2024-07-12_16h24.52.249,experiment,2024.1.5,MacIntel,63.69426752,6691931c2c63981b064e1f0c,6691bb1313c778c35283e6d5,,,,,,,,,,,,,,,,,,,,,,,,,,,,,,,,,,,,,,,,,,,,,,,,,,,,,,,,,,,,875.26,881.5169,0.191644965,0.217614294,1.0,0.0,0.0,0.2502,compass,0.0,10.0,10.0,27.0,1.0,SoundStimuli/EyeOfTheTiger_Survivor_Original5S.wav,,,,,,,,,,,,,,,,,,,,,,,,,,,,,,,,,,,,,,,,,,,,,,,,,,,
,,,,,44945,1,2024-07-12_16h24.52.249,experiment,2024.1.5,MacIntel,63.69426752,6691931c2c63981b064e1f0c,6691bb1313c778c35283e6d5,,,,,,,,,,,,,,,,,,,,,,,,,,,,,,,,,,,,,,,,,,,,,,,,,,,,,,,,,,,,881.525,887.9172,-0.156712963,-0.227980324,1.0,0.0,0.0,0.3842,compass,0.0,11.0,11.0,29.0,1.0,SoundStimuli/BetteDavisEyes_KimCarnes_Cover5S.wav,,,,,,,,,,,,,,,,,,,,,,,,,,,,,,,,,,,,,,,,,,,,,,,,,,,
,,,,,44945,1,2024-07-12_16h24.52.249,experiment,2024.1.5,MacIntel,63.69426752,6691931c2c63981b064e1f0c,6691bb1313c778c35283e6d5,,,,,,,,,,,,,,,,,,,,,,,,,,,,,,,,,,,,,,,,,,,,,,,,,,,,,,,,,,,,887.9253,894.2672,0.202126736,-0.146487992,1.0,0.0,0.0,0.334,compass,0.0,12.0,12.0,14.0,1.0,SoundStimuli/LikeARollingStone_BobDylan_Cover5S.wav,,,,,,,,,,,,,,,,,,,,,,,,,,,,,,,,,,,,,,,,,,,,,,,,,,,
,,,,,44945,1,2024-07-12_16h24.52.249,experiment,2024.1.5,MacIntel,63.69426752,6691931c2c63981b064e1f0c,6691bb1313c778c35283e6d5,,,,,,,,,,,,,,,,,,,,,,,,,,,,,,,,,,,,,,,,,,,,,,,,,,,,,,,,,,,,894.2752,900.7502,-0.143970631,-0.221412037,1.0,0.0,0.0,0.4662,compass,0.0,13.0,13.0,6.0,1.0,SoundStimuli/SaveYourTears_TheWeekndArianaGrande_Original5S.wav,,,,,,,,,,,,,,,,,,,,,,,,,,,,,,,,,,,,,,,,,,,,,,,,,,,
,,,,,44945,1,2024-07-12_16h24.52.249,experiment,2024.1.5,MacIntel,63.69426752,6691931c2c63981b064e1f0c,6691bb1313c778c35283e6d5,,,,,,,,,,,,,,,,,,,,,,,,,,,,,,,,,,,,,,,,,,,,,,,,,,,,,,,,,,,,900.7588,907.0677,0.220240162,0.217216435,1.0,0.0,0.0,0.3006,compass,0.0,14.0,14.0,10.0,1.0,SoundStimuli/LeFreak_Chic_Original5S.wav,,,,,,,,,,,,,,,,,,,,,,,,,,,,,,,,,,,,,,,,,,,,,,,,,,,
,,,,,44945,1,2024-07-12_16h24.52.249,experiment,2024.1.5,MacIntel,63.69426752,6691931c2c63981b064e1f0c,6691bb1313c778c35283e6d5,,,,,,,,,,,,,,,,,,,,,,,,,,,,,,,,,,,,,,,,,,,,,,,,,,,,,,,,,,,,907.076,913.1336,0.233648003,0.156749132,1.0,0.0,0.0,0.0488,compass,0.0,15.0,15.0,15.0,1.0,SoundStimuli/CrazyInLove_BeyonceFtJayZ_Original5S.wav,,,,,,,,,,,,,,,,,,,,,,,,,,,,,,,,,,,,,,,,,,,,,,,,,,,
,,,,,44945,1,2024-07-12_16h24.52.249,experiment,2024.1.5,MacIntel,63.69426752,6691931c2c63981b064e1f0c,6691bb1313c778c35283e6d5,,,,,,,,,,,,,,,,,,,,,,,,,,,,,,,,,,,,,,,,,,,,,,,,,,,,,,,,,,,,913.1423,919.5507,-0.139879919,-0.164492911,1.0,0.0,0.0,0.4004,compass,0.0,16.0,16.0,30.0,1.0,SoundStimuli/SomebodyThatIUsedtoKnow_Gotye_Cover5S.wav,,,,,,,,,,,,,,,,,,,,,,,,,,,,,,,,,,,,,,,,,,,,,,,,,,,
,,,,,44945,1,2024-07-12_16h24.52.249,experiment,2024.1.5,MacIntel,63.69426752,6691931c2c63981b064e1f0c,6691bb1313c778c35283e6d5,,,,,,,,,,,,,,,,,,,,,,,,,,,,,,,,,,,,,,,,,,,,,,,,,,,,,,,,,,,,919.559,925.734,-0.144386574,-0.183767361,1.0,0.0,0.0,0.1667,compass,0.0,17.0,17.0,8.0,1.0,SoundStimuli/EndlessLove_DianaRossLionelRichie_Original5S.wav,,,,,,,,,,,,,,,,,,,,,,,,,,,,,,,,,,,,,,,,,,,,,,,,,,,
,,,,,44945,1,2024-07-12_16h24.52.249,experiment,2024.1.5,MacIntel,63.69426752,6691931c2c63981b064e1f0c,6691bb1313c778c35283e6d5,,,,,,,,,,,,,,,,,,,,,,,,,,,,,,,,,,,,,,,,,,,,,,,,,,,,,,,,,,,,925.7425,932.2169,-0.141431568,-0.188006366,1.0,0.0,0.0,0.4666,compass,0.0,18.0,18.0,18.0,1.0,SoundStimuli/Weak_SWV_Original5S.wav,,,,,,,,,,,,,,,,,,,,,,,,,,,,,,,,,,,,,,,,,,,,,,,,,,,
,,,,,44945,1,2024-07-12_16h24.52.249,experiment,2024.1.5,MacIntel,63.69426752,6691931c2c63981b064e1f0c,6691bb1313c778c35283e6d5,,,,,,,,,,,,,,,,,,,,,,,,,,,,,,,,,,,,,,,,,,,,,,,,,,,,,,,,,,,,932.2252,938.7002,0.186136429,-0.243952546,1.0,0.0,0.0,0.4666,compass,0.0,19.0,19.0,32.0,1.0,SoundStimuli/Dilemma_NellyKellyRowland_Original5S.wav,,,,,,,,,,,,,,,,,,,,,,,,,,,,,,,,,,,,,,,,,,,,,,,,,,,
,,,,,44945,1,2024-07-12_16h24.52.249,experiment,2024.1.5,MacIntel,63.69426752,6691931c2c63981b064e1f0c,6691bb1313c778c35283e6d5,,,,,,,,,,,,,,,,,,,,,,,,,,,,,,,,,,,,,,,,,,,,,,,,,,,,,,,,,,,,938.7084,945.2186,0.251616753,0.128739873,1.0,0.0,0.0,0.501,compass,0.0,20.0,20.0,33.0,1.0,SoundStimuli/TheBoyIsMine_BrandyMonica_Cover5S.wav,,,,,,,,,,,,,,,,,,,,,,,,,,,,,,,,,,,,,,,,,,,,,,,,,,,
,,,,,44945,1,2024-07-12_16h24.52.249,experiment,2024.1.5,MacIntel,63.69426752,6691931c2c63981b064e1f0c,6691bb1313c778c35283e6d5,,,,,,,,,,,,,,,,,,,,,,,,,,,,,,,,,,,,,,,,,,,,,,,,,,,,,,,,,,,,945.2272,951.6174,-0.098307292,-0.133170573,1.0,0.0,0.0,0.3831,compass,0.0,21.0,21.0,0.0,1.0,SoundStimuli/GimmeShelter_RollingStones_Cover5S.wav,,,,,,,,,,,,,,,,,,,,,,,,,,,,,,,,,,,,,,,,,,,,,,,,,,,
,,,,,44945,1,2024-07-12_16h24.52.249,experiment,2024.1.5,MacIntel,63.69426752,6691931c2c63981b064e1f0c,6691bb1313c778c35283e6d5,,,,,,,,,,,,,,,,,,,,,,,,,,,,,,,,,,,,,,,,,,,,,,,,,,,,,,,,,,,,951.6261,957.9346,0.209848814,0.156387442,1.0,0.0,0.0,0.3001,compass,0.0,22.0,22.0,11.0,1.0,SoundStimuli/BlurredLines_RobinThicke_Original5S.wav,,,,,,,,,,,,,,,,,,,,,,,,,,,,,,,,,,,,,,,,,,,,,,,,,,,
,,,,,44945,1,2024-07-12_16h24.52.249,experiment,2024.1.5,MacIntel,63.69426752,6691931c2c63981b064e1f0c,6691bb1313c778c35283e6d5,,,,,,,,,,,,,,,,,,,,,,,,,,,,,,,,,,,,,,,,,,,,,,,,,,,,,,,,,,,,957.9435,966.2019,-0.033836082,-0.092100694,1.0,0.0,0.0,2.2502,compass,0.0,23.0,23.0,17.0,1.0,SoundStimuli/IWannaDanceWithSomebody_WhitneyHouston_Cover5S.wav,,,,,,,,,,,,,,,,,,,,,,,,,,,,,,,,,,,,,,,,,,,,,,,,,,,
,,,,,44945,1,2024-07-12_16h24.52.249,experiment,2024.1.5,MacIntel,63.69426752,6691931c2c63981b064e1f0c,6691bb1313c778c35283e6d5,,,,,,,,,,,,,,,,,,,,,,,,,,,,,,,,,,,,,,,,,,,,,,,,,,,,,,,,,,,,966.2104,972.851,0.294549334,-0.171563947,1.0,0.0,0.0,0.6329,compass,0.0,24.0,24.0,24.0,1.0,SoundStimuli/Kiss_Prince_Original5S.wav,,,,,,,,,,,,,,,,,,,,,,,,,,,,,,,,,,,,,,,,,,,,,,,,,,,
,,,,,44945,1,2024-07-12_16h24.52.249,experiment,2024.1.5,MacIntel,63.69426752,6691931c2c63981b064e1f0c,6691bb1313c778c35283e6d5,,,,,,,,,,,,,,,,,,,,,,,,,,,,,,,,,,,,,,,,,,,,,,,,,,,,,,,,,,,,972.8594,979.2006,-0.175560619,-0.177455874,1.0,0.0,0.0,0.3332,compass,0.0,25.0,25.0,21.0,1.0,SoundStimuli/BridgeOverTroubledWater_SimonAndGarfunkel_Cover5S.wav,,,,,,,,,,,,,,,,,,,,,,,,,,,,,,,,,,,,,,,,,,,,,,,,,,,
,,,,,44945,1,2024-07-12_16h24.52.249,experiment,2024.1.5,MacIntel,63.69426752,6691931c2c63981b064e1f0c,6691bb1313c778c35283e6d5,,,,,,,,,,,,,,,,,,,,,,,,,,,,,,,,,,,,,,,,,,,,,,,,,,,,,,,,,,,,979.2057,985.352,0.193023003,-0.214688223,1.0,0.0,0.0,0.1342,compass,0.0,26.0,26.0,34.0,1.0,SoundStimuli/Irreplaceable_Beyonce_Original5S.wav,,,,,,,,,,,,,,,,,,,,,,,,,,,,,,,,,,,,,,,,,,,,,,,,,,,
,,,,,44945,1,2024-07-12_16h24.52.249,experiment,2024.1.5,MacIntel,63.69426752,6691931c2c63981b064e1f0c,6691bb1313c778c35283e6d5,,,,,,,,,,,,,,,,,,,,,,,,,,,,,,,,,,,,,,,,,,,,,,,,,,,,,,,,,,,,985.3604,991.4507,0.160510706,-0.159787326,1.0,0.0,0.0,0.0824,compass,0.0,27.0,27.0,12.0,1.0,SoundStimuli/UnbreakMyHeart_ToniBraxton_Cover5S.wav,,,,,,,,,,,,,,,,,,,,,,,,,,,,,,,,,,,,,,,,,,,,,,,,,,,
,,,,,44945,1,2024-07-12_16h24.52.249,experiment,2024.1.5,MacIntel,63.69426752,6691931c2c63981b064e1f0c,6691bb1313c778c35283e6d5,,,,,,,,,,,,,,,,,,,,,,,,,,,,,,,,,,,,,,,,,,,,,,,,,,,,,,,,,,,,991.4584,998.0011,-0.120594618,-0.226406973,1.0,0.0,0.0,0.5323,compass,0.0,28.0,28.0,23.0,1.0,SoundStimuli/IWalkTheLine_JohnnyCash_Cover5S.wav,,,,,,,,,,,,,,,,,,,,,,,,,,,,,,,,,,,,,,,,,,,,,,,,,,,
,,,,,44945,1,2024-07-12_16h24.52.249,experiment,2024.1.5,MacIntel,63.69426752,6691931c2c63981b064e1f0c,6691bb1313c778c35283e6d5,,,,,,,,,,,,,,,,,,,,,,,,,,,,,,,,,,,,,,,,,,,,,,,,,,,,,,,,,,,,998.0096,1004.5853,-0.166829427,0.214196325,1.0,0.0,0.0,0.5678,compass,0.0,29.0,29.0,2.0,1.0,SoundStimuli/SmellsLikeTeenSpirit_Nirvana_Cover5S.wav,,,,,,,,,,,,,,,,,,,,,,,,,,,,,,,,,,,,,,,,,,,,,,,,,,,
,,,,,44945,1,2024-07-12_16h24.52.249,experiment,2024.1.5,MacIntel,63.69426752,6691931c2c63981b064e1f0c,6691bb1313c778c35283e6d5,,,,,,,,,,,,,,,,,,,,,,,,,,,,,,,,,,,,,,,,,,,,,,,,,,,,,,,,,,,,1004.5937,1011.1349,-0.167693866,-0.229112413,1.0,0.0,0.0,0.5332,compass,0.0,30.0,30.0,16.0,1.0,SoundStimuli/ItsAllInTheGame_TommyEdwards_Original5S.wav,,,,,,,,,,,,,,,,,,,,,,,,,,,,,,,,,,,,,,,,,,,,,,,,,,,
,,,,,44945,1,2024-07-12_16h24.52.249,experiment,2024.1.5,MacIntel,63.69426752,6691931c2c63981b064e1f0c,6691bb1313c778c35283e6d5,,,,,,,,,,,,,,,,,,,,,,,,,,,,,,,,,,,,,,,,,,,,,,,,,,,,,,,,,,,,1011.1397,1017.4016,0.169089988,-0.178367332,1.0,0.0,0.0,0.2501,compass,0.0,31.0,31.0,5.0,1.0,SoundStimuli/JoyToTheWorld_ThreeDogNight_Cover5S.wav,,,,,,,,,,,,,,,,,,,,,,,,,,,,,,,,,,,,,,,,,,,,,,,,,,,
,,,,,44945,1,2024-07-12_16h24.52.249,experiment,2024.1.5,MacIntel,63.69426752,6691931c2c63981b064e1f0c,6691bb1313c778c35283e6d5,,,,,,,,,,,,,,,,,,,,,,,,,,,,,,,,,,,,,,,,,,,,,,,,,,,,,,,,,,,,1017.4109,1023.7346,0.183242911,0.11531033,1.0,0.0,0.0,0.3168,compass,0.0,32.0,32.0,3.0,1.0,SoundStimuli/PartyRockAnthem_LMFAO_Cover5S.wav,,,,,,,,,,,,,,,,,,,,,,,,,,,,,,,,,,,,,,,,,,,,,,,,,,,
,,,,,44945,1,2024-07-12_16h24.52.249,experiment,2024.1.5,MacIntel,63.69426752,6691931c2c63981b064e1f0c,6691bb1313c778c35283e6d5,,,,,,,,,,,,,,,,,,,,,,,,,,,,,,,,,,,,,,,,,,,,,,,,,,,,,,,,,,,,1023.7429,1029.768,-0.151703559,-0.208405671,1.0,0.0,0.0,0.0162,compass,0.0,33.0,33.0,7.0,1.0,SoundStimuli/MackTheKnife_BobbyDarin_Original5S.wav,,,,,,,,,,,,,,,,,,,,,,,,,,,,,,,,,,,,,,,,,,,,,,,,,,,
,,,,,44945,1,2024-07-12_16h24.52.249,experiment,2024.1.5,MacIntel,63.69426752,6691931c2c63981b064e1f0c,6691bb1313c778c35283e6d5,,,,,,,,,,,,,,,,,,,,,,,,,,,,,,,,,,,,,,,,,,,,,,,,,,,,,,,,,,,,1029.7775,1036.2187,-0.190556279,-0.23817636,1.0,0.0,0.0,0.4335,compass,0.0,34.0,34.0,28.0,1.0,SoundStimuli/IWantToHoldYourHand_TheBeatles_Cover5S.wav,,,,,,,,,,,,,,,,,,,,,,,,,,,,,,,,,,,,,,,,,,,,,,,,,,,
,,,,,44945,1,2024-07-12_16h24.52.249,experiment,2024.1.5,MacIntel,63.69426752,6691931c2c63981b064e1f0c,6691bb1313c778c35283e6d5,,,,,,,,,,,,,,,,,,,,,,,,,,,,,,,,,,,,,,,,,,,,,,,,,,,,,,,,,,,,,,,,,,,,,,,,,,,1036.2188,1038.3019,space,2.0671,,1038.3019,1040.9517,right,2.6353,,0.0,2.0,2.0,2.0,1.0,block_order/blockB.xlsx,,,,,,,,,,,,,,,,,,,,,,,,,,,,,,,,,,,
,,,,,44945,1,2024-07-12_16h24.52.249,experiment,2024.1.5,MacIntel,63.69426752,6691931c2c63981b064e1f0c,6691bb1313c778c35283e6d5,,,,,,,,,,,,,,,,,,,,,,,,,,,,,,,,,,,,,,,,,,,,,,,,,,,,,,,,,,,,1040.9658,1047.3181,-0.180855758,-0.180389178,1.0,0.0,0.0,0.3489,compass,0.0,0.0,0.0,29.0,1.0,SoundStimuli/OldTownRoad_LilNasX_Original5S.wav,,,,,,,,,,,,,,,,,,,,,,,,,,,,,,,,,,,,,,,,,,,,,,,,,,,
,,,,,44945,1,2024-07-12_16h24.52.249,experiment,2024.1.5,MacIntel,63.69426752,6691931c2c63981b064e1f0c,6691bb1313c778c35283e6d5,,,,,,,,,,,,,,,,,,,,,,,,,,,,,,,,,,,,,,,,,,,,,,,,,,,,,,,,,,,,1047.327,1053.3517,0.282646123,-0.24478805,1.0,0.0,0.0,0.0159,compass,0.0,1.0,1.0,9.0,1.0,SoundStimuli/Despacito_LuisFonsiDaddyYankee_Cover5S.wav,,,,,,,,,,,,,,,,,,,,,,,,,,,,,,,,,,,,,,,,,,,,,,,,,,,
,,,,,44945,1,2024-07-12_16h24.52.249,experiment,2024.1.5,MacIntel,63.69426752,6691931c2c63981b064e1f0c,6691bb1313c778c35283e6d5,,,,,,,,,,,,,,,,,,,,,,,,,,,,,,,,,,,,,,,,,,,,,,,,,,,,,,,,,,,,1053.3594,1060.0021,0.005985966,-0.201338252,1.0,0.0,0.0,0.6334,compass,0.0,2.0,2.0,17.0,1.0,SoundStimuli/Fallin_AliciaKeys_Original5S.wav,,,,,,,,,,,,,,,,,,,,,,,,,,,,,,,,,,,,,,,,,,,,,,,,,,,
,,,,,44945,1,2024-07-12_16h24.52.249,experiment,2024.1.5,MacIntel,63.69426752,6691931c2c63981b064e1f0c,6691bb1313c778c35283e6d5,,,,,,,,,,,,,,,,,,,,,,,,,,,,,,,,,,,,,,,,,,,,,,,,,,,,,,,,,,,,1060.0099,1071.0523,-0.096495226,-0.250860822,1.0,0.0,0.0,5.0334,compass,0.0,3.0,3.0,19.0,1.0,SoundStimuli/LetsGetItOn_MarvinGaye_Cover5S.wav,,,,,,,,,,,,,,,,,,,,,,,,,,,,,,,,,,,,,,,,,,,,,,,,,,,
,,,,,44945,1,2024-07-12_16h24.52.249,experiment,2024.1.5,MacIntel,63.69426752,6691931c2c63981b064e1f0c,6691bb1313c778c35283e6d5,,,,,,,,,,,,,,,,,,,,,,,,,,,,,,,,,,,,,,,,,,,,,,,,,,,,,,,,,,,,1071.0603,1077.9858,0.160322627,0.189973958,1.0,0.0,0.0,0.9169,compass,0.0,4.0,4.0,1.0,1.0,SoundStimuli/Stronger_KanyeWest_Original5S.wav,,,,,,,,,,,,,,,,,,,,,,,,,,,,,,,,,,,,,,,,,,,,,,,,,,,
,,,,,44945,1,2024-07-12_16h24.52.249,experiment,2024.1.5,MacIntel,63.69426752,6691931c2c63981b064e1f0c,6691bb1313c778c35283e6d5,,,,,,,,,,,,,,,,,,,,,,,,,,,,,,,,,,,,,,,,,,,,,,,,,,,,,,,,,,,,1077.9938,1084.0185,-0.244046586,0.192075376,1.0,0.0,0.0,0.0162,compass,0.0,5.0,5.0,6.0,1.0,SoundStimuli/Levitating_DuaLipa_Cover5S.wav,,,,,,,,,,,,,,,,,,,,,,,,,,,,,,,,,,,,,,,,,,,,,,,,,,,
,,,,,44945,1,2024-07-12_16h24.52.249,experiment,2024.1.5,MacIntel,63.69426752,6691931c2c63981b064e1f0c,6691bb1313c778c35283e6d5,,,,,,,,,,,,,,,,,,,,,,,,,,,,,,,,,,,,,,,,,,,,,,,,,,,,,,,,,,,,1084.0265,1092.6027,-0.166713686,0.194708478,1.0,0.0,0.0,2.5668,compass,0.0,6.0,6.0,24.0,1.0,SoundStimuli/UptownFunk_MarkRonson_Original5S.wav,,,,,,,,,,,,,,,,,,,,,,,,,,,,,,,,,,,,,,,,,,,,,,,,,,,
,,,,,44945,1,2024-07-12_16h24.52.249,experiment,2024.1.5,MacIntel,63.69426752,6691931c2c63981b064e1f0c,6691bb1313c778c35283e6d5,,,,,,,,,,,,,,,,,,,,,,,,,,,,,,,,,,,,,,,,,,,,,,,,,,,,,,,,,,,,1092.6111,1099.0188,0.188389757,0.148564091,1.0,0.0,0.0,0.3994,compass,0.0,7.0,7.0,3.0,1.0,SoundStimuli/NoScrubs_TLC_Original5S.wav,,,,,,,,,,,,,,,,,,,,,,,,,,,,,,,,,,,,,,,,,,,,,,,,,,,
,,,,,44945,1,2024-07-12_16h24.52.249,experiment,2024.1.5,MacIntel,63.69426752,6691931c2c63981b064e1f0c,6691bb1313c778c35283e6d5,,,,,,,,,,,,,,,,,,,,,,,,,,,,,,,,,,,,,,,,,,,,,,,,,,,,,,,,,,,,1099.0284,1105.3359,0.061244936,-0.137691696,1.0,0.0,0.0,0.2997,compass,0.0,8.0,8.0,12.0,1.0,SoundStimuli/IWillAlwaysLoveYou_WhitneyHouston_Cover5S.wav,,,,,,,,,,,,,,,,,,,,,,,,,,,,,,,,,,,,,,,,,,,,,,,,,,,
,,,,,44945,1,2024-07-12_16h24.52.249,experiment,2024.1.5,MacIntel,63.69426752,6691931c2c63981b064e1f0c,6691bb1313c778c35283e6d5,,,,,,,,,,,,,,,,,,,,,,,,,,,,,,,,,,,,,,,,,,,,,,,,,,,,,,,,,,,,1105.3441,1111.7359,0.118786169,0.160731337,1.0,0.0,0.0,0.3829,compass,0.0,9.0,9.0,27.0,1.0,SoundStimuli/ShapeofYou_EdSheeran_Original5S.wav,,,,,,,,,,,,,,,,,,,,,,,,,,,,,,,,,,,,,,,,,,,,,,,,,,,
,,,,,44945,1,2024-07-12_16h24.52.249,experiment,2024.1.5,MacIntel,63.69426752,6691931c2c63981b064e1f0c,6691bb1313c778c35283e6d5,,,,,,,,,,,,,,,,,,,,,,,,,,,,,,,,,,,,,,,,,,,,,,,,,,,,,,,,,,,,1111.744,1118.0698,-0.201902488,-0.124811921,1.0,0.0,0.0,0.3175,compass,0.0,10.0,10.0,2.0,1.0,SoundStimuli/Mood_24kGoldnianndior_Cover5S.wav,,,,,,,,,,,,,,,,,,,,,,,,,,,,,,,,,,,,,,,,,,,,,,,,,,,
,,,,,44945,1,2024-07-12_16h24.52.249,experiment,2024.1.5,MacIntel,63.69426752,6691931c2c63981b064e1f0c,6691bb1313c778c35283e6d5,,,,,,,,,,,,,,,,,,,,,,,,,,,,,,,,,,,,,,,,,,,,,,,,,,,,,,,,,,,,1118.0784,1124.2358,-0.135091146,-0.199898727,1.0,0.0,0.0,0.1492,compass,0.0,11.0,11.0,26.0,1.0,SoundStimuli/LivinOnAPrayer_BonJovi_Cover5S.wav,,,,,,,,,,,,,,,,,,,,,,,,,,,,,,,,,,,,,,,,,,,,,,,,,,,
,,,,,44945,1,2024-07-12_16h24.52.249,experiment,2024.1.5,MacIntel,63.69426752,6691931c2c63981b064e1f0c,6691bb1313c778c35283e6d5,,,,,,,,,,,,,,,,,,,,,,,,,,,,,,,,,,,,,,,,,,,,,,,,,,,,,,,,,,,,1124.2447,1130.4362,0.17145544,-0.116898148,1.0,0.0,0.0,0.1829,compass,0.0,12.0,12.0,7.0,1.0,SoundStimuli/NoOne_AliciaKeys_Cover5S.wav,,,,,,,,,,,,,,,,,,,,,,,,,,,,,,,,,,,,,,,,,,,,,,,,,,,
,,,,,44945,1,2024-07-12_16h24.52.249,experiment,2024.1.5,MacIntel,63.69426752,6691931c2c63981b064e1f0c,6691bb1313c778c35283e6d5,,,,,,,,,,,,,,,,,,,,,,,,,,,,,,,,,,,,,,,,,,,,,,,,,,,,,,,,,,,,1130.4439,1136.9197,0.179622396,-0.201898872,1.0,0.0,0.0,0.4671,compass,0.0,13.0,13.0,28.0,1.0,SoundStimuli/ComeAndGetYourLove_Redbone_Original5S.wav,,,,,,,,,,,,,,,,,,,,,,,,,,,,,,,,,,,,,,,,,,,,,,,,,,,
,,,,,44945,1,2024-07-12_16h24.52.249,experiment,2024.1.5,MacIntel,63.69426752,6691931c2c63981b064e1f0c,6691bb1313c778c35283e6d5,,,,,,,,,,,,,,,,,,,,,,,,,,,,,,,,,,,,,,,,,,,,,,,,,,,,,,,,,,,,1136.9281,1143.7194,0.180443432,-0.207635272,1.0,0.0,0.0,0.7833,compass,0.0,14.0,14.0,5.0,1.0,SoundStimuli/MyGirl_TheTemptations_Original5S.wav,,,,,,,,,,,,,,,,,,,,,,,,,,,,,,,,,,,,,,,,,,,,,,,,,,,
,,,,,44945,1,2024-07-12_16h24.52.249,experiment,2024.1.5,MacIntel,63.69426752,6691931c2c63981b064e1f0c,6691bb1313c778c35283e6d5,,,,,,,,,,,,,,,,,,,,,,,,,,,,,,,,,,,,,,,,,,,,,,,,,,,,,,,,,,,,1143.7285,1150.6527,0.157682292,-0.195243779,0.0,0.0,1.0,0.9159,compass,0.0,15.0,15.0,31.0,1.0,SoundStimuli/TheBattleOfNewOrleans_JohnnyHorton_Cover5S.wav,,,,,,,,,,,,,,,,,,,,,,,,,,,,,,,,,,,,,,,,,,,,,,,,,,,
,,,,,44945,1,2024-07-12_16h24.52.249,experiment,2024.1.5,MacIntel,63.69426752,6691931c2c63981b064e1f0c,6691bb1313c778c35283e6d5,,,,,,,,,,,,,,,,,,,,,,,,,,,,,,,,,,,,,,,,,,,,,,,,,,,,,,,,,,,,1150.653,1156.7526,-0.236548756,-0.196853299,1.0,0.0,1.0,0.0834,compass,0.0,16.0,16.0,10.0,1.0,SoundStimuli/BadDay_DanielPowter_Cover5S.wav,,,,,,,,,,,,,,,,,,,,,,,,,,,,,,,,,,,,,,,,,,,,,,,,,,,
,,,,,44945,1,2024-07-12_16h24.52.249,experiment,2024.1.5,MacIntel,63.69426752,6691931c2c63981b064e1f0c,6691bb1313c778c35283e6d5,,,,,,,,,,,,,,,,,,,,,,,,,,,,,,,,,,,,,,,,,,,,,,,,,,,,,,,,,,,,1156.7613,1163.0694,-0.236548756,-0.198195168,1.0,0.0,1.0,0.2993,compass,0.0,17.0,17.0,20.0,1.0,SoundStimuli/HeyYa_Outkast_Cover5S.wav,,,,,,,,,,,,,,,,,,,,,,,,,,,,,,,,,,,,,,,,,,,,,,,,,,,
,,,,,44945,1,2024-07-12_16h24.52.249,experiment,2024.1.5,MacIntel,63.69426752,6691931c2c63981b064e1f0c,6691bb1313c778c35283e6d5,,,,,,,,,,,,,,,,,,,,,,,,,,,,,,,,,,,,,,,,,,,,,,,,,,,,,,,,,,,,1163.0773,1170.1867,0.094086372,0.094042969,1.0,0.0,1.0,1.1009,compass,0.0,18.0,18.0,0.0,1.0,SoundStimuli/StayinAlive_BeeGees_Original5S.wav,,,,,,,,,,,,,,,,,,,,,,,,,,,,,,,,,,,,,,,,,,,,,,,,,,,
,,,,,44945,1,2024-07-12_16h24.52.249,experiment,2024.1.5,MacIntel,63.69426752,6691931c2c63981b064e1f0c,6691bb1313c778c35283e6d5,,,,,,,,,,,,,,,,,,,,,,,,,,,,,,,,,,,,,,,,,,,,,,,,,,,,,,,,,,,,1170.1948,1176.6035,-0.190136719,-0.136418547,1.0,0.0,1.0,0.4011,compass,0.0,19.0,19.0,13.0,1.0,SoundStimuli/GodOnlyKnows_TheBeachBoys_Cover5S.wav,,,,,,,,,,,,,,,,,,,,,,,,,,,,,,,,,,,,,,,,,,,,,,,,,,,
,,,,,44945,1,2024-07-12_16h24.52.249,experiment,2024.1.5,MacIntel,63.69426752,6691931c2c63981b064e1f0c,6691bb1313c778c35283e6d5,,,,,,,,,,,,,,,,,,,,,,,,,,,,,,,,,,,,,,,,,,,,,,,,,,,,,,,,,,,,1176.6138,1182.9033,-0.170685041,0.176754196,1.0,0.0,1.0,0.2827,compass,0.0,20.0,20.0,4.0,1.0,SoundStimuli/GetUrFreakOn_MissyElliot_Original5S.wav,,,,,,,,,,,,,,,,,,,,,,,,,,,,,,,,,,,,,,,,,,,,,,,,,,,
,,,,,44945,1,2024-07-12_16h24.52.249,experiment,2024.1.5,MacIntel,63.69426752,6691931c2c63981b064e1f0c,6691bb1313c778c35283e6d5,,,,,,,,,,,,,,,,,,,,,,,,,,,,,,,,,,,,,,,,,,,,,,,,,,,,,,,,,,,,1182.9109,1189.2532,-0.206702112,-0.164181858,1.0,0.0,1.0,0.3335,compass,0.0,21.0,21.0,15.0,1.0,SoundStimuli/TikTok_Kesha_Cover5S.wav,,,,,,,,,,,,,,,,,,,,,,,,,,,,,,,,,,,,,,,,,,,,,,,,,,,
,,,,,44945,1,2024-07-12_16h24.52.249,experiment,2024.1.5,MacIntel,63.69426752,6691931c2c63981b064e1f0c,6691bb1313c778c35283e6d5,,,,,,,,,,,,,,,,,,,,,,,,,,,,,,,,,,,,,,,,,,,,,,,,,,,,,,,,,,,,1189.2621,1195.604,-0.229314959,-0.238212529,1.0,0.0,1.0,0.3337,compass,0.0,22.0,22.0,33.0,1.0,SoundStimuli/StandByMe_BenEKing_Cover5S.wav,,,,,,,,,,,,,,,,,,,,,,,,,,,,,,,,,,,,,,,,,,,,,,,,,,,
,,,,,44945,1,2024-07-12_16h24.52.249,experiment,2024.1.5,MacIntel,63.69426752,6691931c2c63981b064e1f0c,6691bb1313c778c35283e6d5,,,,,,,,,,,,,,,,,,,,,,,,,,,,,,,,,,,,,,,,,,,,,,,,,,,,,,,,,,,,1195.6123,1202.0037,0.118648727,-0.226736111,1.0,0.0,1.0,0.3838,compass,0.0,23.0,23.0,8.0,1.0,SoundStimuli/LikeAPrayer_Madonna_Original5S.wav,,,,,,,,,,,,,,,,,,,,,,,,,,,,,,,,,,,,,,,,,,,,,,,,,,,
,,,,,44945,1,2024-07-12_16h24.52.249,experiment,2024.1.5,MacIntel,63.69426752,6691931c2c63981b064e1f0c,6691bb1313c778c35283e6d5,,,,,,,,,,,,,,,,,,,,,,,,,,,,,,,,,,,,,,,,,,,,,,,,,,,,,,,,,,,,1202.0116,1208.1708,0.081759983,-0.254361979,1.0,0.0,1.0,0.1498,compass,0.0,24.0,24.0,11.0,1.0,SoundStimuli/Superstition_StevieWonder_Cover5S.wav,,,,,,,,,,,,,,,,,,,,,,,,,,,,,,,,,,,,,,,,,,,,,,,,,,,
,,,,,44945,1,2024-07-12_16h24.52.249,experiment,2024.1.5,MacIntel,63.69426752,6691931c2c63981b064e1f0c,6691bb1313c778c35283e6d5,,,,,,,,,,,,,,,,,,,,,,,,,,,,,,,,,,,,,,,,,,,,,,,,,,,,,,,,,,,,1208.1794,1214.2701,0.041106047,0.11077474,0.0,0.0,1.0,0.0829,compass,0.0,25.0,25.0,14.0,1.0,SoundStimuli/BlindingLights_TheWeeknd_Original5S.wav,,,,,,,,,,,,,,,,,,,,,,,,,,,,,,,,,,,,,,,,,,,,,,,,,,,
,,,,,44945,1,2024-07-12_16h24.52.249,experiment,2024.1.5,MacIntel,63.69426752,6691931c2c63981b064e1f0c,6691bb1313c778c35283e6d5,,,,,,,,,,,,,,,,,,,,,,,,,,,,,,,,,,,,,,,,,,,,,,,,,,,,,,,,,,,,1214.2782,1220.8374,-0.249674479,-0.07734375,1.0,0.0,1.0,0.5504,compass,0.0,26.0,26.0,34.0,1.0,SoundStimuli/AChangeIsGonnaCome_SamCooke_Cover5S.wav,,,,,,,,,,,,,,,,,,,,,,,,,,,,,,,,,,,,,,,,,,,,,,,,,,,
,,,,,44945,1,2024-07-12_16h24.52.249,experiment,2024.1.5,MacIntel,63.69426752,6691931c2c63981b064e1f0c,6691bb1313c778c35283e6d5,,,,,,,,,,,,,,,,,,,,,,,,,,,,,,,,,,,,,,,,,,,,,,,,,,,,,,,,,,,,1220.8455,1227.22,0.115798611,0.116912616,1.0,0.0,1.0,0.3664,compass,0.0,27.0,27.0,30.0,1.0,SoundStimuli/PokerFace_LadyGaga_Original5S.wav,,,,,,,,,,,,,,,,,,,,,,,,,,,,,,,,,,,,,,,,,,,,,,,,,,,
,,,,,44945,1,2024-07-12_16h24.52.249,experiment,2024.1.5,MacIntel,63.69426752,6691931c2c63981b064e1f0c,6691bb1313c778c35283e6d5,,,,,,,,,,,,,,,,,,,,,,,,,,,,,,,,,,,,,,,,,,,,,,,,,,,,,,,,,,,,1227.2283,1233.5374,-0.208774595,-0.1158818,1.0,0.0,1.0,0.3008,compass,0.0,28.0,28.0,16.0,1.0,SoundStimuli/BohemianRhapsody_Queen_Original5S.wav,,,,,,,,,,,,,,,,,,,,,,,,,,,,,,,,,,,,,,,,,,,,,,,,,,,
,,,,,44945,1,2024-07-12_16h24.52.249,experiment,2024.1.5,MacIntel,63.69426752,6691931c2c63981b064e1f0c,6691bb1313c778c35283e6d5,,,,,,,,,,,,,,,,,,,,,,,,,,,,,,,,,,,,,,,,,,,,,,,,,,,,,,,,,,,,1233.5459,1239.5874,-0.180946181,-0.129246238,0.0,0.0,1.0,0.0332,compass,0.0,29.0,29.0,23.0,1.0,SoundStimuli/StrawberryFieldsForever_TheBeatles_Original5S.wav,,,,,,,,,,,,,,,,,,,,,,,,,,,,,,,,,,,,,,,,,,,,,,,,,,,
,,,,,44945,1,2024-07-12_16h24.52.249,experiment,2024.1.5,MacIntel,63.69426752,6691931c2c63981b064e1f0c,6691bb1313c778c35283e6d5,,,,,,,,,,,,,,,,,,,,,,,,,,,,,,,,,,,,,,,,,,,,,,,,,,,,,,,,,,,,1239.5954,1245.9702,0.22115162,-0.116561777,1.0,0.0,1.0,0.3667,compass,0.0,30.0,30.0,32.0,1.0,SoundStimuli/HeatWaves_GlassAnimals_Original5S.wav,,,,,,,,,,,,,,,,,,,,,,,,,,,,,,,,,,,,,,,,,,,,,,,,,,,
,,,,,44945,1,2024-07-12_16h24.52.249,experiment,2024.1.5,MacIntel,63.69426752,6691931c2c63981b064e1f0c,6691bb1313c778c35283e6d5,,,,,,,,,,,,,,,,,,,,,,,,,,,,,,,,,,,,,,,,,,,,,,,,,,,,,,,,,,,,1245.9774,1252.3707,0.18004919,0.127777778,1.0,0.0,1.0,0.3839,compass,0.0,31.0,31.0,18.0,1.0,SoundStimuli/AnotherOneBitesTheDust_Queen_Original5S.wav,,,,,,,,,,,,,,,,,,,,,,,,,,,,,,,,,,,,,,,,,,,,,,,,,,,
,,,,,44945,1,2024-07-12_16h24.52.249,experiment,2024.1.5,MacIntel,63.69426752,6691931c2c63981b064e1f0c,6691bb1313c778c35283e6d5,,,,,,,,,,,,,,,,,,,,,,,,,,,,,,,,,,,,,,,,,,,,,,,,,,,,,,,,,,,,1252.379,1258.6872,0.147974537,-0.162659144,1.0,0.0,1.0,0.3003,compass,0.0,32.0,32.0,22.0,1.0,SoundStimuli/RockWithYou_MichaelJackson_Original5S.wav,,,,,,,,,,,,,,,,,,,,,,,,,,,,,,,,,,,,,,,,,,,,,,,,,,,
,,,,,44945,1,2024-07-12_16h24.52.249,experiment,2024.1.5,MacIntel,63.69426752,6691931c2c63981b064e1f0c,6691bb1313c778c35283e6d5,,,,,,,,,,,,,,,,,,,,,,,,,,,,,,,,,,,,,,,,,,,,,,,,,,,,,,,,,,,,1258.696,1265.2869,0.09702691,-0.071343316,1.0,0.0,1.0,0.5835,compass,0.0,33.0,33.0,21.0,1.0,SoundStimuli/GoodGollyMissMolly_LittleRichard_Cover5S.wav,,,,,,,,,,,,,,,,,,,,,,,,,,,,,,,,,,,,,,,,,,,,,,,,,,,
,,,,,44945,1,2024-07-12_16h24.52.249,experiment,2024.1.5,MacIntel,63.69426752,6691931c2c63981b064e1f0c,6691bb1313c778c35283e6d5,,,,,,,,,,,,,,,,,,,,,,,,,,,,,,,,,,,,,,,,,,,,,,,,,,,,,,,,,,,,1265.2949,1271.5207,0.191659433,0.13744213,1.0,0.0,1.0,0.2159,compass,0.0,34.0,34.0,25.0,1.0,SoundStimuli/Respect_ArethaFranklin_Original5S.wav,,,,,,,,,,,,,,,,,,,,,,,,,,,,,,,,,,,,,,,,,,,,,,,,,,,
,,,,,44945,1,2024-07-12_16h24.52.249,experiment,2024.1.5,MacIntel,63.69426752,6691931c2c63981b064e1f0c,6691bb1313c778c35283e6d5,,,,,,,,,,,,,,,,,,,,,,,,,,,,,,,,,,,,,,,,,,,,,,,,,,,,,,,,,,,,,,,,,,,,,,,,,,,1271.5208,1271.5209,,,,1271.5209,1271.5209,,,,0.0,3.0,3.0,3.0,1.0,block_order/blockA.xlsx,,,,,,,,,,,,,,,,,,,,,,,,,,,,,,,,,,,
,,,,,44945,1,2024-07-12_16h24.52.249,experiment,2024.1.5,MacIntel,63.69426752,6691931c2c63981b064e1f0c,6691bb1313c778c35283e6d5,,,,,,,,,,,,,,,,,,,,,,,,,,,,,,,,,,,,,,,,,,,,,,,,,,,,,,,,,,,,,,,,,,,,,,,,,,,,,,,,,,,,,,,,,,,39.0,Item 2,"I have zero musical talent, I'm afraid. It's tragic. ",Item 4,Spotify or Pandora,4.0,6.0,"driving, working, folding laundry, hanging out with family, exercising",Sometimes,Rarely,Often,Never,Always,Rarely,Always,Often,Always,Always,Always,Often,Often,Never,Sometimes,Always,Classic Rock,R&B,Folk/Indie,"I've always had a broad interest in music, it hasn't changed much because I still like and listen to all sorts of music.",0.0,0.0,0.0,0.0,1.0,,
,,,,,44945,1,2024-07-12_16h24.52.249,experiment,2024.1.5,MacIntel,63.69426752,6691931c2c63981b064e1f0c,6691bb1313c778c35283e6d5,,,,,,,,,,,,,,,,,,,,,,,,,,,,,,,,,,,,,,,,,,,,,,,,,,,,,,,,,,,,,,,,,,,,,,,,,,,,,,,,,,,,,,,,,,,,,,,,,,,,,,,,,,,,,,,,,,,,,,,,,,,,1469.7082,1471.2906
