welcome.started,welcome.stopped,space_to_continue.keys,space_to_continue.rt,space_to_continue.duration,participant,session,date,expName,psychopyVersion,OS,frameRate,STUDY_ID,SESSION_ID,consent.consent,consent.consent_recontact,consent_check.started,consent_check.stopped,calibration_ready.started,calibration_ready.stopped,cal_ready.keys,cal_ready.rt,cal_ready.duration,calibration.started,calibration.stopped,mouse.x,mouse.y,mouse.leftButton,mouse.midButton,mouse.rightButton,mouse.time,mouse.clicked_name,move_on.keys,move_on.rt,move_on.duration,run_cal.thisRepN,run_cal.thisTrialN,run_cal.thisN,run_cal.thisIndex,run_cal.ran,emotion_training_ready.started,emotion_training_ready.stopped,training_move_on.keys,training_move_on.rt,training_move_on.duration,examples.started,examples.stopped,emotion_scale.started,emotion_scale.stopped,scale_next.keys,scale_next.rt,scale_next.duration,instructions.started,instructions.stopped,next.keys,next.rt,next.duration,practice_task.started,practice_task.stopped,mouse_rating_2.x,mouse_rating_2.y,mouse_rating_2.leftButton,mouse_rating_2.midButton,mouse_rating_2.rightButton,mouse_rating_2.time,mouse_rating_2.clicked_name,ready.started,ready.stopped,key_resp.keys,key_resp.rt,key_resp.duration,set_group.started,set_group.stopped,task.started,task.stopped,mouse_rating.x,mouse_rating.y,mouse_rating.leftButton,mouse_rating.midButton,mouse_rating.rightButton,mouse_rating.time,mouse_rating.clicked_name,trials.thisRepN,trials.thisTrialN,trials.thisN,trials.thisIndex,trials.ran,clip,short_break.started,short_break.stopped,space_to_move_on.keys,space_to_move_on.rt,space_to_move_on.duration,instruction_reminder.started,instruction_reminder.stopped,reminder_move_on.keys,reminder_move_on.rt,reminder_move_on.duration,blocks.thisRepN,blocks.thisTrialN,blocks.thisN,blocks.thisIndex,blocks.ran,block,post_survey.age,post_survey.musician,post_survey.music_making,post_survey.listen_time,post_survey.medium,post_survey.music_seeking,post_survey.music_choice,post_survey.activities,post_survey.question1.Electronic (EDM),post_survey.question1.Classic rock,post_survey.question1.Folk/indie,post_survey.question1.A cappella,post_survey.question1.Alternative rock,post_survey.question1.Metal,post_survey.question1.Ambient,post_survey.question1.Hip hop,post_survey.question1.Reggae,post_survey.question1.Classical,post_survey.question1.Pop,post_survey.question1.Country,post_survey.question1.Disco,post_survey.question1.Latin,post_survey.question1.Jazz,post_survey.question1.R&B,post_survey.genres_ranked.text1,post_survey.genres_ranked.text2,post_survey.genres_ranked.text3,post_survey.habit_change,show_exp.thisRepN,show_exp.thisTrialN,show_exp.thisN,show_exp.thisIndex,show_exp.ran,goodbye.started,goodbye.stopped
0.0003,2.0737,space,2.0625,,48901,1,2024-07-12_17h26.55.842,experiment,2024.1.5,MacIntel,60.24096386,6691931c2c63981b064e1f0c,6691ad90ddd5c749f563592f,,,,,,,,,,,,,,,,,,,,,,,,,,,,,,,,,,,,,,,,,,,,,,,,,,,,,,,,,,,,,,,,,,,,,,,,,,,,,,,,,,,,,,,,,,,,,,,,,,,,,,,,,,,,,,,,,,,,,,,,,,,,,
,,,,,48901,1,2024-07-12_17h26.55.842,experiment,2024.1.5,MacIntel,60.24096386,6691931c2c63981b064e1f0c,6691ad90ddd5c749f563592f,yes,yes,,,,,,,,,,,,,,,,,,,,,,,,,,,,,,,,,,,,,,,,,,,,,,,,,,,,,,,,,,,,,,,,,,,,,,,,,,,,,,,,,,,,,,,,,,,,,,,,,,,,,,,,,,,,,,,,,,,,,,,,,,,
,,,,,48901,1,2024-07-12_17h26.55.842,experiment,2024.1.5,MacIntel,60.24096386,6691931c2c63981b064e1f0c,6691ad90ddd5c749f563592f,,,28.7666,28.7667,,,,,,,,,,,,,,,,,,,,,,,,,,,,,,,,,,,,,,,,,,,,,,,,,,,,,,,,,,,,,,,,,,,,,,,,,,,,,,,,,,,,,,,,,,,,,,,,,,,,,,,,,,,,,,,,,,,,,,,,,
,,,,,48901,1,2024-07-12_17h26.55.842,experiment,2024.1.5,MacIntel,60.24096386,6691931c2c63981b064e1f0c,6691ad90ddd5c749f563592f,,,,,28.7684,31.7402,space,2.9663,,31.7409,47.4811,"[-0.033195891203703705,-0.0064995659722222225,-0.011100260416666667]","[-0.4380027488425926,-0.41136067708333335,-0.4279658564814815]","[1,1,1]","[0,0,0]","[0,0,0]","[1.6006000000238387,2.70020000004768,13.033499999999997]","[""play_button"",""play_button""]",y,14.7102,,0.0,0.0,0.0,0.0,1.0,,,,,,,,,,,,,,,,,,,,,,,,,,,,,,,,,,,,,,,,,,,,,,,,,,,,,,,,,,,,,,,,,,,,,,,,,,,,,,,,,,,,,,,,,,,,,,,,,,,
,,,,,48901,1,2024-07-12_17h26.55.842,experiment,2024.1.5,MacIntel,60.24096386,6691931c2c63981b064e1f0c,6691ad90ddd5c749f563592f,,,,,,,,,,,,,,,,,,,,,,,,,,,47.4815,69.424,space,21.9091,,69.4242,189.4413,189.4416,199.2568,right,6.2885,,199.2569,205.0566,space,5.7781,,205.0567,211.4456,0.134968171,-0.109309896,1.0,0.0,0.0,0.3727,compass_2,211.4458,213.6899,space,2.2285,,213.6901,213.6903,213.714,227.6573,0.18156467,-0.103403501,1.0,0.0,0.0,7.9339,compass,0.0,0.0,0.0,13.0,1.0,SoundStimuli/Perfect_EdSheeran_Cover5S.wav,,,,,,,,,,,,,,,,,,,,,,,,,,,,,,,,,,,,,,,,,,,,,,,,,,,
,,,,,48901,1,2024-07-12_17h26.55.842,experiment,2024.1.5,MacIntel,60.24096386,6691931c2c63981b064e1f0c,6691ad90ddd5c749f563592f,,,,,,,,,,,,,,,,,,,,,,,,,,,,,,,,,,,,,,,,,,,,,,,,,,,,,,,,,,,,227.6672,234.9053,0.214001013,0.268229167,1.0,0.0,0.0,1.2324,compass,0.0,1.0,1.0,26.0,1.0,SoundStimuli/TheSign_AceOfBase_Cover5S.wav,,,,,,,,,,,,,,,,,,,,,,,,,,,,,,,,,,,,,,,,,,,,,,,,,,,
,,,,,48901,1,2024-07-12_17h26.55.842,experiment,2024.1.5,MacIntel,60.24096386,6691931c2c63981b064e1f0c,6691ad90ddd5c749f563592f,,,,,,,,,,,,,,,,,,,,,,,,,,,,,,,,,,,,,,,,,,,,,,,,,,,,,,,,,,,,234.9158,241.2895,-0.184620949,-0.107703993,1.0,0.0,0.0,0.3667,compass,0.0,2.0,2.0,6.0,1.0,SoundStimuli/SaveYourTears_TheWeekndArianaGrande_Cover5S.wav,,,,,,,,,,,,,,,,,,,,,,,,,,,,,,,,,,,,,,,,,,,,,,,,,,,
,,,,,48901,1,2024-07-12_17h26.55.842,experiment,2024.1.5,MacIntel,60.24096386,6691931c2c63981b064e1f0c,6691ad90ddd5c749f563592f,,,,,,,,,,,,,,,,,,,,,,,,,,,,,,,,,,,,,,,,,,,,,,,,,,,,,,,,,,,,241.2996,247.7223,0.208553964,0.173867911,1.0,0.0,0.0,0.4161,compass,0.0,3.0,3.0,11.0,1.0,SoundStimuli/BlurredLines_RobinThicke_Cover5S.wav,,,,,,,,,,,,,,,,,,,,,,,,,,,,,,,,,,,,,,,,,,,,,,,,,,,
,,,,,48901,1,2024-07-12_17h26.55.842,experiment,2024.1.5,MacIntel,60.24096386,6691931c2c63981b064e1f0c,6691ad90ddd5c749f563592f,,,,,,,,,,,,,,,,,,,,,,,,,,,,,,,,,,,,,,,,,,,,,,,,,,,,,,,,,,,,247.7288,254.1396,0.20234375,-0.077130353,1.0,0.0,0.0,0.4001,compass,0.0,4.0,4.0,29.0,1.0,SoundStimuli/BetteDavisEyes_KimCarnes_Original5S.wav,,,,,,,,,,,,,,,,,,,,,,,,,,,,,,,,,,,,,,,,,,,,,,,,,,,
,,,,,48901,1,2024-07-12_17h26.55.842,experiment,2024.1.5,MacIntel,60.24096386,6691931c2c63981b064e1f0c,6691ad90ddd5c749f563592f,,,,,,,,,,,,,,,,,,,,,,,,,,,,,,,,,,,,,,,,,,,,,,,,,,,,,,,,,,,,254.1479,266.1725,-0.079448785,-0.103323929,1.0,0.0,0.0,6.0177,compass,0.0,5.0,5.0,8.0,1.0,SoundStimuli/EndlessLove_DianaRossLionelRichie_Cover5S.wav,,,,,,,,,,,,,,,,,,,,,,,,,,,,,,,,,,,,,,,,,,,,,,,,,,,
,,,,,48901,1,2024-07-12_17h26.55.842,experiment,2024.1.5,MacIntel,60.24096386,6691931c2c63981b064e1f0c,6691ad90ddd5c749f563592f,,,,,,,,,,,,,,,,,,,,,,,,,,,,,,,,,,,,,,,,,,,,,,,,,,,,,,,,,,,,266.1816,274.4724,-0.109226707,-0.128613281,1.0,0.0,0.0,2.2842,compass,0.0,6.0,6.0,12.0,1.0,SoundStimuli/UnbreakMyHeart_ToniBraxton_Original5S.wav,,,,,,,,,,,,,,,,,,,,,,,,,,,,,,,,,,,,,,,,,,,,,,,,,,,
,,,,,48901,1,2024-07-12_17h26.55.842,experiment,2024.1.5,MacIntel,60.24096386,6691931c2c63981b064e1f0c,6691ad90ddd5c749f563592f,,,,,,,,,,,,,,,,,,,,,,,,,,,,,,,,,,,,,,,,,,,,,,,,,,,,,,,,,,,,274.4791,280.7215,0.114022714,-0.194267216,1.0,0.0,0.0,0.233,compass,0.0,7.0,7.0,19.0,1.0,SoundStimuli/YouLightUpMyLife_DebbyBoone_Original5S.wav,,,,,,,,,,,,,,,,,,,,,,,,,,,,,,,,,,,,,,,,,,,,,,,,,,,
,,,,,48901,1,2024-07-12_17h26.55.842,experiment,2024.1.5,MacIntel,60.24096386,6691931c2c63981b064e1f0c,6691ad90ddd5c749f563592f,,,,,,,,,,,,,,,,,,,,,,,,,,,,,,,,,,,,,,,,,,,,,,,,,,,,,,,,,,,,280.7301,287.3057,0.082114439,-0.080996817,1.0,0.0,0.0,0.5668,compass,0.0,8.0,8.0,24.0,1.0,SoundStimuli/Kiss_Prince_Cover5S.wav,,,,,,,,,,,,,,,,,,,,,,,,,,,,,,,,,,,,,,,,,,,,,,,,,,,
,,,,,48901,1,2024-07-12_17h26.55.842,experiment,2024.1.5,MacIntel,60.24096386,6691931c2c63981b064e1f0c,6691ad90ddd5c749f563592f,,,,,,,,,,,,,,,,,,,,,,,,,,,,,,,,,,,,,,,,,,,,,,,,,,,,,,,,,,,,287.3165,293.7221,0.294777199,0.29615162,1.0,0.0,0.0,0.3997,compass,0.0,9.0,9.0,22.0,1.0,SoundStimuli/Happy_PharellWilliams_Original5S.wav,,,,,,,,,,,,,,,,,,,,,,,,,,,,,,,,,,,,,,,,,,,,,,,,,,,
,,,,,48901,1,2024-07-12_17h26.55.842,experiment,2024.1.5,MacIntel,60.24096386,6691931c2c63981b064e1f0c,6691ad90ddd5c749f563592f,,,,,,,,,,,,,,,,,,,,,,,,,,,,,,,,,,,,,,,,,,,,,,,,,,,,,,,,,,,,293.7279,300.8723,-0.11556713,0.122706887,1.0,0.0,0.0,1.1333,compass,0.0,10.0,10.0,33.0,1.0,SoundStimuli/TheBoyIsMine_BrandyMonica_Original5S.wav,,,,,,,,,,,,,,,,,,,,,,,,,,,,,,,,,,,,,,,,,,,,,,,,,,,
,,,,,48901,1,2024-07-12_17h26.55.842,experiment,2024.1.5,MacIntel,60.24096386,6691931c2c63981b064e1f0c,6691ad90ddd5c749f563592f,,,,,,,,,,,,,,,,,,,,,,,,,,,,,,,,,,,,,,,,,,,,,,,,,,,,,,,,,,,,300.8787,307.6889,-0.090874566,0.055938947,1.0,0.0,0.0,0.7998,compass,0.0,11.0,11.0,9.0,1.0,SoundStimuli/HowDoILive_LeAnnRimes_Cover5S.wav,,,,,,,,,,,,,,,,,,,,,,,,,,,,,,,,,,,,,,,,,,,,,,,,,,,
,,,,,48901,1,2024-07-12_17h26.55.842,experiment,2024.1.5,MacIntel,60.24096386,6691931c2c63981b064e1f0c,6691ad90ddd5c749f563592f,,,,,,,,,,,,,,,,,,,,,,,,,,,,,,,,,,,,,,,,,,,,,,,,,,,,,,,,,,,,307.6893,314.6723,0.2057364,0.224866175,1.0,0.0,0.0,0.9666,compass,0.0,12.0,12.0,28.0,1.0,SoundStimuli/IWantToHoldYourHand_TheBeatles_Original5S.wav,,,,,,,,,,,,,,,,,,,,,,,,,,,,,,,,,,,,,,,,,,,,,,,,,,,
,,,,,48901,1,2024-07-12_17h26.55.842,experiment,2024.1.5,MacIntel,60.24096386,6691931c2c63981b064e1f0c,6691ad90ddd5c749f563592f,,,,,,,,,,,,,,,,,,,,,,,,,,,,,,,,,,,,,,,,,,,,,,,,,,,,,,,,,,,,314.6786,323.9896,0.245876736,0.273766638,1.0,0.0,0.0,3.3004,compass,0.0,13.0,13.0,1.0,1.0,SoundStimuli/Smooth_SantanaRobThomas_Original5S.wav,,,,,,,,,,,,,,,,,,,,,,,,,,,,,,,,,,,,,,,,,,,,,,,,,,,
,,,,,48901,1,2024-07-12_17h26.55.842,experiment,2024.1.5,MacIntel,60.24096386,6691931c2c63981b064e1f0c,6691ad90ddd5c749f563592f,,,,,,,,,,,,,,,,,,,,,,,,,,,,,,,,,,,,,,,,,,,,,,,,,,,,,,,,,,,,323.9967,330.3889,0.243876591,0.188465712,1.0,0.0,0.0,0.3841,compass,0.0,14.0,14.0,5.0,1.0,SoundStimuli/JoyToTheWorld_ThreeDogNight_Original5S.wav,,,,,,,,,,,,,,,,,,,,,,,,,,,,,,,,,,,,,,,,,,,,,,,,,,,
,,,,,48901,1,2024-07-12_17h26.55.842,experiment,2024.1.5,MacIntel,60.24096386,6691931c2c63981b064e1f0c,6691ad90ddd5c749f563592f,,,,,,,,,,,,,,,,,,,,,,,,,,,,,,,,,,,,,,,,,,,,,,,,,,,,,,,,,,,,330.3954,338.6057,-0.132458044,-0.049971065,1.0,0.0,0.0,2.2,compass,0.0,15.0,15.0,16.0,1.0,SoundStimuli/ItsAllInTheGame_TommyEdwards_Cover5S.wav,,,,,,,,,,,,,,,,,,,,,,,,,,,,,,,,,,,,,,,,,,,,,,,,,,,
,,,,,48901,1,2024-07-12_17h26.55.842,experiment,2024.1.5,MacIntel,60.24096386,6691931c2c63981b064e1f0c,6691ad90ddd5c749f563592f,,,,,,,,,,,,,,,,,,,,,,,,,,,,,,,,,,,,,,,,,,,,,,,,,,,,,,,,,,,,338.6147,344.9057,-0.0880136,-0.095757378,1.0,0.0,0.0,0.2842,compass,0.0,16.0,16.0,4.0,1.0,SoundStimuli/Dreams_FleetwoodMac_Original5S.wav,,,,,,,,,,,,,,,,,,,,,,,,,,,,,,,,,,,,,,,,,,,,,,,,,,,
,,,,,48901,1,2024-07-12_17h26.55.842,experiment,2024.1.5,MacIntel,60.24096386,6691931c2c63981b064e1f0c,6691ad90ddd5c749f563592f,,,,,,,,,,,,,,,,,,,,,,,,,,,,,,,,,,,,,,,,,,,,,,,,,,,,,,,,,,,,344.912,351.0721,-0.096191406,-0.05629702,1.0,0.0,0.0,0.1496,compass,0.0,17.0,17.0,21.0,1.0,SoundStimuli/BridgeOverTroubledWater_SimonAndGarfunkel_Original5S.wav,,,,,,,,,,,,,,,,,,,,,,,,,,,,,,,,,,,,,,,,,,,,,,,,,,,
,,,,,48901,1,2024-07-12_17h26.55.842,experiment,2024.1.5,MacIntel,60.24096386,6691931c2c63981b064e1f0c,6691ad90ddd5c749f563592f,,,,,,,,,,,,,,,,,,,,,,,,,,,,,,,,,,,,,,,,,,,,,,,,,,,,,,,,,,,,351.0784,357.1718,-0.286686198,0.278573495,1.0,0.0,0.0,0.0828,compass,0.0,18.0,18.0,2.0,1.0,SoundStimuli/SmellsLikeTeenSpirit_Nirvana_Original5S.wav,,,,,,,,,,,,,,,,,,,,,,,,,,,,,,,,,,,,,,,,,,,,,,,,,,,
,,,,,48901,1,2024-07-12_17h26.55.842,experiment,2024.1.5,MacIntel,60.24096386,6691931c2c63981b064e1f0c,6691ad90ddd5c749f563592f,,,,,,,,,,,,,,,,,,,,,,,,,,,,,,,,,,,,,,,,,,,,,,,,,,,,,,,,,,,,357.178,363.5056,0.231304253,0.227864583,1.0,0.0,0.0,0.3165,compass,0.0,19.0,19.0,0.0,1.0,SoundStimuli/GimmeShelter_RollingStones_Original5S.wav,,,,,,,,,,,,,,,,,,,,,,,,,,,,,,,,,,,,,,,,,,,,,,,,,,,
,,,,,48901,1,2024-07-12_17h26.55.842,experiment,2024.1.5,MacIntel,60.24096386,6691931c2c63981b064e1f0c,6691ad90ddd5c749f563592f,,,,,,,,,,,,,,,,,,,,,,,,,,,,,,,,,,,,,,,,,,,,,,,,,,,,,,,,,,,,363.5169,370.3723,0.197265625,-0.212123843,1.0,0.0,0.0,0.85,compass,0.0,20.0,20.0,32.0,1.0,SoundStimuli/Dilemma_NellyKellyRowland_Cover5S.wav,,,,,,,,,,,,,,,,,,,,,,,,,,,,,,,,,,,,,,,,,,,,,,,,,,,
,,,,,48901,1,2024-07-12_17h26.55.842,experiment,2024.1.5,MacIntel,60.24096386,6691931c2c63981b064e1f0c,6691ad90ddd5c749f563592f,,,,,,,,,,,,,,,,,,,,,,,,,,,,,,,,,,,,,,,,,,,,,,,,,,,,,,,,,,,,370.3769,376.4724,-0.252264178,0.07890625,1.0,0.0,0.0,0.0833,compass,0.0,21.0,21.0,30.0,1.0,SoundStimuli/SomebodyThatIUsedtoKnow_Gotye_Original5S.wav,,,,,,,,,,,,,,,,,,,,,,,,,,,,,,,,,,,,,,,,,,,,,,,,,,,
,,,,,48901,1,2024-07-12_17h26.55.842,experiment,2024.1.5,MacIntel,60.24096386,6691931c2c63981b064e1f0c,6691ad90ddd5c749f563592f,,,,,,,,,,,,,,,,,,,,,,,,,,,,,,,,,,,,,,,,,,,,,,,,,,,,,,,,,,,,376.4788,384.7224,0.242230903,0.311396846,1.0,0.0,0.0,2.2329,compass,0.0,22.0,22.0,20.0,1.0,SoundStimuli/FlashdanceWhatAFeeling_IreneCara_Original5S.wav,,,,,,,,,,,,,,,,,,,,,,,,,,,,,,,,,,,,,,,,,,,,,,,,,,,
,,,,,48901,1,2024-07-12_17h26.55.842,experiment,2024.1.5,MacIntel,60.24096386,6691931c2c63981b064e1f0c,6691ad90ddd5c749f563592f,,,,,,,,,,,,,,,,,,,,,,,,,,,,,,,,,,,,,,,,,,,,,,,,,,,,,,,,,,,,384.729,391.139,0.266644965,0.215039062,1.0,0.0,0.0,0.4006,compass,0.0,23.0,23.0,27.0,1.0,SoundStimuli/EyeOfTheTiger_Survivor_Cover5S.wav,,,,,,,,,,,,,,,,,,,,,,,,,,,,,,,,,,,,,,,,,,,,,,,,,,,
,,,,,48901,1,2024-07-12_17h26.55.842,experiment,2024.1.5,MacIntel,60.24096386,6691931c2c63981b064e1f0c,6691ad90ddd5c749f563592f,,,,,,,,,,,,,,,,,,,,,,,,,,,,,,,,,,,,,,,,,,,,,,,,,,,,,,,,,,,,391.1488,397.8555,0.160532407,0.103559028,1.0,0.0,0.0,0.6998,compass,0.0,24.0,24.0,3.0,1.0,SoundStimuli/PartyRockAnthem_LMFAO_Original5S.wav,,,,,,,,,,,,,,,,,,,,,,,,,,,,,,,,,,,,,,,,,,,,,,,,,,,
,,,,,48901,1,2024-07-12_17h26.55.842,experiment,2024.1.5,MacIntel,60.24096386,6691931c2c63981b064e1f0c,6691ad90ddd5c749f563592f,,,,,,,,,,,,,,,,,,,,,,,,,,,,,,,,,,,,,,,,,,,,,,,,,,,,,,,,,,,,397.8637,405.2388,0.183644387,-0.055277054,1.0,0.0,0.0,1.3671,compass,0.0,25.0,25.0,25.0,1.0,SoundStimuli/IllMakeLoveToYou_BoyzIIMen_Cover5S.wav,,,,,,,,,,,,,,,,,,,,,,,,,,,,,,,,,,,,,,,,,,,,,,,,,,,
,,,,,48901,1,2024-07-12_17h26.55.842,experiment,2024.1.5,MacIntel,60.24096386,6691931c2c63981b064e1f0c,6691ad90ddd5c749f563592f,,,,,,,,,,,,,,,,,,,,,,,,,,,,,,,,,,,,,,,,,,,,,,,,,,,,,,,,,,,,405.239,414.172,-0.256177662,-0.028320313,1.0,0.0,0.0,2.9162,compass,0.0,26.0,26.0,34.0,1.0,SoundStimuli/Irreplaceable_Beyonce_Cover5S.wav,,,,,,,,,,,,,,,,,,,,,,,,,,,,,,,,,,,,,,,,,,,,,,,,,,,
,,,,,48901,1,2024-07-12_17h26.55.842,experiment,2024.1.5,MacIntel,60.24096386,6691931c2c63981b064e1f0c,6691ad90ddd5c749f563592f,,,,,,,,,,,,,,,,,,,,,,,,,,,,,,,,,,,,,,,,,,,,,,,,,,,,,,,,,,,,414.1793,421.1555,0.104152199,0.188310185,1.0,0.0,0.0,0.9666,compass,0.0,27.0,27.0,31.0,1.0,SoundStimuli/TossinAndTurnin_BobbyLewis_Original5S.wav,,,,,,,,,,,,,,,,,,,,,,,,,,,,,,,,,,,,,,,,,,,,,,,,,,,
,,,,,48901,1,2024-07-12_17h26.55.842,experiment,2024.1.5,MacIntel,60.24096386,6691931c2c63981b064e1f0c,6691ad90ddd5c749f563592f,,,,,,,,,,,,,,,,,,,,,,,,,,,,,,,,,,,,,,,,,,,,,,,,,,,,,,,,,,,,421.1645,428.4878,-0.336056858,-0.060293692,1.0,0.0,0.0,1.3156,compass,0.0,28.0,28.0,7.0,1.0,SoundStimuli/MackTheKnife_BobbyDarin_Cover5S.wav,,,,,,,,,,,,,,,,,,,,,,,,,,,,,,,,,,,,,,,,,,,,,,,,,,,
,,,,,48901,1,2024-07-12_17h26.55.842,experiment,2024.1.5,MacIntel,60.24096386,6691931c2c63981b064e1f0c,6691ad90ddd5c749f563592f,,,,,,,,,,,,,,,,,,,,,,,,,,,,,,,,,,,,,,,,,,,,,,,,,,,,,,,,,,,,428.4949,435.2554,0.138881655,0.133517795,1.0,0.0,0.0,0.7503,compass,0.0,29.0,29.0,17.0,1.0,SoundStimuli/IWannaDanceWithSomebody_WhitneyHouston_Original5S.wav,,,,,,,,,,,,,,,,,,,,,,,,,,,,,,,,,,,,,,,,,,,,,,,,,,,
,,,,,48901,1,2024-07-12_17h26.55.842,experiment,2024.1.5,MacIntel,60.24096386,6691931c2c63981b064e1f0c,6691ad90ddd5c749f563592f,,,,,,,,,,,,,,,,,,,,,,,,,,,,,,,,,,,,,,,,,,,,,,,,,,,,,,,,,,,,435.2636,442.1052,0.143507668,-0.080580874,1.0,0.0,0.0,0.8336,compass,0.0,30.0,30.0,23.0,1.0,SoundStimuli/IWalkTheLine_JohnnyCash_Original5S.wav,,,,,,,,,,,,,,,,,,,,,,,,,,,,,,,,,,,,,,,,,,,,,,,,,,,
,,,,,48901,1,2024-07-12_17h26.55.842,experiment,2024.1.5,MacIntel,60.24096386,6691931c2c63981b064e1f0c,6691ad90ddd5c749f563592f,,,,,,,,,,,,,,,,,,,,,,,,,,,,,,,,,,,,,,,,,,,,,,,,,,,,,,,,,,,,442.1139,448.5388,0.154701968,-0.072088397,1.0,0.0,0.0,0.4171,compass,0.0,31.0,31.0,14.0,1.0,SoundStimuli/LikeARollingStone_BobDylan_Original5S.wav,,,,,,,,,,,,,,,,,,,,,,,,,,,,,,,,,,,,,,,,,,,,,,,,,,,
,,,,,48901,1,2024-07-12_17h26.55.842,experiment,2024.1.5,MacIntel,60.24096386,6691931c2c63981b064e1f0c,6691ad90ddd5c749f563592f,,,,,,,,,,,,,,,,,,,,,,,,,,,,,,,,,,,,,,,,,,,,,,,,,,,,,,,,,,,,448.545,454.9555,0.163874421,-0.058040365,1.0,0.0,0.0,0.3997,compass,0.0,32.0,32.0,15.0,1.0,SoundStimuli/CrazyInLove_BeyonceFtJayZ_Cover5S.wav,,,,,,,,,,,,,,,,,,,,,,,,,,,,,,,,,,,,,,,,,,,,,,,,,,,
,,,,,48901,1,2024-07-12_17h26.55.842,experiment,2024.1.5,MacIntel,60.24096386,6691931c2c63981b064e1f0c,6691ad90ddd5c749f563592f,,,,,,,,,,,,,,,,,,,,,,,,,,,,,,,,,,,,,,,,,,,,,,,,,,,,,,,,,,,,454.9632,461.8218,0.119816985,-0.066413484,1.0,0.0,0.0,0.8505,compass,0.0,33.0,33.0,18.0,1.0,SoundStimuli/Weak_SWV_Cover5S.wav,,,,,,,,,,,,,,,,,,,,,,,,,,,,,,,,,,,,,,,,,,,,,,,,,,,
,,,,,48901,1,2024-07-12_17h26.55.842,experiment,2024.1.5,MacIntel,60.24096386,6691931c2c63981b064e1f0c,6691ad90ddd5c749f563592f,,,,,,,,,,,,,,,,,,,,,,,,,,,,,,,,,,,,,,,,,,,,,,,,,,,,,,,,,,,,461.8323,468.2556,0.185134549,0.255255353,1.0,0.0,0.0,0.4166,compass,0.0,34.0,34.0,10.0,1.0,SoundStimuli/LeFreak_Chic_Cover5S.wav,,,,,,,,,,,,,,,,,,,,,,,,,,,,,,,,,,,,,,,,,,,,,,,,,,,
,,,,,48901,1,2024-07-12_17h26.55.842,experiment,2024.1.5,MacIntel,60.24096386,6691931c2c63981b064e1f0c,6691ad90ddd5c749f563592f,,,,,,,,,,,,,,,,,,,,,,,,,,,,,,,,,,,,,,,,,,,,,,,,,,,,,,,,,,,,,,,,,,,,,,,,,,,468.2651,478.2346,space,9.9303,,478.2347,482.8059,right,4.5489,,0.0,0.0,0.0,0.0,1.0,block_order/blockD.xlsx,,,,,,,,,,,,,,,,,,,,,,,,,,,,,,,,,,,
,,,,,48901,1,2024-07-12_17h26.55.842,experiment,2024.1.5,MacIntel,60.24096386,6691931c2c63981b064e1f0c,6691ad90ddd5c749f563592f,,,,,,,,,,,,,,,,,,,,,,,,,,,,,,,,,,,,,,,,,,,,,,,,,,,,,,,,,,,,482.8224,489.5721,0.126331019,0.19134838,1.0,0.0,0.0,0.7335,compass,0.0,0.0,0.0,6.0,1.0,SoundStimuli/Levitating_DuaLipa_Original5S.wav,,,,,,,,,,,,,,,,,,,,,,,,,,,,,,,,,,,,,,,,,,,,,,,,,,,
,,,,,48901,1,2024-07-12_17h26.55.842,experiment,2024.1.5,MacIntel,60.24096386,6691931c2c63981b064e1f0c,6691ad90ddd5c749f563592f,,,,,,,,,,,,,,,,,,,,,,,,,,,,,,,,,,,,,,,,,,,,,,,,,,,,,,,,,,,,489.5828,496.0219,0.111668113,0.143352141,1.0,0.0,0.0,0.433,compass,0.0,1.0,1.0,31.0,1.0,SoundStimuli/TheBattleOfNewOrleans_JohnnyHorton_Original5S.wav,,,,,,,,,,,,,,,,,,,,,,,,,,,,,,,,,,,,,,,,,,,,,,,,,,,
,,,,,48901,1,2024-07-12_17h26.55.842,experiment,2024.1.5,MacIntel,60.24096386,6691931c2c63981b064e1f0c,6691ad90ddd5c749f563592f,,,,,,,,,,,,,,,,,,,,,,,,,,,,,,,,,,,,,,,,,,,,,,,,,,,,,,,,,,,,496.0316,506.5718,-0.266351997,-0.077275029,1.0,0.0,0.0,4.5333,compass,0.0,2.0,2.0,17.0,1.0,SoundStimuli/Fallin_AliciaKeys_Cover5S.wav,,,,,,,,,,,,,,,,,,,,,,,,,,,,,,,,,,,,,,,,,,,,,,,,,,,
,,,,,48901,1,2024-07-12_17h26.55.842,experiment,2024.1.5,MacIntel,60.24096386,6691931c2c63981b064e1f0c,6691ad90ddd5c749f563592f,,,,,,,,,,,,,,,,,,,,,,,,,,,,,,,,,,,,,,,,,,,,,,,,,,,,,,,,,,,,506.5804,515.3889,0.146972656,-0.029466869,1.0,0.0,0.0,2.8002,compass,0.0,3.0,3.0,0.0,1.0,SoundStimuli/StayinAlive_BeeGees_Cover5S.wav,,,,,,,,,,,,,,,,,,,,,,,,,,,,,,,,,,,,,,,,,,,,,,,,,,,
,,,,,48901,1,2024-07-12_17h26.55.842,experiment,2024.1.5,MacIntel,60.24096386,6691931c2c63981b064e1f0c,6691ad90ddd5c749f563592f,,,,,,,,,,,,,,,,,,,,,,,,,,,,,,,,,,,,,,,,,,,,,,,,,,,,,,,,,,,,515.3962,523.5052,0.134693287,0.104517506,1.0,0.0,0.0,2.1,compass,0.0,4.0,4.0,32.0,1.0,SoundStimuli/HeatWaves_GlassAnimals_Cover5S.wav,,,,,,,,,,,,,,,,,,,,,,,,,,,,,,,,,,,,,,,,,,,,,,,,,,,
,,,,,48901,1,2024-07-12_17h26.55.842,experiment,2024.1.5,MacIntel,60.24096386,6691931c2c63981b064e1f0c,6691ad90ddd5c749f563592f,,,,,,,,,,,,,,,,,,,,,,,,,,,,,,,,,,,,,,,,,,,,,,,,,,,,,,,,,,,,523.5159,534.5384,0.126602286,-0.089105903,1.0,0.0,0.0,5.0166,compass,0.0,5.0,5.0,14.0,1.0,SoundStimuli/BlindingLights_TheWeeknd_Cover5S.wav,,,,,,,,,,,,,,,,,,,,,,,,,,,,,,,,,,,,,,,,,,,,,,,,,,,
,,,,,48901,1,2024-07-12_17h26.55.842,experiment,2024.1.5,MacIntel,60.24096386,6691931c2c63981b064e1f0c,6691ad90ddd5c749f563592f,,,,,,,,,,,,,,,,,,,,,,,,,,,,,,,,,,,,,,,,,,,,,,,,,,,,,,,,,,,,534.5453,541.9879,0.132204861,-0.073614728,1.0,0.0,0.0,1.4327,compass,0.0,6.0,6.0,7.0,1.0,SoundStimuli/NoOne_AliciaKeys_Original5S.wav,,,,,,,,,,,,,,,,,,,,,,,,,,,,,,,,,,,,,,,,,,,,,,,,,,,
,,,,,48901,1,2024-07-12_17h26.55.842,experiment,2024.1.5,MacIntel,60.24096386,6691931c2c63981b064e1f0c,6691ad90ddd5c749f563592f,,,,,,,,,,,,,,,,,,,,,,,,,,,,,,,,,,,,,,,,,,,,,,,,,,,,,,,,,,,,541.9977,548.7884,0.133467159,-0.034570312,1.0,0.0,0.0,0.7831,compass,0.0,7.0,7.0,27.0,1.0,SoundStimuli/ShapeofYou_EdSheeran_Cover5S.wav,,,,,,,,,,,,,,,,,,,,,,,,,,,,,,,,,,,,,,,,,,,,,,,,,,,
,,,,,48901,1,2024-07-12_17h26.55.842,experiment,2024.1.5,MacIntel,60.24096386,6691931c2c63981b064e1f0c,6691ad90ddd5c749f563592f,,,,,,,,,,,,,,,,,,,,,,,,,,,,,,,,,,,,,,,,,,,,,,,,,,,,,,,,,,,,548.7981,555.6706,-0.18442202,-0.065194589,1.0,0.0,0.0,0.8655,compass,0.0,8.0,8.0,18.0,1.0,SoundStimuli/AnotherOneBitesTheDust_Queen_Cover5S.wav,,,,,,,,,,,,,,,,,,,,,,,,,,,,,,,,,,,,,,,,,,,,,,,,,,,
,,,,,48901,1,2024-07-12_17h26.55.842,experiment,2024.1.5,MacIntel,60.24096386,6691931c2c63981b064e1f0c,6691ad90ddd5c749f563592f,,,,,,,,,,,,,,,,,,,,,,,,,,,,,,,,,,,,,,,,,,,,,,,,,,,,,,,,,,,,555.6816,562.7711,0.144596354,0.143706597,1.0,0.0,0.0,1.083,compass,0.0,9.0,9.0,26.0,1.0,SoundStimuli/LivinOnAPrayer_BonJovi_Original5S.wav,,,,,,,,,,,,,,,,,,,,,,,,,,,,,,,,,,,,,,,,,,,,,,,,,,,
,,,,,48901,1,2024-07-12_17h26.55.842,experiment,2024.1.5,MacIntel,60.24096386,6691931c2c63981b064e1f0c,6691ad90ddd5c749f563592f,,,,,,,,,,,,,,,,,,,,,,,,,,,,,,,,,,,,,,,,,,,,,,,,,,,,,,,,,,,,562.7789,571.8217,-0.16255787,0.057230179,1.0,0.0,0.0,3.0332,compass,0.0,10.0,10.0,2.0,1.0,SoundStimuli/Mood_24kGoldnianndior_Original5S.wav,,,,,,,,,,,,,,,,,,,,,,,,,,,,,,,,,,,,,,,,,,,,,,,,,,,
,,,,,48901,1,2024-07-12_17h26.55.842,experiment,2024.1.5,MacIntel,60.24096386,6691931c2c63981b064e1f0c,6691ad90ddd5c749f563592f,,,,,,,,,,,,,,,,,,,,,,,,,,,,,,,,,,,,,,,,,,,,,,,,,,,,,,,,,,,,571.828,577.9049,0.138733362,-0.06859809,1.0,0.0,0.0,0.0663,compass,0.0,11.0,11.0,22.0,1.0,SoundStimuli/RockWithYou_MichaelJackson_Cover5S.wav,,,,,,,,,,,,,,,,,,,,,,,,,,,,,,,,,,,,,,,,,,,,,,,,,,,
,,,,,48901,1,2024-07-12_17h26.55.842,experiment,2024.1.5,MacIntel,60.24096386,6691931c2c63981b064e1f0c,6691ad90ddd5c749f563592f,,,,,,,,,,,,,,,,,,,,,,,,,,,,,,,,,,,,,,,,,,,,,,,,,,,,,,,,,,,,577.9109,584.7716,0.134801794,0.096936487,1.0,0.0,0.0,0.8498,compass,0.0,12.0,12.0,21.0,1.0,SoundStimuli/GoodGollyMissMolly_LittleRichard_Original5S.wav,,,,,,,,,,,,,,,,,,,,,,,,,,,,,,,,,,,,,,,,,,,,,,,,,,,
,,,,,48901,1,2024-07-12_17h26.55.842,experiment,2024.1.5,MacIntel,60.24096386,6691931c2c63981b064e1f0c,6691ad90ddd5c749f563592f,,,,,,,,,,,,,,,,,,,,,,,,,,,,,,,,,,,,,,,,,,,,,,,,,,,,,,,,,,,,584.7794,592.405,0.134172454,-0.078620515,1.0,0.0,0.0,1.6164,compass,0.0,13.0,13.0,1.0,1.0,SoundStimuli/Stronger_KanyeWest_Cover5S.wav,,,,,,,,,,,,,,,,,,,,,,,,,,,,,,,,,,,,,,,,,,,,,,,,,,,
,,,,,48901,1,2024-07-12_17h26.55.842,experiment,2024.1.5,MacIntel,60.24096386,6691931c2c63981b064e1f0c,6691ad90ddd5c749f563592f,,,,,,,,,,,,,,,,,,,,,,,,,,,,,,,,,,,,,,,,,,,,,,,,,,,,,,,,,,,,592.4142,603.0876,-0.067422598,0.078634983,1.0,0.0,0.0,4.6655,compass,0.0,14.0,14.0,23.0,1.0,SoundStimuli/StrawberryFieldsForever_TheBeatles_Cover5S.wav,,,,,,,,,,,,,,,,,,,,,,,,,,,,,,,,,,,,,,,,,,,,,,,,,,,
,,,,,48901,1,2024-07-12_17h26.55.842,experiment,2024.1.5,MacIntel,60.24096386,6691931c2c63981b064e1f0c,6691ad90ddd5c749f563592f,,,,,,,,,,,,,,,,,,,,,,,,,,,,,,,,,,,,,,,,,,,,,,,,,,,,,,,,,,,,603.0975,610.3716,0.093366609,-0.056752749,1.0,0.0,0.0,1.2672,compass,0.0,15.0,15.0,29.0,1.0,SoundStimuli/OldTownRoad_LilNasX_Cover5S.wav,,,,,,,,,,,,,,,,,,,,,,,,,,,,,,,,,,,,,,,,,,,,,,,,,,,
,,,,,48901,1,2024-07-12_17h26.55.842,experiment,2024.1.5,MacIntel,60.24096386,6691931c2c63981b064e1f0c,6691ad90ddd5c749f563592f,,,,,,,,,,,,,,,,,,,,,,,,,,,,,,,,,,,,,,,,,,,,,,,,,,,,,,,,,,,,610.3825,621.1046,-0.107617188,0.071694155,1.0,0.0,0.0,4.7163,compass,0.0,16.0,16.0,25.0,1.0,SoundStimuli/Respect_ArethaFranklin_Cover5S.wav,,,,,,,,,,,,,,,,,,,,,,,,,,,,,,,,,,,,,,,,,,,,,,,,,,,
,,,,,48901,1,2024-07-12_17h26.55.842,experiment,2024.1.5,MacIntel,60.24096386,6691931c2c63981b064e1f0c,6691ad90ddd5c749f563592f,,,,,,,,,,,,,,,,,,,,,,,,,,,,,,,,,,,,,,,,,,,,,,,,,,,,,,,,,,,,621.1108,627.9044,0.111711516,0.115860098,1.0,0.0,0.0,0.7835,compass,0.0,17.0,17.0,24.0,1.0,SoundStimuli/UptownFunk_MarkRonson_Cover5S.wav,,,,,,,,,,,,,,,,,,,,,,,,,,,,,,,,,,,,,,,,,,,,,,,,,,,
,,,,,48901,1,2024-07-12_17h26.55.842,experiment,2024.1.5,MacIntel,60.24096386,6691931c2c63981b064e1f0c,6691ad90ddd5c749f563592f,,,,,,,,,,,,,,,,,,,,,,,,,,,,,,,,,,,,,,,,,,,,,,,,,,,,,,,,,,,,627.9127,634.4548,0.080895544,0.10192419,1.0,0.0,0.0,0.5331,compass,0.0,18.0,18.0,4.0,1.0,SoundStimuli/GetUrFreakOn_MissyElliot_Cover5S.wav,,,,,,,,,,,,,,,,,,,,,,,,,,,,,,,,,,,,,,,,,,,,,,,,,,,
,,,,,48901,1,2024-07-12_17h26.55.842,experiment,2024.1.5,MacIntel,60.24096386,6691931c2c63981b064e1f0c,6691ad90ddd5c749f563592f,,,,,,,,,,,,,,,,,,,,,,,,,,,,,,,,,,,,,,,,,,,,,,,,,,,,,,,,,,,,634.4626,640.9048,0.155128762,-0.059027778,1.0,0.0,0.0,0.4334,compass,0.0,19.0,19.0,33.0,1.0,SoundStimuli/StandByMe_BenEKing_Original5S.wav,,,,,,,,,,,,,,,,,,,,,,,,,,,,,,,,,,,,,,,,,,,,,,,,,,,
,,,,,48901,1,2024-07-12_17h26.55.842,experiment,2024.1.5,MacIntel,60.24096386,6691931c2c63981b064e1f0c,6691ad90ddd5c749f563592f,,,,,,,,,,,,,,,,,,,,,,,,,,,,,,,,,,,,,,,,,,,,,,,,,,,,,,,,,,,,640.905,647.6381,0.085593895,0.135828993,1.0,0.0,0.0,0.7163,compass,0.0,20.0,20.0,28.0,1.0,SoundStimuli/ComeAndGetYourLove_Redbone_Cover5S.wav,,,,,,,,,,,,,,,,,,,,,,,,,,,,,,,,,,,,,,,,,,,,,,,,,,,
,,,,,48901,1,2024-07-12_17h26.55.842,experiment,2024.1.5,MacIntel,60.24096386,6691931c2c63981b064e1f0c,6691ad90ddd5c749f563592f,,,,,,,,,,,,,,,,,,,,,,,,,,,,,,,,,,,,,,,,,,,,,,,,,,,,,,,,,,,,647.6457,656.6873,-0.155617043,-0.050028935,1.0,0.0,0.0,3.0325,compass,0.0,21.0,21.0,13.0,1.0,SoundStimuli/GodOnlyKnows_TheBeachBoys_Original5S.wav,,,,,,,,,,,,,,,,,,,,,,,,,,,,,,,,,,,,,,,,,,,,,,,,,,,
,,,,,48901,1,2024-07-12_17h26.55.842,experiment,2024.1.5,MacIntel,60.24096386,6691931c2c63981b064e1f0c,6691ad90ddd5c749f563592f,,,,,,,,,,,,,,,,,,,,,,,,,,,,,,,,,,,,,,,,,,,,,,,,,,,,,,,,,,,,656.6944,664.3211,-0.170334201,-0.064724392,1.0,0.0,0.0,1.6162,compass,0.0,22.0,22.0,30.0,1.0,SoundStimuli/PokerFace_LadyGaga_Cover5S.wav,,,,,,,,,,,,,,,,,,,,,,,,,,,,,,,,,,,,,,,,,,,,,,,,,,,
,,,,,48901,1,2024-07-12_17h26.55.842,experiment,2024.1.5,MacIntel,60.24096386,6691931c2c63981b064e1f0c,6691ad90ddd5c749f563592f,,,,,,,,,,,,,,,,,,,,,,,,,,,,,,,,,,,,,,,,,,,,,,,,,,,,,,,,,,,,664.3306,670.8721,0.14526548,-0.057895689,1.0,0.0,0.0,0.5345,compass,0.0,23.0,23.0,9.0,1.0,SoundStimuli/Despacito_LuisFonsiDaddyYankee_Original5S.wav,,,,,,,,,,,,,,,,,,,,,,,,,,,,,,,,,,,,,,,,,,,,,,,,,,,
,,,,,48901,1,2024-07-12_17h26.55.842,experiment,2024.1.5,MacIntel,60.24096386,6691931c2c63981b064e1f0c,6691ad90ddd5c749f563592f,,,,,,,,,,,,,,,,,,,,,,,,,,,,,,,,,,,,,,,,,,,,,,,,,,,,,,,,,,,,670.8821,679.1882,-0.075564236,0.06452908,1.0,0.0,0.0,2.3011,compass,0.0,24.0,24.0,16.0,1.0,SoundStimuli/BohemianRhapsody_Queen_Cover5S.wav,,,,,,,,,,,,,,,,,,,,,,,,,,,,,,,,,,,,,,,,,,,,,,,,,,,
,,,,,48901,1,2024-07-12_17h26.55.842,experiment,2024.1.5,MacIntel,60.24096386,6691931c2c63981b064e1f0c,6691ad90ddd5c749f563592f,,,,,,,,,,,,,,,,,,,,,,,,,,,,,,,,,,,,,,,,,,,,,,,,,,,,,,,,,,,,679.2,685.6547,0.112485532,-0.06072772,1.0,0.0,0.0,0.4496,compass,0.0,25.0,25.0,5.0,1.0,SoundStimuli/MyGirl_TheTemptations_Cover5S.wav,,,,,,,,,,,,,,,,,,,,,,,,,,,,,,,,,,,,,,,,,,,,,,,,,,,
,,,,,48901,1,2024-07-12_17h26.55.842,experiment,2024.1.5,MacIntel,60.24096386,6691931c2c63981b064e1f0c,6691ad90ddd5c749f563592f,,,,,,,,,,,,,,,,,,,,,,,,,,,,,,,,,,,,,,,,,,,,,,,,,,,,,,,,,,,,685.662,693.2214,0.109259259,-0.063501881,1.0,0.0,0.0,1.55,compass,0.0,26.0,26.0,8.0,1.0,SoundStimuli/LikeAPrayer_Madonna_Cover5S.wav,,,,,,,,,,,,,,,,,,,,,,,,,,,,,,,,,,,,,,,,,,,,,,,,,,,
,,,,,48901,1,2024-07-12_17h26.55.842,experiment,2024.1.5,MacIntel,60.24096386,6691931c2c63981b064e1f0c,6691ad90ddd5c749f563592f,,,,,,,,,,,,,,,,,,,,,,,,,,,,,,,,,,,,,,,,,,,,,,,,,,,,,,,,,,,,693.2314,700.0045,0.142390046,-0.06078559,1.0,0.0,0.0,0.7667,compass,0.0,27.0,27.0,19.0,1.0,SoundStimuli/LetsGetItOn_MarvinGaye_Original5S.wav,,,,,,,,,,,,,,,,,,,,,,,,,,,,,,,,,,,,,,,,,,,,,,,,,,,
,,,,,48901,1,2024-07-12_17h26.55.842,experiment,2024.1.5,MacIntel,60.24096386,6691931c2c63981b064e1f0c,6691ad90ddd5c749f563592f,,,,,,,,,,,,,,,,,,,,,,,,,,,,,,,,,,,,,,,,,,,,,,,,,,,,,,,,,,,,700.0123,711.7047,-0.133528646,0.110069444,1.0,0.0,0.0,5.683,compass,0.0,28.0,28.0,20.0,1.0,SoundStimuli/HeyYa_Outkast_Original5S.wav,,,,,,,,,,,,,,,,,,,,,,,,,,,,,,,,,,,,,,,,,,,,,,,,,,,
,,,,,48901,1,2024-07-12_17h26.55.842,experiment,2024.1.5,MacIntel,60.24096386,6691931c2c63981b064e1f0c,6691ad90ddd5c749f563592f,,,,,,,,,,,,,,,,,,,,,,,,,,,,,,,,,,,,,,,,,,,,,,,,,,,,,,,,,,,,711.7151,718.0705,-0.138241464,-0.071780961,1.0,0.0,0.0,0.349,compass,0.0,29.0,29.0,12.0,1.0,SoundStimuli/IWillAlwaysLoveYou_WhitneyHouston_Original5S.wav,,,,,,,,,,,,,,,,,,,,,,,,,,,,,,,,,,,,,,,,,,,,,,,,,,,
,,,,,48901,1,2024-07-12_17h26.55.842,experiment,2024.1.5,MacIntel,60.24096386,6691931c2c63981b064e1f0c,6691ad90ddd5c749f563592f,,,,,,,,,,,,,,,,,,,,,,,,,,,,,,,,,,,,,,,,,,,,,,,,,,,,,,,,,,,,718.0811,725.1545,-0.145797164,-0.071943721,1.0,0.0,0.0,1.0673,compass,0.0,30.0,30.0,34.0,1.0,SoundStimuli/AChangeIsGonnaCome_SamCooke_Original5S.wav,,,,,,,,,,,,,,,,,,,,,,,,,,,,,,,,,,,,,,,,,,,,,,,,,,,
,,,,,48901,1,2024-07-12_17h26.55.842,experiment,2024.1.5,MacIntel,60.24096386,6691931c2c63981b064e1f0c,6691ad90ddd5c749f563592f,,,,,,,,,,,,,,,,,,,,,,,,,,,,,,,,,,,,,,,,,,,,,,,,,,,,,,,,,,,,725.1631,733.2545,0.076891638,0.109678819,1.0,0.0,0.0,2.0833,compass,0.0,31.0,31.0,15.0,1.0,SoundStimuli/TikTok_Kesha_Original5S.wav,,,,,,,,,,,,,,,,,,,,,,,,,,,,,,,,,,,,,,,,,,,,,,,,,,,
,,,,,48901,1,2024-07-12_17h26.55.842,experiment,2024.1.5,MacIntel,60.24096386,6691931c2c63981b064e1f0c,6691ad90ddd5c749f563592f,,,,,,,,,,,,,,,,,,,,,,,,,,,,,,,,,,,,,,,,,,,,,,,,,,,,,,,,,,,,733.2635,742.0211,0.053244358,0.066312211,1.0,0.0,0.0,2.7497,compass,0.0,32.0,32.0,11.0,1.0,SoundStimuli/Superstition_StevieWonder_Original5S.wav,,,,,,,,,,,,,,,,,,,,,,,,,,,,,,,,,,,,,,,,,,,,,,,,,,,
,,,,,48901,1,2024-07-12_17h26.55.842,experiment,2024.1.5,MacIntel,60.24096386,6691931c2c63981b064e1f0c,6691ad90ddd5c749f563592f,,,,,,,,,,,,,,,,,,,,,,,,,,,,,,,,,,,,,,,,,,,,,,,,,,,,,,,,,,,,742.0309,751.2877,-0.11624349,-0.072931134,1.0,0.0,0.0,3.25,compass,0.0,33.0,33.0,10.0,1.0,SoundStimuli/BadDay_DanielPowter_Original5S.wav,,,,,,,,,,,,,,,,,,,,,,,,,,,,,,,,,,,,,,,,,,,,,,,,,,,
,,,,,48901,1,2024-07-12_17h26.55.842,experiment,2024.1.5,MacIntel,60.24096386,6691931c2c63981b064e1f0c,6691ad90ddd5c749f563592f,,,,,,,,,,,,,,,,,,,,,,,,,,,,,,,,,,,,,,,,,,,,,,,,,,,,,,,,,,,,751.2995,757.8876,-0.128092448,-0.049287471,1.0,0.0,0.0,0.5841,compass,0.0,34.0,34.0,3.0,1.0,SoundStimuli/NoScrubs_TLC_Cover5S.wav,,,,,,,,,,,,,,,,,,,,,,,,,,,,,,,,,,,,,,,,,,,,,,,,,,,
,,,,,48901,1,2024-07-12_17h26.55.842,experiment,2024.1.5,MacIntel,60.24096386,6691931c2c63981b064e1f0c,6691ad90ddd5c749f563592f,,,,,,,,,,,,,,,,,,,,,,,,,,,,,,,,,,,,,,,,,,,,,,,,,,,,,,,,,,,,,,,,,,,,,,,,,,,757.8947,767.4149,space,9.5055,,767.4149,770.0037,right,2.5803,,0.0,1.0,1.0,1.0,1.0,block_order/blockC.xlsx,,,,,,,,,,,,,,,,,,,,,,,,,,,,,,,,,,,
,,,,,48901,1,2024-07-12_17h26.55.842,experiment,2024.1.5,MacIntel,60.24096386,6691931c2c63981b064e1f0c,6691ad90ddd5c749f563592f,,,,,,,,,,,,,,,,,,,,,,,,,,,,,,,,,,,,,,,,,,,,,,,,,,,,,,,,,,,,770.0121,776.1702,0.104763455,-0.064756944,1.0,0.0,0.0,0.1506,compass,0.0,0.0,0.0,7.0,1.0,SoundStimuli/MackTheKnife_BobbyDarin_Original5S.wav,,,,,,,,,,,,,,,,,,,,,,,,,,,,,,,,,,,,,,,,,,,,,,,,,,,
,,,,,48901,1,2024-07-12_17h26.55.842,experiment,2024.1.5,MacIntel,60.24096386,6691931c2c63981b064e1f0c,6691ad90ddd5c749f563592f,,,,,,,,,,,,,,,,,,,,,,,,,,,,,,,,,,,,,,,,,,,,,,,,,,,,,,,,,,,,776.177,783.1709,0.05671658,-0.031770833,1.0,0.0,0.0,0.983,compass,0.0,1.0,1.0,13.0,1.0,SoundStimuli/Perfect_EdSheeran_Original5S.wav,,,,,,,,,,,,,,,,,,,,,,,,,,,,,,,,,,,,,,,,,,,,,,,,,,,
,,,,,48901,1,2024-07-12_17h26.55.842,experiment,2024.1.5,MacIntel,60.24096386,6691931c2c63981b064e1f0c,6691ad90ddd5c749f563592f,,,,,,,,,,,,,,,,,,,,,,,,,,,,,,,,,,,,,,,,,,,,,,,,,,,,,,,,,,,,783.1813,789.9042,0.123922164,-0.075452112,1.0,0.0,0.0,0.7164,compass,0.0,2.0,2.0,19.0,1.0,SoundStimuli/YouLightUpMyLife_DebbyBoone_Cover5S.wav,,,,,,,,,,,,,,,,,,,,,,,,,,,,,,,,,,,,,,,,,,,,,,,,,,,
,,,,,48901,1,2024-07-12_17h26.55.842,experiment,2024.1.5,MacIntel,60.24096386,6691931c2c63981b064e1f0c,6691ad90ddd5c749f563592f,,,,,,,,,,,,,,,,,,,,,,,,,,,,,,,,,,,,,,,,,,,,,,,,,,,,,,,,,,,,789.9134,796.7042,0.077741609,0.118406395,1.0,0.0,0.0,0.7834,compass,0.0,3.0,3.0,20.0,1.0,SoundStimuli/FlashdanceWhatAFeeling_IreneCara_Cover5S.wav,,,,,,,,,,,,,,,,,,,,,,,,,,,,,,,,,,,,,,,,,,,,,,,,,,,
,,,,,48901,1,2024-07-12_17h26.55.842,experiment,2024.1.5,MacIntel,60.24096386,6691931c2c63981b064e1f0c,6691ad90ddd5c749f563592f,,,,,,,,,,,,,,,,,,,,,,,,,,,,,,,,,,,,,,,,,,,,,,,,,,,,,,,,,,,,796.7142,804.0532,0.086487269,-0.04770327,1.0,0.0,0.0,1.3323,compass,0.0,4.0,4.0,0.0,1.0,SoundStimuli/GimmeShelter_RollingStones_Cover5S.wav,,,,,,,,,,,,,,,,,,,,,,,,,,,,,,,,,,,,,,,,,,,,,,,,,,,
,,,,,48901,1,2024-07-12_17h26.55.842,experiment,2024.1.5,MacIntel,60.24096386,6691931c2c63981b064e1f0c,6691ad90ddd5c749f563592f,,,,,,,,,,,,,,,,,,,,,,,,,,,,,,,,,,,,,,,,,,,,,,,,,,,,,,,,,,,,804.0625,810.3209,0.111132812,-0.069552951,1.0,0.0,0.0,0.2498,compass,0.0,5.0,5.0,23.0,1.0,SoundStimuli/IWalkTheLine_JohnnyCash_Cover5S.wav,,,,,,,,,,,,,,,,,,,,,,,,,,,,,,,,,,,,,,,,,,,,,,,,,,,
,,,,,48901,1,2024-07-12_17h26.55.842,experiment,2024.1.5,MacIntel,60.24096386,6691931c2c63981b064e1f0c,6691ad90ddd5c749f563592f,,,,,,,,,,,,,,,,,,,,,,,,,,,,,,,,,,,,,,,,,,,,,,,,,,,,,,,,,,,,810.3288,816.7875,-0.169205729,-0.065480324,1.0,0.0,0.0,0.45,compass,0.0,6.0,6.0,33.0,1.0,SoundStimuli/TheBoyIsMine_BrandyMonica_Cover5S.wav,,,,,,,,,,,,,,,,,,,,,,,,,,,,,,,,,,,,,,,,,,,,,,,,,,,
,,,,,48901,1,2024-07-12_17h26.55.842,experiment,2024.1.5,MacIntel,60.24096386,6691931c2c63981b064e1f0c,6691ad90ddd5c749f563592f,,,,,,,,,,,,,,,,,,,,,,,,,,,,,,,,,,,,,,,,,,,,,,,,,,,,,,,,,,,,816.7878,823.5541,-0.108543113,0.101121238,1.0,0.0,0.0,0.7498,compass,0.0,7.0,7.0,34.0,1.0,SoundStimuli/Irreplaceable_Beyonce_Original5S.wav,,,,,,,,,,,,,,,,,,,,,,,,,,,,,,,,,,,,,,,,,,,,,,,,,,,
,,,,,48901,1,2024-07-12_17h26.55.842,experiment,2024.1.5,MacIntel,60.24096386,6691931c2c63981b064e1f0c,6691ad90ddd5c749f563592f,,,,,,,,,,,,,,,,,,,,,,,,,,,,,,,,,,,,,,,,,,,,,,,,,,,,,,,,,,,,823.5601,830.471,0.069151476,-0.052575231,1.0,0.0,0.0,0.9,compass,0.0,8.0,8.0,31.0,1.0,SoundStimuli/TossinAndTurnin_BobbyLewis_Cover5S.wav,,,,,,,,,,,,,,,,,,,,,,,,,,,,,,,,,,,,,,,,,,,,,,,,,,,
,,,,,48901,1,2024-07-12_17h26.55.842,experiment,2024.1.5,MacIntel,60.24096386,6691931c2c63981b064e1f0c,6691ad90ddd5c749f563592f,,,,,,,,,,,,,,,,,,,,,,,,,,,,,,,,,,,,,,,,,,,,,,,,,,,,,,,,,,,,830.4823,836.5208,0.093471499,-0.087510851,1.0,0.0,0.0,0.0333,compass,0.0,9.0,9.0,32.0,1.0,SoundStimuli/Dilemma_NellyKellyRowland_Original5S.wav,,,,,,,,,,,,,,,,,,,,,,,,,,,,,,,,,,,,,,,,,,,,,,,,,,,
,,,,,48901,1,2024-07-12_17h26.55.842,experiment,2024.1.5,MacIntel,60.24096386,6691931c2c63981b064e1f0c,6691ad90ddd5c749f563592f,,,,,,,,,,,,,,,,,,,,,,,,,,,,,,,,,,,,,,,,,,,,,,,,,,,,,,,,,,,,836.5304,842.6706,0.098231337,0.094972512,1.0,0.0,0.0,0.1332,compass,0.0,10.0,10.0,27.0,1.0,SoundStimuli/EyeOfTheTiger_Survivor_Original5S.wav,,,,,,,,,,,,,,,,,,,,,,,,,,,,,,,,,,,,,,,,,,,,,,,,,,,
,,,,,48901,1,2024-07-12_17h26.55.842,experiment,2024.1.5,MacIntel,60.24096386,6691931c2c63981b064e1f0c,6691ad90ddd5c749f563592f,,,,,,,,,,,,,,,,,,,,,,,,,,,,,,,,,,,,,,,,,,,,,,,,,,,,,,,,,,,,842.6798,849.3868,0.120243779,-0.0947989,1.0,0.0,0.0,0.7004,compass,0.0,11.0,11.0,1.0,1.0,SoundStimuli/Smooth_SantanaRobThomas_Cover5S.wav,,,,,,,,,,,,,,,,,,,,,,,,,,,,,,,,,,,,,,,,,,,,,,,,,,,
,,,,,48901,1,2024-07-12_17h26.55.842,experiment,2024.1.5,MacIntel,60.24096386,6691931c2c63981b064e1f0c,6691ad90ddd5c749f563592f,,,,,,,,,,,,,,,,,,,,,,,,,,,,,,,,,,,,,,,,,,,,,,,,,,,,,,,,,,,,849.3946,858.0369,-0.090791377,-0.06848235,1.0,0.0,0.0,2.6326,compass,0.0,12.0,12.0,28.0,1.0,SoundStimuli/IWantToHoldYourHand_TheBeatles_Cover5S.wav,,,,,,,,,,,,,,,,,,,,,,,,,,,,,,,,,,,,,,,,,,,,,,,,,,,
,,,,,48901,1,2024-07-12_17h26.55.842,experiment,2024.1.5,MacIntel,60.24096386,6691931c2c63981b064e1f0c,6691ad90ddd5c749f563592f,,,,,,,,,,,,,,,,,,,,,,,,,,,,,,,,,,,,,,,,,,,,,,,,,,,,,,,,,,,,858.0423,864.5541,0.089756944,0.095894821,1.0,0.0,0.0,0.5002,compass,0.0,13.0,13.0,26.0,1.0,SoundStimuli/TheSign_AceOfBase_Original5S.wav,,,,,,,,,,,,,,,,,,,,,,,,,,,,,,,,,,,,,,,,,,,,,,,,,,,
,,,,,48901,1,2024-07-12_17h26.55.842,experiment,2024.1.5,MacIntel,60.24096386,6691931c2c63981b064e1f0c,6691ad90ddd5c749f563592f,,,,,,,,,,,,,,,,,,,,,,,,,,,,,,,,,,,,,,,,,,,,,,,,,,,,,,,,,,,,864.5635,870.6874,0.100600405,-0.09233941,1.0,0.0,0.0,0.1163,compass,0.0,14.0,14.0,25.0,1.0,SoundStimuli/IllMakeLoveToYou_BoyzIIMen_Original5S.wav,,,,,,,,,,,,,,,,,,,,,,,,,,,,,,,,,,,,,,,,,,,,,,,,,,,
,,,,,48901,1,2024-07-12_17h26.55.842,experiment,2024.1.5,MacIntel,60.24096386,6691931c2c63981b064e1f0c,6691ad90ddd5c749f563592f,,,,,,,,,,,,,,,,,,,,,,,,,,,,,,,,,,,,,,,,,,,,,,,,,,,,,,,,,,,,870.6927,876.7536,0.089116753,-0.071578414,1.0,0.0,0.0,0.049,compass,0.0,15.0,15.0,17.0,1.0,SoundStimuli/IWannaDanceWithSomebody_WhitneyHouston_Cover5S.wav,,,,,,,,,,,,,,,,,,,,,,,,,,,,,,,,,,,,,,,,,,,,,,,,,,,
,,,,,48901,1,2024-07-12_17h26.55.842,experiment,2024.1.5,MacIntel,60.24096386,6691931c2c63981b064e1f0c,6691ad90ddd5c749f563592f,,,,,,,,,,,,,,,,,,,,,,,,,,,,,,,,,,,,,,,,,,,,,,,,,,,,,,,,,,,,876.7652,883.988,-0.141858362,-0.064673756,1.0,0.0,0.0,1.2181,compass,0.0,16.0,16.0,14.0,1.0,SoundStimuli/LikeARollingStone_BobDylan_Cover5S.wav,,,,,,,,,,,,,,,,,,,,,,,,,,,,,,,,,,,,,,,,,,,,,,,,,,,
,,,,,48901,1,2024-07-12_17h26.55.842,experiment,2024.1.5,MacIntel,60.24096386,6691931c2c63981b064e1f0c,6691ad90ddd5c749f563592f,,,,,,,,,,,,,,,,,,,,,,,,,,,,,,,,,,,,,,,,,,,,,,,,,,,,,,,,,,,,883.9966,892.2545,-0.080551939,-0.083669705,1.0,0.0,0.0,2.2505,compass,0.0,17.0,17.0,5.0,1.0,SoundStimuli/JoyToTheWorld_ThreeDogNight_Cover5S.wav,,,,,,,,,,,,,,,,,,,,,,,,,,,,,,,,,,,,,,,,,,,,,,,,,,,
,,,,,48901,1,2024-07-12_17h26.55.842,experiment,2024.1.5,MacIntel,60.24096386,6691931c2c63981b064e1f0c,6691ad90ddd5c749f563592f,,,,,,,,,,,,,,,,,,,,,,,,,,,,,,,,,,,,,,,,,,,,,,,,,,,,,,,,,,,,892.2629,898.6226,-0.18598452,-0.041413484,1.0,0.0,0.0,0.3515,compass,0.0,18.0,18.0,9.0,1.0,SoundStimuli/HowDoILive_LeAnnRimes_Original5S.wav,,,,,,,,,,,,,,,,,,,,,,,,,,,,,,,,,,,,,,,,,,,,,,,,,,,
,,,,,48901,1,2024-07-12_17h26.55.842,experiment,2024.1.5,MacIntel,60.24096386,6691931c2c63981b064e1f0c,6691ad90ddd5c749f563592f,,,,,,,,,,,,,,,,,,,,,,,,,,,,,,,,,,,,,,,,,,,,,,,,,,,,,,,,,,,,898.6336,904.9532,0.063979311,-0.081911892,1.0,0.0,0.0,0.3167,compass,0.0,19.0,19.0,3.0,1.0,SoundStimuli/PartyRockAnthem_LMFAO_Cover5S.wav,,,,,,,,,,,,,,,,,,,,,,,,,,,,,,,,,,,,,,,,,,,,,,,,,,,
,,,,,48901,1,2024-07-12_17h26.55.842,experiment,2024.1.5,MacIntel,60.24096386,6691931c2c63981b064e1f0c,6691ad90ddd5c749f563592f,,,,,,,,,,,,,,,,,,,,,,,,,,,,,,,,,,,,,,,,,,,,,,,,,,,,,,,,,,,,904.9617,911.5697,-0.138993779,-0.082591869,1.0,0.0,0.0,0.5988,compass,0.0,20.0,20.0,8.0,1.0,SoundStimuli/EndlessLove_DianaRossLionelRichie_Original5S.wav,,,,,,,,,,,,,,,,,,,,,,,,,,,,,,,,,,,,,,,,,,,,,,,,,,,
,,,,,48901,1,2024-07-12_17h26.55.842,experiment,2024.1.5,MacIntel,60.24096386,6691931c2c63981b064e1f0c,6691ad90ddd5c749f563592f,,,,,,,,,,,,,,,,,,,,,,,,,,,,,,,,,,,,,,,,,,,,,,,,,,,,,,,,,,,,911.5805,918.1375,0.099121094,0.119911024,1.0,0.0,0.0,0.5501,compass,0.0,21.0,21.0,15.0,1.0,SoundStimuli/CrazyInLove_BeyonceFtJayZ_Original5S.wav,,,,,,,,,,,,,,,,,,,,,,,,,,,,,,,,,,,,,,,,,,,,,,,,,,,
,,,,,48901,1,2024-07-12_17h26.55.842,experiment,2024.1.5,MacIntel,60.24096386,6691931c2c63981b064e1f0c,6691ad90ddd5c749f563592f,,,,,,,,,,,,,,,,,,,,,,,,,,,,,,,,,,,,,,,,,,,,,,,,,,,,,,,,,,,,918.1476,924.6541,0.117827691,-0.08156467,1.0,0.0,0.0,0.4999,compass,0.0,22.0,22.0,29.0,1.0,SoundStimuli/BetteDavisEyes_KimCarnes_Cover5S.wav,,,,,,,,,,,,,,,,,,,,,,,,,,,,,,,,,,,,,,,,,,,,,,,,,,,
,,,,,48901,1,2024-07-12_17h26.55.842,experiment,2024.1.5,MacIntel,60.24096386,6691931c2c63981b064e1f0c,6691ad90ddd5c749f563592f,,,,,,,,,,,,,,,,,,,,,,,,,,,,,,,,,,,,,,,,,,,,,,,,,,,,,,,,,,,,924.6622,931.2535,0.136259404,-0.085080295,1.0,0.0,0.0,0.5831,compass,0.0,23.0,23.0,12.0,1.0,SoundStimuli/UnbreakMyHeart_ToniBraxton_Cover5S.wav,,,,,,,,,,,,,,,,,,,,,,,,,,,,,,,,,,,,,,,,,,,,,,,,,,,
,,,,,48901,1,2024-07-12_17h26.55.842,experiment,2024.1.5,MacIntel,60.24096386,6691931c2c63981b064e1f0c,6691ad90ddd5c749f563592f,,,,,,,,,,,,,,,,,,,,,,,,,,,,,,,,,,,,,,,,,,,,,,,,,,,,,,,,,,,,931.2583,937.9368,-0.128428819,0.101888021,1.0,0.0,0.0,0.6659,compass,0.0,24.0,24.0,6.0,1.0,SoundStimuli/SaveYourTears_TheWeekndArianaGrande_Original5S.wav,,,,,,,,,,,,,,,,,,,,,,,,,,,,,,,,,,,,,,,,,,,,,,,,,,,
,,,,,48901,1,2024-07-12_17h26.55.842,experiment,2024.1.5,MacIntel,60.24096386,6691931c2c63981b064e1f0c,6691ad90ddd5c749f563592f,,,,,,,,,,,,,,,,,,,,,,,,,,,,,,,,,,,,,,,,,,,,,,,,,,,,,,,,,,,,937.9447,946.4707,0.086367911,0.063935909,1.0,0.0,0.0,2.5169,compass,0.0,25.0,25.0,24.0,1.0,SoundStimuli/Kiss_Prince_Original5S.wav,,,,,,,,,,,,,,,,,,,,,,,,,,,,,,,,,,,,,,,,,,,,,,,,,,,
,,,,,48901,1,2024-07-12_17h26.55.842,experiment,2024.1.5,MacIntel,60.24096386,6691931c2c63981b064e1f0c,6691ad90ddd5c749f563592f,,,,,,,,,,,,,,,,,,,,,,,,,,,,,,,,,,,,,,,,,,,,,,,,,,,,,,,,,,,,946.4778,954.1864,-0.122706887,0.099913194,1.0,0.0,0.0,1.699,compass,0.0,26.0,26.0,11.0,1.0,SoundStimuli/BlurredLines_RobinThicke_Original5S.wav,,,,,,,,,,,,,,,,,,,,,,,,,,,,,,,,,,,,,,,,,,,,,,,,,,,
,,,,,48901,1,2024-07-12_17h26.55.842,experiment,2024.1.5,MacIntel,60.24096386,6691931c2c63981b064e1f0c,6691ad90ddd5c749f563592f,,,,,,,,,,,,,,,,,,,,,,,,,,,,,,,,,,,,,,,,,,,,,,,,,,,,,,,,,,,,954.1951,961.0036,0.093891059,0.114800347,1.0,0.0,0.0,0.8,compass,0.0,27.0,27.0,22.0,1.0,SoundStimuli/Happy_PharellWilliams_Cover5S.wav,,,,,,,,,,,,,,,,,,,,,,,,,,,,,,,,,,,,,,,,,,,,,,,,,,,
,,,,,48901,1,2024-07-12_17h26.55.842,experiment,2024.1.5,MacIntel,60.24096386,6691931c2c63981b064e1f0c,6691ad90ddd5c749f563592f,,,,,,,,,,,,,,,,,,,,,,,,,,,,,,,,,,,,,,,,,,,,,,,,,,,,,,,,,,,,961.0117,968.7541,0.085991753,-0.055692998,1.0,0.0,0.0,1.7335,compass,0.0,28.0,28.0,21.0,1.0,SoundStimuli/BridgeOverTroubledWater_SimonAndGarfunkel_Cover5S.wav,,,,,,,,,,,,,,,,,,,,,,,,,,,,,,,,,,,,,,,,,,,,,,,,,,,
,,,,,48901,1,2024-07-12_17h26.55.842,experiment,2024.1.5,MacIntel,60.24096386,6691931c2c63981b064e1f0c,6691ad90ddd5c749f563592f,,,,,,,,,,,,,,,,,,,,,,,,,,,,,,,,,,,,,,,,,,,,,,,,,,,,,,,,,,,,968.7622,975.9536,0.102683738,-0.026171875,1.0,0.0,0.0,1.1832,compass,0.0,29.0,29.0,18.0,1.0,SoundStimuli/Weak_SWV_Original5S.wav,,,,,,,,,,,,,,,,,,,,,,,,,,,,,,,,,,,,,,,,,,,,,,,,,,,
,,,,,48901,1,2024-07-12_17h26.55.842,experiment,2024.1.5,MacIntel,60.24096386,6691931c2c63981b064e1f0c,6691ad90ddd5c749f563592f,,,,,,,,,,,,,,,,,,,,,,,,,,,,,,,,,,,,,,,,,,,,,,,,,,,,,,,,,,,,975.9627,984.4361,0.084280961,-0.05306713,1.0,0.0,0.0,2.4658,compass,0.0,30.0,30.0,4.0,1.0,SoundStimuli/Dreams_FleetwoodMac_Cover5S.wav,,,,,,,,,,,,,,,,,,,,,,,,,,,,,,,,,,,,,,,,,,,,,,,,,,,
,,,,,48901,1,2024-07-12_17h26.55.842,experiment,2024.1.5,MacIntel,60.24096386,6691931c2c63981b064e1f0c,6691ad90ddd5c749f563592f,,,,,,,,,,,,,,,,,,,,,,,,,,,,,,,,,,,,,,,,,,,,,,,,,,,,,,,,,,,,984.4411,991.9036,-0.209280961,-0.031720197,1.0,0.0,0.0,1.4513,compass,0.0,31.0,31.0,30.0,1.0,SoundStimuli/SomebodyThatIUsedtoKnow_Gotye_Cover5S.wav,,,,,,,,,,,,,,,,,,,,,,,,,,,,,,,,,,,,,,,,,,,,,,,,,,,
,,,,,48901,1,2024-07-12_17h26.55.842,experiment,2024.1.5,MacIntel,60.24096386,6691931c2c63981b064e1f0c,6691ad90ddd5c749f563592f,,,,,,,,,,,,,,,,,,,,,,,,,,,,,,,,,,,,,,,,,,,,,,,,,,,,,,,,,,,,991.9122,1000.0373,0.102918837,0.136093027,1.0,0.0,0.0,2.1178,compass,0.0,32.0,32.0,10.0,1.0,SoundStimuli/LeFreak_Chic_Original5S.wav,,,,,,,,,,,,,,,,,,,,,,,,,,,,,,,,,,,,,,,,,,,,,,,,,,,
,,,,,48901,1,2024-07-12_17h26.55.842,experiment,2024.1.5,MacIntel,60.24096386,6691931c2c63981b064e1f0c,6691ad90ddd5c749f563592f,,,,,,,,,,,,,,,,,,,,,,,,,,,,,,,,,,,,,,,,,,,,,,,,,,,,,,,,,,,,1000.0378,1006.1928,0.118373843,-0.104094329,1.0,0.0,0.0,0.1392,compass,0.0,33.0,33.0,16.0,1.0,SoundStimuli/ItsAllInTheGame_TommyEdwards_Original5S.wav,,,,,,,,,,,,,,,,,,,,,,,,,,,,,,,,,,,,,,,,,,,,,,,,,,,
,,,,,48901,1,2024-07-12_17h26.55.842,experiment,2024.1.5,MacIntel,60.24096386,6691931c2c63981b064e1f0c,6691ad90ddd5c749f563592f,,,,,,,,,,,,,,,,,,,,,,,,,,,,,,,,,,,,,,,,,,,,,,,,,,,,,,,,,,,,1006.2004,1014.4371,-0.152871817,0.112405961,1.0,0.0,0.0,2.2337,compass,0.0,34.0,34.0,2.0,1.0,SoundStimuli/SmellsLikeTeenSpirit_Nirvana_Cover5S.wav,,,,,,,,,,,,,,,,,,,,,,,,,,,,,,,,,,,,,,,,,,,,,,,,,,,
,,,,,48901,1,2024-07-12_17h26.55.842,experiment,2024.1.5,MacIntel,60.24096386,6691931c2c63981b064e1f0c,6691ad90ddd5c749f563592f,,,,,,,,,,,,,,,,,,,,,,,,,,,,,,,,,,,,,,,,,,,,,,,,,,,,,,,,,,,,,,,,,,,,,,,,,,,1014.4439,1035.113,space,20.639,,1035.1132,1040.6701,right,5.5377,,0.0,2.0,2.0,2.0,1.0,block_order/blockB.xlsx,,,,,,,,,,,,,,,,,,,,,,,,,,,,,,,,,,,
,,,,,48901,1,2024-07-12_17h26.55.842,experiment,2024.1.5,MacIntel,60.24096386,6691931c2c63981b064e1f0c,6691ad90ddd5c749f563592f,,,,,,,,,,,,,,,,,,,,,,,,,,,,,,,,,,,,,,,,,,,,,,,,,,,,,,,,,,,,1040.6878,1048.3035,-0.09614077,-0.068485966,1.0,0.0,0.0,1.6004,compass,0.0,0.0,0.0,10.0,1.0,SoundStimuli/BadDay_DanielPowter_Cover5S.wav,,,,,,,,,,,,,,,,,,,,,,,,,,,,,,,,,,,,,,,,,,,,,,,,,,,
,,,,,48901,1,2024-07-12_17h26.55.842,experiment,2024.1.5,MacIntel,60.24096386,6691931c2c63981b064e1f0c,6691ad90ddd5c749f563592f,,,,,,,,,,,,,,,,,,,,,,,,,,,,,,,,,,,,,,,,,,,,,,,,,,,,,,,,,,,,1048.3126,1054.7536,0.112123843,0.134078414,1.0,0.0,0.0,0.4337,compass,0.0,1.0,1.0,21.0,1.0,SoundStimuli/GoodGollyMissMolly_LittleRichard_Cover5S.wav,,,,,,,,,,,,,,,,,,,,,,,,,,,,,,,,,,,,,,,,,,,,,,,,,,,
,,,,,48901,1,2024-07-12_17h26.55.842,experiment,2024.1.5,MacIntel,60.24096386,6691931c2c63981b064e1f0c,6691ad90ddd5c749f563592f,,,,,,,,,,,,,,,,,,,,,,,,,,,,,,,,,,,,,,,,,,,,,,,,,,,,,,,,,,,,1054.76,1063.2867,-0.143934462,-0.101945891,1.0,0.0,0.0,2.5177,compass,0.0,2.0,2.0,34.0,1.0,SoundStimuli/AChangeIsGonnaCome_SamCooke_Cover5S.wav,,,,,,,,,,,,,,,,,,,,,,,,,,,,,,,,,,,,,,,,,,,,,,,,,,,
,,,,,48901,1,2024-07-12_17h26.55.842,experiment,2024.1.5,MacIntel,60.24096386,6691931c2c63981b064e1f0c,6691ad90ddd5c749f563592f,,,,,,,,,,,,,,,,,,,,,,,,,,,,,,,,,,,,,,,,,,,,,,,,,,,,,,,,,,,,1063.2937,1070.7699,0.098036024,0.105975116,1.0,0.0,0.0,1.4665,compass,0.0,3.0,3.0,1.0,1.0,SoundStimuli/Stronger_KanyeWest_Original5S.wav,,,,,,,,,,,,,,,,,,,,,,,,,,,,,,,,,,,,,,,,,,,,,,,,,,,
,,,,,48901,1,2024-07-12_17h26.55.842,experiment,2024.1.5,MacIntel,60.24096386,6691931c2c63981b064e1f0c,6691ad90ddd5c749f563592f,,,,,,,,,,,,,,,,,,,,,,,,,,,,,,,,,,,,,,,,,,,,,,,,,,,,,,,,,,,,1070.7775,1078.4698,0.078660301,0.080946181,1.0,0.0,0.0,1.6831,compass,0.0,4.0,4.0,0.0,1.0,SoundStimuli/StayinAlive_BeeGees_Original5S.wav,,,,,,,,,,,,,,,,,,,,,,,,,,,,,,,,,,,,,,,,,,,,,,,,,,,
,,,,,48901,1,2024-07-12_17h26.55.842,experiment,2024.1.5,MacIntel,60.24096386,6691931c2c63981b064e1f0c,6691ad90ddd5c749f563592f,,,,,,,,,,,,,,,,,,,,,,,,,,,,,,,,,,,,,,,,,,,,,,,,,,,,,,,,,,,,1078.4787,1085.2367,-0.121545862,-0.091095197,1.0,0.0,0.0,0.7501,compass,0.0,5.0,5.0,16.0,1.0,SoundStimuli/BohemianRhapsody_Queen_Original5S.wav,,,,,,,,,,,,,,,,,,,,,,,,,,,,,,,,,,,,,,,,,,,,,,,,,,,
,,,,,48901,1,2024-07-12_17h26.55.842,experiment,2024.1.5,MacIntel,60.24096386,6691931c2c63981b064e1f0c,6691ad90ddd5c749f563592f,,,,,,,,,,,,,,,,,,,,,,,,,,,,,,,,,,,,,,,,,,,,,,,,,,,,,,,,,,,,1085.245,1093.5367,0.079767072,0.136129196,1.0,0.0,0.0,2.2835,compass,0.0,6.0,6.0,30.0,1.0,SoundStimuli/PokerFace_LadyGaga_Original5S.wav,,,,,,,,,,,,,,,,,,,,,,,,,,,,,,,,,,,,,,,,,,,,,,,,,,,
,,,,,48901,1,2024-07-12_17h26.55.842,experiment,2024.1.5,MacIntel,60.24096386,6691931c2c63981b064e1f0c,6691ad90ddd5c749f563592f,,,,,,,,,,,,,,,,,,,,,,,,,,,,,,,,,,,,,,,,,,,,,,,,,,,,,,,,,,,,1093.546,1102.0534,0.071737558,0.100726997,1.0,0.0,0.0,2.5009,compass,0.0,7.0,7.0,11.0,1.0,SoundStimuli/Superstition_StevieWonder_Cover5S.wav,,,,,,,,,,,,,,,,,,,,,,,,,,,,,,,,,,,,,,,,,,,,,,,,,,,
,,,,,48901,1,2024-07-12_17h26.55.842,experiment,2024.1.5,MacIntel,60.24096386,6691931c2c63981b064e1f0c,6691ad90ddd5c749f563592f,,,,,,,,,,,,,,,,,,,,,,,,,,,,,,,,,,,,,,,,,,,,,,,,,,,,,,,,,,,,1102.0605,1108.687,0.095232928,0.101359954,1.0,0.0,0.0,0.6166,compass,0.0,8.0,8.0,5.0,1.0,SoundStimuli/MyGirl_TheTemptations_Original5S.wav,,,,,,,,,,,,,,,,,,,,,,,,,,,,,,,,,,,,,,,,,,,,,,,,,,,
,,,,,48901,1,2024-07-12_17h26.55.842,experiment,2024.1.5,MacIntel,60.24096386,6691931c2c63981b064e1f0c,6691ad90ddd5c749f563592f,,,,,,,,,,,,,,,,,,,,,,,,,,,,,,,,,,,,,,,,,,,,,,,,,,,,,,,,,,,,1108.6969,1115.3699,0.088353588,-0.098969184,1.0,0.0,0.0,0.6667,compass,0.0,9.0,9.0,20.0,1.0,SoundStimuli/HeyYa_Outkast_Cover5S.wav,,,,,,,,,,,,,,,,,,,,,,,,,,,,,,,,,,,,,,,,,,,,,,,,,,,
,,,,,48901,1,2024-07-12_17h26.55.842,experiment,2024.1.5,MacIntel,60.24096386,6691931c2c63981b064e1f0c,6691ad90ddd5c749f563592f,,,,,,,,,,,,,,,,,,,,,,,,,,,,,,,,,,,,,,,,,,,,,,,,,,,,,,,,,,,,1115.3803,1122.9865,0.104611545,0.080624277,1.0,0.0,0.0,1.6,compass,0.0,10.0,10.0,14.0,1.0,SoundStimuli/BlindingLights_TheWeeknd_Original5S.wav,,,,,,,,,,,,,,,,,,,,,,,,,,,,,,,,,,,,,,,,,,,,,,,,,,,
,,,,,48901,1,2024-07-12_17h26.55.842,experiment,2024.1.5,MacIntel,60.24096386,6691931c2c63981b064e1f0c,6691ad90ddd5c749f563592f,,,,,,,,,,,,,,,,,,,,,,,,,,,,,,,,,,,,,,,,,,,,,,,,,,,,,,,,,,,,1122.9923,1129.4032,-0.135597512,-0.094701244,1.0,0.0,0.0,0.4,compass,0.0,11.0,11.0,12.0,1.0,SoundStimuli/IWillAlwaysLoveYou_WhitneyHouston_Cover5S.wav,,,,,,,,,,,,,,,,,,,,,,,,,,,,,,,,,,,,,,,,,,,,,,,,,,,
,,,,,48901,1,2024-07-12_17h26.55.842,experiment,2024.1.5,MacIntel,60.24096386,6691931c2c63981b064e1f0c,6691ad90ddd5c749f563592f,,,,,,,,,,,,,,,,,,,,,,,,,,,,,,,,,,,,,,,,,,,,,,,,,,,,,,,,,,,,1129.4112,1135.8355,0.129466869,-0.099280237,1.0,0.0,0.0,0.4155,compass,0.0,12.0,12.0,19.0,1.0,SoundStimuli/LetsGetItOn_MarvinGaye_Cover5S.wav,,,,,,,,,,,,,,,,,,,,,,,,,,,,,,,,,,,,,,,,,,,,,,,,,,,
,,,,,48901,1,2024-07-12_17h26.55.842,experiment,2024.1.5,MacIntel,60.24096386,6691931c2c63981b064e1f0c,6691ad90ddd5c749f563592f,,,,,,,,,,,,,,,,,,,,,,,,,,,,,,,,,,,,,,,,,,,,,,,,,,,,,,,,,,,,1135.8425,1148.2527,0.083944589,0.17985026,1.0,0.0,0.0,6.3997,compass,0.0,13.0,13.0,24.0,1.0,SoundStimuli/UptownFunk_MarkRonson_Original5S.wav,,,,,,,,,,,,,,,,,,,,,,,,,,,,,,,,,,,,,,,,,,,,,,,,,,,
,,,,,48901,1,2024-07-12_17h26.55.842,experiment,2024.1.5,MacIntel,60.24096386,6691931c2c63981b064e1f0c,6691ad90ddd5c749f563592f,,,,,,,,,,,,,,,,,,,,,,,,,,,,,,,,,,,,,,,,,,,,,,,,,,,,,,,,,,,,1148.2604,1154.9032,-0.134096499,0.092730035,1.0,0.0,0.0,0.6333,compass,0.0,14.0,14.0,3.0,1.0,SoundStimuli/NoScrubs_TLC_Original5S.wav,,,,,,,,,,,,,,,,,,,,,,,,,,,,,,,,,,,,,,,,,,,,,,,,,,,
,,,,,48901,1,2024-07-12_17h26.55.842,experiment,2024.1.5,MacIntel,60.24096386,6691931c2c63981b064e1f0c,6691ad90ddd5c749f563592f,,,,,,,,,,,,,,,,,,,,,,,,,,,,,,,,,,,,,,,,,,,,,,,,,,,,,,,,,,,,1154.9119,1162.703,0.083644387,0.146115451,1.0,0.0,0.0,1.7842,compass,0.0,15.0,15.0,7.0,1.0,SoundStimuli/NoOne_AliciaKeys_Cover5S.wav,,,,,,,,,,,,,,,,,,,,,,,,,,,,,,,,,,,,,,,,,,,,,,,,,,,
,,,,,48901,1,2024-07-12_17h26.55.842,experiment,2024.1.5,MacIntel,60.24096386,6691931c2c63981b064e1f0c,6691ad90ddd5c749f563592f,,,,,,,,,,,,,,,,,,,,,,,,,,,,,,,,,,,,,,,,,,,,,,,,,,,,,,,,,,,,1162.7109,1169.2865,-0.132725694,-0.079079861,1.0,0.0,0.0,0.5666,compass,0.0,16.0,16.0,2.0,1.0,SoundStimuli/Mood_24kGoldnianndior_Cover5S.wav,,,,,,,,,,,,,,,,,,,,,,,,,,,,,,,,,,,,,,,,,,,,,,,,,,,
,,,,,48901,1,2024-07-12_17h26.55.842,experiment,2024.1.5,MacIntel,60.24096386,6691931c2c63981b064e1f0c,6691ad90ddd5c749f563592f,,,,,,,,,,,,,,,,,,,,,,,,,,,,,,,,,,,,,,,,,,,,,,,,,,,,,,,,,,,,1169.2952,1176.5523,-0.05604022,0.06312934,1.0,0.0,0.0,1.2491,compass,0.0,17.0,17.0,25.0,1.0,SoundStimuli/Respect_ArethaFranklin_Original5S.wav,,,,,,,,,,,,,,,,,,,,,,,,,,,,,,,,,,,,,,,,,,,,,,,,,,,
,,,,,48901,1,2024-07-12_17h26.55.842,experiment,2024.1.5,MacIntel,60.24096386,6691931c2c63981b064e1f0c,6691ad90ddd5c749f563592f,,,,,,,,,,,,,,,,,,,,,,,,,,,,,,,,,,,,,,,,,,,,,,,,,,,,,,,,,,,,1176.5627,1183.2372,0.132371238,-0.078895399,1.0,0.0,0.0,0.6678,compass,0.0,18.0,18.0,22.0,1.0,SoundStimuli/RockWithYou_MichaelJackson_Original5S.wav,,,,,,,,,,,,,,,,,,,,,,,,,,,,,,,,,,,,,,,,,,,,,,,,,,,
,,,,,48901,1,2024-07-12_17h26.55.842,experiment,2024.1.5,MacIntel,60.24096386,6691931c2c63981b064e1f0c,6691ad90ddd5c749f563592f,,,,,,,,,,,,,,,,,,,,,,,,,,,,,,,,,,,,,,,,,,,,,,,,,,,,,,,,,,,,1183.2458,1189.3363,0.112029803,-0.069220197,1.0,0.0,0.0,0.0832,compass,0.0,19.0,19.0,9.0,1.0,SoundStimuli/Despacito_LuisFonsiDaddyYankee_Cover5S.wav,,,,,,,,,,,,,,,,,,,,,,,,,,,,,,,,,,,,,,,,,,,,,,,,,,,
,,,,,48901,1,2024-07-12_17h26.55.842,experiment,2024.1.5,MacIntel,60.24096386,6691931c2c63981b064e1f0c,6691ad90ddd5c749f563592f,,,,,,,,,,,,,,,,,,,,,,,,,,,,,,,,,,,,,,,,,,,,,,,,,,,,,,,,,,,,1189.3467,1195.5195,0.131347656,-0.081810619,1.0,0.0,0.0,0.1664,compass,0.0,20.0,20.0,8.0,1.0,SoundStimuli/LikeAPrayer_Madonna_Original5S.wav,,,,,,,,,,,,,,,,,,,,,,,,,,,,,,,,,,,,,,,,,,,,,,,,,,,
,,,,,48901,1,2024-07-12_17h26.55.842,experiment,2024.1.5,MacIntel,60.24096386,6691931c2c63981b064e1f0c,6691ad90ddd5c749f563592f,,,,,,,,,,,,,,,,,,,,,,,,,,,,,,,,,,,,,,,,,,,,,,,,,,,,,,,,,,,,1195.5285,1203.0852,0.120978009,0.089767795,1.0,0.0,0.0,1.5489,compass,0.0,21.0,21.0,6.0,1.0,SoundStimuli/Levitating_DuaLipa_Cover5S.wav,,,,,,,,,,,,,,,,,,,,,,,,,,,,,,,,,,,,,,,,,,,,,,,,,,,
,,,,,48901,1,2024-07-12_17h26.55.842,experiment,2024.1.5,MacIntel,60.24096386,6691931c2c63981b064e1f0c,6691ad90ddd5c749f563592f,,,,,,,,,,,,,,,,,,,,,,,,,,,,,,,,,,,,,,,,,,,,,,,,,,,,,,,,,,,,1203.0927,1209.5694,0.175824653,-0.093373843,1.0,0.0,0.0,0.4665,compass,0.0,22.0,22.0,33.0,1.0,SoundStimuli/StandByMe_BenEKing_Cover5S.wav,,,,,,,,,,,,,,,,,,,,,,,,,,,,,,,,,,,,,,,,,,,,,,,,,,,
,,,,,48901,1,2024-07-12_17h26.55.842,experiment,2024.1.5,MacIntel,60.24096386,6691931c2c63981b064e1f0c,6691ad90ddd5c749f563592f,,,,,,,,,,,,,,,,,,,,,,,,,,,,,,,,,,,,,,,,,,,,,,,,,,,,,,,,,,,,1209.5766,1221.586,0.159356916,-0.11010923,1.0,0.0,0.0,6.0001,compass,0.0,23.0,23.0,23.0,1.0,SoundStimuli/StrawberryFieldsForever_TheBeatles_Original5S.wav,,,,,,,,,,,,,,,,,,,,,,,,,,,,,,,,,,,,,,,,,,,,,,,,,,,
,,,,,48901,1,2024-07-12_17h26.55.842,experiment,2024.1.5,MacIntel,60.24096386,6691931c2c63981b064e1f0c,6691ad90ddd5c749f563592f,,,,,,,,,,,,,,,,,,,,,,,,,,,,,,,,,,,,,,,,,,,,,,,,,,,,,,,,,,,,1221.5929,1229.1528,0.170070168,-0.113603154,1.0,0.0,0.0,1.551,compass,0.0,24.0,24.0,26.0,1.0,SoundStimuli/LivinOnAPrayer_BonJovi_Cover5S.wav,,,,,,,,,,,,,,,,,,,,,,,,,,,,,,,,,,,,,,,,,,,,,,,,,,,
,,,,,48901,1,2024-07-12_17h26.55.842,experiment,2024.1.5,MacIntel,60.24096386,6691931c2c63981b064e1f0c,6691ad90ddd5c749f563592f,,,,,,,,,,,,,,,,,,,,,,,,,,,,,,,,,,,,,,,,,,,,,,,,,,,,,,,,,,,,1229.1621,1238.0693,0.180020255,-0.099725116,1.0,0.0,0.0,2.9008,compass,0.0,25.0,25.0,29.0,1.0,SoundStimuli/OldTownRoad_LilNasX_Original5S.wav,,,,,,,,,,,,,,,,,,,,,,,,,,,,,,,,,,,,,,,,,,,,,,,,,,,
,,,,,48901,1,2024-07-12_17h26.55.842,experiment,2024.1.5,MacIntel,60.24096386,6691931c2c63981b064e1f0c,6691ad90ddd5c749f563592f,,,,,,,,,,,,,,,,,,,,,,,,,,,,,,,,,,,,,,,,,,,,,,,,,,,,,,,,,,,,1238.0799,1245.2858,0.157816117,-0.067086227,1.0,0.0,0.0,1.2008,compass,0.0,26.0,26.0,15.0,1.0,SoundStimuli/TikTok_Kesha_Cover5S.wav,,,,,,,,,,,,,,,,,,,,,,,,,,,,,,,,,,,,,,,,,,,,,,,,,,,
,,,,,48901,1,2024-07-12_17h26.55.842,experiment,2024.1.5,MacIntel,60.24096386,6691931c2c63981b064e1f0c,6691ad90ddd5c749f563592f,,,,,,,,,,,,,,,,,,,,,,,,,,,,,,,,,,,,,,,,,,,,,,,,,,,,,,,,,,,,1245.292,1253.9523,0.170178675,-0.080262587,1.0,0.0,0.0,2.6497,compass,0.0,27.0,27.0,27.0,1.0,SoundStimuli/ShapeofYou_EdSheeran_Original5S.wav,,,,,,,,,,,,,,,,,,,,,,,,,,,,,,,,,,,,,,,,,,,,,,,,,,,
,,,,,48901,1,2024-07-12_17h26.55.842,experiment,2024.1.5,MacIntel,60.24096386,6691931c2c63981b064e1f0c,6691ad90ddd5c749f563592f,,,,,,,,,,,,,,,,,,,,,,,,,,,,,,,,,,,,,,,,,,,,,,,,,,,,,,,,,,,,1253.9618,1265.8192,-0.176128472,0.13770978,1.0,0.0,0.0,5.8509,compass,0.0,28.0,28.0,18.0,1.0,SoundStimuli/AnotherOneBitesTheDust_Queen_Original5S.wav,,,,,,,,,,,,,,,,,,,,,,,,,,,,,,,,,,,,,,,,,,,,,,,,,,,
,,,,,48901,1,2024-07-12_17h26.55.842,experiment,2024.1.5,MacIntel,60.24096386,6691931c2c63981b064e1f0c,6691ad90ddd5c749f563592f,,,,,,,,,,,,,,,,,,,,,,,,,,,,,,,,,,,,,,,,,,,,,,,,,,,,,,,,,,,,1265.8258,1272.7022,0.200018084,-0.067802373,1.0,0.0,0.0,0.8672,compass,0.0,29.0,29.0,17.0,1.0,SoundStimuli/Fallin_AliciaKeys_Original5S.wav,,,,,,,,,,,,,,,,,,,,,,,,,,,,,,,,,,,,,,,,,,,,,,,,,,,
,,,,,48901,1,2024-07-12_17h26.55.842,experiment,2024.1.5,MacIntel,60.24096386,6691931c2c63981b064e1f0c,6691ad90ddd5c749f563592f,,,,,,,,,,,,,,,,,,,,,,,,,,,,,,,,,,,,,,,,,,,,,,,,,,,,,,,,,,,,1272.7092,1287.6191,0.03610026,0.166786024,1.0,0.0,0.0,8.9,compass,0.0,30.0,30.0,28.0,1.0,SoundStimuli/ComeAndGetYourLove_Redbone_Original5S.wav,,,,,,,,,,,,,,,,,,,,,,,,,,,,,,,,,,,,,,,,,,,,,,,,,,,
,,,,,48901,1,2024-07-12_17h26.55.842,experiment,2024.1.5,MacIntel,60.24096386,6691931c2c63981b064e1f0c,6691ad90ddd5c749f563592f,,,,,,,,,,,,,,,,,,,,,,,,,,,,,,,,,,,,,,,,,,,,,,,,,,,,,,,,,,,,1287.6255,1294.2862,0.167194734,0.101699942,1.0,0.0,0.0,0.6501,compass,0.0,31.0,31.0,4.0,1.0,SoundStimuli/GetUrFreakOn_MissyElliot_Original5S.wav,,,,,,,,,,,,,,,,,,,,,,,,,,,,,,,,,,,,,,,,,,,,,,,,,,,
,,,,,48901,1,2024-07-12_17h26.55.842,experiment,2024.1.5,MacIntel,60.24096386,6691931c2c63981b064e1f0c,6691ad90ddd5c749f563592f,,,,,,,,,,,,,,,,,,,,,,,,,,,,,,,,,,,,,,,,,,,,,,,,,,,,,,,,,,,,1294.2944,1303.8192,0.071621817,-0.069686777,1.0,0.0,0.0,3.5178,compass,0.0,32.0,32.0,31.0,1.0,SoundStimuli/TheBattleOfNewOrleans_JohnnyHorton_Cover5S.wav,,,,,,,,,,,,,,,,,,,,,,,,,,,,,,,,,,,,,,,,,,,,,,,,,,,
,,,,,48901,1,2024-07-12_17h26.55.842,experiment,2024.1.5,MacIntel,60.24096386,6691931c2c63981b064e1f0c,6691ad90ddd5c749f563592f,,,,,,,,,,,,,,,,,,,,,,,,,,,,,,,,,,,,,,,,,,,,,,,,,,,,,,,,,,,,1303.8267,1310.4524,-0.143059172,-0.079087095,1.0,0.0,0.0,0.6166,compass,0.0,33.0,33.0,13.0,1.0,SoundStimuli/GodOnlyKnows_TheBeachBoys_Cover5S.wav,,,,,,,,,,,,,,,,,,,,,,,,,,,,,,,,,,,,,,,,,,,,,,,,,,,
,,,,,48901,1,2024-07-12_17h26.55.842,experiment,2024.1.5,MacIntel,60.24096386,6691931c2c63981b064e1f0c,6691ad90ddd5c749f563592f,,,,,,,,,,,,,,,,,,,,,,,,,,,,,,,,,,,,,,,,,,,,,,,,,,,,,,,,,,,,1310.458,1317.0023,-0.132523148,-0.117209201,1.0,0.0,0.0,0.5333,compass,0.0,34.0,34.0,32.0,1.0,SoundStimuli/HeatWaves_GlassAnimals_Original5S.wav,,,,,,,,,,,,,,,,,,,,,,,,,,,,,,,,,,,,,,,,,,,,,,,,,,,
,,,,,48901,1,2024-07-12_17h26.55.842,experiment,2024.1.5,MacIntel,60.24096386,6691931c2c63981b064e1f0c,6691ad90ddd5c749f563592f,,,,,,,,,,,,,,,,,,,,,,,,,,,,,,,,,,,,,,,,,,,,,,,,,,,,,,,,,,,,,,,,,,,,,,,,,,,1317.0132,1317.0133,,,,1317.0133,1317.0133,,,,0.0,3.0,3.0,3.0,1.0,block_order/blockA.xlsx,,,,,,,,,,,,,,,,,,,,,,,,,,,,,,,,,,,
,,,,,48901,1,2024-07-12_17h26.55.842,experiment,2024.1.5,MacIntel,60.24096386,6691931c2c63981b064e1f0c,6691ad90ddd5c749f563592f,,,,,,,,,,,,,,,,,,,,,,,,,,,,,,,,,,,,,,,,,,,,,,,,,,,,,,,,,,,,,,,,,,,,,,,,,,,,,,,,,,,,,,,,,,,30.0,Item 2,"played clarinet in school, marching band, and jazz band 5th-12th grade, took clarinet lessions in college, took voice lessons in college",Item 6,spotify mostly,5.0,7.0,"driving, doing things on the computer, chores, exercising",Often,Sometimes,Sometimes,Rarely,Sometimes,Rarely,Sometimes,Always,Sometimes,Sometimes,Always,Often,Often,Always,Often,Always,Pop,R&B,Hip-Hop,I listen to more Spanish language music now and my tastes are more experimental in sound,0.0,0.0,0.0,0.0,1.0,,
,,,,,48901,1,2024-07-12_17h26.55.842,experiment,2024.1.5,MacIntel,60.24096386,6691931c2c63981b064e1f0c,6691ad90ddd5c749f563592f,,,,,,,,,,,,,,,,,,,,,,,,,,,,,,,,,,,,,,,,,,,,,,,,,,,,,,,,,,,,,,,,,,,,,,,,,,,,,,,,,,,,,,,,,,,,,,,,,,,,,,,,,,,,,,,,,,,,,,,,,,,,1516.5106,1518.9346
