welcome.started,welcome.stopped,space_to_continue.keys,space_to_continue.rt,space_to_continue.duration,participant,session,date,expName,psychopyVersion,OS,frameRate,STUDY_ID,SESSION_ID,consent.consent,consent.consent_recontact,consent_check.started,consent_check.stopped,calibration_ready.started,calibration_ready.stopped,cal_ready.keys,cal_ready.rt,cal_ready.duration,calibration.started,calibration.stopped,mouse.x,mouse.y,mouse.leftButton,mouse.midButton,mouse.rightButton,mouse.time,mouse.clicked_name,move_on.keys,move_on.rt,move_on.duration,run_cal.thisRepN,run_cal.thisTrialN,run_cal.thisN,run_cal.thisIndex,run_cal.ran,emotion_training_ready.started,emotion_training_ready.stopped,training_move_on.keys,training_move_on.rt,training_move_on.duration,examples.started,examples.stopped,emotion_scale.started,emotion_scale.stopped,scale_next.keys,scale_next.rt,scale_next.duration,instructions.started,instructions.stopped,next.keys,next.rt,next.duration,practice_task.started,practice_task.stopped,mouse_rating_2.x,mouse_rating_2.y,mouse_rating_2.leftButton,mouse_rating_2.midButton,mouse_rating_2.rightButton,mouse_rating_2.time,mouse_rating_2.clicked_name,ready.started,ready.stopped,key_resp.keys,key_resp.rt,key_resp.duration,set_group.started,set_group.stopped,task.started,task.stopped,mouse_rating.x,mouse_rating.y,mouse_rating.leftButton,mouse_rating.midButton,mouse_rating.rightButton,mouse_rating.time,mouse_rating.clicked_name,trials.thisRepN,trials.thisTrialN,trials.thisN,trials.thisIndex,trials.ran,clip,short_break.started,short_break.stopped,space_to_move_on.keys,space_to_move_on.rt,space_to_move_on.duration,instruction_reminder.started,instruction_reminder.stopped,reminder_move_on.keys,reminder_move_on.rt,reminder_move_on.duration,blocks.thisRepN,blocks.thisTrialN,blocks.thisN,blocks.thisIndex,blocks.ran,block,post_survey.age,post_survey.musician,post_survey.music_making,post_survey.listen_time,post_survey.medium,post_survey.music_seeking,post_survey.music_choice,post_survey.activities,post_survey.question1.Folk/indie,post_survey.question1.A cappella,post_survey.question1.Hip hop,post_survey.question1.Latin,post_survey.question1.Alternative rock,post_survey.question1.Country,post_survey.question1.Metal,post_survey.question1.Classic rock,post_survey.question1.Ambient,post_survey.question1.Disco,post_survey.question1.Electronic (EDM),post_survey.question1.Reggae,post_survey.question1.Pop,post_survey.question1.R&B,post_survey.question1.Jazz,post_survey.other_genres,post_survey.genres_ranked.text1,post_survey.genres_ranked.text2,post_survey.genres_ranked.text3,post_survey.habit_change,post_survey.habits,show_exp.thisRepN,show_exp.thisTrialN,show_exp.thisN,show_exp.thisIndex,show_exp.ran,goodbye.started,goodbye.stopped
0.0,1.897,space,1.848,,101084,1,2024-07-12_15h54.48.801,experiment,2024.1.5,Win32,60.0240096,6691931c2c63981b064e1f0c,6691b3dbf8e4de298758b1e0,,,,,,,,,,,,,,,,,,,,,,,,,,,,,,,,,,,,,,,,,,,,,,,,,,,,,,,,,,,,,,,,,,,,,,,,,,,,,,,,,,,,,,,,,,,,,,,,,,,,,,,,,,,,,,,,,,,,,,,,,,,,,,
,,,,,101084,1,2024-07-12_15h54.48.801,experiment,2024.1.5,Win32,60.0240096,6691931c2c63981b064e1f0c,6691b3dbf8e4de298758b1e0,yes,yes,,,,,,,,,,,,,,,,,,,,,,,,,,,,,,,,,,,,,,,,,,,,,,,,,,,,,,,,,,,,,,,,,,,,,,,,,,,,,,,,,,,,,,,,,,,,,,,,,,,,,,,,,,,,,,,,,,,,,,,,,,,,
,,,,,101084,1,2024-07-12_15h54.48.801,experiment,2024.1.5,Win32,60.0240096,6691931c2c63981b064e1f0c,6691b3dbf8e4de298758b1e0,,,15.1,15.1,,,,,,,,,,,,,,,,,,,,,,,,,,,,,,,,,,,,,,,,,,,,,,,,,,,,,,,,,,,,,,,,,,,,,,,,,,,,,,,,,,,,,,,,,,,,,,,,,,,,,,,,,,,,,,,,,,,,,,,,,,
,,,,,101084,1,2024-07-12_15h54.48.801,experiment,2024.1.5,Win32,60.0240096,6691931c2c63981b064e1f0c,6691b3dbf8e4de298758b1e0,,,,,15.1,82.21,space,67.082,,82.214,101.763,"[-0.019675925925925927,-0.019675925925925927,-0.019675925925925927]","[-0.4050925925925926,-0.4050925925925926,-0.4050925925925926]","[1,1,1]","[0,0,0]","[0,0,0]","[13.411000000000001,16.84899999999999,17.331999999999994]",[],n,18.52,,0.0,0.0,0.0,0.0,1.0,,,,,,,,,,,,,,,,,,,,,,,,,,,,,,,,,,,,,,,,,,,,,,,,,,,,,,,,,,,,,,,,,,,,,,,,,,,,,,,,,,,,,,,,,,,,,,,,,,,,
,,,,,101084,1,2024-07-12_15h54.48.801,experiment,2024.1.5,Win32,60.0240096,6691931c2c63981b064e1f0c,6691b3dbf8e4de298758b1e0,,,,,,,,,,101.765,123.316,"[-0.017361111111111112,0,0]","[-0.4050925925925926,-0.4513888888888889,-0.4513888888888889]","[1,1,1]","[0,0,0]","[0,0,0]","[0.5840000000000032,3.5740000000000123,3.7600000000000193]","[""play_button"",""play_button""]",y,20.521,,1.0,0.0,1.0,0.0,1.0,,,,,,,,,,,,,,,,,,,,,,,,,,,,,,,,,,,,,,,,,,,,,,,,,,,,,,,,,,,,,,,,,,,,,,,,,,,,,,,,,,,,,,,,,,,,,,,,,,,,
,,,,,101084,1,2024-07-12_15h54.48.801,experiment,2024.1.5,Win32,60.0240096,6691931c2c63981b064e1f0c,6691b3dbf8e4de298758b1e0,,,,,,,,,,,,,,,,,,,,,,,,,,,123.317,174.532,space,51.138,,174.532,294.546,294.546,303.972,right,5.891,,303.972,344.78,space,40.754,,344.78,352.436,0.171296296,-0.22337963,1.0,0.0,0.0,1.652,compass_2,352.436,354.254,space,1.789,,354.254,354.254,354.276,360.978,0.18287037,-0.25,1.0,0.0,0.0,0.7,compass,0.0,0.0,0.0,13.0,1.0,SoundStimuli/Perfect_EdSheeran_Cover5S.wav,,,,,,,,,,,,,,,,,,,,,,,,,,,,,,,,,,,,,,,,,,,,,,,,,,,,
,,,,,101084,1,2024-07-12_15h54.48.801,experiment,2024.1.5,Win32,60.0240096,6691931c2c63981b064e1f0c,6691b3dbf8e4de298758b1e0,,,,,,,,,,,,,,,,,,,,,,,,,,,,,,,,,,,,,,,,,,,,,,,,,,,,,,,,,,,,360.98,367.183,0.231481481,0.247685185,1.0,0.0,0.0,0.199,compass,0.0,1.0,1.0,28.0,1.0,SoundStimuli/IWantToHoldYourHand_TheBeatles_Original5S.wav,,,,,,,,,,,,,,,,,,,,,,,,,,,,,,,,,,,,,,,,,,,,,,,,,,,,
,,,,,101084,1,2024-07-12_15h54.48.801,experiment,2024.1.5,Win32,60.0240096,6691931c2c63981b064e1f0c,6691b3dbf8e4de298758b1e0,,,,,,,,,,,,,,,,,,,,,,,,,,,,,,,,,,,,,,,,,,,,,,,,,,,,,,,,,,,,367.183,373.505,0.306712963,0.332175926,1.0,0.0,0.0,0.316,compass,0.0,2.0,2.0,26.0,1.0,SoundStimuli/TheSign_AceOfBase_Cover5S.wav,,,,,,,,,,,,,,,,,,,,,,,,,,,,,,,,,,,,,,,,,,,,,,,,,,,,
,,,,,101084,1,2024-07-12_15h54.48.801,experiment,2024.1.5,Win32,60.0240096,6691931c2c63981b064e1f0c,6691b3dbf8e4de298758b1e0,,,,,,,,,,,,,,,,,,,,,,,,,,,,,,,,,,,,,,,,,,,,,,,,,,,,,,,,,,,,373.506,379.763,-0.239583333,-0.293981481,1.0,0.0,0.0,0.252,compass,0.0,3.0,3.0,12.0,1.0,SoundStimuli/UnbreakMyHeart_ToniBraxton_Original5S.wav,,,,,,,,,,,,,,,,,,,,,,,,,,,,,,,,,,,,,,,,,,,,,,,,,,,,
,,,,,101084,1,2024-07-12_15h54.48.801,experiment,2024.1.5,Win32,60.0240096,6691931c2c63981b064e1f0c,6691b3dbf8e4de298758b1e0,,,,,,,,,,,,,,,,,,,,,,,,,,,,,,,,,,,,,,,,,,,,,,,,,,,,,,,,,,,,379.764,386.218,0.166666667,0.127314815,1.0,0.0,0.0,0.451,compass,0.0,4.0,4.0,20.0,1.0,SoundStimuli/FlashdanceWhatAFeeling_IreneCara_Original5S.wav,,,,,,,,,,,,,,,,,,,,,,,,,,,,,,,,,,,,,,,,,,,,,,,,,,,,
,,,,,101084,1,2024-07-12_15h54.48.801,experiment,2024.1.5,Win32,60.0240096,6691931c2c63981b064e1f0c,6691b3dbf8e4de298758b1e0,,,,,,,,,,,,,,,,,,,,,,,,,,,,,,,,,,,,,,,,,,,,,,,,,,,,,,,,,,,,386.218,393.859,0.144675926,-0.12037037,1.0,0.0,0.0,1.636,compass,0.0,5.0,5.0,32.0,1.0,SoundStimuli/Dilemma_NellyKellyRowland_Cover5S.wav,,,,,,,,,,,,,,,,,,,,,,,,,,,,,,,,,,,,,,,,,,,,,,,,,,,,
,,,,,101084,1,2024-07-12_15h54.48.801,experiment,2024.1.5,Win32,60.0240096,6691931c2c63981b064e1f0c,6691b3dbf8e4de298758b1e0,,,,,,,,,,,,,,,,,,,,,,,,,,,,,,,,,,,,,,,,,,,,,,,,,,,,,,,,,,,,393.862,400.165,-0.258101852,-0.287037037,1.0,0.0,0.0,0.301,compass,0.0,6.0,6.0,30.0,1.0,SoundStimuli/SomebodyThatIUsedtoKnow_Gotye_Original5S.wav,,,,,,,,,,,,,,,,,,,,,,,,,,,,,,,,,,,,,,,,,,,,,,,,,,,,
,,,,,101084,1,2024-07-12_15h54.48.801,experiment,2024.1.5,Win32,60.0240096,6691931c2c63981b064e1f0c,6691b3dbf8e4de298758b1e0,,,,,,,,,,,,,,,,,,,,,,,,,,,,,,,,,,,,,,,,,,,,,,,,,,,,,,,,,,,,400.166,410.825,-0.189814815,-0.289351852,1.0,0.0,0.0,4.655,compass,0.0,7.0,7.0,16.0,1.0,SoundStimuli/ItsAllInTheGame_TommyEdwards_Cover5S.wav,,,,,,,,,,,,,,,,,,,,,,,,,,,,,,,,,,,,,,,,,,,,,,,,,,,,
,,,,,101084,1,2024-07-12_15h54.48.801,experiment,2024.1.5,Win32,60.0240096,6691931c2c63981b064e1f0c,6691b3dbf8e4de298758b1e0,,,,,,,,,,,,,,,,,,,,,,,,,,,,,,,,,,,,,,,,,,,,,,,,,,,,,,,,,,,,410.825,417.833,-0.216435185,0.273148148,1.0,0.0,0.0,1.002,compass,0.0,8.0,8.0,2.0,1.0,SoundStimuli/SmellsLikeTeenSpirit_Nirvana_Original5S.wav,,,,,,,,,,,,,,,,,,,,,,,,,,,,,,,,,,,,,,,,,,,,,,,,,,,,
,,,,,101084,1,2024-07-12_15h54.48.801,experiment,2024.1.5,Win32,60.0240096,6691931c2c63981b064e1f0c,6691b3dbf8e4de298758b1e0,,,,,,,,,,,,,,,,,,,,,,,,,,,,,,,,,,,,,,,,,,,,,,,,,,,,,,,,,,,,417.834,424.272,0.170138889,-0.263888889,1.0,0.0,0.0,0.428,compass,0.0,9.0,9.0,18.0,1.0,SoundStimuli/Weak_SWV_Cover5S.wav,,,,,,,,,,,,,,,,,,,,,,,,,,,,,,,,,,,,,,,,,,,,,,,,,,,,
,,,,,101084,1,2024-07-12_15h54.48.801,experiment,2024.1.5,Win32,60.0240096,6691931c2c63981b064e1f0c,6691b3dbf8e4de298758b1e0,,,,,,,,,,,,,,,,,,,,,,,,,,,,,,,,,,,,,,,,,,,,,,,,,,,,,,,,,,,,424.274,430.711,0.15162037,0.168981481,1.0,0.0,0.0,0.433,compass,0.0,10.0,10.0,22.0,1.0,SoundStimuli/Happy_PharellWilliams_Original5S.wav,,,,,,,,,,,,,,,,,,,,,,,,,,,,,,,,,,,,,,,,,,,,,,,,,,,,
,,,,,101084,1,2024-07-12_15h54.48.801,experiment,2024.1.5,Win32,60.0240096,6691931c2c63981b064e1f0c,6691b3dbf8e4de298758b1e0,,,,,,,,,,,,,,,,,,,,,,,,,,,,,,,,,,,,,,,,,,,,,,,,,,,,,,,,,,,,430.712,437.101,0.203703704,-0.28587963,1.0,0.0,0.0,0.384,compass,0.0,11.0,11.0,19.0,1.0,SoundStimuli/YouLightUpMyLife_DebbyBoone_Original5S.wav,,,,,,,,,,,,,,,,,,,,,,,,,,,,,,,,,,,,,,,,,,,,,,,,,,,,
,,,,,101084,1,2024-07-12_15h54.48.801,experiment,2024.1.5,Win32,60.0240096,6691931c2c63981b064e1f0c,6691b3dbf8e4de298758b1e0,,,,,,,,,,,,,,,,,,,,,,,,,,,,,,,,,,,,,,,,,,,,,,,,,,,,,,,,,,,,437.101,447.594,0.123842593,0.046296296,1.0,0.0,0.0,4.487,compass,0.0,12.0,12.0,27.0,1.0,SoundStimuli/EyeOfTheTiger_Survivor_Cover5S.wav,,,,,,,,,,,,,,,,,,,,,,,,,,,,,,,,,,,,,,,,,,,,,,,,,,,,
,,,,,101084,1,2024-07-12_15h54.48.801,experiment,2024.1.5,Win32,60.0240096,6691931c2c63981b064e1f0c,6691b3dbf8e4de298758b1e0,,,,,,,,,,,,,,,,,,,,,,,,,,,,,,,,,,,,,,,,,,,,,,,,,,,,,,,,,,,,447.594,455.117,0.155092593,0.1875,1.0,0.0,0.0,1.518,compass,0.0,13.0,13.0,10.0,1.0,SoundStimuli/LeFreak_Chic_Cover5S.wav,,,,,,,,,,,,,,,,,,,,,,,,,,,,,,,,,,,,,,,,,,,,,,,,,,,,
,,,,,101084,1,2024-07-12_15h54.48.801,experiment,2024.1.5,Win32,60.0240096,6691931c2c63981b064e1f0c,6691b3dbf8e4de298758b1e0,,,,,,,,,,,,,,,,,,,,,,,,,,,,,,,,,,,,,,,,,,,,,,,,,,,,,,,,,,,,455.118,461.44,-0.18287037,0.234953704,1.0,0.0,0.0,0.317,compass,0.0,14.0,14.0,0.0,1.0,SoundStimuli/GimmeShelter_RollingStones_Original5S.wav,,,,,,,,,,,,,,,,,,,,,,,,,,,,,,,,,,,,,,,,,,,,,,,,,,,,
,,,,,101084,1,2024-07-12_15h54.48.801,experiment,2024.1.5,Win32,60.0240096,6691931c2c63981b064e1f0c,6691b3dbf8e4de298758b1e0,,,,,,,,,,,,,,,,,,,,,,,,,,,,,,,,,,,,,,,,,,,,,,,,,,,,,,,,,,,,461.443,467.696,0.145833333,0.118055556,1.0,0.0,0.0,0.248,compass,0.0,15.0,15.0,31.0,1.0,SoundStimuli/TossinAndTurnin_BobbyLewis_Original5S.wav,,,,,,,,,,,,,,,,,,,,,,,,,,,,,,,,,,,,,,,,,,,,,,,,,,,,
,,,,,101084,1,2024-07-12_15h54.48.801,experiment,2024.1.5,Win32,60.0240096,6691931c2c63981b064e1f0c,6691b3dbf8e4de298758b1e0,,,,,,,,,,,,,,,,,,,,,,,,,,,,,,,,,,,,,,,,,,,,,,,,,,,,,,,,,,,,467.697,475.019,-0.175925926,-0.243055556,1.0,0.0,0.0,1.317,compass,0.0,16.0,16.0,23.0,1.0,SoundStimuli/IWalkTheLine_JohnnyCash_Original5S.wav,,,,,,,,,,,,,,,,,,,,,,,,,,,,,,,,,,,,,,,,,,,,,,,,,,,,
,,,,,101084,1,2024-07-12_15h54.48.801,experiment,2024.1.5,Win32,60.0240096,6691931c2c63981b064e1f0c,6691b3dbf8e4de298758b1e0,,,,,,,,,,,,,,,,,,,,,,,,,,,,,,,,,,,,,,,,,,,,,,,,,,,,,,,,,,,,475.02,495.424,-0.637731481,0.333333333,1.0,0.0,0.0,4.838,compass,0.0,17.0,17.0,21.0,1.0,SoundStimuli/BridgeOverTroubledWater_SimonAndGarfunkel_Original5S.wav,,,,,,,,,,,,,,,,,,,,,,,,,,,,,,,,,,,,,,,,,,,,,,,,,,,,
,,,,,101084,1,2024-07-12_15h54.48.801,experiment,2024.1.5,Win32,60.0240096,6691931c2c63981b064e1f0c,6691b3dbf8e4de298758b1e0,,,,,,,,,,,,,,,,,,,,,,,,,,,,,,,,,,,,,,,,,,,,,,,,,,,,,,,,,,,,495.427,501.779,0.275462963,0.298611111,1.0,0.0,0.0,0.348,compass,0.0,18.0,18.0,3.0,1.0,SoundStimuli/PartyRockAnthem_LMFAO_Original5S.wav,,,,,,,,,,,,,,,,,,,,,,,,,,,,,,,,,,,,,,,,,,,,,,,,,,,,
,,,,,101084,1,2024-07-12_15h54.48.801,experiment,2024.1.5,Win32,60.0240096,6691931c2c63981b064e1f0c,6691b3dbf8e4de298758b1e0,,,,,,,,,,,,,,,,,,,,,,,,,,,,,,,,,,,,,,,,,,,,,,,,,,,,,,,,,,,,501.78,508.169,0.12037037,0.082175926,1.0,0.0,0.0,0.384,compass,0.0,19.0,19.0,24.0,1.0,SoundStimuli/Kiss_Prince_Cover5S.wav,,,,,,,,,,,,,,,,,,,,,,,,,,,,,,,,,,,,,,,,,,,,,,,,,,,,
,,,,,101084,1,2024-07-12_15h54.48.801,experiment,2024.1.5,Win32,60.0240096,6691931c2c63981b064e1f0c,6691b3dbf8e4de298758b1e0,,,,,,,,,,,,,,,,,,,,,,,,,,,,,,,,,,,,,,,,,,,,,,,,,,,,,,,,,,,,508.169,515.209,0.200231481,-0.268518519,1.0,0.0,0.0,1.029,compass,0.0,20.0,20.0,29.0,1.0,SoundStimuli/BetteDavisEyes_KimCarnes_Original5S.wav,,,,,,,,,,,,,,,,,,,,,,,,,,,,,,,,,,,,,,,,,,,,,,,,,,,,
,,,,,101084,1,2024-07-12_15h54.48.801,experiment,2024.1.5,Win32,60.0240096,6691931c2c63981b064e1f0c,6691b3dbf8e4de298758b1e0,,,,,,,,,,,,,,,,,,,,,,,,,,,,,,,,,,,,,,,,,,,,,,,,,,,,,,,,,,,,515.209,521.399,-0.226851852,-0.267361111,1.0,0.0,0.0,0.184,compass,0.0,21.0,21.0,6.0,1.0,SoundStimuli/SaveYourTears_TheWeekndArianaGrande_Cover5S.wav,,,,,,,,,,,,,,,,,,,,,,,,,,,,,,,,,,,,,,,,,,,,,,,,,,,,
,,,,,101084,1,2024-07-12_15h54.48.801,experiment,2024.1.5,Win32,60.0240096,6691931c2c63981b064e1f0c,6691b3dbf8e4de298758b1e0,,,,,,,,,,,,,,,,,,,,,,,,,,,,,,,,,,,,,,,,,,,,,,,,,,,,,,,,,,,,521.399,527.788,-0.28125,0.201388889,1.0,0.0,0.0,0.385,compass,0.0,22.0,22.0,14.0,1.0,SoundStimuli/LikeARollingStone_BobDylan_Original5S.wav,,,,,,,,,,,,,,,,,,,,,,,,,,,,,,,,,,,,,,,,,,,,,,,,,,,,
,,,,,101084,1,2024-07-12_15h54.48.801,experiment,2024.1.5,Win32,60.0240096,6691931c2c63981b064e1f0c,6691b3dbf8e4de298758b1e0,,,,,,,,,,,,,,,,,,,,,,,,,,,,,,,,,,,,,,,,,,,,,,,,,,,,,,,,,,,,527.791,538.182,0.173611111,-0.070601852,1.0,0.0,0.0,4.389,compass,0.0,23.0,23.0,15.0,1.0,SoundStimuli/CrazyInLove_BeyonceFtJayZ_Cover5S.wav,,,,,,,,,,,,,,,,,,,,,,,,,,,,,,,,,,,,,,,,,,,,,,,,,,,,
,,,,,101084,1,2024-07-12_15h54.48.801,experiment,2024.1.5,Win32,60.0240096,6691931c2c63981b064e1f0c,6691b3dbf8e4de298758b1e0,,,,,,,,,,,,,,,,,,,,,,,,,,,,,,,,,,,,,,,,,,,,,,,,,,,,,,,,,,,,538.183,544.404,-0.216435185,-0.262731481,1.0,0.0,0.0,0.217,compass,0.0,24.0,24.0,34.0,1.0,SoundStimuli/Irreplaceable_Beyonce_Cover5S.wav,,,,,,,,,,,,,,,,,,,,,,,,,,,,,,,,,,,,,,,,,,,,,,,,,,,,
,,,,,101084,1,2024-07-12_15h54.48.801,experiment,2024.1.5,Win32,60.0240096,6691931c2c63981b064e1f0c,6691b3dbf8e4de298758b1e0,,,,,,,,,,,,,,,,,,,,,,,,,,,,,,,,,,,,,,,,,,,,,,,,,,,,,,,,,,,,544.404,550.81,0.216435185,0.181712963,1.0,0.0,0.0,0.4,compass,0.0,25.0,25.0,1.0,1.0,SoundStimuli/Smooth_SantanaRobThomas_Original5S.wav,,,,,,,,,,,,,,,,,,,,,,,,,,,,,,,,,,,,,,,,,,,,,,,,,,,,
,,,,,101084,1,2024-07-12_15h54.48.801,experiment,2024.1.5,Win32,60.0240096,6691931c2c63981b064e1f0c,6691b3dbf8e4de298758b1e0,,,,,,,,,,,,,,,,,,,,,,,,,,,,,,,,,,,,,,,,,,,,,,,,,,,,,,,,,,,,550.81,557.217,-0.162037037,-0.153935185,1.0,0.0,0.0,0.399,compass,0.0,26.0,26.0,33.0,1.0,SoundStimuli/TheBoyIsMine_BrandyMonica_Original5S.wav,,,,,,,,,,,,,,,,,,,,,,,,,,,,,,,,,,,,,,,,,,,,,,,,,,,,
,,,,,101084,1,2024-07-12_15h54.48.801,experiment,2024.1.5,Win32,60.0240096,6691931c2c63981b064e1f0c,6691b3dbf8e4de298758b1e0,,,,,,,,,,,,,,,,,,,,,,,,,,,,,,,,,,,,,,,,,,,,,,,,,,,,,,,,,,,,557.219,572.53,0.155092593,-0.212962963,1.0,0.0,0.0,9.309,compass,0.0,27.0,27.0,9.0,1.0,SoundStimuli/HowDoILive_LeAnnRimes_Cover5S.wav,,,,,,,,,,,,,,,,,,,,,,,,,,,,,,,,,,,,,,,,,,,,,,,,,,,,
,,,,,101084,1,2024-07-12_15h54.48.801,experiment,2024.1.5,Win32,60.0240096,6691931c2c63981b064e1f0c,6691b3dbf8e4de298758b1e0,,,,,,,,,,,,,,,,,,,,,,,,,,,,,,,,,,,,,,,,,,,,,,,,,,,,,,,,,,,,572.531,578.853,0.277777778,-0.252314815,1.0,0.0,0.0,0.317,compass,0.0,28.0,28.0,4.0,1.0,SoundStimuli/Dreams_FleetwoodMac_Original5S.wav,,,,,,,,,,,,,,,,,,,,,,,,,,,,,,,,,,,,,,,,,,,,,,,,,,,,
,,,,,101084,1,2024-07-12_15h54.48.801,experiment,2024.1.5,Win32,60.0240096,6691931c2c63981b064e1f0c,6691b3dbf8e4de298758b1e0,,,,,,,,,,,,,,,,,,,,,,,,,,,,,,,,,,,,,,,,,,,,,,,,,,,,,,,,,,,,578.854,585.612,0.200231481,0.084490741,1.0,0.0,0.0,0.752,compass,0.0,29.0,29.0,11.0,1.0,SoundStimuli/BlurredLines_RobinThicke_Cover5S.wav,,,,,,,,,,,,,,,,,,,,,,,,,,,,,,,,,,,,,,,,,,,,,,,,,,,,
,,,,,101084,1,2024-07-12_15h54.48.801,experiment,2024.1.5,Win32,60.0240096,6691931c2c63981b064e1f0c,6691b3dbf8e4de298758b1e0,,,,,,,,,,,,,,,,,,,,,,,,,,,,,,,,,,,,,,,,,,,,,,,,,,,,,,,,,,,,585.613,593.118,0.127314815,0.037037037,1.0,0.0,0.0,1.501,compass,0.0,30.0,30.0,5.0,1.0,SoundStimuli/JoyToTheWorld_ThreeDogNight_Original5S.wav,,,,,,,,,,,,,,,,,,,,,,,,,,,,,,,,,,,,,,,,,,,,,,,,,,,,
,,,,,101084,1,2024-07-12_15h54.48.801,experiment,2024.1.5,Win32,60.0240096,6691931c2c63981b064e1f0c,6691b3dbf8e4de298758b1e0,,,,,,,,,,,,,,,,,,,,,,,,,,,,,,,,,,,,,,,,,,,,,,,,,,,,,,,,,,,,593.12,599.423,0.184027778,0.086805556,1.0,0.0,0.0,0.3,compass,0.0,31.0,31.0,17.0,1.0,SoundStimuli/IWannaDanceWithSomebody_WhitneyHouston_Original5S.wav,,,,,,,,,,,,,,,,,,,,,,,,,,,,,,,,,,,,,,,,,,,,,,,,,,,,
,,,,,101084,1,2024-07-12_15h54.48.801,experiment,2024.1.5,Win32,60.0240096,6691931c2c63981b064e1f0c,6691b3dbf8e4de298758b1e0,,,,,,,,,,,,,,,,,,,,,,,,,,,,,,,,,,,,,,,,,,,,,,,,,,,,,,,,,,,,599.423,605.645,0.211805556,-0.293981481,1.0,0.0,0.0,0.216,compass,0.0,32.0,32.0,25.0,1.0,SoundStimuli/IllMakeLoveToYou_BoyzIIMen_Cover5S.wav,,,,,,,,,,,,,,,,,,,,,,,,,,,,,,,,,,,,,,,,,,,,,,,,,,,,
,,,,,101084,1,2024-07-12_15h54.48.801,experiment,2024.1.5,Win32,60.0240096,6691931c2c63981b064e1f0c,6691b3dbf8e4de298758b1e0,,,,,,,,,,,,,,,,,,,,,,,,,,,,,,,,,,,,,,,,,,,,,,,,,,,,,,,,,,,,605.646,614.621,0.210648148,-0.246527778,1.0,0.0,0.0,2.97,compass,0.0,33.0,33.0,8.0,1.0,SoundStimuli/EndlessLove_DianaRossLionelRichie_Cover5S.wav,,,,,,,,,,,,,,,,,,,,,,,,,,,,,,,,,,,,,,,,,,,,,,,,,,,,
,,,,,101084,1,2024-07-12_15h54.48.801,experiment,2024.1.5,Win32,60.0240096,6691931c2c63981b064e1f0c,6691b3dbf8e4de298758b1e0,,,,,,,,,,,,,,,,,,,,,,,,,,,,,,,,,,,,,,,,,,,,,,,,,,,,,,,,,,,,614.621,621.978,-0.118055556,-0.086805556,1.0,0.0,0.0,1.352,compass,0.0,34.0,34.0,7.0,1.0,SoundStimuli/MackTheKnife_BobbyDarin_Cover5S.wav,,,,,,,,,,,,,,,,,,,,,,,,,,,,,,,,,,,,,,,,,,,,,,,,,,,,
,,,,,101084,1,2024-07-12_15h54.48.801,experiment,2024.1.5,Win32,60.0240096,6691931c2c63981b064e1f0c,6691b3dbf8e4de298758b1e0,,,,,,,,,,,,,,,,,,,,,,,,,,,,,,,,,,,,,,,,,,,,,,,,,,,,,,,,,,,,,,,,,,,,,,,,,,,621.979,670.992,space,48.98,,670.993,677.732,right,6.699,,0.0,0.0,0.0,0.0,1.0,block_order/blockD.xlsx,,,,,,,,,,,,,,,,,,,,,,,,,,,,,,,,,,,,
,,,,,101084,1,2024-07-12_15h54.48.801,experiment,2024.1.5,Win32,60.0240096,6691931c2c63981b064e1f0c,6691b3dbf8e4de298758b1e0,,,,,,,,,,,,,,,,,,,,,,,,,,,,,,,,,,,,,,,,,,,,,,,,,,,,,,,,,,,,677.747,687.558,-0.106481481,-0.078703704,1.0,0.0,0.0,3.803,compass,0.0,0.0,0.0,9.0,1.0,SoundStimuli/Despacito_LuisFonsiDaddyYankee_Cover5S.wav,,,,,,,,,,,,,,,,,,,,,,,,,,,,,,,,,,,,,,,,,,,,,,,,,,,,
,,,,,101084,1,2024-07-12_15h54.48.801,experiment,2024.1.5,Win32,60.0240096,6691931c2c63981b064e1f0c,6691b3dbf8e4de298758b1e0,,,,,,,,,,,,,,,,,,,,,,,,,,,,,,,,,,,,,,,,,,,,,,,,,,,,,,,,,,,,687.559,697.886,0.118055556,-0.265046296,1.0,0.0,0.0,4.32,compass,0.0,1.0,1.0,31.0,1.0,SoundStimuli/TheBattleOfNewOrleans_JohnnyHorton_Cover5S.wav,,,,,,,,,,,,,,,,,,,,,,,,,,,,,,,,,,,,,,,,,,,,,,,,,,,,
,,,,,101084,1,2024-07-12_15h54.48.801,experiment,2024.1.5,Win32,60.0240096,6691931c2c63981b064e1f0c,6691b3dbf8e4de298758b1e0,,,,,,,,,,,,,,,,,,,,,,,,,,,,,,,,,,,,,,,,,,,,,,,,,,,,,,,,,,,,697.888,705.208,0.111111111,-0.136574074,1.0,0.0,0.0,1.318,compass,0.0,2.0,2.0,14.0,1.0,SoundStimuli/BlindingLights_TheWeeknd_Original5S.wav,,,,,,,,,,,,,,,,,,,,,,,,,,,,,,,,,,,,,,,,,,,,,,,,,,,,
,,,,,101084,1,2024-07-12_15h54.48.801,experiment,2024.1.5,Win32,60.0240096,6691931c2c63981b064e1f0c,6691b3dbf8e4de298758b1e0,,,,,,,,,,,,,,,,,,,,,,,,,,,,,,,,,,,,,,,,,,,,,,,,,,,,,,,,,,,,705.209,711.614,-0.175925926,-0.150462963,1.0,0.0,0.0,0.401,compass,0.0,3.0,3.0,3.0,1.0,SoundStimuli/NoScrubs_TLC_Original5S.wav,,,,,,,,,,,,,,,,,,,,,,,,,,,,,,,,,,,,,,,,,,,,,,,,,,,,
,,,,,101084,1,2024-07-12_15h54.48.801,experiment,2024.1.5,Win32,60.0240096,6691931c2c63981b064e1f0c,6691b3dbf8e4de298758b1e0,,,,,,,,,,,,,,,,,,,,,,,,,,,,,,,,,,,,,,,,,,,,,,,,,,,,,,,,,,,,711.614,718.621,-0.140046296,-0.085648148,1.0,0.0,0.0,1.0,compass,0.0,4.0,4.0,11.0,1.0,SoundStimuli/Superstition_StevieWonder_Cover5S.wav,,,,,,,,,,,,,,,,,,,,,,,,,,,,,,,,,,,,,,,,,,,,,,,,,,,,
,,,,,101084,1,2024-07-12_15h54.48.801,experiment,2024.1.5,Win32,60.0240096,6691931c2c63981b064e1f0c,6691b3dbf8e4de298758b1e0,,,,,,,,,,,,,,,,,,,,,,,,,,,,,,,,,,,,,,,,,,,,,,,,,,,,,,,,,,,,718.621,725.011,0.230324074,-0.25,1.0,0.0,0.0,0.384,compass,0.0,5.0,5.0,23.0,1.0,SoundStimuli/StrawberryFieldsForever_TheBeatles_Original5S.wav,,,,,,,,,,,,,,,,,,,,,,,,,,,,,,,,,,,,,,,,,,,,,,,,,,,,
,,,,,101084,1,2024-07-12_15h54.48.801,experiment,2024.1.5,Win32,60.0240096,6691931c2c63981b064e1f0c,6691b3dbf8e4de298758b1e0,,,,,,,,,,,,,,,,,,,,,,,,,,,,,,,,,,,,,,,,,,,,,,,,,,,,,,,,,,,,725.015,731.834,0.148148148,0.111111111,1.0,0.0,0.0,0.818,compass,0.0,6.0,6.0,22.0,1.0,SoundStimuli/RockWithYou_MichaelJackson_Original5S.wav,,,,,,,,,,,,,,,,,,,,,,,,,,,,,,,,,,,,,,,,,,,,,,,,,,,,
,,,,,101084,1,2024-07-12_15h54.48.801,experiment,2024.1.5,Win32,60.0240096,6691931c2c63981b064e1f0c,6691b3dbf8e4de298758b1e0,,,,,,,,,,,,,,,,,,,,,,,,,,,,,,,,,,,,,,,,,,,,,,,,,,,,,,,,,,,,731.835,737.957,-0.185185185,0.226851852,1.0,0.0,0.0,0.117,compass,0.0,7.0,7.0,6.0,1.0,SoundStimuli/Levitating_DuaLipa_Cover5S.wav,,,,,,,,,,,,,,,,,,,,,,,,,,,,,,,,,,,,,,,,,,,,,,,,,,,,
,,,,,101084,1,2024-07-12_15h54.48.801,experiment,2024.1.5,Win32,60.0240096,6691931c2c63981b064e1f0c,6691b3dbf8e4de298758b1e0,,,,,,,,,,,,,,,,,,,,,,,,,,,,,,,,,,,,,,,,,,,,,,,,,,,,,,,,,,,,737.958,744.296,0.15625,-0.106481481,1.0,0.0,0.0,0.333,compass,0.0,8.0,8.0,27.0,1.0,SoundStimuli/ShapeofYou_EdSheeran_Original5S.wav,,,,,,,,,,,,,,,,,,,,,,,,,,,,,,,,,,,,,,,,,,,,,,,,,,,,
,,,,,101084,1,2024-07-12_15h54.48.801,experiment,2024.1.5,Win32,60.0240096,6691931c2c63981b064e1f0c,6691b3dbf8e4de298758b1e0,,,,,,,,,,,,,,,,,,,,,,,,,,,,,,,,,,,,,,,,,,,,,,,,,,,,,,,,,,,,744.296,751.237,-0.234953704,-0.25462963,1.0,0.0,0.0,0.935,compass,0.0,9.0,9.0,10.0,1.0,SoundStimuli/BadDay_DanielPowter_Cover5S.wav,,,,,,,,,,,,,,,,,,,,,,,,,,,,,,,,,,,,,,,,,,,,,,,,,,,,
,,,,,101084,1,2024-07-12_15h54.48.801,experiment,2024.1.5,Win32,60.0240096,6691931c2c63981b064e1f0c,6691b3dbf8e4de298758b1e0,,,,,,,,,,,,,,,,,,,,,,,,,,,,,,,,,,,,,,,,,,,,,,,,,,,,,,,,,,,,751.239,758.96,0.172453704,-0.166666667,1.0,0.0,0.0,1.719,compass,0.0,10.0,10.0,12.0,1.0,SoundStimuli/IWillAlwaysLoveYou_WhitneyHouston_Cover5S.wav,,,,,,,,,,,,,,,,,,,,,,,,,,,,,,,,,,,,,,,,,,,,,,,,,,,,
,,,,,101084,1,2024-07-12_15h54.48.801,experiment,2024.1.5,Win32,60.0240096,6691931c2c63981b064e1f0c,6691b3dbf8e4de298758b1e0,,,,,,,,,,,,,,,,,,,,,,,,,,,,,,,,,,,,,,,,,,,,,,,,,,,,,,,,,,,,758.962,767.534,0.263888889,0.001157407,1.0,0.0,0.0,2.568,compass,0.0,11.0,11.0,5.0,1.0,SoundStimuli/MyGirl_TheTemptations_Original5S.wav,,,,,,,,,,,,,,,,,,,,,,,,,,,,,,,,,,,,,,,,,,,,,,,,,,,,
,,,,,101084,1,2024-07-12_15h54.48.801,experiment,2024.1.5,Win32,60.0240096,6691931c2c63981b064e1f0c,6691b3dbf8e4de298758b1e0,,,,,,,,,,,,,,,,,,,,,,,,,,,,,,,,,,,,,,,,,,,,,,,,,,,,,,,,,,,,767.535,773.957,0.287037037,-0.001157407,1.0,0.0,0.0,0.417,compass,0.0,12.0,12.0,28.0,1.0,SoundStimuli/ComeAndGetYourLove_Redbone_Original5S.wav,,,,,,,,,,,,,,,,,,,,,,,,,,,,,,,,,,,,,,,,,,,,,,,,,,,,
,,,,,101084,1,2024-07-12_15h54.48.801,experiment,2024.1.5,Win32,60.0240096,6691931c2c63981b064e1f0c,6691b3dbf8e4de298758b1e0,,,,,,,,,,,,,,,,,,,,,,,,,,,,,,,,,,,,,,,,,,,,,,,,,,,,,,,,,,,,773.958,784.952,0.155092593,-0.230324074,1.0,0.0,0.0,4.988,compass,0.0,13.0,13.0,29.0,1.0,SoundStimuli/OldTownRoad_LilNasX_Original5S.wav,,,,,,,,,,,,,,,,,,,,,,,,,,,,,,,,,,,,,,,,,,,,,,,,,,,,
,,,,,101084,1,2024-07-12_15h54.48.801,experiment,2024.1.5,Win32,60.0240096,6691931c2c63981b064e1f0c,6691b3dbf8e4de298758b1e0,,,,,,,,,,,,,,,,,,,,,,,,,,,,,,,,,,,,,,,,,,,,,,,,,,,,,,,,,,,,784.955,794.944,0.094907407,-0.295138889,1.0,0.0,0.0,3.987,compass,0.0,14.0,14.0,13.0,1.0,SoundStimuli/GodOnlyKnows_TheBeachBoys_Cover5S.wav,,,,,,,,,,,,,,,,,,,,,,,,,,,,,,,,,,,,,,,,,,,,,,,,,,,,
,,,,,101084,1,2024-07-12_15h54.48.801,experiment,2024.1.5,Win32,60.0240096,6691931c2c63981b064e1f0c,6691b3dbf8e4de298758b1e0,,,,,,,,,,,,,,,,,,,,,,,,,,,,,,,,,,,,,,,,,,,,,,,,,,,,,,,,,,,,794.944,802.118,0.121527778,0.138888889,1.0,0.0,0.0,1.167,compass,0.0,15.0,15.0,8.0,1.0,SoundStimuli/LikeAPrayer_Madonna_Original5S.wav,,,,,,,,,,,,,,,,,,,,,,,,,,,,,,,,,,,,,,,,,,,,,,,,,,,,
,,,,,101084,1,2024-07-12_15h54.48.801,experiment,2024.1.5,Win32,60.0240096,6691931c2c63981b064e1f0c,6691b3dbf8e4de298758b1e0,,,,,,,,,,,,,,,,,,,,,,,,,,,,,,,,,,,,,,,,,,,,,,,,,,,,,,,,,,,,802.118,809.442,0.043981481,0.043981481,1.0,0.0,0.0,1.319,compass,0.0,16.0,16.0,1.0,1.0,SoundStimuli/Stronger_KanyeWest_Original5S.wav,,,,,,,,,,,,,,,,,,,,,,,,,,,,,,,,,,,,,,,,,,,,,,,,,,,,
,,,,,101084,1,2024-07-12_15h54.48.801,experiment,2024.1.5,Win32,60.0240096,6691931c2c63981b064e1f0c,6691b3dbf8e4de298758b1e0,,,,,,,,,,,,,,,,,,,,,,,,,,,,,,,,,,,,,,,,,,,,,,,,,,,,,,,,,,,,809.443,817.183,-0.03587963,0.082175926,1.0,0.0,0.0,1.735,compass,0.0,17.0,17.0,25.0,1.0,SoundStimuli/Respect_ArethaFranklin_Original5S.wav,,,,,,,,,,,,,,,,,,,,,,,,,,,,,,,,,,,,,,,,,,,,,,,,,,,,
,,,,,101084,1,2024-07-12_15h54.48.801,experiment,2024.1.5,Win32,60.0240096,6691931c2c63981b064e1f0c,6691b3dbf8e4de298758b1e0,,,,,,,,,,,,,,,,,,,,,,,,,,,,,,,,,,,,,,,,,,,,,,,,,,,,,,,,,,,,817.183,826.142,0.231481481,-0.300925926,1.0,0.0,0.0,2.954,compass,0.0,18.0,18.0,19.0,1.0,SoundStimuli/LetsGetItOn_MarvinGaye_Cover5S.wav,,,,,,,,,,,,,,,,,,,,,,,,,,,,,,,,,,,,,,,,,,,,,,,,,,,,
,,,,,101084,1,2024-07-12_15h54.48.801,experiment,2024.1.5,Win32,60.0240096,6691931c2c63981b064e1f0c,6691b3dbf8e4de298758b1e0,,,,,,,,,,,,,,,,,,,,,,,,,,,,,,,,,,,,,,,,,,,,,,,,,,,,,,,,,,,,826.145,833.248,-0.180555556,0.042824074,1.0,0.0,0.0,1.101,compass,0.0,19.0,19.0,18.0,1.0,SoundStimuli/AnotherOneBitesTheDust_Queen_Original5S.wav,,,,,,,,,,,,,,,,,,,,,,,,,,,,,,,,,,,,,,,,,,,,,,,,,,,,
,,,,,101084,1,2024-07-12_15h54.48.801,experiment,2024.1.5,Win32,60.0240096,6691931c2c63981b064e1f0c,6691b3dbf8e4de298758b1e0,,,,,,,,,,,,,,,,,,,,,,,,,,,,,,,,,,,,,,,,,,,,,,,,,,,,,,,,,,,,833.248,840.723,0.144675926,-0.001157407,1.0,0.0,0.0,1.467,compass,0.0,20.0,20.0,4.0,1.0,SoundStimuli/GetUrFreakOn_MissyElliot_Original5S.wav,,,,,,,,,,,,,,,,,,,,,,,,,,,,,,,,,,,,,,,,,,,,,,,,,,,,
,,,,,101084,1,2024-07-12_15h54.48.801,experiment,2024.1.5,Win32,60.0240096,6691931c2c63981b064e1f0c,6691b3dbf8e4de298758b1e0,,,,,,,,,,,,,,,,,,,,,,,,,,,,,,,,,,,,,,,,,,,,,,,,,,,,,,,,,,,,840.723,847.662,-0.275462963,0.05787037,1.0,0.0,0.0,0.933,compass,0.0,21.0,21.0,0.0,1.0,SoundStimuli/StayinAlive_BeeGees_Original5S.wav,,,,,,,,,,,,,,,,,,,,,,,,,,,,,,,,,,,,,,,,,,,,,,,,,,,,
,,,,,101084,1,2024-07-12_15h54.48.801,experiment,2024.1.5,Win32,60.0240096,6691931c2c63981b064e1f0c,6691b3dbf8e4de298758b1e0,,,,,,,,,,,,,,,,,,,,,,,,,,,,,,,,,,,,,,,,,,,,,,,,,,,,,,,,,,,,847.662,855.37,0.024305556,0.028935185,1.0,0.0,0.0,1.702,compass,0.0,22.0,22.0,32.0,1.0,SoundStimuli/HeatWaves_GlassAnimals_Original5S.wav,,,,,,,,,,,,,,,,,,,,,,,,,,,,,,,,,,,,,,,,,,,,,,,,,,,,
,,,,,101084,1,2024-07-12_15h54.48.801,experiment,2024.1.5,Win32,60.0240096,6691931c2c63981b064e1f0c,6691b3dbf8e4de298758b1e0,,,,,,,,,,,,,,,,,,,,,,,,,,,,,,,,,,,,,,,,,,,,,,,,,,,,,,,,,,,,855.372,862.075,-0.083333333,0.092592593,1.0,0.0,0.0,0.7,compass,0.0,23.0,23.0,30.0,1.0,SoundStimuli/PokerFace_LadyGaga_Original5S.wav,,,,,,,,,,,,,,,,,,,,,,,,,,,,,,,,,,,,,,,,,,,,,,,,,,,,
,,,,,101084,1,2024-07-12_15h54.48.801,experiment,2024.1.5,Win32,60.0240096,6691931c2c63981b064e1f0c,6691b3dbf8e4de298758b1e0,,,,,,,,,,,,,,,,,,,,,,,,,,,,,,,,,,,,,,,,,,,,,,,,,,,,,,,,,,,,862.076,869.701,0.001157407,0.03125,1.0,0.0,0.0,1.619,compass,0.0,24.0,24.0,33.0,1.0,SoundStimuli/StandByMe_BenEKing_Cover5S.wav,,,,,,,,,,,,,,,,,,,,,,,,,,,,,,,,,,,,,,,,,,,,,,,,,,,,
,,,,,101084,1,2024-07-12_15h54.48.801,experiment,2024.1.5,Win32,60.0240096,6691931c2c63981b064e1f0c,6691b3dbf8e4de298758b1e0,,,,,,,,,,,,,,,,,,,,,,,,,,,,,,,,,,,,,,,,,,,,,,,,,,,,,,,,,,,,869.701,876.757,0.204861111,0.079861111,1.0,0.0,0.0,1.052,compass,0.0,25.0,25.0,7.0,1.0,SoundStimuli/NoOne_AliciaKeys_Cover5S.wav,,,,,,,,,,,,,,,,,,,,,,,,,,,,,,,,,,,,,,,,,,,,,,,,,,,,
,,,,,101084,1,2024-07-12_15h54.48.801,experiment,2024.1.5,Win32,60.0240096,6691931c2c63981b064e1f0c,6691b3dbf8e4de298758b1e0,,,,,,,,,,,,,,,,,,,,,,,,,,,,,,,,,,,,,,,,,,,,,,,,,,,,,,,,,,,,876.757,883.681,-0.188657407,-0.030092593,1.0,0.0,0.0,0.919,compass,0.0,26.0,26.0,17.0,1.0,SoundStimuli/Fallin_AliciaKeys_Original5S.wav,,,,,,,,,,,,,,,,,,,,,,,,,,,,,,,,,,,,,,,,,,,,,,,,,,,,
,,,,,101084,1,2024-07-12_15h54.48.801,experiment,2024.1.5,Win32,60.0240096,6691931c2c63981b064e1f0c,6691b3dbf8e4de298758b1e0,,,,,,,,,,,,,,,,,,,,,,,,,,,,,,,,,,,,,,,,,,,,,,,,,,,,,,,,,,,,883.682,894.474,-0.001157407,-0.00462963,1.0,0.0,0.0,4.787,compass,0.0,27.0,27.0,20.0,1.0,SoundStimuli/HeyYa_Outkast_Cover5S.wav,,,,,,,,,,,,,,,,,,,,,,,,,,,,,,,,,,,,,,,,,,,,,,,,,,,,
,,,,,101084,1,2024-07-12_15h54.48.801,experiment,2024.1.5,Win32,60.0240096,6691931c2c63981b064e1f0c,6691b3dbf8e4de298758b1e0,,,,,,,,,,,,,,,,,,,,,,,,,,,,,,,,,,,,,,,,,,,,,,,,,,,,,,,,,,,,894.474,901.246,-0.19212963,0.002314815,1.0,0.0,0.0,0.767,compass,0.0,28.0,28.0,16.0,1.0,SoundStimuli/BohemianRhapsody_Queen_Original5S.wav,,,,,,,,,,,,,,,,,,,,,,,,,,,,,,,,,,,,,,,,,,,,,,,,,,,,
,,,,,101084,1,2024-07-12_15h54.48.801,experiment,2024.1.5,Win32,60.0240096,6691931c2c63981b064e1f0c,6691b3dbf8e4de298758b1e0,,,,,,,,,,,,,,,,,,,,,,,,,,,,,,,,,,,,,,,,,,,,,,,,,,,,,,,,,,,,901.247,911.195,0.167824074,-0.200231481,1.0,0.0,0.0,3.938,compass,0.0,29.0,29.0,15.0,1.0,SoundStimuli/TikTok_Kesha_Cover5S.wav,,,,,,,,,,,,,,,,,,,,,,,,,,,,,,,,,,,,,,,,,,,,,,,,,,,,
,,,,,101084,1,2024-07-12_15h54.48.801,experiment,2024.1.5,Win32,60.0240096,6691931c2c63981b064e1f0c,6691b3dbf8e4de298758b1e0,,,,,,,,,,,,,,,,,,,,,,,,,,,,,,,,,,,,,,,,,,,,,,,,,,,,,,,,,,,,911.201,917.713,0.083333333,0.053240741,1.0,0.0,0.0,0.499,compass,0.0,30.0,30.0,21.0,1.0,SoundStimuli/GoodGollyMissMolly_LittleRichard_Cover5S.wav,,,,,,,,,,,,,,,,,,,,,,,,,,,,,,,,,,,,,,,,,,,,,,,,,,,,
,,,,,101084,1,2024-07-12_15h54.48.801,experiment,2024.1.5,Win32,60.0240096,6691931c2c63981b064e1f0c,6691b3dbf8e4de298758b1e0,,,,,,,,,,,,,,,,,,,,,,,,,,,,,,,,,,,,,,,,,,,,,,,,,,,,,,,,,,,,917.716,925.42,0.042824074,-0.140046296,1.0,0.0,0.0,1.702,compass,0.0,31.0,31.0,26.0,1.0,SoundStimuli/LivinOnAPrayer_BonJovi_Cover5S.wav,,,,,,,,,,,,,,,,,,,,,,,,,,,,,,,,,,,,,,,,,,,,,,,,,,,,
,,,,,101084,1,2024-07-12_15h54.48.801,experiment,2024.1.5,Win32,60.0240096,6691931c2c63981b064e1f0c,6691b3dbf8e4de298758b1e0,,,,,,,,,,,,,,,,,,,,,,,,,,,,,,,,,,,,,,,,,,,,,,,,,,,,,,,,,,,,925.42,948.226,0.055555556,0.086805556,1.0,0.0,0.0,16.8,compass,0.0,32.0,32.0,34.0,1.0,SoundStimuli/AChangeIsGonnaCome_SamCooke_Cover5S.wav,,,,,,,,,,,,,,,,,,,,,,,,,,,,,,,,,,,,,,,,,,,,,,,,,,,,
,,,,,101084,1,2024-07-12_15h54.48.801,experiment,2024.1.5,Win32,60.0240096,6691931c2c63981b064e1f0c,6691b3dbf8e4de298758b1e0,,,,,,,,,,,,,,,,,,,,,,,,,,,,,,,,,,,,,,,,,,,,,,,,,,,,,,,,,,,,948.229,965.208,0.053240741,0.159722222,1.0,0.0,0.0,10.977,compass,0.0,33.0,33.0,24.0,1.0,SoundStimuli/UptownFunk_MarkRonson_Original5S.wav,,,,,,,,,,,,,,,,,,,,,,,,,,,,,,,,,,,,,,,,,,,,,,,,,,,,
,,,,,101084,1,2024-07-12_15h54.48.801,experiment,2024.1.5,Win32,60.0240096,6691931c2c63981b064e1f0c,6691b3dbf8e4de298758b1e0,,,,,,,,,,,,,,,,,,,,,,,,,,,,,,,,,,,,,,,,,,,,,,,,,,,,,,,,,,,,965.209,972.032,-0.075231481,-0.155092593,1.0,0.0,0.0,0.819,compass,0.0,34.0,34.0,2.0,1.0,SoundStimuli/Mood_24kGoldnianndior_Cover5S.wav,,,,,,,,,,,,,,,,,,,,,,,,,,,,,,,,,,,,,,,,,,,,,,,,,,,,
,,,,,101084,1,2024-07-12_15h54.48.801,experiment,2024.1.5,Win32,60.0240096,6691931c2c63981b064e1f0c,6691b3dbf8e4de298758b1e0,,,,,,,,,,,,,,,,,,,,,,,,,,,,,,,,,,,,,,,,,,,,,,,,,,,,,,,,,,,,,,,,,,,,,,,,,,,972.032,1054.961,space,82.895,,1054.961,1117.254,right,62.253,,0.0,1.0,1.0,1.0,1.0,block_order/blockA.xlsx,,,,,,,,,,,,,,,,,,,,,,,,,,,,,,,,,,,,
,,,,,101084,1,2024-07-12_15h54.48.801,experiment,2024.1.5,Win32,60.0240096,6691931c2c63981b064e1f0c,6691b3dbf8e4de298758b1e0,,,,,,,,,,,,,,,,,,,,,,,,,,,,,,,,,,,,,,,,,,,,,,,,,,,,,,,,,,,,1117.27,1123.811,-0.16087963,0.001157407,1.0,0.0,0.0,0.534,compass,0.0,0.0,0.0,30.0,1.0,SoundStimuli/SomebodyThatIUsedtoKnow_Gotye_Cover5S.wav,,,,,,,,,,,,,,,,,,,,,,,,,,,,,,,,,,,,,,,,,,,,,,,,,,,,
,,,,,101084,1,2024-07-12_15h54.48.801,experiment,2024.1.5,Win32,60.0240096,6691931c2c63981b064e1f0c,6691b3dbf8e4de298758b1e0,,,,,,,,,,,,,,,,,,,,,,,,,,,,,,,,,,,,,,,,,,,,,,,,,,,,,,,,,,,,1123.812,1131.903,-0.168981481,-0.077546296,1.0,0.0,0.0,2.086,compass,0.0,1.0,1.0,0.0,1.0,SoundStimuli/GimmeShelter_RollingStones_Cover5S.wav,,,,,,,,,,,,,,,,,,,,,,,,,,,,,,,,,,,,,,,,,,,,,,,,,,,,
,,,,,101084,1,2024-07-12_15h54.48.801,experiment,2024.1.5,Win32,60.0240096,6691931c2c63981b064e1f0c,6691b3dbf8e4de298758b1e0,,,,,,,,,,,,,,,,,,,,,,,,,,,,,,,,,,,,,,,,,,,,,,,,,,,,,,,,,,,,1131.903,1138.525,0.065972222,-0.00462963,1.0,0.0,0.0,0.615,compass,0.0,2.0,2.0,20.0,1.0,SoundStimuli/FlashdanceWhatAFeeling_IreneCara_Cover5S.wav,,,,,,,,,,,,,,,,,,,,,,,,,,,,,,,,,,,,,,,,,,,,,,,,,,,,
,,,,,101084,1,2024-07-12_15h54.48.801,experiment,2024.1.5,Win32,60.0240096,6691931c2c63981b064e1f0c,6691b3dbf8e4de298758b1e0,,,,,,,,,,,,,,,,,,,,,,,,,,,,,,,,,,,,,,,,,,,,,,,,,,,,,,,,,,,,1138.526,1144.885,-0.184027778,-0.03587963,1.0,0.0,0.0,0.352,compass,0.0,3.0,3.0,33.0,1.0,SoundStimuli/TheBoyIsMine_BrandyMonica_Cover5S.wav,,,,,,,,,,,,,,,,,,,,,,,,,,,,,,,,,,,,,,,,,,,,,,,,,,,,
,,,,,101084,1,2024-07-12_15h54.48.801,experiment,2024.1.5,Win32,60.0240096,6691931c2c63981b064e1f0c,6691b3dbf8e4de298758b1e0,,,,,,,,,,,,,,,,,,,,,,,,,,,,,,,,,,,,,,,,,,,,,,,,,,,,,,,,,,,,1144.892,1153.373,0.179398148,-0.137731481,1.0,0.0,0.0,2.469,compass,0.0,4.0,4.0,8.0,1.0,SoundStimuli/EndlessLove_DianaRossLionelRichie_Original5S.wav,,,,,,,,,,,,,,,,,,,,,,,,,,,,,,,,,,,,,,,,,,,,,,,,,,,,
,,,,,101084,1,2024-07-12_15h54.48.801,experiment,2024.1.5,Win32,60.0240096,6691931c2c63981b064e1f0c,6691b3dbf8e4de298758b1e0,,,,,,,,,,,,,,,,,,,,,,,,,,,,,,,,,,,,,,,,,,,,,,,,,,,,,,,,,,,,1153.373,1159.962,0.206018519,-0.284722222,1.0,0.0,0.0,0.584,compass,0.0,5.0,5.0,19.0,1.0,SoundStimuli/YouLightUpMyLife_DebbyBoone_Cover5S.wav,,,,,,,,,,,,,,,,,,,,,,,,,,,,,,,,,,,,,,,,,,,,,,,,,,,,
,,,,,101084,1,2024-07-12_15h54.48.801,experiment,2024.1.5,Win32,60.0240096,6691931c2c63981b064e1f0c,6691b3dbf8e4de298758b1e0,,,,,,,,,,,,,,,,,,,,,,,,,,,,,,,,,,,,,,,,,,,,,,,,,,,,,,,,,,,,1159.963,1166.301,0.275462963,0.292824074,1.0,0.0,0.0,0.333,compass,0.0,6.0,6.0,15.0,1.0,SoundStimuli/CrazyInLove_BeyonceFtJayZ_Original5S.wav,,,,,,,,,,,,,,,,,,,,,,,,,,,,,,,,,,,,,,,,,,,,,,,,,,,,
,,,,,101084,1,2024-07-12_15h54.48.801,experiment,2024.1.5,Win32,60.0240096,6691931c2c63981b064e1f0c,6691b3dbf8e4de298758b1e0,,,,,,,,,,,,,,,,,,,,,,,,,,,,,,,,,,,,,,,,,,,,,,,,,,,,,,,,,,,,1166.302,1174.577,0.288194444,-0.042824074,1.0,0.0,0.0,2.269,compass,0.0,7.0,7.0,25.0,1.0,SoundStimuli/IllMakeLoveToYou_BoyzIIMen_Original5S.wav,,,,,,,,,,,,,,,,,,,,,,,,,,,,,,,,,,,,,,,,,,,,,,,,,,,,
,,,,,101084,1,2024-07-12_15h54.48.801,experiment,2024.1.5,Win32,60.0240096,6691931c2c63981b064e1f0c,6691b3dbf8e4de298758b1e0,,,,,,,,,,,,,,,,,,,,,,,,,,,,,,,,,,,,,,,,,,,,,,,,,,,,,,,,,,,,1174.579,1180.766,-0.241898148,-0.039351852,1.0,0.0,0.0,0.184,compass,0.0,8.0,8.0,34.0,1.0,SoundStimuli/Irreplaceable_Beyonce_Original5S.wav,,,,,,,,,,,,,,,,,,,,,,,,,,,,,,,,,,,,,,,,,,,,,,,,,,,,
,,,,,101084,1,2024-07-12_15h54.48.801,experiment,2024.1.5,Win32,60.0240096,6691931c2c63981b064e1f0c,6691b3dbf8e4de298758b1e0,,,,,,,,,,,,,,,,,,,,,,,,,,,,,,,,,,,,,,,,,,,,,,,,,,,,,,,,,,,,1180.767,1187.071,0.133101852,0.013888889,1.0,0.0,0.0,0.299,compass,0.0,9.0,9.0,7.0,1.0,SoundStimuli/MackTheKnife_BobbyDarin_Original5S.wav,,,,,,,,,,,,,,,,,,,,,,,,,,,,,,,,,,,,,,,,,,,,,,,,,,,,
,,,,,101084,1,2024-07-12_15h54.48.801,experiment,2024.1.5,Win32,60.0240096,6691931c2c63981b064e1f0c,6691b3dbf8e4de298758b1e0,,,,,,,,,,,,,,,,,,,,,,,,,,,,,,,,,,,,,,,,,,,,,,,,,,,,,,,,,,,,1187.072,1193.811,0.048611111,-0.0625,1.0,0.0,0.0,0.732,compass,0.0,10.0,10.0,4.0,1.0,SoundStimuli/Dreams_FleetwoodMac_Cover5S.wav,,,,,,,,,,,,,,,,,,,,,,,,,,,,,,,,,,,,,,,,,,,,,,,,,,,,
,,,,,101084,1,2024-07-12_15h54.48.801,experiment,2024.1.5,Win32,60.0240096,6691931c2c63981b064e1f0c,6691b3dbf8e4de298758b1e0,,,,,,,,,,,,,,,,,,,,,,,,,,,,,,,,,,,,,,,,,,,,,,,,,,,,,,,,,,,,1193.813,1200.285,0.0,0.175925926,1.0,0.0,0.0,0.466,compass,0.0,11.0,11.0,27.0,1.0,SoundStimuli/EyeOfTheTiger_Survivor_Original5S.wav,,,,,,,,,,,,,,,,,,,,,,,,,,,,,,,,,,,,,,,,,,,,,,,,,,,,
,,,,,101084,1,2024-07-12_15h54.48.801,experiment,2024.1.5,Win32,60.0240096,6691931c2c63981b064e1f0c,6691b3dbf8e4de298758b1e0,,,,,,,,,,,,,,,,,,,,,,,,,,,,,,,,,,,,,,,,,,,,,,,,,,,,,,,,,,,,1200.285,1206.992,0.233796296,-0.159722222,1.0,0.0,0.0,0.702,compass,0.0,12.0,12.0,13.0,1.0,SoundStimuli/Perfect_EdSheeran_Original5S.wav,,,,,,,,,,,,,,,,,,,,,,,,,,,,,,,,,,,,,,,,,,,,,,,,,,,,
,,,,,101084,1,2024-07-12_15h54.48.801,experiment,2024.1.5,Win32,60.0240096,6691931c2c63981b064e1f0c,6691b3dbf8e4de298758b1e0,,,,,,,,,,,,,,,,,,,,,,,,,,,,,,,,,,,,,,,,,,,,,,,,,,,,,,,,,,,,1206.995,1214.165,-0.111111111,-0.208333333,1.0,0.0,0.0,1.169,compass,0.0,13.0,13.0,12.0,1.0,SoundStimuli/UnbreakMyHeart_ToniBraxton_Cover5S.wav,,,,,,,,,,,,,,,,,,,,,,,,,,,,,,,,,,,,,,,,,,,,,,,,,,,,
,,,,,101084,1,2024-07-12_15h54.48.801,experiment,2024.1.5,Win32,60.0240096,6691931c2c63981b064e1f0c,6691b3dbf8e4de298758b1e0,,,,,,,,,,,,,,,,,,,,,,,,,,,,,,,,,,,,,,,,,,,,,,,,,,,,,,,,,,,,1214.167,1222.088,-0.033564815,0.052083333,1.0,0.0,0.0,1.918,compass,0.0,14.0,14.0,26.0,1.0,SoundStimuli/TheSign_AceOfBase_Original5S.wav,,,,,,,,,,,,,,,,,,,,,,,,,,,,,,,,,,,,,,,,,,,,,,,,,,,,
,,,,,101084,1,2024-07-12_15h54.48.801,experiment,2024.1.5,Win32,60.0240096,6691931c2c63981b064e1f0c,6691b3dbf8e4de298758b1e0,,,,,,,,,,,,,,,,,,,,,,,,,,,,,,,,,,,,,,,,,,,,,,,,,,,,,,,,,,,,1222.089,1228.795,-0.140046296,-0.211805556,1.0,0.0,0.0,0.701,compass,0.0,15.0,15.0,6.0,1.0,SoundStimuli/SaveYourTears_TheWeekndArianaGrande_Original5S.wav,,,,,,,,,,,,,,,,,,,,,,,,,,,,,,,,,,,,,,,,,,,,,,,,,,,,
,,,,,101084,1,2024-07-12_15h54.48.801,experiment,2024.1.5,Win32,60.0240096,6691931c2c63981b064e1f0c,6691b3dbf8e4de298758b1e0,,,,,,,,,,,,,,,,,,,,,,,,,,,,,,,,,,,,,,,,,,,,,,,,,,,,,,,,,,,,1228.795,1235.303,0.086805556,0.237268519,1.0,0.0,0.0,0.501,compass,0.0,16.0,16.0,24.0,1.0,SoundStimuli/Kiss_Prince_Original5S.wav,,,,,,,,,,,,,,,,,,,,,,,,,,,,,,,,,,,,,,,,,,,,,,,,,,,,
,,,,,101084,1,2024-07-12_15h54.48.801,experiment,2024.1.5,Win32,60.0240096,6691931c2c63981b064e1f0c,6691b3dbf8e4de298758b1e0,,,,,,,,,,,,,,,,,,,,,,,,,,,,,,,,,,,,,,,,,,,,,,,,,,,,,,,,,,,,1235.307,1241.975,0.282407407,-0.053240741,1.0,0.0,0.0,0.666,compass,0.0,17.0,17.0,32.0,1.0,SoundStimuli/Dilemma_NellyKellyRowland_Original5S.wav,,,,,,,,,,,,,,,,,,,,,,,,,,,,,,,,,,,,,,,,,,,,,,,,,,,,
,,,,,101084,1,2024-07-12_15h54.48.801,experiment,2024.1.5,Win32,60.0240096,6691931c2c63981b064e1f0c,6691b3dbf8e4de298758b1e0,,,,,,,,,,,,,,,,,,,,,,,,,,,,,,,,,,,,,,,,,,,,,,,,,,,,,,,,,,,,1241.976,1248.181,-0.185185185,0.077546296,1.0,0.0,0.0,0.2,compass,0.0,18.0,18.0,2.0,1.0,SoundStimuli/SmellsLikeTeenSpirit_Nirvana_Cover5S.wav,,,,,,,,,,,,,,,,,,,,,,,,,,,,,,,,,,,,,,,,,,,,,,,,,,,,
,,,,,101084,1,2024-07-12_15h54.48.801,experiment,2024.1.5,Win32,60.0240096,6691931c2c63981b064e1f0c,6691b3dbf8e4de298758b1e0,,,,,,,,,,,,,,,,,,,,,,,,,,,,,,,,,,,,,,,,,,,,,,,,,,,,,,,,,,,,1248.181,1255.354,0.311342593,-0.324074074,1.0,0.0,0.0,1.168,compass,0.0,19.0,19.0,28.0,1.0,SoundStimuli/IWantToHoldYourHand_TheBeatles_Cover5S.wav,,,,,,,,,,,,,,,,,,,,,,,,,,,,,,,,,,,,,,,,,,,,,,,,,,,,
,,,,,101084,1,2024-07-12_15h54.48.801,experiment,2024.1.5,Win32,60.0240096,6691931c2c63981b064e1f0c,6691b3dbf8e4de298758b1e0,,,,,,,,,,,,,,,,,,,,,,,,,,,,,,,,,,,,,,,,,,,,,,,,,,,,,,,,,,,,1255.355,1261.693,0.203703704,-0.207175926,1.0,0.0,0.0,0.333,compass,0.0,20.0,20.0,16.0,1.0,SoundStimuli/ItsAllInTheGame_TommyEdwards_Original5S.wav,,,,,,,,,,,,,,,,,,,,,,,,,,,,,,,,,,,,,,,,,,,,,,,,,,,,
,,,,,101084,1,2024-07-12_15h54.48.801,experiment,2024.1.5,Win32,60.0240096,6691931c2c63981b064e1f0c,6691b3dbf8e4de298758b1e0,,,,,,,,,,,,,,,,,,,,,,,,,,,,,,,,,,,,,,,,,,,,,,,,,,,,,,,,,,,,1261.693,1271.021,0.199074074,-0.03587963,1.0,0.0,0.0,3.32,compass,0.0,21.0,21.0,18.0,1.0,SoundStimuli/Weak_SWV_Original5S.wav,,,,,,,,,,,,,,,,,,,,,,,,,,,,,,,,,,,,,,,,,,,,,,,,,,,,
,,,,,101084,1,2024-07-12_15h54.48.801,experiment,2024.1.5,Win32,60.0240096,6691931c2c63981b064e1f0c,6691b3dbf8e4de298758b1e0,,,,,,,,,,,,,,,,,,,,,,,,,,,,,,,,,,,,,,,,,,,,,,,,,,,,,,,,,,,,1271.024,1277.476,0.045138889,0.166666667,1.0,0.0,0.0,0.45,compass,0.0,22.0,22.0,22.0,1.0,SoundStimuli/Happy_PharellWilliams_Cover5S.wav,,,,,,,,,,,,,,,,,,,,,,,,,,,,,,,,,,,,,,,,,,,,,,,,,,,,
,,,,,101084,1,2024-07-12_15h54.48.801,experiment,2024.1.5,Win32,60.0240096,6691931c2c63981b064e1f0c,6691b3dbf8e4de298758b1e0,,,,,,,,,,,,,,,,,,,,,,,,,,,,,,,,,,,,,,,,,,,,,,,,,,,,,,,,,,,,1277.476,1284.365,0.283564815,0.263888889,1.0,0.0,0.0,0.884,compass,0.0,23.0,23.0,31.0,1.0,SoundStimuli/TossinAndTurnin_BobbyLewis_Cover5S.wav,,,,,,,,,,,,,,,,,,,,,,,,,,,,,,,,,,,,,,,,,,,,,,,,,,,,
,,,,,101084,1,2024-07-12_15h54.48.801,experiment,2024.1.5,Win32,60.0240096,6691931c2c63981b064e1f0c,6691b3dbf8e4de298758b1e0,,,,,,,,,,,,,,,,,,,,,,,,,,,,,,,,,,,,,,,,,,,,,,,,,,,,,,,,,,,,1284.366,1290.772,-0.09837963,0.163194444,1.0,0.0,0.0,0.401,compass,0.0,24.0,24.0,10.0,1.0,SoundStimuli/LeFreak_Chic_Original5S.wav,,,,,,,,,,,,,,,,,,,,,,,,,,,,,,,,,,,,,,,,,,,,,,,,,,,,
,,,,,101084,1,2024-07-12_15h54.48.801,experiment,2024.1.5,Win32,60.0240096,6691931c2c63981b064e1f0c,6691b3dbf8e4de298758b1e0,,,,,,,,,,,,,,,,,,,,,,,,,,,,,,,,,,,,,,,,,,,,,,,,,,,,,,,,,,,,1290.772,1299.131,0.313657407,0.039351852,1.0,0.0,0.0,2.354,compass,0.0,25.0,25.0,1.0,1.0,SoundStimuli/Smooth_SantanaRobThomas_Cover5S.wav,,,,,,,,,,,,,,,,,,,,,,,,,,,,,,,,,,,,,,,,,,,,,,,,,,,,
,,,,,101084,1,2024-07-12_15h54.48.801,experiment,2024.1.5,Win32,60.0240096,6691931c2c63981b064e1f0c,6691b3dbf8e4de298758b1e0,,,,,,,,,,,,,,,,,,,,,,,,,,,,,,,,,,,,,,,,,,,,,,,,,,,,,,,,,,,,1299.132,1306.187,0.25,0.210648148,1.0,0.0,0.0,1.049,compass,0.0,26.0,26.0,5.0,1.0,SoundStimuli/JoyToTheWorld_ThreeDogNight_Cover5S.wav,,,,,,,,,,,,,,,,,,,,,,,,,,,,,,,,,,,,,,,,,,,,,,,,,,,,
,,,,,101084,1,2024-07-12_15h54.48.801,experiment,2024.1.5,Win32,60.0240096,6691931c2c63981b064e1f0c,6691b3dbf8e4de298758b1e0,,,,,,,,,,,,,,,,,,,,,,,,,,,,,,,,,,,,,,,,,,,,,,,,,,,,,,,,,,,,1306.19,1312.609,0.236111111,0.25,1.0,0.0,0.0,0.417,compass,0.0,27.0,27.0,11.0,1.0,SoundStimuli/BlurredLines_RobinThicke_Original5S.wav,,,,,,,,,,,,,,,,,,,,,,,,,,,,,,,,,,,,,,,,,,,,,,,,,,,,
,,,,,101084,1,2024-07-12_15h54.48.801,experiment,2024.1.5,Win32,60.0240096,6691931c2c63981b064e1f0c,6691b3dbf8e4de298758b1e0,,,,,,,,,,,,,,,,,,,,,,,,,,,,,,,,,,,,,,,,,,,,,,,,,,,,,,,,,,,,1312.61,1318.982,0.263888889,-0.230324074,1.0,0.0,0.0,0.367,compass,0.0,28.0,28.0,23.0,1.0,SoundStimuli/IWalkTheLine_JohnnyCash_Cover5S.wav,,,,,,,,,,,,,,,,,,,,,,,,,,,,,,,,,,,,,,,,,,,,,,,,,,,,
,,,,,101084,1,2024-07-12_15h54.48.801,experiment,2024.1.5,Win32,60.0240096,6691931c2c63981b064e1f0c,6691b3dbf8e4de298758b1e0,,,,,,,,,,,,,,,,,,,,,,,,,,,,,,,,,,,,,,,,,,,,,,,,,,,,,,,,,,,,1318.982,1325.455,0.321759259,0.00462963,1.0,0.0,0.0,0.468,compass,0.0,29.0,29.0,3.0,1.0,SoundStimuli/PartyRockAnthem_LMFAO_Cover5S.wav,,,,,,,,,,,,,,,,,,,,,,,,,,,,,,,,,,,,,,,,,,,,,,,,,,,,
,,,,,101084,1,2024-07-12_15h54.48.801,experiment,2024.1.5,Win32,60.0240096,6691931c2c63981b064e1f0c,6691b3dbf8e4de298758b1e0,,,,,,,,,,,,,,,,,,,,,,,,,,,,,,,,,,,,,,,,,,,,,,,,,,,,,,,,,,,,1325.456,1332.112,-0.25,-0.039351852,1.0,0.0,0.0,0.652,compass,0.0,30.0,30.0,14.0,1.0,SoundStimuli/LikeARollingStone_BobDylan_Cover5S.wav,,,,,,,,,,,,,,,,,,,,,,,,,,,,,,,,,,,,,,,,,,,,,,,,,,,,
,,,,,101084,1,2024-07-12_15h54.48.801,experiment,2024.1.5,Win32,60.0240096,6691931c2c63981b064e1f0c,6691b3dbf8e4de298758b1e0,,,,,,,,,,,,,,,,,,,,,,,,,,,,,,,,,,,,,,,,,,,,,,,,,,,,,,,,,,,,1332.113,1338.701,0.203703704,-0.019675926,1.0,0.0,0.0,0.583,compass,0.0,31.0,31.0,29.0,1.0,SoundStimuli/BetteDavisEyes_KimCarnes_Cover5S.wav,,,,,,,,,,,,,,,,,,,,,,,,,,,,,,,,,,,,,,,,,,,,,,,,,,,,
,,,,,101084,1,2024-07-12_15h54.48.801,experiment,2024.1.5,Win32,60.0240096,6691931c2c63981b064e1f0c,6691b3dbf8e4de298758b1e0,,,,,,,,,,,,,,,,,,,,,,,,,,,,,,,,,,,,,,,,,,,,,,,,,,,,,,,,,,,,1338.704,1345.409,0.019675926,-0.02662037,1.0,0.0,0.0,0.702,compass,0.0,32.0,32.0,21.0,1.0,SoundStimuli/BridgeOverTroubledWater_SimonAndGarfunkel_Cover5S.wav,,,,,,,,,,,,,,,,,,,,,,,,,,,,,,,,,,,,,,,,,,,,,,,,,,,,
,,,,,101084,1,2024-07-12_15h54.48.801,experiment,2024.1.5,Win32,60.0240096,6691931c2c63981b064e1f0c,6691b3dbf8e4de298758b1e0,,,,,,,,,,,,,,,,,,,,,,,,,,,,,,,,,,,,,,,,,,,,,,,,,,,,,,,,,,,,1345.411,1351.864,0.248842593,-0.207175926,1.0,0.0,0.0,0.451,compass,0.0,33.0,33.0,17.0,1.0,SoundStimuli/IWannaDanceWithSomebody_WhitneyHouston_Cover5S.wav,,,,,,,,,,,,,,,,,,,,,,,,,,,,,,,,,,,,,,,,,,,,,,,,,,,,
,,,,,101084,1,2024-07-12_15h54.48.801,experiment,2024.1.5,Win32,60.0240096,6691931c2c63981b064e1f0c,6691b3dbf8e4de298758b1e0,,,,,,,,,,,,,,,,,,,,,,,,,,,,,,,,,,,,,,,,,,,,,,,,,,,,,,,,,,,,1351.864,1359.773,0.203703704,-0.283564815,1.0,0.0,0.0,1.903,compass,0.0,34.0,34.0,9.0,1.0,SoundStimuli/HowDoILive_LeAnnRimes_Original5S.wav,,,,,,,,,,,,,,,,,,,,,,,,,,,,,,,,,,,,,,,,,,,,,,,,,,,,
,,,,,101084,1,2024-07-12_15h54.48.801,experiment,2024.1.5,Win32,60.0240096,6691931c2c63981b064e1f0c,6691b3dbf8e4de298758b1e0,,,,,,,,,,,,,,,,,,,,,,,,,,,,,,,,,,,,,,,,,,,,,,,,,,,,,,,,,,,,,,,,,,,,,,,,,,,1359.773,1438.48,space,78.674,,1438.481,1440.715,right,2.196,,0.0,2.0,2.0,2.0,1.0,block_order/blockB.xlsx,,,,,,,,,,,,,,,,,,,,,,,,,,,,,,,,,,,,
,,,,,101084,1,2024-07-12_15h54.48.801,experiment,2024.1.5,Win32,60.0240096,6691931c2c63981b064e1f0c,6691b3dbf8e4de298758b1e0,,,,,,,,,,,,,,,,,,,,,,,,,,,,,,,,,,,,,,,,,,,,,,,,,,,,,,,,,,,,1440.73,1447.038,-0.194444444,0.055555556,1.0,0.0,0.0,0.3,compass,0.0,0.0,0.0,2.0,1.0,SoundStimuli/Mood_24kGoldnianndior_Original5S.wav,,,,,,,,,,,,,,,,,,,,,,,,,,,,,,,,,,,,,,,,,,,,,,,,,,,,
,,,,,101084,1,2024-07-12_15h54.48.801,experiment,2024.1.5,Win32,60.0240096,6691931c2c63981b064e1f0c,6691b3dbf8e4de298758b1e0,,,,,,,,,,,,,,,,,,,,,,,,,,,,,,,,,,,,,,,,,,,,,,,,,,,,,,,,,,,,1447.039,1453.662,0.256944444,0.077546296,1.0,0.0,0.0,0.618,compass,0.0,1.0,1.0,6.0,1.0,SoundStimuli/Levitating_DuaLipa_Original5S.wav,,,,,,,,,,,,,,,,,,,,,,,,,,,,,,,,,,,,,,,,,,,,,,,,,,,,
,,,,,101084,1,2024-07-12_15h54.48.801,experiment,2024.1.5,Win32,60.0240096,6691931c2c63981b064e1f0c,6691b3dbf8e4de298758b1e0,,,,,,,,,,,,,,,,,,,,,,,,,,,,,,,,,,,,,,,,,,,,,,,,,,,,,,,,,,,,1453.663,1462.687,0.064814815,-0.065972222,1.0,0.0,0.0,3.02,compass,0.0,2.0,2.0,28.0,1.0,SoundStimuli/ComeAndGetYourLove_Redbone_Cover5S.wav,,,,,,,,,,,,,,,,,,,,,,,,,,,,,,,,,,,,,,,,,,,,,,,,,,,,
,,,,,101084,1,2024-07-12_15h54.48.801,experiment,2024.1.5,Win32,60.0240096,6691931c2c63981b064e1f0c,6691b3dbf8e4de298758b1e0,,,,,,,,,,,,,,,,,,,,,,,,,,,,,,,,,,,,,,,,,,,,,,,,,,,,,,,,,,,,1462.687,1472.197,-0.267361111,-0.115740741,1.0,0.0,0.0,3.504,compass,0.0,3.0,3.0,3.0,1.0,SoundStimuli/NoScrubs_TLC_Cover5S.wav,,,,,,,,,,,,,,,,,,,,,,,,,,,,,,,,,,,,,,,,,,,,,,,,,,,,
,,,,,101084,1,2024-07-12_15h54.48.801,experiment,2024.1.5,Win32,60.0240096,6691931c2c63981b064e1f0c,6691b3dbf8e4de298758b1e0,,,,,,,,,,,,,,,,,,,,,,,,,,,,,,,,,,,,,,,,,,,,,,,,,,,,,,,,,,,,1472.199,1479.605,0.186342593,0.028935185,1.0,0.0,0.0,1.402,compass,0.0,4.0,4.0,8.0,1.0,SoundStimuli/LikeAPrayer_Madonna_Cover5S.wav,,,,,,,,,,,,,,,,,,,,,,,,,,,,,,,,,,,,,,,,,,,,,,,,,,,,
,,,,,101084,1,2024-07-12_15h54.48.801,experiment,2024.1.5,Win32,60.0240096,6691931c2c63981b064e1f0c,6691b3dbf8e4de298758b1e0,,,,,,,,,,,,,,,,,,,,,,,,,,,,,,,,,,,,,,,,,,,,,,,,,,,,,,,,,,,,1479.605,1486.028,0.153935185,0.15625,1.0,0.0,0.0,0.419,compass,0.0,5.0,5.0,4.0,1.0,SoundStimuli/GetUrFreakOn_MissyElliot_Cover5S.wav,,,,,,,,,,,,,,,,,,,,,,,,,,,,,,,,,,,,,,,,,,,,,,,,,,,,
,,,,,101084,1,2024-07-12_15h54.48.801,experiment,2024.1.5,Win32,60.0240096,6691931c2c63981b064e1f0c,6691b3dbf8e4de298758b1e0,,,,,,,,,,,,,,,,,,,,,,,,,,,,,,,,,,,,,,,,,,,,,,,,,,,,,,,,,,,,1486.029,1492.365,-0.184027778,-0.268518519,1.0,0.0,0.0,0.333,compass,0.0,6.0,6.0,18.0,1.0,SoundStimuli/AnotherOneBitesTheDust_Queen_Cover5S.wav,,,,,,,,,,,,,,,,,,,,,,,,,,,,,,,,,,,,,,,,,,,,,,,,,,,,
,,,,,101084,1,2024-07-12_15h54.48.801,experiment,2024.1.5,Win32,60.0240096,6691931c2c63981b064e1f0c,6691b3dbf8e4de298758b1e0,,,,,,,,,,,,,,,,,,,,,,,,,,,,,,,,,,,,,,,,,,,,,,,,,,,,,,,,,,,,1492.366,1498.705,0.305555556,0.311342593,1.0,0.0,0.0,0.333,compass,0.0,7.0,7.0,20.0,1.0,SoundStimuli/HeyYa_Outkast_Original5S.wav,,,,,,,,,,,,,,,,,,,,,,,,,,,,,,,,,,,,,,,,,,,,,,,,,,,,
,,,,,101084,1,2024-07-12_15h54.48.801,experiment,2024.1.5,Win32,60.0240096,6691931c2c63981b064e1f0c,6691b3dbf8e4de298758b1e0,,,,,,,,,,,,,,,,,,,,,,,,,,,,,,,,,,,,,,,,,,,,,,,,,,,,,,,,,,,,1498.706,1505.679,-0.053240741,-0.072916667,1.0,0.0,0.0,0.967,compass,0.0,8.0,8.0,9.0,1.0,SoundStimuli/Despacito_LuisFonsiDaddyYankee_Original5S.wav,,,,,,,,,,,,,,,,,,,,,,,,,,,,,,,,,,,,,,,,,,,,,,,,,,,,
,,,,,101084,1,2024-07-12_15h54.48.801,experiment,2024.1.5,Win32,60.0240096,6691931c2c63981b064e1f0c,6691b3dbf8e4de298758b1e0,,,,,,,,,,,,,,,,,,,,,,,,,,,,,,,,,,,,,,,,,,,,,,,,,,,,,,,,,,,,1505.682,1513.72,0.030092593,0.324074074,1.0,0.0,0.0,2.034,compass,0.0,9.0,9.0,25.0,1.0,SoundStimuli/Respect_ArethaFranklin_Cover5S.wav,,,,,,,,,,,,,,,,,,,,,,,,,,,,,,,,,,,,,,,,,,,,,,,,,,,,
,,,,,101084,1,2024-07-12_15h54.48.801,experiment,2024.1.5,Win32,60.0240096,6691931c2c63981b064e1f0c,6691b3dbf8e4de298758b1e0,,,,,,,,,,,,,,,,,,,,,,,,,,,,,,,,,,,,,,,,,,,,,,,,,,,,,,,,,,,,1513.72,1520.743,-0.202546296,0.180555556,1.0,0.0,0.0,1.018,compass,0.0,10.0,10.0,23.0,1.0,SoundStimuli/StrawberryFieldsForever_TheBeatles_Cover5S.wav,,,,,,,,,,,,,,,,,,,,,,,,,,,,,,,,,,,,,,,,,,,,,,,,,,,,
,,,,,101084,1,2024-07-12_15h54.48.801,experiment,2024.1.5,Win32,60.0240096,6691931c2c63981b064e1f0c,6691b3dbf8e4de298758b1e0,,,,,,,,,,,,,,,,,,,,,,,,,,,,,,,,,,,,,,,,,,,,,,,,,,,,,,,,,,,,1520.744,1527.933,0.253472222,-0.159722222,1.0,0.0,0.0,1.184,compass,0.0,11.0,11.0,12.0,1.0,SoundStimuli/IWillAlwaysLoveYou_WhitneyHouston_Original5S.wav,,,,,,,,,,,,,,,,,,,,,,,,,,,,,,,,,,,,,,,,,,,,,,,,,,,,
,,,,,101084,1,2024-07-12_15h54.48.801,experiment,2024.1.5,Win32,60.0240096,6691931c2c63981b064e1f0c,6691b3dbf8e4de298758b1e0,,,,,,,,,,,,,,,,,,,,,,,,,,,,,,,,,,,,,,,,,,,,,,,,,,,,,,,,,,,,1527.934,1534.506,0.083333333,-0.113425926,1.0,0.0,0.0,0.568,compass,0.0,12.0,12.0,13.0,1.0,SoundStimuli/GodOnlyKnows_TheBeachBoys_Original5S.wav,,,,,,,,,,,,,,,,,,,,,,,,,,,,,,,,,,,,,,,,,,,,,,,,,,,,
,,,,,101084,1,2024-07-12_15h54.48.801,experiment,2024.1.5,Win32,60.0240096,6691931c2c63981b064e1f0c,6691b3dbf8e4de298758b1e0,,,,,,,,,,,,,,,,,,,,,,,,,,,,,,,,,,,,,,,,,,,,,,,,,,,,,,,,,,,,1534.507,1540.864,0.230324074,-0.127314815,1.0,0.0,0.0,0.351,compass,0.0,13.0,13.0,19.0,1.0,SoundStimuli/LetsGetItOn_MarvinGaye_Original5S.wav,,,,,,,,,,,,,,,,,,,,,,,,,,,,,,,,,,,,,,,,,,,,,,,,,,,,
,,,,,101084,1,2024-07-12_15h54.48.801,experiment,2024.1.5,Win32,60.0240096,6691931c2c63981b064e1f0c,6691b3dbf8e4de298758b1e0,,,,,,,,,,,,,,,,,,,,,,,,,,,,,,,,,,,,,,,,,,,,,,,,,,,,,,,,,,,,1540.867,1547.151,0.315972222,0.322916667,1.0,0.0,0.0,0.283,compass,0.0,14.0,14.0,15.0,1.0,SoundStimuli/TikTok_Kesha_Original5S.wav,,,,,,,,,,,,,,,,,,,,,,,,,,,,,,,,,,,,,,,,,,,,,,,,,,,,
,,,,,101084,1,2024-07-12_15h54.48.801,experiment,2024.1.5,Win32,60.0240096,6691931c2c63981b064e1f0c,6691b3dbf8e4de298758b1e0,,,,,,,,,,,,,,,,,,,,,,,,,,,,,,,,,,,,,,,,,,,,,,,,,,,,,,,,,,,,1547.152,1554.508,-0.0625,0.246527778,1.0,0.0,0.0,1.351,compass,0.0,15.0,15.0,11.0,1.0,SoundStimuli/Superstition_StevieWonder_Original5S.wav,,,,,,,,,,,,,,,,,,,,,,,,,,,,,,,,,,,,,,,,,,,,,,,,,,,,
,,,,,101084,1,2024-07-12_15h54.48.801,experiment,2024.1.5,Win32,60.0240096,6691931c2c63981b064e1f0c,6691b3dbf8e4de298758b1e0,,,,,,,,,,,,,,,,,,,,,,,,,,,,,,,,,,,,,,,,,,,,,,,,,,,,,,,,,,,,1554.509,1563.301,0.046296296,0.001157407,1.0,0.0,0.0,2.786,compass,0.0,16.0,16.0,32.0,1.0,SoundStimuli/HeatWaves_GlassAnimals_Cover5S.wav,,,,,,,,,,,,,,,,,,,,,,,,,,,,,,,,,,,,,,,,,,,,,,,,,,,,
,,,,,101084,1,2024-07-12_15h54.48.801,experiment,2024.1.5,Win32,60.0240096,6691931c2c63981b064e1f0c,6691b3dbf8e4de298758b1e0,,,,,,,,,,,,,,,,,,,,,,,,,,,,,,,,,,,,,,,,,,,,,,,,,,,,,,,,,,,,1563.301,1569.524,0.043981481,0.037037037,1.0,0.0,0.0,0.217,compass,0.0,17.0,17.0,14.0,1.0,SoundStimuli/BlindingLights_TheWeeknd_Cover5S.wav,,,,,,,,,,,,,,,,,,,,,,,,,,,,,,,,,,,,,,,,,,,,,,,,,,,,
,,,,,101084,1,2024-07-12_15h54.48.801,experiment,2024.1.5,Win32,60.0240096,6691931c2c63981b064e1f0c,6691b3dbf8e4de298758b1e0,,,,,,,,,,,,,,,,,,,,,,,,,,,,,,,,,,,,,,,,,,,,,,,,,,,,,,,,,,,,1569.524,1575.897,0.030092593,0.241898148,1.0,0.0,0.0,0.367,compass,0.0,18.0,18.0,24.0,1.0,SoundStimuli/UptownFunk_MarkRonson_Cover5S.wav,,,,,,,,,,,,,,,,,,,,,,,,,,,,,,,,,,,,,,,,,,,,,,,,,,,,
,,,,,101084,1,2024-07-12_15h54.48.801,experiment,2024.1.5,Win32,60.0240096,6691931c2c63981b064e1f0c,6691b3dbf8e4de298758b1e0,,,,,,,,,,,,,,,,,,,,,,,,,,,,,,,,,,,,,,,,,,,,,,,,,,,,,,,,,,,,1575.899,1582.102,-0.049768519,0.092592593,1.0,0.0,0.0,0.2,compass,0.0,19.0,19.0,0.0,1.0,SoundStimuli/StayinAlive_BeeGees_Cover5S.wav,,,,,,,,,,,,,,,,,,,,,,,,,,,,,,,,,,,,,,,,,,,,,,,,,,,,
,,,,,101084,1,2024-07-12_15h54.48.801,experiment,2024.1.5,Win32,60.0240096,6691931c2c63981b064e1f0c,6691b3dbf8e4de298758b1e0,,,,,,,,,,,,,,,,,,,,,,,,,,,,,,,,,,,,,,,,,,,,,,,,,,,,,,,,,,,,1582.104,1588.458,0.212962963,-0.034722222,1.0,0.0,0.0,0.35,compass,0.0,20.0,20.0,27.0,1.0,SoundStimuli/ShapeofYou_EdSheeran_Cover5S.wav,,,,,,,,,,,,,,,,,,,,,,,,,,,,,,,,,,,,,,,,,,,,,,,,,,,,
,,,,,101084,1,2024-07-12_15h54.48.801,experiment,2024.1.5,Win32,60.0240096,6691931c2c63981b064e1f0c,6691b3dbf8e4de298758b1e0,,,,,,,,,,,,,,,,,,,,,,,,,,,,,,,,,,,,,,,,,,,,,,,,,,,,,,,,,,,,1588.458,1596.716,-0.076388889,0.03125,1.0,0.0,0.0,2.253,compass,0.0,21.0,21.0,30.0,1.0,SoundStimuli/PokerFace_LadyGaga_Cover5S.wav,,,,,,,,,,,,,,,,,,,,,,,,,,,,,,,,,,,,,,,,,,,,,,,,,,,,
,,,,,101084,1,2024-07-12_15h54.48.801,experiment,2024.1.5,Win32,60.0240096,6691931c2c63981b064e1f0c,6691b3dbf8e4de298758b1e0,,,,,,,,,,,,,,,,,,,,,,,,,,,,,,,,,,,,,,,,,,,,,,,,,,,,,,,,,,,,1596.716,1603.139,0.175925926,0.229166667,1.0,0.0,0.0,0.417,compass,0.0,22.0,22.0,21.0,1.0,SoundStimuli/GoodGollyMissMolly_LittleRichard_Original5S.wav,,,,,,,,,,,,,,,,,,,,,,,,,,,,,,,,,,,,,,,,,,,,,,,,,,,,
,,,,,101084,1,2024-07-12_15h54.48.801,experiment,2024.1.5,Win32,60.0240096,6691931c2c63981b064e1f0c,6691b3dbf8e4de298758b1e0,,,,,,,,,,,,,,,,,,,,,,,,,,,,,,,,,,,,,,,,,,,,,,,,,,,,,,,,,,,,1603.142,1609.696,0.209490741,-0.332175926,1.0,0.0,0.0,0.55,compass,0.0,23.0,23.0,5.0,1.0,SoundStimuli/MyGirl_TheTemptations_Cover5S.wav,,,,,,,,,,,,,,,,,,,,,,,,,,,,,,,,,,,,,,,,,,,,,,,,,,,,
,,,,,101084,1,2024-07-12_15h54.48.801,experiment,2024.1.5,Win32,60.0240096,6691931c2c63981b064e1f0c,6691b3dbf8e4de298758b1e0,,,,,,,,,,,,,,,,,,,,,,,,,,,,,,,,,,,,,,,,,,,,,,,,,,,,,,,,,,,,1609.696,1616.702,0.041666667,0.092592593,1.0,0.0,0.0,1.002,compass,0.0,24.0,24.0,16.0,1.0,SoundStimuli/BohemianRhapsody_Queen_Cover5S.wav,,,,,,,,,,,,,,,,,,,,,,,,,,,,,,,,,,,,,,,,,,,,,,,,,,,,
,,,,,101084,1,2024-07-12_15h54.48.801,experiment,2024.1.5,Win32,60.0240096,6691931c2c63981b064e1f0c,6691b3dbf8e4de298758b1e0,,,,,,,,,,,,,,,,,,,,,,,,,,,,,,,,,,,,,,,,,,,,,,,,,,,,,,,,,,,,1616.702,1623.008,0.261574074,-0.197916667,1.0,0.0,0.0,0.298,compass,0.0,25.0,25.0,33.0,1.0,SoundStimuli/StandByMe_BenEKing_Original5S.wav,,,,,,,,,,,,,,,,,,,,,,,,,,,,,,,,,,,,,,,,,,,,,,,,,,,,
,,,,,101084,1,2024-07-12_15h54.48.801,experiment,2024.1.5,Win32,60.0240096,6691931c2c63981b064e1f0c,6691b3dbf8e4de298758b1e0,,,,,,,,,,,,,,,,,,,,,,,,,,,,,,,,,,,,,,,,,,,,,,,,,,,,,,,,,,,,1623.008,1630.399,-0.05787037,0.02662037,1.0,0.0,0.0,1.385,compass,0.0,26.0,26.0,1.0,1.0,SoundStimuli/Stronger_KanyeWest_Cover5S.wav,,,,,,,,,,,,,,,,,,,,,,,,,,,,,,,,,,,,,,,,,,,,,,,,,,,,
,,,,,101084,1,2024-07-12_15h54.48.801,experiment,2024.1.5,Win32,60.0240096,6691931c2c63981b064e1f0c,6691b3dbf8e4de298758b1e0,,,,,,,,,,,,,,,,,,,,,,,,,,,,,,,,,,,,,,,,,,,,,,,,,,,,,,,,,,,,1630.4,1638.34,-0.03587963,-0.052083333,1.0,0.0,0.0,1.933,compass,0.0,27.0,27.0,7.0,1.0,SoundStimuli/NoOne_AliciaKeys_Original5S.wav,,,,,,,,,,,,,,,,,,,,,,,,,,,,,,,,,,,,,,,,,,,,,,,,,,,,
,,,,,101084,1,2024-07-12_15h54.48.801,experiment,2024.1.5,Win32,60.0240096,6691931c2c63981b064e1f0c,6691b3dbf8e4de298758b1e0,,,,,,,,,,,,,,,,,,,,,,,,,,,,,,,,,,,,,,,,,,,,,,,,,,,,,,,,,,,,1638.344,1644.745,-0.104166667,-0.25462963,1.0,0.0,0.0,0.4,compass,0.0,28.0,28.0,10.0,1.0,SoundStimuli/BadDay_DanielPowter_Original5S.wav,,,,,,,,,,,,,,,,,,,,,,,,,,,,,,,,,,,,,,,,,,,,,,,,,,,,
,,,,,101084,1,2024-07-12_15h54.48.801,experiment,2024.1.5,Win32,60.0240096,6691931c2c63981b064e1f0c,6691b3dbf8e4de298758b1e0,,,,,,,,,,,,,,,,,,,,,,,,,,,,,,,,,,,,,,,,,,,,,,,,,,,,,,,,,,,,1644.745,1651.052,0.054398148,0.069444444,1.0,0.0,0.0,0.301,compass,0.0,29.0,29.0,31.0,1.0,SoundStimuli/TheBattleOfNewOrleans_JohnnyHorton_Original5S.wav,,,,,,,,,,,,,,,,,,,,,,,,,,,,,,,,,,,,,,,,,,,,,,,,,,,,
,,,,,101084,1,2024-07-12_15h54.48.801,experiment,2024.1.5,Win32,60.0240096,6691931c2c63981b064e1f0c,6691b3dbf8e4de298758b1e0,,,,,,,,,,,,,,,,,,,,,,,,,,,,,,,,,,,,,,,,,,,,,,,,,,,,,,,,,,,,1651.052,1657.392,0.165509259,-0.023148148,1.0,0.0,0.0,0.334,compass,0.0,30.0,30.0,22.0,1.0,SoundStimuli/RockWithYou_MichaelJackson_Cover5S.wav,,,,,,,,,,,,,,,,,,,,,,,,,,,,,,,,,,,,,,,,,,,,,,,,,,,,
,,,,,101084,1,2024-07-12_15h54.48.801,experiment,2024.1.5,Win32,60.0240096,6691931c2c63981b064e1f0c,6691b3dbf8e4de298758b1e0,,,,,,,,,,,,,,,,,,,,,,,,,,,,,,,,,,,,,,,,,,,,,,,,,,,,,,,,,,,,1657.392,1664.748,-0.064814815,-0.001157407,1.0,0.0,0.0,1.348,compass,0.0,31.0,31.0,17.0,1.0,SoundStimuli/Fallin_AliciaKeys_Cover5S.wav,,,,,,,,,,,,,,,,,,,,,,,,,,,,,,,,,,,,,,,,,,,,,,,,,,,,
,,,,,101084,1,2024-07-12_15h54.48.801,experiment,2024.1.5,Win32,60.0240096,6691931c2c63981b064e1f0c,6691b3dbf8e4de298758b1e0,,,,,,,,,,,,,,,,,,,,,,,,,,,,,,,,,,,,,,,,,,,,,,,,,,,,,,,,,,,,1664.749,1671.172,0.030092593,0.21412037,1.0,0.0,0.0,0.417,compass,0.0,32.0,32.0,26.0,1.0,SoundStimuli/LivinOnAPrayer_BonJovi_Original5S.wav,,,,,,,,,,,,,,,,,,,,,,,,,,,,,,,,,,,,,,,,,,,,,,,,,,,,
,,,,,101084,1,2024-07-12_15h54.48.801,experiment,2024.1.5,Win32,60.0240096,6691931c2c63981b064e1f0c,6691b3dbf8e4de298758b1e0,,,,,,,,,,,,,,,,,,,,,,,,,,,,,,,,,,,,,,,,,,,,,,,,,,,,,,,,,,,,1671.176,1678.762,0.025462963,-0.054398148,1.0,0.0,0.0,1.584,compass,0.0,33.0,33.0,29.0,1.0,SoundStimuli/OldTownRoad_LilNasX_Cover5S.wav,,,,,,,,,,,,,,,,,,,,,,,,,,,,,,,,,,,,,,,,,,,,,,,,,,,,
,,,,,101084,1,2024-07-12_15h54.48.801,experiment,2024.1.5,Win32,60.0240096,6691931c2c63981b064e1f0c,6691b3dbf8e4de298758b1e0,,,,,,,,,,,,,,,,,,,,,,,,,,,,,,,,,,,,,,,,,,,,,,,,,,,,,,,,,,,,1678.762,1685.485,-0.002314815,-0.186342593,1.0,0.0,0.0,0.718,compass,0.0,34.0,34.0,34.0,1.0,SoundStimuli/AChangeIsGonnaCome_SamCooke_Original5S.wav,,,,,,,,,,,,,,,,,,,,,,,,,,,,,,,,,,,,,,,,,,,,,,,,,,,,
,,,,,101084,1,2024-07-12_15h54.48.801,experiment,2024.1.5,Win32,60.0240096,6691931c2c63981b064e1f0c,6691b3dbf8e4de298758b1e0,,,,,,,,,,,,,,,,,,,,,,,,,,,,,,,,,,,,,,,,,,,,,,,,,,,,,,,,,,,,,,,,,,,,,,,,,,,1685.486,1685.486,,,,1685.486,1685.486,,,,0.0,3.0,3.0,3.0,1.0,block_order/blockC.xlsx,,,,,,,,,,,,,,,,,,,,,,,,,,,,,,,,,,,,
,,,,,101084,1,2024-07-12_15h54.48.801,experiment,2024.1.5,Win32,60.0240096,6691931c2c63981b064e1f0c,6691b3dbf8e4de298758b1e0,,,,,,,,,,,,,,,,,,,,,,,,,,,,,,,,,,,,,,,,,,,,,,,,,,,,,,,,,,,,,,,,,,,,,,,,,,,,,,,,,,,,,,,,,,,35.0,Item 2,"Played trumpet from 10-15, played tuba from 14-18, played guitar from 12-18.",Item 5,"Spotify, YouTube, personal vinyl collection.",4.0,5.0,"Driving, doing household tasks, hanging out with friends.",Often,Rarely,Sometimes,Rarely,Sometimes,Rarely,Rarely,Sometimes,Sometimes,Sometimes,Often,Often,Rarely,Often,Sometimes,"Psychedelic rock, IDM, garage rock, blues, punk",Psychedelic rock,Garage rock,Punk,"I seek out lots of different music from different genres for the sake of hearing something new and challenging my own tastes, but also still listen to my rotation of favorites.","I go from listening to all new artists, purposely seeking them out, purposely finding genres I've never heard of from far away countries, oftentimes 100 or more in a week, to going back to my old favorites. Depends on my mood.",0.0,0.0,0.0,0.0,1.0,,
,,,,,101084,1,2024-07-12_15h54.48.801,experiment,2024.1.5,Win32,60.0240096,6691931c2c63981b064e1f0c,6691b3dbf8e4de298758b1e0,,,,,,,,,,,,,,,,,,,,,,,,,,,,,,,,,,,,,,,,,,,,,,,,,,,,,,,,,,,,,,,,,,,,,,,,,,,,,,,,,,,,,,,,,,,,,,,,,,,,,,,,,,,,,,,,,,,,,,,,,,,,,2041.173,2043.379
