welcome.started,welcome.stopped,space_to_continue.keys,space_to_continue.rt,space_to_continue.duration,participant,session,date,expName,psychopyVersion,OS,frameRate,STUDY_ID,SESSION_ID,consent.consent,consent.consent_recontact,consent_check.started,consent_check.stopped,calibration_ready.started,calibration_ready.stopped,cal_ready.keys,cal_ready.rt,cal_ready.duration,calibration.started,calibration.stopped,mouse.x,mouse.y,mouse.leftButton,mouse.midButton,mouse.rightButton,mouse.time,mouse.clicked_name,move_on.keys,move_on.rt,move_on.duration,run_cal.thisRepN,run_cal.thisTrialN,run_cal.thisN,run_cal.thisIndex,run_cal.ran,emotion_training_ready.started,emotion_training_ready.stopped,training_move_on.keys,training_move_on.rt,training_move_on.duration,examples.started,examples.stopped,emotion_scale.started,emotion_scale.stopped,scale_next.keys,scale_next.rt,scale_next.duration,instructions.started,instructions.stopped,next.keys,next.rt,next.duration,practice_task.started,practice_task.stopped,mouse_rating_2.x,mouse_rating_2.y,mouse_rating_2.leftButton,mouse_rating_2.midButton,mouse_rating_2.rightButton,mouse_rating_2.time,mouse_rating_2.clicked_name,ready.started,ready.stopped,key_resp.keys,key_resp.rt,key_resp.duration,set_group.started,set_group.stopped,task.started,task.stopped,mouse_rating.x,mouse_rating.y,mouse_rating.leftButton,mouse_rating.midButton,mouse_rating.rightButton,mouse_rating.time,mouse_rating.clicked_name,trials.thisRepN,trials.thisTrialN,trials.thisN,trials.thisIndex,trials.ran,clip,short_break.started,short_break.stopped,space_to_move_on.keys,space_to_move_on.rt,space_to_move_on.duration,instruction_reminder.started,instruction_reminder.stopped,reminder_move_on.keys,reminder_move_on.rt,reminder_move_on.duration,blocks.thisRepN,blocks.thisTrialN,blocks.thisN,blocks.thisIndex,blocks.ran,block,post_survey.age,post_survey.musician,post_survey.music_making,post_survey.listen_time,post_survey.medium,post_survey.music_seeking,post_survey.music_choice,post_survey.activities,post_survey.question1.Classic rock,post_survey.question1.Hip hop,post_survey.question1.Folk/indie,post_survey.question1.Latin,post_survey.question1.A cappella,post_survey.question1.Alternative rock,post_survey.question1.Reggae,post_survey.question1.Ambient,post_survey.question1.Metal,post_survey.question1.Classical,post_survey.question1.Disco,post_survey.question1.R&B,post_survey.question1.Country,post_survey.question1.Jazz,post_survey.question1.Pop,post_survey.question1.Electronic (EDM),post_survey.genres_ranked.text1,post_survey.genres_ranked.text2,post_survey.genres_ranked.text3,post_survey.habit_change,show_exp.thisRepN,show_exp.thisTrialN,show_exp.thisN,show_exp.thisIndex,show_exp.ran,goodbye.started,goodbye.stopped
0.0,2.373,space,2.332,,103736,1,2024-07-12_16h39.12.788,experiment,2024.1.5,Win32,60.0240096,6691931c2c63981b064e1f0c,6691be689f2bed992ea5e089,,,,,,,,,,,,,,,,,,,,,,,,,,,,,,,,,,,,,,,,,,,,,,,,,,,,,,,,,,,,,,,,,,,,,,,,,,,,,,,,,,,,,,,,,,,,,,,,,,,,,,,,,,,,,,,,,,,,,,,,,,,,,
,,,,,103736,1,2024-07-12_16h39.12.788,experiment,2024.1.5,Win32,60.0240096,6691931c2c63981b064e1f0c,6691be689f2bed992ea5e089,yes,yes,,,,,,,,,,,,,,,,,,,,,,,,,,,,,,,,,,,,,,,,,,,,,,,,,,,,,,,,,,,,,,,,,,,,,,,,,,,,,,,,,,,,,,,,,,,,,,,,,,,,,,,,,,,,,,,,,,,,,,,,,,,
,,,,,103736,1,2024-07-12_16h39.12.788,experiment,2024.1.5,Win32,60.0240096,6691931c2c63981b064e1f0c,6691be689f2bed992ea5e089,,,106.075,106.075,,,,,,,,,,,,,,,,,,,,,,,,,,,,,,,,,,,,,,,,,,,,,,,,,,,,,,,,,,,,,,,,,,,,,,,,,,,,,,,,,,,,,,,,,,,,,,,,,,,,,,,,,,,,,,,,,,,,,,,,,
,,,,,103736,1,2024-07-12_16h39.12.788,experiment,2024.1.5,Win32,60.0240096,6691931c2c63981b064e1f0c,6691be689f2bed992ea5e089,,,,,106.078,175.736,space,69.613,,175.744,245.27,[-0.011574074074074073],[-0.41550925925925924],[1],[0],[0],[49.667],"[""play_button""]",y,68.501,,0.0,0.0,0.0,0.0,1.0,,,,,,,,,,,,,,,,,,,,,,,,,,,,,,,,,,,,,,,,,,,,,,,,,,,,,,,,,,,,,,,,,,,,,,,,,,,,,,,,,,,,,,,,,,,,,,,,,,,
,,,,,103736,1,2024-07-12_16h39.12.788,experiment,2024.1.5,Win32,60.0240096,6691931c2c63981b064e1f0c,6691be689f2bed992ea5e089,,,,,,,,,,,,,,,,,,,,,,,,,,,245.271,285.836,space,40.504,,285.836,405.853,405.853,416.002,right,6.605,,416.003,431.802,space,15.74,,431.802,439.253,-0.168981481,-0.146990741,1.0,0.0,0.0,1.434,compass_2,439.253,441.935,space,2.656,,441.935,441.935,441.983,450.668,-0.134259259,-0.142361111,1.0,0.0,0.0,2.682,compass,0.0,0.0,0.0,15.0,1.0,SoundStimuli/CrazyInLove_BeyonceFtJayZ_Cover5S.wav,,,,,,,,,,,,,,,,,,,,,,,,,,,,,,,,,,,,,,,,,,,,,,,,,,,
,,,,,103736,1,2024-07-12_16h39.12.788,experiment,2024.1.5,Win32,60.0240096,6691931c2c63981b064e1f0c,6691be689f2bed992ea5e089,,,,,,,,,,,,,,,,,,,,,,,,,,,,,,,,,,,,,,,,,,,,,,,,,,,,,,,,,,,,450.669,459.236,0.19212963,-0.244212963,1.0,0.0,0.0,2.55,compass,0.0,1.0,1.0,9.0,1.0,SoundStimuli/HowDoILive_LeAnnRimes_Cover5S.wav,,,,,,,,,,,,,,,,,,,,,,,,,,,,,,,,,,,,,,,,,,,,,,,,,,,
,,,,,103736,1,2024-07-12_16h39.12.788,experiment,2024.1.5,Win32,60.0240096,6691931c2c63981b064e1f0c,6691be689f2bed992ea5e089,,,,,,,,,,,,,,,,,,,,,,,,,,,,,,,,,,,,,,,,,,,,,,,,,,,,,,,,,,,,459.237,468.903,0.166666667,0.157407407,1.0,0.0,0.0,3.65,compass,0.0,2.0,2.0,11.0,1.0,SoundStimuli/BlurredLines_RobinThicke_Cover5S.wav,,,,,,,,,,,,,,,,,,,,,,,,,,,,,,,,,,,,,,,,,,,,,,,,,,,
,,,,,103736,1,2024-07-12_16h39.12.788,experiment,2024.1.5,Win32,60.0240096,6691931c2c63981b064e1f0c,6691be689f2bed992ea5e089,,,,,,,,,,,,,,,,,,,,,,,,,,,,,,,,,,,,,,,,,,,,,,,,,,,,,,,,,,,,468.908,475.418,-0.173611111,-0.138888889,1.0,0.0,0.0,0.5,compass,0.0,3.0,3.0,8.0,1.0,SoundStimuli/EndlessLove_DianaRossLionelRichie_Cover5S.wav,,,,,,,,,,,,,,,,,,,,,,,,,,,,,,,,,,,,,,,,,,,,,,,,,,,
,,,,,103736,1,2024-07-12_16h39.12.788,experiment,2024.1.5,Win32,60.0240096,6691931c2c63981b064e1f0c,6691be689f2bed992ea5e089,,,,,,,,,,,,,,,,,,,,,,,,,,,,,,,,,,,,,,,,,,,,,,,,,,,,,,,,,,,,475.419,482.502,0.159722222,-0.150462963,1.0,0.0,0.0,1.067,compass,0.0,4.0,4.0,23.0,1.0,SoundStimuli/IWalkTheLine_JohnnyCash_Original5S.wav,,,,,,,,,,,,,,,,,,,,,,,,,,,,,,,,,,,,,,,,,,,,,,,,,,,
,,,,,103736,1,2024-07-12_16h39.12.788,experiment,2024.1.5,Win32,60.0240096,6691931c2c63981b064e1f0c,6691be689f2bed992ea5e089,,,,,,,,,,,,,,,,,,,,,,,,,,,,,,,,,,,,,,,,,,,,,,,,,,,,,,,,,,,,482.502,489.519,-0.175925926,0.164351852,1.0,0.0,0.0,1.001,compass,0.0,5.0,5.0,18.0,1.0,SoundStimuli/Weak_SWV_Cover5S.wav,,,,,,,,,,,,,,,,,,,,,,,,,,,,,,,,,,,,,,,,,,,,,,,,,,,
,,,,,103736,1,2024-07-12_16h39.12.788,experiment,2024.1.5,Win32,60.0240096,6691931c2c63981b064e1f0c,6691be689f2bed992ea5e089,,,,,,,,,,,,,,,,,,,,,,,,,,,,,,,,,,,,,,,,,,,,,,,,,,,,,,,,,,,,489.52,496.352,0.164351852,0.179398148,1.0,0.0,0.0,0.817,compass,0.0,6.0,6.0,33.0,1.0,SoundStimuli/TheBoyIsMine_BrandyMonica_Original5S.wav,,,,,,,,,,,,,,,,,,,,,,,,,,,,,,,,,,,,,,,,,,,,,,,,,,,
,,,,,103736,1,2024-07-12_16h39.12.788,experiment,2024.1.5,Win32,60.0240096,6691931c2c63981b064e1f0c,6691be689f2bed992ea5e089,,,,,,,,,,,,,,,,,,,,,,,,,,,,,,,,,,,,,,,,,,,,,,,,,,,,,,,,,,,,496.357,503.551,-0.178240741,-0.135416667,1.0,0.0,0.0,1.184,compass,0.0,7.0,7.0,4.0,1.0,SoundStimuli/Dreams_FleetwoodMac_Original5S.wav,,,,,,,,,,,,,,,,,,,,,,,,,,,,,,,,,,,,,,,,,,,,,,,,,,,
,,,,,103736,1,2024-07-12_16h39.12.788,experiment,2024.1.5,Win32,60.0240096,6691931c2c63981b064e1f0c,6691be689f2bed992ea5e089,,,,,,,,,,,,,,,,,,,,,,,,,,,,,,,,,,,,,,,,,,,,,,,,,,,,,,,,,,,,503.552,511.285,0.152777778,0.172453704,1.0,0.0,0.0,1.718,compass,0.0,8.0,8.0,1.0,1.0,SoundStimuli/Smooth_SantanaRobThomas_Original5S.wav,,,,,,,,,,,,,,,,,,,,,,,,,,,,,,,,,,,,,,,,,,,,,,,,,,,
,,,,,103736,1,2024-07-12_16h39.12.788,experiment,2024.1.5,Win32,60.0240096,6691931c2c63981b064e1f0c,6691be689f2bed992ea5e089,,,,,,,,,,,,,,,,,,,,,,,,,,,,,,,,,,,,,,,,,,,,,,,,,,,,,,,,,,,,511.287,519.835,-0.195601852,-0.108796296,1.0,0.0,0.0,2.534,compass,0.0,9.0,9.0,13.0,1.0,SoundStimuli/Perfect_EdSheeran_Cover5S.wav,,,,,,,,,,,,,,,,,,,,,,,,,,,,,,,,,,,,,,,,,,,,,,,,,,,
,,,,,103736,1,2024-07-12_16h39.12.788,experiment,2024.1.5,Win32,60.0240096,6691931c2c63981b064e1f0c,6691be689f2bed992ea5e089,,,,,,,,,,,,,,,,,,,,,,,,,,,,,,,,,,,,,,,,,,,,,,,,,,,,,,,,,,,,519.836,526.234,-0.189814815,0.200231481,1.0,0.0,0.0,0.383,compass,0.0,10.0,10.0,34.0,1.0,SoundStimuli/Irreplaceable_Beyonce_Cover5S.wav,,,,,,,,,,,,,,,,,,,,,,,,,,,,,,,,,,,,,,,,,,,,,,,,,,,
,,,,,103736,1,2024-07-12_16h39.12.788,experiment,2024.1.5,Win32,60.0240096,6691931c2c63981b064e1f0c,6691be689f2bed992ea5e089,,,,,,,,,,,,,,,,,,,,,,,,,,,,,,,,,,,,,,,,,,,,,,,,,,,,,,,,,,,,526.236,533.003,-0.172453704,0.19212963,1.0,0.0,0.0,0.751,compass,0.0,11.0,11.0,7.0,1.0,SoundStimuli/MackTheKnife_BobbyDarin_Cover5S.wav,,,,,,,,,,,,,,,,,,,,,,,,,,,,,,,,,,,,,,,,,,,,,,,,,,,
,,,,,103736,1,2024-07-12_16h39.12.788,experiment,2024.1.5,Win32,60.0240096,6691931c2c63981b064e1f0c,6691be689f2bed992ea5e089,,,,,,,,,,,,,,,,,,,,,,,,,,,,,,,,,,,,,,,,,,,,,,,,,,,,,,,,,,,,533.009,539.652,0.210648148,0.207175926,1.0,0.0,0.0,0.634,compass,0.0,12.0,12.0,0.0,1.0,SoundStimuli/GimmeShelter_RollingStones_Original5S.wav,,,,,,,,,,,,,,,,,,,,,,,,,,,,,,,,,,,,,,,,,,,,,,,,,,,
,,,,,103736,1,2024-07-12_16h39.12.788,experiment,2024.1.5,Win32,60.0240096,6691931c2c63981b064e1f0c,6691be689f2bed992ea5e089,,,,,,,,,,,,,,,,,,,,,,,,,,,,,,,,,,,,,,,,,,,,,,,,,,,,,,,,,,,,539.653,546.368,0.211805556,-0.171296296,1.0,0.0,0.0,0.701,compass,0.0,13.0,13.0,32.0,1.0,SoundStimuli/Dilemma_NellyKellyRowland_Cover5S.wav,,,,,,,,,,,,,,,,,,,,,,,,,,,,,,,,,,,,,,,,,,,,,,,,,,,
,,,,,103736,1,2024-07-12_16h39.12.788,experiment,2024.1.5,Win32,60.0240096,6691931c2c63981b064e1f0c,6691be689f2bed992ea5e089,,,,,,,,,,,,,,,,,,,,,,,,,,,,,,,,,,,,,,,,,,,,,,,,,,,,,,,,,,,,546.369,553.035,-0.142361111,0.140046296,1.0,0.0,0.0,0.65,compass,0.0,14.0,14.0,24.0,1.0,SoundStimuli/Kiss_Prince_Cover5S.wav,,,,,,,,,,,,,,,,,,,,,,,,,,,,,,,,,,,,,,,,,,,,,,,,,,,
,,,,,103736,1,2024-07-12_16h39.12.788,experiment,2024.1.5,Win32,60.0240096,6691931c2c63981b064e1f0c,6691be689f2bed992ea5e089,,,,,,,,,,,,,,,,,,,,,,,,,,,,,,,,,,,,,,,,,,,,,,,,,,,,,,,,,,,,553.036,559.284,0.229166667,0.234953704,1.0,0.0,0.0,0.233,compass,0.0,15.0,15.0,17.0,1.0,SoundStimuli/IWannaDanceWithSomebody_WhitneyHouston_Original5S.wav,,,,,,,,,,,,,,,,,,,,,,,,,,,,,,,,,,,,,,,,,,,,,,,,,,,
,,,,,103736,1,2024-07-12_16h39.12.788,experiment,2024.1.5,Win32,60.0240096,6691931c2c63981b064e1f0c,6691be689f2bed992ea5e089,,,,,,,,,,,,,,,,,,,,,,,,,,,,,,,,,,,,,,,,,,,,,,,,,,,,,,,,,,,,559.286,566.019,0.172453704,-0.155092593,1.0,0.0,0.0,0.718,compass,0.0,16.0,16.0,16.0,1.0,SoundStimuli/ItsAllInTheGame_TommyEdwards_Cover5S.wav,,,,,,,,,,,,,,,,,,,,,,,,,,,,,,,,,,,,,,,,,,,,,,,,,,,
,,,,,103736,1,2024-07-12_16h39.12.788,experiment,2024.1.5,Win32,60.0240096,6691931c2c63981b064e1f0c,6691be689f2bed992ea5e089,,,,,,,,,,,,,,,,,,,,,,,,,,,,,,,,,,,,,,,,,,,,,,,,,,,,,,,,,,,,566.025,572.484,-0.185185185,0.224537037,1.0,0.0,0.0,0.449,compass,0.0,17.0,17.0,30.0,1.0,SoundStimuli/SomebodyThatIUsedtoKnow_Gotye_Original5S.wav,,,,,,,,,,,,,,,,,,,,,,,,,,,,,,,,,,,,,,,,,,,,,,,,,,,
,,,,,103736,1,2024-07-12_16h39.12.788,experiment,2024.1.5,Win32,60.0240096,6691931c2c63981b064e1f0c,6691be689f2bed992ea5e089,,,,,,,,,,,,,,,,,,,,,,,,,,,,,,,,,,,,,,,,,,,,,,,,,,,,,,,,,,,,572.486,578.635,0.186342593,0.173611111,1.0,0.0,0.0,0.133,compass,0.0,18.0,18.0,28.0,1.0,SoundStimuli/IWantToHoldYourHand_TheBeatles_Original5S.wav,,,,,,,,,,,,,,,,,,,,,,,,,,,,,,,,,,,,,,,,,,,,,,,,,,,
,,,,,103736,1,2024-07-12_16h39.12.788,experiment,2024.1.5,Win32,60.0240096,6691931c2c63981b064e1f0c,6691be689f2bed992ea5e089,,,,,,,,,,,,,,,,,,,,,,,,,,,,,,,,,,,,,,,,,,,,,,,,,,,,,,,,,,,,578.637,585.568,-0.193287037,-0.168981481,1.0,0.0,0.0,0.916,compass,0.0,19.0,19.0,21.0,1.0,SoundStimuli/BridgeOverTroubledWater_SimonAndGarfunkel_Original5S.wav,,,,,,,,,,,,,,,,,,,,,,,,,,,,,,,,,,,,,,,,,,,,,,,,,,,
,,,,,103736,1,2024-07-12_16h39.12.788,experiment,2024.1.5,Win32,60.0240096,6691931c2c63981b064e1f0c,6691be689f2bed992ea5e089,,,,,,,,,,,,,,,,,,,,,,,,,,,,,,,,,,,,,,,,,,,,,,,,,,,,,,,,,,,,585.569,592.167,-0.224537037,0.170138889,1.0,0.0,0.0,0.584,compass,0.0,20.0,20.0,29.0,1.0,SoundStimuli/BetteDavisEyes_KimCarnes_Original5S.wav,,,,,,,,,,,,,,,,,,,,,,,,,,,,,,,,,,,,,,,,,,,,,,,,,,,
,,,,,103736,1,2024-07-12_16h39.12.788,experiment,2024.1.5,Win32,60.0240096,6691931c2c63981b064e1f0c,6691be689f2bed992ea5e089,,,,,,,,,,,,,,,,,,,,,,,,,,,,,,,,,,,,,,,,,,,,,,,,,,,,,,,,,,,,592.169,599.002,0.196759259,0.210648148,1.0,0.0,0.0,0.817,compass,0.0,21.0,21.0,3.0,1.0,SoundStimuli/PartyRockAnthem_LMFAO_Original5S.wav,,,,,,,,,,,,,,,,,,,,,,,,,,,,,,,,,,,,,,,,,,,,,,,,,,,
,,,,,103736,1,2024-07-12_16h39.12.788,experiment,2024.1.5,Win32,60.0240096,6691931c2c63981b064e1f0c,6691be689f2bed992ea5e089,,,,,,,,,,,,,,,,,,,,,,,,,,,,,,,,,,,,,,,,,,,,,,,,,,,,,,,,,,,,599.007,605.502,-0.178240741,0.19212963,1.0,0.0,0.0,0.484,compass,0.0,22.0,22.0,5.0,1.0,SoundStimuli/JoyToTheWorld_ThreeDogNight_Original5S.wav,,,,,,,,,,,,,,,,,,,,,,,,,,,,,,,,,,,,,,,,,,,,,,,,,,,
,,,,,103736,1,2024-07-12_16h39.12.788,experiment,2024.1.5,Win32,60.0240096,6691931c2c63981b064e1f0c,6691be689f2bed992ea5e089,,,,,,,,,,,,,,,,,,,,,,,,,,,,,,,,,,,,,,,,,,,,,,,,,,,,,,,,,,,,605.503,613.735,-0.179398148,-0.180555556,1.0,0.0,0.0,2.217,compass,0.0,23.0,23.0,19.0,1.0,SoundStimuli/YouLightUpMyLife_DebbyBoone_Original5S.wav,,,,,,,,,,,,,,,,,,,,,,,,,,,,,,,,,,,,,,,,,,,,,,,,,,,
,,,,,103736,1,2024-07-12_16h39.12.788,experiment,2024.1.5,Win32,60.0240096,6691931c2c63981b064e1f0c,6691be689f2bed992ea5e089,,,,,,,,,,,,,,,,,,,,,,,,,,,,,,,,,,,,,,,,,,,,,,,,,,,,,,,,,,,,613.742,620.118,-0.150462963,-0.201388889,1.0,0.0,0.0,0.366,compass,0.0,24.0,24.0,6.0,1.0,SoundStimuli/SaveYourTears_TheWeekndArianaGrande_Cover5S.wav,,,,,,,,,,,,,,,,,,,,,,,,,,,,,,,,,,,,,,,,,,,,,,,,,,,
,,,,,103736,1,2024-07-12_16h39.12.788,experiment,2024.1.5,Win32,60.0240096,6691931c2c63981b064e1f0c,6691be689f2bed992ea5e089,,,,,,,,,,,,,,,,,,,,,,,,,,,,,,,,,,,,,,,,,,,,,,,,,,,,,,,,,,,,620.119,626.717,-0.148148148,0.180555556,1.0,0.0,0.0,0.583,compass,0.0,25.0,25.0,12.0,1.0,SoundStimuli/UnbreakMyHeart_ToniBraxton_Original5S.wav,,,,,,,,,,,,,,,,,,,,,,,,,,,,,,,,,,,,,,,,,,,,,,,,,,,
,,,,,103736,1,2024-07-12_16h39.12.788,experiment,2024.1.5,Win32,60.0240096,6691931c2c63981b064e1f0c,6691be689f2bed992ea5e089,,,,,,,,,,,,,,,,,,,,,,,,,,,,,,,,,,,,,,,,,,,,,,,,,,,,,,,,,,,,626.719,633.37,0.168981481,0.159722222,1.0,0.0,0.0,0.634,compass,0.0,26.0,26.0,26.0,1.0,SoundStimuli/TheSign_AceOfBase_Cover5S.wav,,,,,,,,,,,,,,,,,,,,,,,,,,,,,,,,,,,,,,,,,,,,,,,,,,,
,,,,,103736,1,2024-07-12_16h39.12.788,experiment,2024.1.5,Win32,60.0240096,6691931c2c63981b064e1f0c,6691be689f2bed992ea5e089,,,,,,,,,,,,,,,,,,,,,,,,,,,,,,,,,,,,,,,,,,,,,,,,,,,,,,,,,,,,633.376,640.051,-0.126157407,-0.119212963,1.0,0.0,0.0,0.667,compass,0.0,27.0,27.0,25.0,1.0,SoundStimuli/IllMakeLoveToYou_BoyzIIMen_Cover5S.wav,,,,,,,,,,,,,,,,,,,,,,,,,,,,,,,,,,,,,,,,,,,,,,,,,,,
,,,,,103736,1,2024-07-12_16h39.12.788,experiment,2024.1.5,Win32,60.0240096,6691931c2c63981b064e1f0c,6691be689f2bed992ea5e089,,,,,,,,,,,,,,,,,,,,,,,,,,,,,,,,,,,,,,,,,,,,,,,,,,,,,,,,,,,,640.052,646.535,-0.1875,0.1875,1.0,0.0,0.0,0.467,compass,0.0,28.0,28.0,27.0,1.0,SoundStimuli/EyeOfTheTiger_Survivor_Cover5S.wav,,,,,,,,,,,,,,,,,,,,,,,,,,,,,,,,,,,,,,,,,,,,,,,,,,,
,,,,,103736,1,2024-07-12_16h39.12.788,experiment,2024.1.5,Win32,60.0240096,6691931c2c63981b064e1f0c,6691be689f2bed992ea5e089,,,,,,,,,,,,,,,,,,,,,,,,,,,,,,,,,,,,,,,,,,,,,,,,,,,,,,,,,,,,646.536,652.951,0.178240741,0.209490741,1.0,0.0,0.0,0.4,compass,0.0,29.0,29.0,10.0,1.0,SoundStimuli/LeFreak_Chic_Cover5S.wav,,,,,,,,,,,,,,,,,,,,,,,,,,,,,,,,,,,,,,,,,,,,,,,,,,,
,,,,,103736,1,2024-07-12_16h39.12.788,experiment,2024.1.5,Win32,60.0240096,6691931c2c63981b064e1f0c,6691be689f2bed992ea5e089,,,,,,,,,,,,,,,,,,,,,,,,,,,,,,,,,,,,,,,,,,,,,,,,,,,,,,,,,,,,652.952,660.767,-0.171296296,0.201388889,1.0,0.0,0.0,1.8,compass,0.0,30.0,30.0,14.0,1.0,SoundStimuli/LikeARollingStone_BobDylan_Original5S.wav,,,,,,,,,,,,,,,,,,,,,,,,,,,,,,,,,,,,,,,,,,,,,,,,,,,
,,,,,103736,1,2024-07-12_16h39.12.788,experiment,2024.1.5,Win32,60.0240096,6691931c2c63981b064e1f0c,6691be689f2bed992ea5e089,,,,,,,,,,,,,,,,,,,,,,,,,,,,,,,,,,,,,,,,,,,,,,,,,,,,,,,,,,,,660.769,667.437,0.206018519,-0.168981481,1.0,0.0,0.0,0.653,compass,0.0,31.0,31.0,20.0,1.0,SoundStimuli/FlashdanceWhatAFeeling_IreneCara_Original5S.wav,,,,,,,,,,,,,,,,,,,,,,,,,,,,,,,,,,,,,,,,,,,,,,,,,,,
,,,,,103736,1,2024-07-12_16h39.12.788,experiment,2024.1.5,Win32,60.0240096,6691931c2c63981b064e1f0c,6691be689f2bed992ea5e089,,,,,,,,,,,,,,,,,,,,,,,,,,,,,,,,,,,,,,,,,,,,,,,,,,,,,,,,,,,,667.441,673.917,0.199074074,0.207175926,1.0,0.0,0.0,0.467,compass,0.0,32.0,32.0,31.0,1.0,SoundStimuli/TossinAndTurnin_BobbyLewis_Original5S.wav,,,,,,,,,,,,,,,,,,,,,,,,,,,,,,,,,,,,,,,,,,,,,,,,,,,
,,,,,103736,1,2024-07-12_16h39.12.788,experiment,2024.1.5,Win32,60.0240096,6691931c2c63981b064e1f0c,6691be689f2bed992ea5e089,,,,,,,,,,,,,,,,,,,,,,,,,,,,,,,,,,,,,,,,,,,,,,,,,,,,,,,,,,,,673.919,680.617,0.195601852,0.217592593,1.0,0.0,0.0,0.683,compass,0.0,33.0,33.0,22.0,1.0,SoundStimuli/Happy_PharellWilliams_Original5S.wav,,,,,,,,,,,,,,,,,,,,,,,,,,,,,,,,,,,,,,,,,,,,,,,,,,,
,,,,,103736,1,2024-07-12_16h39.12.788,experiment,2024.1.5,Win32,60.0240096,6691931c2c63981b064e1f0c,6691be689f2bed992ea5e089,,,,,,,,,,,,,,,,,,,,,,,,,,,,,,,,,,,,,,,,,,,,,,,,,,,,,,,,,,,,680.619,687.102,-0.22337963,0.200231481,1.0,0.0,0.0,0.467,compass,0.0,34.0,34.0,2.0,1.0,SoundStimuli/SmellsLikeTeenSpirit_Nirvana_Original5S.wav,,,,,,,,,,,,,,,,,,,,,,,,,,,,,,,,,,,,,,,,,,,,,,,,,,,
,,,,,103736,1,2024-07-12_16h39.12.788,experiment,2024.1.5,Win32,60.0240096,6691931c2c63981b064e1f0c,6691be689f2bed992ea5e089,,,,,,,,,,,,,,,,,,,,,,,,,,,,,,,,,,,,,,,,,,,,,,,,,,,,,,,,,,,,,,,,,,,,,,,,,,,687.102,689.852,space,2.713,,689.852,700.569,right,10.681,,0.0,0.0,0.0,0.0,1.0,block_order/blockD.xlsx,,,,,,,,,,,,,,,,,,,,,,,,,,,,,,,,,,,
,,,,,103736,1,2024-07-12_16h39.12.788,experiment,2024.1.5,Win32,60.0240096,6691931c2c63981b064e1f0c,6691be689f2bed992ea5e089,,,,,,,,,,,,,,,,,,,,,,,,,,,,,,,,,,,,,,,,,,,,,,,,,,,,,,,,,,,,700.599,707.22,0.125,0.239583333,1.0,0.0,0.0,0.617,compass,0.0,0.0,0.0,20.0,1.0,SoundStimuli/HeyYa_Outkast_Original5S.wav,,,,,,,,,,,,,,,,,,,,,,,,,,,,,,,,,,,,,,,,,,,,,,,,,,,
,,,,,103736,1,2024-07-12_16h39.12.788,experiment,2024.1.5,Win32,60.0240096,6691931c2c63981b064e1f0c,6691be689f2bed992ea5e089,,,,,,,,,,,,,,,,,,,,,,,,,,,,,,,,,,,,,,,,,,,,,,,,,,,,,,,,,,,,707.221,713.901,-0.134259259,-0.212962963,1.0,0.0,0.0,0.667,compass,0.0,1.0,1.0,28.0,1.0,SoundStimuli/ComeAndGetYourLove_Redbone_Cover5S.wav,,,,,,,,,,,,,,,,,,,,,,,,,,,,,,,,,,,,,,,,,,,,,,,,,,,
,,,,,103736,1,2024-07-12_16h39.12.788,experiment,2024.1.5,Win32,60.0240096,6691931c2c63981b064e1f0c,6691be689f2bed992ea5e089,,,,,,,,,,,,,,,,,,,,,,,,,,,,,,,,,,,,,,,,,,,,,,,,,,,,,,,,,,,,713.902,720.351,-0.146990741,0.212962963,1.0,0.0,0.0,0.434,compass,0.0,2.0,2.0,25.0,1.0,SoundStimuli/Respect_ArethaFranklin_Cover5S.wav,,,,,,,,,,,,,,,,,,,,,,,,,,,,,,,,,,,,,,,,,,,,,,,,,,,
,,,,,103736,1,2024-07-12_16h39.12.788,experiment,2024.1.5,Win32,60.0240096,6691931c2c63981b064e1f0c,6691be689f2bed992ea5e089,,,,,,,,,,,,,,,,,,,,,,,,,,,,,,,,,,,,,,,,,,,,,,,,,,,,,,,,,,,,720.352,727.118,0.189814815,-0.166666667,1.0,0.0,0.0,0.75,compass,0.0,3.0,3.0,10.0,1.0,SoundStimuli/BadDay_DanielPowter_Original5S.wav,,,,,,,,,,,,,,,,,,,,,,,,,,,,,,,,,,,,,,,,,,,,,,,,,,,
,,,,,103736,1,2024-07-12_16h39.12.788,experiment,2024.1.5,Win32,60.0240096,6691931c2c63981b064e1f0c,6691be689f2bed992ea5e089,,,,,,,,,,,,,,,,,,,,,,,,,,,,,,,,,,,,,,,,,,,,,,,,,,,,,,,,,,,,727.119,733.786,-0.178240741,0.195601852,1.0,0.0,0.0,0.652,compass,0.0,4.0,4.0,17.0,1.0,SoundStimuli/Fallin_AliciaKeys_Cover5S.wav,,,,,,,,,,,,,,,,,,,,,,,,,,,,,,,,,,,,,,,,,,,,,,,,,,,
,,,,,103736,1,2024-07-12_16h39.12.788,experiment,2024.1.5,Win32,60.0240096,6691931c2c63981b064e1f0c,6691be689f2bed992ea5e089,,,,,,,,,,,,,,,,,,,,,,,,,,,,,,,,,,,,,,,,,,,,,,,,,,,,,,,,,,,,733.791,740.334,-0.174768519,0.236111111,1.0,0.0,0.0,0.534,compass,0.0,5.0,5.0,12.0,1.0,SoundStimuli/IWillAlwaysLoveYou_WhitneyHouston_Original5S.wav,,,,,,,,,,,,,,,,,,,,,,,,,,,,,,,,,,,,,,,,,,,,,,,,,,,
,,,,,103736,1,2024-07-12_16h39.12.788,experiment,2024.1.5,Win32,60.0240096,6691931c2c63981b064e1f0c,6691be689f2bed992ea5e089,,,,,,,,,,,,,,,,,,,,,,,,,,,,,,,,,,,,,,,,,,,,,,,,,,,,,,,,,,,,740.336,746.585,-0.159722222,-0.196759259,1.0,0.0,0.0,0.233,compass,0.0,6.0,6.0,0.0,1.0,SoundStimuli/StayinAlive_BeeGees_Cover5S.wav,,,,,,,,,,,,,,,,,,,,,,,,,,,,,,,,,,,,,,,,,,,,,,,,,,,
,,,,,103736,1,2024-07-12_16h39.12.788,experiment,2024.1.5,Win32,60.0240096,6691931c2c63981b064e1f0c,6691be689f2bed992ea5e089,,,,,,,,,,,,,,,,,,,,,,,,,,,,,,,,,,,,,,,,,,,,,,,,,,,,,,,,,,,,746.586,753.05,-0.162037037,-0.175925926,1.0,0.0,0.0,0.45,compass,0.0,7.0,7.0,13.0,1.0,SoundStimuli/GodOnlyKnows_TheBeachBoys_Original5S.wav,,,,,,,,,,,,,,,,,,,,,,,,,,,,,,,,,,,,,,,,,,,,,,,,,,,
,,,,,103736,1,2024-07-12_16h39.12.788,experiment,2024.1.5,Win32,60.0240096,6691931c2c63981b064e1f0c,6691be689f2bed992ea5e089,,,,,,,,,,,,,,,,,,,,,,,,,,,,,,,,,,,,,,,,,,,,,,,,,,,,,,,,,,,,753.052,759.534,0.148148148,0.240740741,1.0,0.0,0.0,0.467,compass,0.0,8.0,8.0,11.0,1.0,SoundStimuli/Superstition_StevieWonder_Original5S.wav,,,,,,,,,,,,,,,,,,,,,,,,,,,,,,,,,,,,,,,,,,,,,,,,,,,
,,,,,103736,1,2024-07-12_16h39.12.788,experiment,2024.1.5,Win32,60.0240096,6691931c2c63981b064e1f0c,6691be689f2bed992ea5e089,,,,,,,,,,,,,,,,,,,,,,,,,,,,,,,,,,,,,,,,,,,,,,,,,,,,,,,,,,,,759.535,766.887,-0.15625,0.165509259,1.0,0.0,0.0,1.334,compass,0.0,9.0,9.0,16.0,1.0,SoundStimuli/BohemianRhapsody_Queen_Cover5S.wav,,,,,,,,,,,,,,,,,,,,,,,,,,,,,,,,,,,,,,,,,,,,,,,,,,,
,,,,,103736,1,2024-07-12_16h39.12.788,experiment,2024.1.5,Win32,60.0240096,6691931c2c63981b064e1f0c,6691be689f2bed992ea5e089,,,,,,,,,,,,,,,,,,,,,,,,,,,,,,,,,,,,,,,,,,,,,,,,,,,,,,,,,,,,766.891,775.134,-0.134259259,-0.173611111,1.0,0.0,0.0,2.234,compass,0.0,10.0,10.0,8.0,1.0,SoundStimuli/LikeAPrayer_Madonna_Cover5S.wav,,,,,,,,,,,,,,,,,,,,,,,,,,,,,,,,,,,,,,,,,,,,,,,,,,,
,,,,,103736,1,2024-07-12_16h39.12.788,experiment,2024.1.5,Win32,60.0240096,6691931c2c63981b064e1f0c,6691be689f2bed992ea5e089,,,,,,,,,,,,,,,,,,,,,,,,,,,,,,,,,,,,,,,,,,,,,,,,,,,,,,,,,,,,775.135,781.585,0.165509259,0.196759259,1.0,0.0,0.0,0.434,compass,0.0,11.0,11.0,2.0,1.0,SoundStimuli/Mood_24kGoldnianndior_Original5S.wav,,,,,,,,,,,,,,,,,,,,,,,,,,,,,,,,,,,,,,,,,,,,,,,,,,,
,,,,,103736,1,2024-07-12_16h39.12.788,experiment,2024.1.5,Win32,60.0240096,6691931c2c63981b064e1f0c,6691be689f2bed992ea5e089,,,,,,,,,,,,,,,,,,,,,,,,,,,,,,,,,,,,,,,,,,,,,,,,,,,,,,,,,,,,781.586,789.551,-0.163194444,-0.21412037,1.0,0.0,0.0,1.95,compass,0.0,12.0,12.0,33.0,1.0,SoundStimuli/StandByMe_BenEKing_Original5S.wav,,,,,,,,,,,,,,,,,,,,,,,,,,,,,,,,,,,,,,,,,,,,,,,,,,,
,,,,,103736,1,2024-07-12_16h39.12.788,experiment,2024.1.5,Win32,60.0240096,6691931c2c63981b064e1f0c,6691be689f2bed992ea5e089,,,,,,,,,,,,,,,,,,,,,,,,,,,,,,,,,,,,,,,,,,,,,,,,,,,,,,,,,,,,789.552,796.068,-0.149305556,0.209490741,1.0,0.0,0.0,0.501,compass,0.0,13.0,13.0,18.0,1.0,SoundStimuli/AnotherOneBitesTheDust_Queen_Cover5S.wav,,,,,,,,,,,,,,,,,,,,,,,,,,,,,,,,,,,,,,,,,,,,,,,,,,,
,,,,,103736,1,2024-07-12_16h39.12.788,experiment,2024.1.5,Win32,60.0240096,6691931c2c63981b064e1f0c,6691be689f2bed992ea5e089,,,,,,,,,,,,,,,,,,,,,,,,,,,,,,,,,,,,,,,,,,,,,,,,,,,,,,,,,,,,796.069,803.419,0.15625,-0.200231481,1.0,0.0,0.0,1.334,compass,0.0,14.0,14.0,5.0,1.0,SoundStimuli/MyGirl_TheTemptations_Cover5S.wav,,,,,,,,,,,,,,,,,,,,,,,,,,,,,,,,,,,,,,,,,,,,,,,,,,,
,,,,,103736,1,2024-07-12_16h39.12.788,experiment,2024.1.5,Win32,60.0240096,6691931c2c63981b064e1f0c,6691be689f2bed992ea5e089,,,,,,,,,,,,,,,,,,,,,,,,,,,,,,,,,,,,,,,,,,,,,,,,,,,,,,,,,,,,803.424,809.9,-0.179398148,-0.230324074,1.0,0.0,0.0,0.467,compass,0.0,15.0,15.0,7.0,1.0,SoundStimuli/NoOne_AliciaKeys_Original5S.wav,,,,,,,,,,,,,,,,,,,,,,,,,,,,,,,,,,,,,,,,,,,,,,,,,,,
,,,,,103736,1,2024-07-12_16h39.12.788,experiment,2024.1.5,Win32,60.0240096,6691931c2c63981b064e1f0c,6691be689f2bed992ea5e089,,,,,,,,,,,,,,,,,,,,,,,,,,,,,,,,,,,,,,,,,,,,,,,,,,,,,,,,,,,,809.901,816.467,-0.159722222,0.217592593,1.0,0.0,0.0,0.565,compass,0.0,16.0,16.0,1.0,1.0,SoundStimuli/Stronger_KanyeWest_Cover5S.wav,,,,,,,,,,,,,,,,,,,,,,,,,,,,,,,,,,,,,,,,,,,,,,,,,,,
,,,,,103736,1,2024-07-12_16h39.12.788,experiment,2024.1.5,Win32,60.0240096,6691931c2c63981b064e1f0c,6691be689f2bed992ea5e089,,,,,,,,,,,,,,,,,,,,,,,,,,,,,,,,,,,,,,,,,,,,,,,,,,,,,,,,,,,,816.468,822.902,0.148148148,0.215277778,1.0,0.0,0.0,0.418,compass,0.0,17.0,17.0,31.0,1.0,SoundStimuli/TheBattleOfNewOrleans_JohnnyHorton_Original5S.wav,,,,,,,,,,,,,,,,,,,,,,,,,,,,,,,,,,,,,,,,,,,,,,,,,,,
,,,,,103736,1,2024-07-12_16h39.12.788,experiment,2024.1.5,Win32,60.0240096,6691931c2c63981b064e1f0c,6691be689f2bed992ea5e089,,,,,,,,,,,,,,,,,,,,,,,,,,,,,,,,,,,,,,,,,,,,,,,,,,,,,,,,,,,,822.903,830.384,0.185185185,0.22337963,1.0,0.0,0.0,1.466,compass,0.0,18.0,18.0,30.0,1.0,SoundStimuli/PokerFace_LadyGaga_Cover5S.wav,,,,,,,,,,,,,,,,,,,,,,,,,,,,,,,,,,,,,,,,,,,,,,,,,,,
,,,,,103736,1,2024-07-12_16h39.12.788,experiment,2024.1.5,Win32,60.0240096,6691931c2c63981b064e1f0c,6691be689f2bed992ea5e089,,,,,,,,,,,,,,,,,,,,,,,,,,,,,,,,,,,,,,,,,,,,,,,,,,,,,,,,,,,,830.385,836.852,0.152777778,0.225694444,1.0,0.0,0.0,0.45,compass,0.0,19.0,19.0,6.0,1.0,SoundStimuli/Levitating_DuaLipa_Original5S.wav,,,,,,,,,,,,,,,,,,,,,,,,,,,,,,,,,,,,,,,,,,,,,,,,,,,
,,,,,103736,1,2024-07-12_16h39.12.788,experiment,2024.1.5,Win32,60.0240096,6691931c2c63981b064e1f0c,6691be689f2bed992ea5e089,,,,,,,,,,,,,,,,,,,,,,,,,,,,,,,,,,,,,,,,,,,,,,,,,,,,,,,,,,,,836.857,844.034,-0.170138889,0.19212963,1.0,0.0,0.0,1.168,compass,0.0,20.0,20.0,26.0,1.0,SoundStimuli/LivinOnAPrayer_BonJovi_Original5S.wav,,,,,,,,,,,,,,,,,,,,,,,,,,,,,,,,,,,,,,,,,,,,,,,,,,,
,,,,,103736,1,2024-07-12_16h39.12.788,experiment,2024.1.5,Win32,60.0240096,6691931c2c63981b064e1f0c,6691be689f2bed992ea5e089,,,,,,,,,,,,,,,,,,,,,,,,,,,,,,,,,,,,,,,,,,,,,,,,,,,,,,,,,,,,844.036,850.867,0.155092593,0.165509259,1.0,0.0,0.0,0.817,compass,0.0,21.0,21.0,15.0,1.0,SoundStimuli/TikTok_Kesha_Original5S.wav,,,,,,,,,,,,,,,,,,,,,,,,,,,,,,,,,,,,,,,,,,,,,,,,,,,
,,,,,103736,1,2024-07-12_16h39.12.788,experiment,2024.1.5,Win32,60.0240096,6691931c2c63981b064e1f0c,6691be689f2bed992ea5e089,,,,,,,,,,,,,,,,,,,,,,,,,,,,,,,,,,,,,,,,,,,,,,,,,,,,,,,,,,,,850.868,857.433,0.196759259,-0.219907407,1.0,0.0,0.0,0.55,compass,0.0,22.0,22.0,4.0,1.0,SoundStimuli/GetUrFreakOn_MissyElliot_Cover5S.wav,,,,,,,,,,,,,,,,,,,,,,,,,,,,,,,,,,,,,,,,,,,,,,,,,,,
,,,,,103736,1,2024-07-12_16h39.12.788,experiment,2024.1.5,Win32,60.0240096,6691931c2c63981b064e1f0c,6691be689f2bed992ea5e089,,,,,,,,,,,,,,,,,,,,,,,,,,,,,,,,,,,,,,,,,,,,,,,,,,,,,,,,,,,,857.435,864.57,0.221064815,-0.212962963,1.0,0.0,0.0,1.118,compass,0.0,23.0,23.0,29.0,1.0,SoundStimuli/OldTownRoad_LilNasX_Cover5S.wav,,,,,,,,,,,,,,,,,,,,,,,,,,,,,,,,,,,,,,,,,,,,,,,,,,,
,,,,,103736,1,2024-07-12_16h39.12.788,experiment,2024.1.5,Win32,60.0240096,6691931c2c63981b064e1f0c,6691be689f2bed992ea5e089,,,,,,,,,,,,,,,,,,,,,,,,,,,,,,,,,,,,,,,,,,,,,,,,,,,,,,,,,,,,864.574,871.203,0.115740741,0.229166667,1.0,0.0,0.0,0.617,compass,0.0,24.0,24.0,21.0,1.0,SoundStimuli/GoodGollyMissMolly_LittleRichard_Original5S.wav,,,,,,,,,,,,,,,,,,,,,,,,,,,,,,,,,,,,,,,,,,,,,,,,,,,
,,,,,103736,1,2024-07-12_16h39.12.788,experiment,2024.1.5,Win32,60.0240096,6691931c2c63981b064e1f0c,6691be689f2bed992ea5e089,,,,,,,,,,,,,,,,,,,,,,,,,,,,,,,,,,,,,,,,,,,,,,,,,,,,,,,,,,,,871.207,878.251,0.083333333,0.208333333,1.0,0.0,0.0,1.034,compass,0.0,25.0,25.0,14.0,1.0,SoundStimuli/BlindingLights_TheWeeknd_Cover5S.wav,,,,,,,,,,,,,,,,,,,,,,,,,,,,,,,,,,,,,,,,,,,,,,,,,,,
,,,,,103736,1,2024-07-12_16h39.12.788,experiment,2024.1.5,Win32,60.0240096,6691931c2c63981b064e1f0c,6691be689f2bed992ea5e089,,,,,,,,,,,,,,,,,,,,,,,,,,,,,,,,,,,,,,,,,,,,,,,,,,,,,,,,,,,,878.252,884.852,0.177083333,-0.174768519,1.0,0.0,0.0,0.584,compass,0.0,26.0,26.0,19.0,1.0,SoundStimuli/LetsGetItOn_MarvinGaye_Original5S.wav,,,,,,,,,,,,,,,,,,,,,,,,,,,,,,,,,,,,,,,,,,,,,,,,,,,
,,,,,103736,1,2024-07-12_16h39.12.788,experiment,2024.1.5,Win32,60.0240096,6691931c2c63981b064e1f0c,6691be689f2bed992ea5e089,,,,,,,,,,,,,,,,,,,,,,,,,,,,,,,,,,,,,,,,,,,,,,,,,,,,,,,,,,,,884.852,891.65,-0.203703704,-0.194444444,1.0,0.0,0.0,0.784,compass,0.0,27.0,27.0,34.0,1.0,SoundStimuli/AChangeIsGonnaCome_SamCooke_Original5S.wav,,,,,,,,,,,,,,,,,,,,,,,,,,,,,,,,,,,,,,,,,,,,,,,,,,,
,,,,,103736,1,2024-07-12_16h39.12.788,experiment,2024.1.5,Win32,60.0240096,6691931c2c63981b064e1f0c,6691be689f2bed992ea5e089,,,,,,,,,,,,,,,,,,,,,,,,,,,,,,,,,,,,,,,,,,,,,,,,,,,,,,,,,,,,891.651,900.153,0.19212963,0.173611111,1.0,0.0,0.0,2.484,compass,0.0,28.0,28.0,27.0,1.0,SoundStimuli/ShapeofYou_EdSheeran_Cover5S.wav,,,,,,,,,,,,,,,,,,,,,,,,,,,,,,,,,,,,,,,,,,,,,,,,,,,
,,,,,103736,1,2024-07-12_16h39.12.788,experiment,2024.1.5,Win32,60.0240096,6691931c2c63981b064e1f0c,6691be689f2bed992ea5e089,,,,,,,,,,,,,,,,,,,,,,,,,,,,,,,,,,,,,,,,,,,,,,,,,,,,,,,,,,,,900.157,908.167,-0.079861111,0.215277778,1.0,0.0,0.0,1.999,compass,0.0,29.0,29.0,23.0,1.0,SoundStimuli/StrawberryFieldsForever_TheBeatles_Cover5S.wav,,,,,,,,,,,,,,,,,,,,,,,,,,,,,,,,,,,,,,,,,,,,,,,,,,,
,,,,,103736,1,2024-07-12_16h39.12.788,experiment,2024.1.5,Win32,60.0240096,6691931c2c63981b064e1f0c,6691be689f2bed992ea5e089,,,,,,,,,,,,,,,,,,,,,,,,,,,,,,,,,,,,,,,,,,,,,,,,,,,,,,,,,,,,908.167,915.284,0.09375,0.233796296,1.0,0.0,0.0,1.099,compass,0.0,30.0,30.0,24.0,1.0,SoundStimuli/UptownFunk_MarkRonson_Cover5S.wav,,,,,,,,,,,,,,,,,,,,,,,,,,,,,,,,,,,,,,,,,,,,,,,,,,,
,,,,,103736,1,2024-07-12_16h39.12.788,experiment,2024.1.5,Win32,60.0240096,6691931c2c63981b064e1f0c,6691be689f2bed992ea5e089,,,,,,,,,,,,,,,,,,,,,,,,,,,,,,,,,,,,,,,,,,,,,,,,,,,,,,,,,,,,915.284,922.184,0.210648148,0.225694444,1.0,0.0,0.0,0.884,compass,0.0,31.0,31.0,9.0,1.0,SoundStimuli/Despacito_LuisFonsiDaddyYankee_Original5S.wav,,,,,,,,,,,,,,,,,,,,,,,,,,,,,,,,,,,,,,,,,,,,,,,,,,,
,,,,,103736,1,2024-07-12_16h39.12.788,experiment,2024.1.5,Win32,60.0240096,6691931c2c63981b064e1f0c,6691be689f2bed992ea5e089,,,,,,,,,,,,,,,,,,,,,,,,,,,,,,,,,,,,,,,,,,,,,,,,,,,,,,,,,,,,922.185,928.7,0.195601852,-0.219907407,1.0,0.0,0.0,0.499,compass,0.0,32.0,32.0,22.0,1.0,SoundStimuli/RockWithYou_MichaelJackson_Cover5S.wav,,,,,,,,,,,,,,,,,,,,,,,,,,,,,,,,,,,,,,,,,,,,,,,,,,,
,,,,,103736,1,2024-07-12_16h39.12.788,experiment,2024.1.5,Win32,60.0240096,6691931c2c63981b064e1f0c,6691be689f2bed992ea5e089,,,,,,,,,,,,,,,,,,,,,,,,,,,,,,,,,,,,,,,,,,,,,,,,,,,,,,,,,,,,928.701,935.169,-0.175925926,-0.178240741,1.0,0.0,0.0,0.452,compass,0.0,33.0,33.0,3.0,1.0,SoundStimuli/NoScrubs_TLC_Cover5S.wav,,,,,,,,,,,,,,,,,,,,,,,,,,,,,,,,,,,,,,,,,,,,,,,,,,,
,,,,,103736,1,2024-07-12_16h39.12.788,experiment,2024.1.5,Win32,60.0240096,6691931c2c63981b064e1f0c,6691be689f2bed992ea5e089,,,,,,,,,,,,,,,,,,,,,,,,,,,,,,,,,,,,,,,,,,,,,,,,,,,,,,,,,,,,935.173,942.434,0.126157407,0.197916667,1.0,0.0,0.0,1.252,compass,0.0,34.0,34.0,32.0,1.0,SoundStimuli/HeatWaves_GlassAnimals_Cover5S.wav,,,,,,,,,,,,,,,,,,,,,,,,,,,,,,,,,,,,,,,,,,,,,,,,,,,
,,,,,103736,1,2024-07-12_16h39.12.788,experiment,2024.1.5,Win32,60.0240096,6691931c2c63981b064e1f0c,6691be689f2bed992ea5e089,,,,,,,,,,,,,,,,,,,,,,,,,,,,,,,,,,,,,,,,,,,,,,,,,,,,,,,,,,,,,,,,,,,,,,,,,,,942.435,943.667,space,1.211,,943.667,946.733,right,3.039,,0.0,1.0,1.0,1.0,1.0,block_order/blockC.xlsx,,,,,,,,,,,,,,,,,,,,,,,,,,,,,,,,,,,
,,,,,103736,1,2024-07-12_16h39.12.788,experiment,2024.1.5,Win32,60.0240096,6691931c2c63981b064e1f0c,6691be689f2bed992ea5e089,,,,,,,,,,,,,,,,,,,,,,,,,,,,,,,,,,,,,,,,,,,,,,,,,,,,,,,,,,,,946.764,953.183,-0.237268519,0.1875,1.0,0.0,0.0,0.416,compass,0.0,0.0,0.0,33.0,1.0,SoundStimuli/TheBoyIsMine_BrandyMonica_Cover5S.wav,,,,,,,,,,,,,,,,,,,,,,,,,,,,,,,,,,,,,,,,,,,,,,,,,,,
,,,,,103736,1,2024-07-12_16h39.12.788,experiment,2024.1.5,Win32,60.0240096,6691931c2c63981b064e1f0c,6691be689f2bed992ea5e089,,,,,,,,,,,,,,,,,,,,,,,,,,,,,,,,,,,,,,,,,,,,,,,,,,,,,,,,,,,,953.185,961.683,0.145833333,0.195601852,1.0,0.0,0.0,2.484,compass,0.0,1.0,1.0,6.0,1.0,SoundStimuli/SaveYourTears_TheWeekndArianaGrande_Original5S.wav,,,,,,,,,,,,,,,,,,,,,,,,,,,,,,,,,,,,,,,,,,,,,,,,,,,
,,,,,103736,1,2024-07-12_16h39.12.788,experiment,2024.1.5,Win32,60.0240096,6691931c2c63981b064e1f0c,6691be689f2bed992ea5e089,,,,,,,,,,,,,,,,,,,,,,,,,,,,,,,,,,,,,,,,,,,,,,,,,,,,,,,,,,,,961.684,968.218,-0.19212963,-0.219907407,1.0,0.0,0.0,0.517,compass,0.0,2.0,2.0,23.0,1.0,SoundStimuli/IWalkTheLine_JohnnyCash_Cover5S.wav,,,,,,,,,,,,,,,,,,,,,,,,,,,,,,,,,,,,,,,,,,,,,,,,,,,
,,,,,103736,1,2024-07-12_16h39.12.788,experiment,2024.1.5,Win32,60.0240096,6691931c2c63981b064e1f0c,6691be689f2bed992ea5e089,,,,,,,,,,,,,,,,,,,,,,,,,,,,,,,,,,,,,,,,,,,,,,,,,,,,,,,,,,,,968.222,974.651,0.18287037,-0.244212963,1.0,0.0,0.0,0.417,compass,0.0,3.0,3.0,3.0,1.0,SoundStimuli/PartyRockAnthem_LMFAO_Cover5S.wav,,,,,,,,,,,,,,,,,,,,,,,,,,,,,,,,,,,,,,,,,,,,,,,,,,,
,,,,,103736,1,2024-07-12_16h39.12.788,experiment,2024.1.5,Win32,60.0240096,6691931c2c63981b064e1f0c,6691be689f2bed992ea5e089,,,,,,,,,,,,,,,,,,,,,,,,,,,,,,,,,,,,,,,,,,,,,,,,,,,,,,,,,,,,974.652,982.267,-0.118055556,-0.178240741,1.0,0.0,0.0,1.6,compass,0.0,4.0,4.0,7.0,1.0,SoundStimuli/MackTheKnife_BobbyDarin_Original5S.wav,,,,,,,,,,,,,,,,,,,,,,,,,,,,,,,,,,,,,,,,,,,,,,,,,,,
,,,,,103736,1,2024-07-12_16h39.12.788,experiment,2024.1.5,Win32,60.0240096,6691931c2c63981b064e1f0c,6691be689f2bed992ea5e089,,,,,,,,,,,,,,,,,,,,,,,,,,,,,,,,,,,,,,,,,,,,,,,,,,,,,,,,,,,,982.268,988.683,-0.090277778,0.229166667,1.0,0.0,0.0,0.4,compass,0.0,5.0,5.0,1.0,1.0,SoundStimuli/Smooth_SantanaRobThomas_Cover5S.wav,,,,,,,,,,,,,,,,,,,,,,,,,,,,,,,,,,,,,,,,,,,,,,,,,,,
,,,,,103736,1,2024-07-12_16h39.12.788,experiment,2024.1.5,Win32,60.0240096,6691931c2c63981b064e1f0c,6691be689f2bed992ea5e089,,,,,,,,,,,,,,,,,,,,,,,,,,,,,,,,,,,,,,,,,,,,,,,,,,,,,,,,,,,,988.686,995.434,-0.060185185,0.178240741,1.0,0.0,0.0,0.735,compass,0.0,6.0,6.0,11.0,1.0,SoundStimuli/BlurredLines_RobinThicke_Original5S.wav,,,,,,,,,,,,,,,,,,,,,,,,,,,,,,,,,,,,,,,,,,,,,,,,,,,
,,,,,103736,1,2024-07-12_16h39.12.788,experiment,2024.1.5,Win32,60.0240096,6691931c2c63981b064e1f0c,6691be689f2bed992ea5e089,,,,,,,,,,,,,,,,,,,,,,,,,,,,,,,,,,,,,,,,,,,,,,,,,,,,,,,,,,,,995.435,1001.968,-0.212962963,0.199074074,1.0,0.0,0.0,0.518,compass,0.0,7.0,7.0,13.0,1.0,SoundStimuli/Perfect_EdSheeran_Original5S.wav,,,,,,,,,,,,,,,,,,,,,,,,,,,,,,,,,,,,,,,,,,,,,,,,,,,
,,,,,103736,1,2024-07-12_16h39.12.788,experiment,2024.1.5,Win32,60.0240096,6691931c2c63981b064e1f0c,6691be689f2bed992ea5e089,,,,,,,,,,,,,,,,,,,,,,,,,,,,,,,,,,,,,,,,,,,,,,,,,,,,,,,,,,,,1001.973,1008.9,-0.195601852,0.165509259,1.0,0.0,0.0,0.916,compass,0.0,8.0,8.0,5.0,1.0,SoundStimuli/JoyToTheWorld_ThreeDogNight_Cover5S.wav,,,,,,,,,,,,,,,,,,,,,,,,,,,,,,,,,,,,,,,,,,,,,,,,,,,
,,,,,103736,1,2024-07-12_16h39.12.788,experiment,2024.1.5,Win32,60.0240096,6691931c2c63981b064e1f0c,6691be689f2bed992ea5e089,,,,,,,,,,,,,,,,,,,,,,,,,,,,,,,,,,,,,,,,,,,,,,,,,,,,,,,,,,,,1008.901,1015.134,0.149305556,0.189814815,1.0,0.0,0.0,0.218,compass,0.0,9.0,9.0,31.0,1.0,SoundStimuli/TossinAndTurnin_BobbyLewis_Cover5S.wav,,,,,,,,,,,,,,,,,,,,,,,,,,,,,,,,,,,,,,,,,,,,,,,,,,,
,,,,,103736,1,2024-07-12_16h39.12.788,experiment,2024.1.5,Win32,60.0240096,6691931c2c63981b064e1f0c,6691be689f2bed992ea5e089,,,,,,,,,,,,,,,,,,,,,,,,,,,,,,,,,,,,,,,,,,,,,,,,,,,,,,,,,,,,1015.135,1021.683,-0.18287037,-0.175925926,1.0,0.0,0.0,0.534,compass,0.0,10.0,10.0,21.0,1.0,SoundStimuli/BridgeOverTroubledWater_SimonAndGarfunkel_Cover5S.wav,,,,,,,,,,,,,,,,,,,,,,,,,,,,,,,,,,,,,,,,,,,,,,,,,,,
,,,,,103736,1,2024-07-12_16h39.12.788,experiment,2024.1.5,Win32,60.0240096,6691931c2c63981b064e1f0c,6691be689f2bed992ea5e089,,,,,,,,,,,,,,,,,,,,,,,,,,,,,,,,,,,,,,,,,,,,,,,,,,,,,,,,,,,,1021.685,1028.633,-0.173611111,-0.16087963,1.0,0.0,0.0,0.933,compass,0.0,11.0,11.0,8.0,1.0,SoundStimuli/EndlessLove_DianaRossLionelRichie_Original5S.wav,,,,,,,,,,,,,,,,,,,,,,,,,,,,,,,,,,,,,,,,,,,,,,,,,,,
,,,,,103736,1,2024-07-12_16h39.12.788,experiment,2024.1.5,Win32,60.0240096,6691931c2c63981b064e1f0c,6691be689f2bed992ea5e089,,,,,,,,,,,,,,,,,,,,,,,,,,,,,,,,,,,,,,,,,,,,,,,,,,,,,,,,,,,,1028.635,1035.668,0.190972222,-0.188657407,1.0,0.0,0.0,1.018,compass,0.0,12.0,12.0,30.0,1.0,SoundStimuli/SomebodyThatIUsedtoKnow_Gotye_Cover5S.wav,,,,,,,,,,,,,,,,,,,,,,,,,,,,,,,,,,,,,,,,,,,,,,,,,,,
,,,,,103736,1,2024-07-12_16h39.12.788,experiment,2024.1.5,Win32,60.0240096,6691931c2c63981b064e1f0c,6691be689f2bed992ea5e089,,,,,,,,,,,,,,,,,,,,,,,,,,,,,,,,,,,,,,,,,,,,,,,,,,,,,,,,,,,,1035.672,1042.166,-0.18287037,-0.179398148,1.0,0.0,0.0,0.483,compass,0.0,13.0,13.0,28.0,1.0,SoundStimuli/IWantToHoldYourHand_TheBeatles_Cover5S.wav,,,,,,,,,,,,,,,,,,,,,,,,,,,,,,,,,,,,,,,,,,,,,,,,,,,
,,,,,103736,1,2024-07-12_16h39.12.788,experiment,2024.1.5,Win32,60.0240096,6691931c2c63981b064e1f0c,6691be689f2bed992ea5e089,,,,,,,,,,,,,,,,,,,,,,,,,,,,,,,,,,,,,,,,,,,,,,,,,,,,,,,,,,,,1042.167,1048.617,0.185185185,0.201388889,1.0,0.0,0.0,0.432,compass,0.0,14.0,14.0,22.0,1.0,SoundStimuli/Happy_PharellWilliams_Cover5S.wav,,,,,,,,,,,,,,,,,,,,,,,,,,,,,,,,,,,,,,,,,,,,,,,,,,,
,,,,,103736,1,2024-07-12_16h39.12.788,experiment,2024.1.5,Win32,60.0240096,6691931c2c63981b064e1f0c,6691be689f2bed992ea5e089,,,,,,,,,,,,,,,,,,,,,,,,,,,,,,,,,,,,,,,,,,,,,,,,,,,,,,,,,,,,1048.617,1055.05,-0.206018519,-0.222222222,1.0,0.0,0.0,0.417,compass,0.0,15.0,15.0,18.0,1.0,SoundStimuli/Weak_SWV_Original5S.wav,,,,,,,,,,,,,,,,,,,,,,,,,,,,,,,,,,,,,,,,,,,,,,,,,,,
,,,,,103736,1,2024-07-12_16h39.12.788,experiment,2024.1.5,Win32,60.0240096,6691931c2c63981b064e1f0c,6691be689f2bed992ea5e089,,,,,,,,,,,,,,,,,,,,,,,,,,,,,,,,,,,,,,,,,,,,,,,,,,,,,,,,,,,,1055.051,1062.583,0.180555556,-0.202546296,1.0,0.0,0.0,1.517,compass,0.0,16.0,16.0,29.0,1.0,SoundStimuli/BetteDavisEyes_KimCarnes_Cover5S.wav,,,,,,,,,,,,,,,,,,,,,,,,,,,,,,,,,,,,,,,,,,,,,,,,,,,
,,,,,103736,1,2024-07-12_16h39.12.788,experiment,2024.1.5,Win32,60.0240096,6691931c2c63981b064e1f0c,6691be689f2bed992ea5e089,,,,,,,,,,,,,,,,,,,,,,,,,,,,,,,,,,,,,,,,,,,,,,,,,,,,,,,,,,,,1062.584,1069.351,-0.178240741,-0.170138889,1.0,0.0,0.0,0.75,compass,0.0,17.0,17.0,14.0,1.0,SoundStimuli/LikeARollingStone_BobDylan_Cover5S.wav,,,,,,,,,,,,,,,,,,,,,,,,,,,,,,,,,,,,,,,,,,,,,,,,,,,
,,,,,103736,1,2024-07-12_16h39.12.788,experiment,2024.1.5,Win32,60.0240096,6691931c2c63981b064e1f0c,6691be689f2bed992ea5e089,,,,,,,,,,,,,,,,,,,,,,,,,,,,,,,,,,,,,,,,,,,,,,,,,,,,,,,,,,,,1069.356,1076.382,0.193287037,0.209490741,1.0,0.0,0.0,1.016,compass,0.0,18.0,18.0,10.0,1.0,SoundStimuli/LeFreak_Chic_Original5S.wav,,,,,,,,,,,,,,,,,,,,,,,,,,,,,,,,,,,,,,,,,,,,,,,,,,,
,,,,,103736,1,2024-07-12_16h39.12.788,experiment,2024.1.5,Win32,60.0240096,6691931c2c63981b064e1f0c,6691be689f2bed992ea5e089,,,,,,,,,,,,,,,,,,,,,,,,,,,,,,,,,,,,,,,,,,,,,,,,,,,,,,,,,,,,1076.385,1082.587,0.178240741,0.210648148,1.0,0.0,0.0,0.188,compass,0.0,19.0,19.0,2.0,1.0,SoundStimuli/SmellsLikeTeenSpirit_Nirvana_Cover5S.wav,,,,,,,,,,,,,,,,,,,,,,,,,,,,,,,,,,,,,,,,,,,,,,,,,,,
,,,,,103736,1,2024-07-12_16h39.12.788,experiment,2024.1.5,Win32,60.0240096,6691931c2c63981b064e1f0c,6691be689f2bed992ea5e089,,,,,,,,,,,,,,,,,,,,,,,,,,,,,,,,,,,,,,,,,,,,,,,,,,,,,,,,,,,,1082.588,1089.416,-0.150462963,-0.199074074,1.0,0.0,0.0,0.817,compass,0.0,20.0,20.0,17.0,1.0,SoundStimuli/IWannaDanceWithSomebody_WhitneyHouston_Cover5S.wav,,,,,,,,,,,,,,,,,,,,,,,,,,,,,,,,,,,,,,,,,,,,,,,,,,,
,,,,,103736,1,2024-07-12_16h39.12.788,experiment,2024.1.5,Win32,60.0240096,6691931c2c63981b064e1f0c,6691be689f2bed992ea5e089,,,,,,,,,,,,,,,,,,,,,,,,,,,,,,,,,,,,,,,,,,,,,,,,,,,,,,,,,,,,1089.419,1096.284,-0.141203704,-0.19212963,1.0,0.0,0.0,0.85,compass,0.0,21.0,21.0,25.0,1.0,SoundStimuli/IllMakeLoveToYou_BoyzIIMen_Original5S.wav,,,,,,,,,,,,,,,,,,,,,,,,,,,,,,,,,,,,,,,,,,,,,,,,,,,
,,,,,103736,1,2024-07-12_16h39.12.788,experiment,2024.1.5,Win32,60.0240096,6691931c2c63981b064e1f0c,6691be689f2bed992ea5e089,,,,,,,,,,,,,,,,,,,,,,,,,,,,,,,,,,,,,,,,,,,,,,,,,,,,,,,,,,,,1096.285,1103.502,0.24537037,0.177083333,1.0,0.0,0.0,1.201,compass,0.0,22.0,22.0,12.0,1.0,SoundStimuli/UnbreakMyHeart_ToniBraxton_Cover5S.wav,,,,,,,,,,,,,,,,,,,,,,,,,,,,,,,,,,,,,,,,,,,,,,,,,,,
,,,,,103736,1,2024-07-12_16h39.12.788,experiment,2024.1.5,Win32,60.0240096,6691931c2c63981b064e1f0c,6691be689f2bed992ea5e089,,,,,,,,,,,,,,,,,,,,,,,,,,,,,,,,,,,,,,,,,,,,,,,,,,,,,,,,,,,,1103.507,1109.95,-0.162037037,-0.21412037,1.0,0.0,0.0,0.433,compass,0.0,23.0,23.0,9.0,1.0,SoundStimuli/HowDoILive_LeAnnRimes_Original5S.wav,,,,,,,,,,,,,,,,,,,,,,,,,,,,,,,,,,,,,,,,,,,,,,,,,,,
,,,,,103736,1,2024-07-12_16h39.12.788,experiment,2024.1.5,Win32,60.0240096,6691931c2c63981b064e1f0c,6691be689f2bed992ea5e089,,,,,,,,,,,,,,,,,,,,,,,,,,,,,,,,,,,,,,,,,,,,,,,,,,,,,,,,,,,,1109.951,1116.716,-0.211805556,0.18287037,1.0,0.0,0.0,0.751,compass,0.0,24.0,24.0,0.0,1.0,SoundStimuli/GimmeShelter_RollingStones_Cover5S.wav,,,,,,,,,,,,,,,,,,,,,,,,,,,,,,,,,,,,,,,,,,,,,,,,,,,
,,,,,103736,1,2024-07-12_16h39.12.788,experiment,2024.1.5,Win32,60.0240096,6691931c2c63981b064e1f0c,6691be689f2bed992ea5e089,,,,,,,,,,,,,,,,,,,,,,,,,,,,,,,,,,,,,,,,,,,,,,,,,,,,,,,,,,,,1116.717,1123.682,0.195601852,0.1875,1.0,0.0,0.0,0.949,compass,0.0,25.0,25.0,24.0,1.0,SoundStimuli/Kiss_Prince_Original5S.wav,,,,,,,,,,,,,,,,,,,,,,,,,,,,,,,,,,,,,,,,,,,,,,,,,,,
,,,,,103736,1,2024-07-12_16h39.12.788,experiment,2024.1.5,Win32,60.0240096,6691931c2c63981b064e1f0c,6691be689f2bed992ea5e089,,,,,,,,,,,,,,,,,,,,,,,,,,,,,,,,,,,,,,,,,,,,,,,,,,,,,,,,,,,,1123.684,1130.383,-0.168981481,-0.189814815,1.0,0.0,0.0,0.684,compass,0.0,26.0,26.0,4.0,1.0,SoundStimuli/Dreams_FleetwoodMac_Cover5S.wav,,,,,,,,,,,,,,,,,,,,,,,,,,,,,,,,,,,,,,,,,,,,,,,,,,,
,,,,,103736,1,2024-07-12_16h39.12.788,experiment,2024.1.5,Win32,60.0240096,6691931c2c63981b064e1f0c,6691be689f2bed992ea5e089,,,,,,,,,,,,,,,,,,,,,,,,,,,,,,,,,,,,,,,,,,,,,,,,,,,,,,,,,,,,1130.384,1136.836,-0.143518519,-0.189814815,1.0,0.0,0.0,0.435,compass,0.0,27.0,27.0,20.0,1.0,SoundStimuli/FlashdanceWhatAFeeling_IreneCara_Cover5S.wav,,,,,,,,,,,,,,,,,,,,,,,,,,,,,,,,,,,,,,,,,,,,,,,,,,,
,,,,,103736,1,2024-07-12_16h39.12.788,experiment,2024.1.5,Win32,60.0240096,6691931c2c63981b064e1f0c,6691be689f2bed992ea5e089,,,,,,,,,,,,,,,,,,,,,,,,,,,,,,,,,,,,,,,,,,,,,,,,,,,,,,,,,,,,1136.84,1143.367,0.118055556,0.153935185,1.0,0.0,0.0,0.517,compass,0.0,28.0,28.0,34.0,1.0,SoundStimuli/Irreplaceable_Beyonce_Original5S.wav,,,,,,,,,,,,,,,,,,,,,,,,,,,,,,,,,,,,,,,,,,,,,,,,,,,
,,,,,103736,1,2024-07-12_16h39.12.788,experiment,2024.1.5,Win32,60.0240096,6691931c2c63981b064e1f0c,6691be689f2bed992ea5e089,,,,,,,,,,,,,,,,,,,,,,,,,,,,,,,,,,,,,,,,,,,,,,,,,,,,,,,,,,,,1143.369,1149.95,0.149305556,-0.203703704,1.0,0.0,0.0,0.567,compass,0.0,29.0,29.0,26.0,1.0,SoundStimuli/TheSign_AceOfBase_Original5S.wav,,,,,,,,,,,,,,,,,,,,,,,,,,,,,,,,,,,,,,,,,,,,,,,,,,,
,,,,,103736,1,2024-07-12_16h39.12.788,experiment,2024.1.5,Win32,60.0240096,6691931c2c63981b064e1f0c,6691be689f2bed992ea5e089,,,,,,,,,,,,,,,,,,,,,,,,,,,,,,,,,,,,,,,,,,,,,,,,,,,,,,,,,,,,1149.951,1156.533,0.221064815,0.1875,1.0,0.0,0.0,0.567,compass,0.0,30.0,30.0,15.0,1.0,SoundStimuli/CrazyInLove_BeyonceFtJayZ_Original5S.wav,,,,,,,,,,,,,,,,,,,,,,,,,,,,,,,,,,,,,,,,,,,,,,,,,,,
,,,,,103736,1,2024-07-12_16h39.12.788,experiment,2024.1.5,Win32,60.0240096,6691931c2c63981b064e1f0c,6691be689f2bed992ea5e089,,,,,,,,,,,,,,,,,,,,,,,,,,,,,,,,,,,,,,,,,,,,,,,,,,,,,,,,,,,,1156.534,1163.216,-0.172453704,0.195601852,1.0,0.0,0.0,0.667,compass,0.0,31.0,31.0,27.0,1.0,SoundStimuli/EyeOfTheTiger_Survivor_Original5S.wav,,,,,,,,,,,,,,,,,,,,,,,,,,,,,,,,,,,,,,,,,,,,,,,,,,,
,,,,,103736,1,2024-07-12_16h39.12.788,experiment,2024.1.5,Win32,60.0240096,6691931c2c63981b064e1f0c,6691be689f2bed992ea5e089,,,,,,,,,,,,,,,,,,,,,,,,,,,,,,,,,,,,,,,,,,,,,,,,,,,,,,,,,,,,1163.217,1171.201,0.126157407,-0.159722222,1.0,0.0,0.0,1.967,compass,0.0,32.0,32.0,32.0,1.0,SoundStimuli/Dilemma_NellyKellyRowland_Original5S.wav,,,,,,,,,,,,,,,,,,,,,,,,,,,,,,,,,,,,,,,,,,,,,,,,,,,
,,,,,103736,1,2024-07-12_16h39.12.788,experiment,2024.1.5,Win32,60.0240096,6691931c2c63981b064e1f0c,6691be689f2bed992ea5e089,,,,,,,,,,,,,,,,,,,,,,,,,,,,,,,,,,,,,,,,,,,,,,,,,,,,,,,,,,,,1171.205,1178.149,-0.181712963,-0.184027778,1.0,0.0,0.0,0.934,compass,0.0,33.0,33.0,19.0,1.0,SoundStimuli/YouLightUpMyLife_DebbyBoone_Cover5S.wav,,,,,,,,,,,,,,,,,,,,,,,,,,,,,,,,,,,,,,,,,,,,,,,,,,,
,,,,,103736,1,2024-07-12_16h39.12.788,experiment,2024.1.5,Win32,60.0240096,6691931c2c63981b064e1f0c,6691be689f2bed992ea5e089,,,,,,,,,,,,,,,,,,,,,,,,,,,,,,,,,,,,,,,,,,,,,,,,,,,,,,,,,,,,1178.15,1185.216,-0.209490741,0.21412037,1.0,0.0,0.0,1.05,compass,0.0,34.0,34.0,16.0,1.0,SoundStimuli/ItsAllInTheGame_TommyEdwards_Original5S.wav,,,,,,,,,,,,,,,,,,,,,,,,,,,,,,,,,,,,,,,,,,,,,,,,,,,
,,,,,103736,1,2024-07-12_16h39.12.788,experiment,2024.1.5,Win32,60.0240096,6691931c2c63981b064e1f0c,6691be689f2bed992ea5e089,,,,,,,,,,,,,,,,,,,,,,,,,,,,,,,,,,,,,,,,,,,,,,,,,,,,,,,,,,,,,,,,,,,,,,,,,,,1185.216,1186.735,space,1.49,,1186.735,1188.382,right,1.626,,0.0,2.0,2.0,2.0,1.0,block_order/blockB.xlsx,,,,,,,,,,,,,,,,,,,,,,,,,,,,,,,,,,,
,,,,,103736,1,2024-07-12_16h39.12.788,experiment,2024.1.5,Win32,60.0240096,6691931c2c63981b064e1f0c,6691be689f2bed992ea5e089,,,,,,,,,,,,,,,,,,,,,,,,,,,,,,,,,,,,,,,,,,,,,,,,,,,,,,,,,,,,1188.413,1194.866,0.167824074,-0.144675926,1.0,0.0,0.0,0.45,compass,0.0,0.0,0.0,11.0,1.0,SoundStimuli/Superstition_StevieWonder_Cover5S.wav,,,,,,,,,,,,,,,,,,,,,,,,,,,,,,,,,,,,,,,,,,,,,,,,,,,
,,,,,103736,1,2024-07-12_16h39.12.788,experiment,2024.1.5,Win32,60.0240096,6691931c2c63981b064e1f0c,6691be689f2bed992ea5e089,,,,,,,,,,,,,,,,,,,,,,,,,,,,,,,,,,,,,,,,,,,,,,,,,,,,,,,,,,,,1194.867,1201.352,0.152777778,0.101851852,1.0,0.0,0.0,0.468,compass,0.0,1.0,1.0,30.0,1.0,SoundStimuli/PokerFace_LadyGaga_Original5S.wav,,,,,,,,,,,,,,,,,,,,,,,,,,,,,,,,,,,,,,,,,,,,,,,,,,,
,,,,,103736,1,2024-07-12_16h39.12.788,experiment,2024.1.5,Win32,60.0240096,6691931c2c63981b064e1f0c,6691be689f2bed992ea5e089,,,,,,,,,,,,,,,,,,,,,,,,,,,,,,,,,,,,,,,,,,,,,,,,,,,,,,,,,,,,1201.357,1208.8,-0.167824074,0.193287037,1.0,0.0,0.0,1.434,compass,0.0,2.0,2.0,22.0,1.0,SoundStimuli/RockWithYou_MichaelJackson_Original5S.wav,,,,,,,,,,,,,,,,,,,,,,,,,,,,,,,,,,,,,,,,,,,,,,,,,,,
,,,,,103736,1,2024-07-12_16h39.12.788,experiment,2024.1.5,Win32,60.0240096,6691931c2c63981b064e1f0c,6691be689f2bed992ea5e089,,,,,,,,,,,,,,,,,,,,,,,,,,,,,,,,,,,,,,,,,,,,,,,,,,,,,,,,,,,,1208.802,1215.951,-0.195601852,-0.168981481,1.0,0.0,0.0,1.135,compass,0.0,3.0,3.0,19.0,1.0,SoundStimuli/LetsGetItOn_MarvinGaye_Cover5S.wav,,,,,,,,,,,,,,,,,,,,,,,,,,,,,,,,,,,,,,,,,,,,,,,,,,,
,,,,,103736,1,2024-07-12_16h39.12.788,experiment,2024.1.5,Win32,60.0240096,6691931c2c63981b064e1f0c,6691be689f2bed992ea5e089,,,,,,,,,,,,,,,,,,,,,,,,,,,,,,,,,,,,,,,,,,,,,,,,,,,,,,,,,,,,1215.953,1223.065,0.137731481,-0.180555556,1.0,0.0,0.0,1.1,compass,0.0,4.0,4.0,2.0,1.0,SoundStimuli/Mood_24kGoldnianndior_Cover5S.wav,,,,,,,,,,,,,,,,,,,,,,,,,,,,,,,,,,,,,,,,,,,,,,,,,,,
,,,,,103736,1,2024-07-12_16h39.12.788,experiment,2024.1.5,Win32,60.0240096,6691931c2c63981b064e1f0c,6691be689f2bed992ea5e089,,,,,,,,,,,,,,,,,,,,,,,,,,,,,,,,,,,,,,,,,,,,,,,,,,,,,,,,,,,,1223.067,1229.933,-0.194444444,-0.197916667,1.0,0.0,0.0,0.851,compass,0.0,5.0,5.0,23.0,1.0,SoundStimuli/StrawberryFieldsForever_TheBeatles_Original5S.wav,,,,,,,,,,,,,,,,,,,,,,,,,,,,,,,,,,,,,,,,,,,,,,,,,,,
,,,,,103736,1,2024-07-12_16h39.12.788,experiment,2024.1.5,Win32,60.0240096,6691931c2c63981b064e1f0c,6691be689f2bed992ea5e089,,,,,,,,,,,,,,,,,,,,,,,,,,,,,,,,,,,,,,,,,,,,,,,,,,,,,,,,,,,,1229.934,1236.75,0.159722222,0.090277778,1.0,0.0,0.0,0.801,compass,0.0,6.0,6.0,18.0,1.0,SoundStimuli/AnotherOneBitesTheDust_Queen_Original5S.wav,,,,,,,,,,,,,,,,,,,,,,,,,,,,,,,,,,,,,,,,,,,,,,,,,,,
,,,,,103736,1,2024-07-12_16h39.12.788,experiment,2024.1.5,Win32,60.0240096,6691931c2c63981b064e1f0c,6691be689f2bed992ea5e089,,,,,,,,,,,,,,,,,,,,,,,,,,,,,,,,,,,,,,,,,,,,,,,,,,,,,,,,,,,,1236.757,1243.933,0.239583333,-0.150462963,1.0,0.0,0.0,1.167,compass,0.0,7.0,7.0,14.0,1.0,SoundStimuli/BlindingLights_TheWeeknd_Original5S.wav,,,,,,,,,,,,,,,,,,,,,,,,,,,,,,,,,,,,,,,,,,,,,,,,,,,
,,,,,103736,1,2024-07-12_16h39.12.788,experiment,2024.1.5,Win32,60.0240096,6691931c2c63981b064e1f0c,6691be689f2bed992ea5e089,,,,,,,,,,,,,,,,,,,,,,,,,,,,,,,,,,,,,,,,,,,,,,,,,,,,,,,,,,,,1243.935,1250.616,-0.267361111,0.16087963,1.0,0.0,0.0,0.667,compass,0.0,8.0,8.0,6.0,1.0,SoundStimuli/Levitating_DuaLipa_Cover5S.wav,,,,,,,,,,,,,,,,,,,,,,,,,,,,,,,,,,,,,,,,,,,,,,,,,,,
,,,,,103736,1,2024-07-12_16h39.12.788,experiment,2024.1.5,Win32,60.0240096,6691931c2c63981b064e1f0c,6691be689f2bed992ea5e089,,,,,,,,,,,,,,,,,,,,,,,,,,,,,,,,,,,,,,,,,,,,,,,,,,,,,,,,,,,,1250.617,1257.415,0.127314815,-0.172453704,1.0,0.0,0.0,0.782,compass,0.0,9.0,9.0,12.0,1.0,SoundStimuli/IWillAlwaysLoveYou_WhitneyHouston_Cover5S.wav,,,,,,,,,,,,,,,,,,,,,,,,,,,,,,,,,,,,,,,,,,,,,,,,,,,
,,,,,103736,1,2024-07-12_16h39.12.788,experiment,2024.1.5,Win32,60.0240096,6691931c2c63981b064e1f0c,6691be689f2bed992ea5e089,,,,,,,,,,,,,,,,,,,,,,,,,,,,,,,,,,,,,,,,,,,,,,,,,,,,,,,,,,,,1257.417,1265.649,0.111111111,-0.195601852,1.0,0.0,0.0,2.217,compass,0.0,10.0,10.0,31.0,1.0,SoundStimuli/TheBattleOfNewOrleans_JohnnyHorton_Cover5S.wav,,,,,,,,,,,,,,,,,,,,,,,,,,,,,,,,,,,,,,,,,,,,,,,,,,,
,,,,,103736,1,2024-07-12_16h39.12.788,experiment,2024.1.5,Win32,60.0240096,6691931c2c63981b064e1f0c,6691be689f2bed992ea5e089,,,,,,,,,,,,,,,,,,,,,,,,,,,,,,,,,,,,,,,,,,,,,,,,,,,,,,,,,,,,1265.651,1272.851,-0.153935185,0.125,1.0,0.0,0.0,1.184,compass,0.0,11.0,11.0,3.0,1.0,SoundStimuli/NoScrubs_TLC_Original5S.wav,,,,,,,,,,,,,,,,,,,,,,,,,,,,,,,,,,,,,,,,,,,,,,,,,,,
,,,,,103736,1,2024-07-12_16h39.12.788,experiment,2024.1.5,Win32,60.0240096,6691931c2c63981b064e1f0c,6691be689f2bed992ea5e089,,,,,,,,,,,,,,,,,,,,,,,,,,,,,,,,,,,,,,,,,,,,,,,,,,,,,,,,,,,,1272.856,1279.732,0.12037037,0.128472222,1.0,0.0,0.0,0.867,compass,0.0,12.0,12.0,7.0,1.0,SoundStimuli/NoOne_AliciaKeys_Cover5S.wav,,,,,,,,,,,,,,,,,,,,,,,,,,,,,,,,,,,,,,,,,,,,,,,,,,,
,,,,,103736,1,2024-07-12_16h39.12.788,experiment,2024.1.5,Win32,60.0240096,6691931c2c63981b064e1f0c,6691be689f2bed992ea5e089,,,,,,,,,,,,,,,,,,,,,,,,,,,,,,,,,,,,,,,,,,,,,,,,,,,,,,,,,,,,1279.733,1286.649,0.15162037,-0.150462963,1.0,0.0,0.0,0.901,compass,0.0,13.0,13.0,5.0,1.0,SoundStimuli/MyGirl_TheTemptations_Original5S.wav,,,,,,,,,,,,,,,,,,,,,,,,,,,,,,,,,,,,,,,,,,,,,,,,,,,
,,,,,103736,1,2024-07-12_16h39.12.788,experiment,2024.1.5,Win32,60.0240096,6691931c2c63981b064e1f0c,6691be689f2bed992ea5e089,,,,,,,,,,,,,,,,,,,,,,,,,,,,,,,,,,,,,,,,,,,,,,,,,,,,,,,,,,,,1286.65,1293.616,-0.150462963,0.211805556,1.0,0.0,0.0,0.951,compass,0.0,14.0,14.0,16.0,1.0,SoundStimuli/BohemianRhapsody_Queen_Original5S.wav,,,,,,,,,,,,,,,,,,,,,,,,,,,,,,,,,,,,,,,,,,,,,,,,,,,
,,,,,103736,1,2024-07-12_16h39.12.788,experiment,2024.1.5,Win32,60.0240096,6691931c2c63981b064e1f0c,6691be689f2bed992ea5e089,,,,,,,,,,,,,,,,,,,,,,,,,,,,,,,,,,,,,,,,,,,,,,,,,,,,,,,,,,,,1293.617,1300.602,-0.224537037,0.122685185,1.0,0.0,0.0,0.968,compass,0.0,15.0,15.0,21.0,1.0,SoundStimuli/GoodGollyMissMolly_LittleRichard_Cover5S.wav,,,,,,,,,,,,,,,,,,,,,,,,,,,,,,,,,,,,,,,,,,,,,,,,,,,
,,,,,103736,1,2024-07-12_16h39.12.788,experiment,2024.1.5,Win32,60.0240096,6691931c2c63981b064e1f0c,6691be689f2bed992ea5e089,,,,,,,,,,,,,,,,,,,,,,,,,,,,,,,,,,,,,,,,,,,,,,,,,,,,,,,,,,,,1300.606,1307.233,-0.239583333,0.1875,1.0,0.0,0.0,0.617,compass,0.0,16.0,16.0,28.0,1.0,SoundStimuli/ComeAndGetYourLove_Redbone_Original5S.wav,,,,,,,,,,,,,,,,,,,,,,,,,,,,,,,,,,,,,,,,,,,,,,,,,,,
,,,,,103736,1,2024-07-12_16h39.12.788,experiment,2024.1.5,Win32,60.0240096,6691931c2c63981b064e1f0c,6691be689f2bed992ea5e089,,,,,,,,,,,,,,,,,,,,,,,,,,,,,,,,,,,,,,,,,,,,,,,,,,,,,,,,,,,,1307.234,1314.699,0.173611111,-0.128472222,1.0,0.0,0.0,1.45,compass,0.0,17.0,17.0,34.0,1.0,SoundStimuli/AChangeIsGonnaCome_SamCooke_Cover5S.wav,,,,,,,,,,,,,,,,,,,,,,,,,,,,,,,,,,,,,,,,,,,,,,,,,,,
,,,,,103736,1,2024-07-12_16h39.12.788,experiment,2024.1.5,Win32,60.0240096,6691931c2c63981b064e1f0c,6691be689f2bed992ea5e089,,,,,,,,,,,,,,,,,,,,,,,,,,,,,,,,,,,,,,,,,,,,,,,,,,,,,,,,,,,,1314.7,1321.416,-0.206018519,-0.219907407,1.0,0.0,0.0,0.7,compass,0.0,18.0,18.0,15.0,1.0,SoundStimuli/TikTok_Kesha_Cover5S.wav,,,,,,,,,,,,,,,,,,,,,,,,,,,,,,,,,,,,,,,,,,,,,,,,,,,
,,,,,103736,1,2024-07-12_16h39.12.788,experiment,2024.1.5,Win32,60.0240096,6691931c2c63981b064e1f0c,6691be689f2bed992ea5e089,,,,,,,,,,,,,,,,,,,,,,,,,,,,,,,,,,,,,,,,,,,,,,,,,,,,,,,,,,,,1321.417,1328.282,-0.28125,-0.293981481,1.0,0.0,0.0,0.85,compass,0.0,19.0,19.0,10.0,1.0,SoundStimuli/BadDay_DanielPowter_Cover5S.wav,,,,,,,,,,,,,,,,,,,,,,,,,,,,,,,,,,,,,,,,,,,,,,,,,,,
,,,,,103736,1,2024-07-12_16h39.12.788,experiment,2024.1.5,Win32,60.0240096,6691931c2c63981b064e1f0c,6691be689f2bed992ea5e089,,,,,,,,,,,,,,,,,,,,,,,,,,,,,,,,,,,,,,,,,,,,,,,,,,,,,,,,,,,,1328.284,1336.967,-0.177083333,0.18287037,1.0,0.0,0.0,2.668,compass,0.0,20.0,20.0,0.0,1.0,SoundStimuli/StayinAlive_BeeGees_Original5S.wav,,,,,,,,,,,,,,,,,,,,,,,,,,,,,,,,,,,,,,,,,,,,,,,,,,,
,,,,,103736,1,2024-07-12_16h39.12.788,experiment,2024.1.5,Win32,60.0240096,6691931c2c63981b064e1f0c,6691be689f2bed992ea5e089,,,,,,,,,,,,,,,,,,,,,,,,,,,,,,,,,,,,,,,,,,,,,,,,,,,,,,,,,,,,1336.973,1343.949,0.230324074,-0.131944444,1.0,0.0,0.0,0.967,compass,0.0,21.0,21.0,33.0,1.0,SoundStimuli/StandByMe_BenEKing_Cover5S.wav,,,,,,,,,,,,,,,,,,,,,,,,,,,,,,,,,,,,,,,,,,,,,,,,,,,
,,,,,103736,1,2024-07-12_16h39.12.788,experiment,2024.1.5,Win32,60.0240096,6691931c2c63981b064e1f0c,6691be689f2bed992ea5e089,,,,,,,,,,,,,,,,,,,,,,,,,,,,,,,,,,,,,,,,,,,,,,,,,,,,,,,,,,,,1343.951,1350.499,0.269675926,0.157407407,1.0,0.0,0.0,0.535,compass,0.0,22.0,22.0,24.0,1.0,SoundStimuli/UptownFunk_MarkRonson_Original5S.wav,,,,,,,,,,,,,,,,,,,,,,,,,,,,,,,,,,,,,,,,,,,,,,,,,,,
,,,,,103736,1,2024-07-12_16h39.12.788,experiment,2024.1.5,Win32,60.0240096,6691931c2c63981b064e1f0c,6691be689f2bed992ea5e089,,,,,,,,,,,,,,,,,,,,,,,,,,,,,,,,,,,,,,,,,,,,,,,,,,,,,,,,,,,,1350.5,1357.482,-0.175925926,-0.143518519,1.0,0.0,0.0,0.965,compass,0.0,23.0,23.0,17.0,1.0,SoundStimuli/Fallin_AliciaKeys_Original5S.wav,,,,,,,,,,,,,,,,,,,,,,,,,,,,,,,,,,,,,,,,,,,,,,,,,,,
,,,,,103736,1,2024-07-12_16h39.12.788,experiment,2024.1.5,Win32,60.0240096,6691931c2c63981b064e1f0c,6691be689f2bed992ea5e089,,,,,,,,,,,,,,,,,,,,,,,,,,,,,,,,,,,,,,,,,,,,,,,,,,,,,,,,,,,,1357.483,1363.983,-0.229166667,0.164351852,1.0,0.0,0.0,0.484,compass,0.0,24.0,24.0,1.0,1.0,SoundStimuli/Stronger_KanyeWest_Original5S.wav,,,,,,,,,,,,,,,,,,,,,,,,,,,,,,,,,,,,,,,,,,,,,,,,,,,
,,,,,103736,1,2024-07-12_16h39.12.788,experiment,2024.1.5,Win32,60.0240096,6691931c2c63981b064e1f0c,6691be689f2bed992ea5e089,,,,,,,,,,,,,,,,,,,,,,,,,,,,,,,,,,,,,,,,,,,,,,,,,,,,,,,,,,,,1363.985,1370.785,-0.243055556,0.138888889,1.0,0.0,0.0,0.785,compass,0.0,25.0,25.0,8.0,1.0,SoundStimuli/LikeAPrayer_Madonna_Original5S.wav,,,,,,,,,,,,,,,,,,,,,,,,,,,,,,,,,,,,,,,,,,,,,,,,,,,
,,,,,103736,1,2024-07-12_16h39.12.788,experiment,2024.1.5,Win32,60.0240096,6691931c2c63981b064e1f0c,6691be689f2bed992ea5e089,,,,,,,,,,,,,,,,,,,,,,,,,,,,,,,,,,,,,,,,,,,,,,,,,,,,,,,,,,,,1370.789,1377.3,-0.141203704,0.255787037,1.0,0.0,0.0,0.502,compass,0.0,26.0,26.0,32.0,1.0,SoundStimuli/HeatWaves_GlassAnimals_Original5S.wav,,,,,,,,,,,,,,,,,,,,,,,,,,,,,,,,,,,,,,,,,,,,,,,,,,,
,,,,,103736,1,2024-07-12_16h39.12.788,experiment,2024.1.5,Win32,60.0240096,6691931c2c63981b064e1f0c,6691be689f2bed992ea5e089,,,,,,,,,,,,,,,,,,,,,,,,,,,,,,,,,,,,,,,,,,,,,,,,,,,,,,,,,,,,1377.3,1384.215,-0.201388889,0.247685185,1.0,0.0,0.0,0.9,compass,0.0,27.0,27.0,25.0,1.0,SoundStimuli/Respect_ArethaFranklin_Original5S.wav,,,,,,,,,,,,,,,,,,,,,,,,,,,,,,,,,,,,,,,,,,,,,,,,,,,
,,,,,103736,1,2024-07-12_16h39.12.788,experiment,2024.1.5,Win32,60.0240096,6691931c2c63981b064e1f0c,6691be689f2bed992ea5e089,,,,,,,,,,,,,,,,,,,,,,,,,,,,,,,,,,,,,,,,,,,,,,,,,,,,,,,,,,,,1384.217,1390.698,0.209490741,0.219907407,1.0,0.0,0.0,0.465,compass,0.0,28.0,28.0,27.0,1.0,SoundStimuli/ShapeofYou_EdSheeran_Original5S.wav,,,,,,,,,,,,,,,,,,,,,,,,,,,,,,,,,,,,,,,,,,,,,,,,,,,
,,,,,103736,1,2024-07-12_16h39.12.788,experiment,2024.1.5,Win32,60.0240096,6691931c2c63981b064e1f0c,6691be689f2bed992ea5e089,,,,,,,,,,,,,,,,,,,,,,,,,,,,,,,,,,,,,,,,,,,,,,,,,,,,,,,,,,,,1390.7,1397.916,-0.155092593,0.137731481,1.0,0.0,0.0,1.198,compass,0.0,29.0,29.0,29.0,1.0,SoundStimuli/OldTownRoad_LilNasX_Original5S.wav,,,,,,,,,,,,,,,,,,,,,,,,,,,,,,,,,,,,,,,,,,,,,,,,,,,
,,,,,103736,1,2024-07-12_16h39.12.788,experiment,2024.1.5,Win32,60.0240096,6691931c2c63981b064e1f0c,6691be689f2bed992ea5e089,,,,,,,,,,,,,,,,,,,,,,,,,,,,,,,,,,,,,,,,,,,,,,,,,,,,,,,,,,,,1397.917,1404.851,-0.215277778,-0.244212963,1.0,0.0,0.0,0.918,compass,0.0,30.0,30.0,20.0,1.0,SoundStimuli/HeyYa_Outkast_Cover5S.wav,,,,,,,,,,,,,,,,,,,,,,,,,,,,,,,,,,,,,,,,,,,,,,,,,,,
,,,,,103736,1,2024-07-12_16h39.12.788,experiment,2024.1.5,Win32,60.0240096,6691931c2c63981b064e1f0c,6691be689f2bed992ea5e089,,,,,,,,,,,,,,,,,,,,,,,,,,,,,,,,,,,,,,,,,,,,,,,,,,,,,,,,,,,,1404.857,1411.432,0.232638889,0.138888889,1.0,0.0,0.0,0.567,compass,0.0,31.0,31.0,4.0,1.0,SoundStimuli/GetUrFreakOn_MissyElliot_Original5S.wav,,,,,,,,,,,,,,,,,,,,,,,,,,,,,,,,,,,,,,,,,,,,,,,,,,,
,,,,,103736,1,2024-07-12_16h39.12.788,experiment,2024.1.5,Win32,60.0240096,6691931c2c63981b064e1f0c,6691be689f2bed992ea5e089,,,,,,,,,,,,,,,,,,,,,,,,,,,,,,,,,,,,,,,,,,,,,,,,,,,,,,,,,,,,1411.434,1418.382,-0.12962963,-0.219907407,1.0,0.0,0.0,0.932,compass,0.0,32.0,32.0,13.0,1.0,SoundStimuli/GodOnlyKnows_TheBeachBoys_Cover5S.wav,,,,,,,,,,,,,,,,,,,,,,,,,,,,,,,,,,,,,,,,,,,,,,,,,,,
,,,,,103736,1,2024-07-12_16h39.12.788,experiment,2024.1.5,Win32,60.0240096,6691931c2c63981b064e1f0c,6691be689f2bed992ea5e089,,,,,,,,,,,,,,,,,,,,,,,,,,,,,,,,,,,,,,,,,,,,,,,,,,,,,,,,,,,,1418.383,1427.366,-0.177083333,0.193287037,1.0,0.0,0.0,2.967,compass,0.0,33.0,33.0,9.0,1.0,SoundStimuli/Despacito_LuisFonsiDaddyYankee_Cover5S.wav,,,,,,,,,,,,,,,,,,,,,,,,,,,,,,,,,,,,,,,,,,,,,,,,,,,
,,,,,103736,1,2024-07-12_16h39.12.788,experiment,2024.1.5,Win32,60.0240096,6691931c2c63981b064e1f0c,6691be689f2bed992ea5e089,,,,,,,,,,,,,,,,,,,,,,,,,,,,,,,,,,,,,,,,,,,,,,,,,,,,,,,,,,,,1427.368,1434.869,-0.166666667,-0.173611111,1.0,0.0,0.0,1.484,compass,0.0,34.0,34.0,26.0,1.0,SoundStimuli/LivinOnAPrayer_BonJovi_Cover5S.wav,,,,,,,,,,,,,,,,,,,,,,,,,,,,,,,,,,,,,,,,,,,,,,,,,,,
,,,,,103736,1,2024-07-12_16h39.12.788,experiment,2024.1.5,Win32,60.0240096,6691931c2c63981b064e1f0c,6691be689f2bed992ea5e089,,,,,,,,,,,,,,,,,,,,,,,,,,,,,,,,,,,,,,,,,,,,,,,,,,,,,,,,,,,,,,,,,,,,,,,,,,,1434.87,1434.871,,,,1434.871,1434.871,,,,0.0,3.0,3.0,3.0,1.0,block_order/blockA.xlsx,,,,,,,,,,,,,,,,,,,,,,,,,,,,,,,,,,,
,,,,,103736,1,2024-07-12_16h39.12.788,experiment,2024.1.5,Win32,60.0240096,6691931c2c63981b064e1f0c,6691be689f2bed992ea5e089,,,,,,,,,,,,,,,,,,,,,,,,,,,,,,,,,,,,,,,,,,,,,,,,,,,,,,,,,,,,,,,,,,,,,,,,,,,,,,,,,,,,,,,,,,,30.0,Item 2,not a musician,Item 2,spotify,6.0,4.0,driving and shopping,Often,Often,Often,Sometimes,Sometimes,Always,Often,Rarely,Always,Sometimes,Rarely,Always,Rarely,Often,Often,Often,rock,r&b,alternative ,paramore is still one of my top artist ,0.0,0.0,0.0,0.0,1.0,,
,,,,,103736,1,2024-07-12_16h39.12.788,experiment,2024.1.5,Win32,60.0240096,6691931c2c63981b064e1f0c,6691be689f2bed992ea5e089,,,,,,,,,,,,,,,,,,,,,,,,,,,,,,,,,,,,,,,,,,,,,,,,,,,,,,,,,,,,,,,,,,,,,,,,,,,,,,,,,,,,,,,,,,,,,,,,,,,,,,,,,,,,,,,,,,,,,,,,,,,,1610.551,1612.465
