welcome.started,welcome.stopped,space_to_continue.keys,space_to_continue.rt,space_to_continue.duration,participant,session,date,expName,psychopyVersion,OS,frameRate,STUDY_ID,SESSION_ID,consent.consent,consent.consent_recontact,consent_check.started,consent_check.stopped,calibration_ready.started,calibration_ready.stopped,cal_ready.keys,cal_ready.rt,cal_ready.duration,calibration.started,calibration.stopped,mouse.x,mouse.y,mouse.leftButton,mouse.midButton,mouse.rightButton,mouse.time,mouse.clicked_name,move_on.keys,move_on.rt,move_on.duration,run_cal.thisRepN,run_cal.thisTrialN,run_cal.thisN,run_cal.thisIndex,run_cal.ran,emotion_training_ready.started,emotion_training_ready.stopped,training_move_on.keys,training_move_on.rt,training_move_on.duration,examples.started,examples.stopped,emotion_scale.started,emotion_scale.stopped,scale_next.keys,scale_next.rt,scale_next.duration,instructions.started,instructions.stopped,next.keys,next.rt,next.duration,practice_task.started,practice_task.stopped,mouse_rating_2.x,mouse_rating_2.y,mouse_rating_2.leftButton,mouse_rating_2.midButton,mouse_rating_2.rightButton,mouse_rating_2.time,mouse_rating_2.clicked_name,ready.started,ready.stopped,key_resp.keys,key_resp.rt,key_resp.duration,set_group.started,set_group.stopped,task.started,task.stopped,mouse_rating.x,mouse_rating.y,mouse_rating.leftButton,mouse_rating.midButton,mouse_rating.rightButton,mouse_rating.time,mouse_rating.clicked_name,trials.thisRepN,trials.thisTrialN,trials.thisN,trials.thisIndex,trials.ran,clip,short_break.started,short_break.stopped,space_to_move_on.keys,space_to_move_on.rt,space_to_move_on.duration,instruction_reminder.started,instruction_reminder.stopped,reminder_move_on.keys,reminder_move_on.rt,reminder_move_on.duration,blocks.thisRepN,blocks.thisTrialN,blocks.thisN,blocks.thisIndex,blocks.ran,block,post_survey.age,post_survey.musician,post_survey.music_making,post_survey.listen_time,post_survey.medium,post_survey.music_seeking,post_survey.music_choice,post_survey.activities,post_survey.question1.A cappella,post_survey.question1.Pop,post_survey.question1.R&B,post_survey.question1.Disco,post_survey.question1.Electronic (EDM),post_survey.question1.Ambient,post_survey.question1.Latin,post_survey.question1.Country,post_survey.question1.Classic rock,post_survey.question1.Classical,post_survey.question1.Reggae,post_survey.question1.Hip hop,post_survey.question1.Metal,post_survey.question1.Alternative rock,post_survey.question1.Jazz,post_survey.question1.Folk/indie,post_survey.other_genres,post_survey.genres_ranked.text1,post_survey.genres_ranked.text2,post_survey.genres_ranked.text3,post_survey.habit_change,post_survey.habits,show_exp.thisRepN,show_exp.thisTrialN,show_exp.thisN,show_exp.thisIndex,show_exp.ran,goodbye.started,goodbye.stopped
0.0,22.664,space,22.5,,136759,1,2024-07-12_17h33.11.350,experiment,2024.1.5,Win32,59.95203837,6691931c2c63981b064e1f0c,6691aefc0a86d780d3c3ea61,,,,,,,,,,,,,,,,,,,,,,,,,,,,,,,,,,,,,,,,,,,,,,,,,,,,,,,,,,,,,,,,,,,,,,,,,,,,,,,,,,,,,,,,,,,,,,,,,,,,,,,,,,,,,,,,,,,,,,,,,,,,,,,
,,,,,136759,1,2024-07-12_17h33.11.350,experiment,2024.1.5,Win32,59.95203837,6691931c2c63981b064e1f0c,6691aefc0a86d780d3c3ea61,yes,no,,,,,,,,,,,,,,,,,,,,,,,,,,,,,,,,,,,,,,,,,,,,,,,,,,,,,,,,,,,,,,,,,,,,,,,,,,,,,,,,,,,,,,,,,,,,,,,,,,,,,,,,,,,,,,,,,,,,,,,,,,,,,
,,,,,136759,1,2024-07-12_17h33.11.350,experiment,2024.1.5,Win32,59.95203837,6691931c2c63981b064e1f0c,6691aefc0a86d780d3c3ea61,,,51.148,51.148,,,,,,,,,,,,,,,,,,,,,,,,,,,,,,,,,,,,,,,,,,,,,,,,,,,,,,,,,,,,,,,,,,,,,,,,,,,,,,,,,,,,,,,,,,,,,,,,,,,,,,,,,,,,,,,,,,,,,,,,,,,
,,,,,136759,1,2024-07-12_17h33.11.350,experiment,2024.1.5,Win32,59.95203837,6691931c2c63981b064e1f0c,6691aefc0a86d780d3c3ea61,,,,,51.15,56.68,space,5.481,,56.688,76.395,[-0.012962962962962963],[-0.4212962962962963],[1],[0],[0],[4.084000000000003],"[""play_button""]",y,18.684,,0.0,0.0,0.0,0.0,1.0,,,,,,,,,,,,,,,,,,,,,,,,,,,,,,,,,,,,,,,,,,,,,,,,,,,,,,,,,,,,,,,,,,,,,,,,,,,,,,,,,,,,,,,,,,,,,,,,,,,,,
,,,,,136759,1,2024-07-12_17h33.11.350,experiment,2024.1.5,Win32,59.95203837,6691931c2c63981b064e1f0c,6691aefc0a86d780d3c3ea61,,,,,,,,,,,,,,,,,,,,,,,,,,,76.396,142.561,space,66.079,,142.561,262.577,262.577,270.86,right,4.708,,270.86,281.108,space,10.189,,281.109,288.445,0.093518519,-0.064814815,1.0,0.0,0.0,1.319,compass_2,288.445,290.192,space,1.694,,290.192,290.192,290.211,297.642,0.050925926,0.046296296,1.0,0.0,0.0,1.417,compass,0.0,0.0,0.0,17.0,1.0,SoundStimuli/Fallin_AliciaKeys_Cover5S.wav,,,,,,,,,,,,,,,,,,,,,,,,,,,,,,,,,,,,,,,,,,,,,,,,,,,,,
,,,,,136759,1,2024-07-12_17h33.11.350,experiment,2024.1.5,Win32,59.95203837,6691931c2c63981b064e1f0c,6691aefc0a86d780d3c3ea61,,,,,,,,,,,,,,,,,,,,,,,,,,,,,,,,,,,,,,,,,,,,,,,,,,,,,,,,,,,,297.643,305.409,0.00462963,0.07037037,1.0,0.0,0.0,1.751,compass,0.0,1.0,1.0,7.0,1.0,SoundStimuli/NoOne_AliciaKeys_Original5S.wav,,,,,,,,,,,,,,,,,,,,,,,,,,,,,,,,,,,,,,,,,,,,,,,,,,,,,
,,,,,136759,1,2024-07-12_17h33.11.350,experiment,2024.1.5,Win32,59.95203837,6691931c2c63981b064e1f0c,6691aefc0a86d780d3c3ea61,,,,,,,,,,,,,,,,,,,,,,,,,,,,,,,,,,,,,,,,,,,,,,,,,,,,,,,,,,,,305.409,313.309,0.002777778,0.058333333,1.0,0.0,0.0,1.883,compass,0.0,2.0,2.0,9.0,1.0,SoundStimuli/Despacito_LuisFonsiDaddyYankee_Original5S.wav,,,,,,,,,,,,,,,,,,,,,,,,,,,,,,,,,,,,,,,,,,,,,,,,,,,,,
,,,,,136759,1,2024-07-12_17h33.11.350,experiment,2024.1.5,Win32,59.95203837,6691931c2c63981b064e1f0c,6691aefc0a86d780d3c3ea61,,,,,,,,,,,,,,,,,,,,,,,,,,,,,,,,,,,,,,,,,,,,,,,,,,,,,,,,,,,,313.309,320.658,0.014814815,0.081481481,1.0,0.0,0.0,1.333,compass,0.0,3.0,3.0,6.0,1.0,SoundStimuli/Levitating_DuaLipa_Original5S.wav,,,,,,,,,,,,,,,,,,,,,,,,,,,,,,,,,,,,,,,,,,,,,,,,,,,,,
,,,,,136759,1,2024-07-12_17h33.11.350,experiment,2024.1.5,Win32,59.95203837,6691931c2c63981b064e1f0c,6691aefc0a86d780d3c3ea61,,,,,,,,,,,,,,,,,,,,,,,,,,,,,,,,,,,,,,,,,,,,,,,,,,,,,,,,,,,,320.659,328.058,0.109259259,-0.130555556,1.0,0.0,0.0,1.384,compass,0.0,4.0,4.0,34.0,1.0,SoundStimuli/AChangeIsGonnaCome_SamCooke_Original5S.wav,,,,,,,,,,,,,,,,,,,,,,,,,,,,,,,,,,,,,,,,,,,,,,,,,,,,,
,,,,,136759,1,2024-07-12_17h33.11.350,experiment,2024.1.5,Win32,59.95203837,6691931c2c63981b064e1f0c,6691aefc0a86d780d3c3ea61,,,,,,,,,,,,,,,,,,,,,,,,,,,,,,,,,,,,,,,,,,,,,,,,,,,,,,,,,,,,328.061,336.558,0.109259259,-0.02037037,1.0,0.0,0.0,2.484,compass,0.0,5.0,5.0,33.0,1.0,SoundStimuli/StandByMe_BenEKing_Original5S.wav,,,,,,,,,,,,,,,,,,,,,,,,,,,,,,,,,,,,,,,,,,,,,,,,,,,,,
,,,,,136759,1,2024-07-12_17h33.11.350,experiment,2024.1.5,Win32,59.95203837,6691931c2c63981b064e1f0c,6691aefc0a86d780d3c3ea61,,,,,,,,,,,,,,,,,,,,,,,,,,,,,,,,,,,,,,,,,,,,,,,,,,,,,,,,,,,,336.559,344.074,0.098148148,0.146296296,1.0,0.0,0.0,1.5,compass,0.0,6.0,6.0,14.0,1.0,SoundStimuli/BlindingLights_TheWeeknd_Cover5S.wav,,,,,,,,,,,,,,,,,,,,,,,,,,,,,,,,,,,,,,,,,,,,,,,,,,,,,
,,,,,136759,1,2024-07-12_17h33.11.350,experiment,2024.1.5,Win32,59.95203837,6691931c2c63981b064e1f0c,6691aefc0a86d780d3c3ea61,,,,,,,,,,,,,,,,,,,,,,,,,,,,,,,,,,,,,,,,,,,,,,,,,,,,,,,,,,,,344.075,351.108,0.043518519,0.087037037,1.0,0.0,0.0,1.017,compass,0.0,7.0,7.0,23.0,1.0,SoundStimuli/StrawberryFieldsForever_TheBeatles_Cover5S.wav,,,,,,,,,,,,,,,,,,,,,,,,,,,,,,,,,,,,,,,,,,,,,,,,,,,,,
,,,,,136759,1,2024-07-12_17h33.11.350,experiment,2024.1.5,Win32,59.95203837,6691931c2c63981b064e1f0c,6691aefc0a86d780d3c3ea61,,,,,,,,,,,,,,,,,,,,,,,,,,,,,,,,,,,,,,,,,,,,,,,,,,,,,,,,,,,,351.109,358.525,0.074074074,0.018518519,1.0,0.0,0.0,1.4,compass,0.0,8.0,8.0,30.0,1.0,SoundStimuli/PokerFace_LadyGaga_Cover5S.wav,,,,,,,,,,,,,,,,,,,,,,,,,,,,,,,,,,,,,,,,,,,,,,,,,,,,,
,,,,,136759,1,2024-07-12_17h33.11.350,experiment,2024.1.5,Win32,59.95203837,6691931c2c63981b064e1f0c,6691aefc0a86d780d3c3ea61,,,,,,,,,,,,,,,,,,,,,,,,,,,,,,,,,,,,,,,,,,,,,,,,,,,,,,,,,,,,358.526,365.707,0.112962963,0.111111111,1.0,0.0,0.0,1.166,compass,0.0,9.0,9.0,21.0,1.0,SoundStimuli/GoodGollyMissMolly_LittleRichard_Original5S.wav,,,,,,,,,,,,,,,,,,,,,,,,,,,,,,,,,,,,,,,,,,,,,,,,,,,,,
,,,,,136759,1,2024-07-12_17h33.11.350,experiment,2024.1.5,Win32,59.95203837,6691931c2c63981b064e1f0c,6691aefc0a86d780d3c3ea61,,,,,,,,,,,,,,,,,,,,,,,,,,,,,,,,,,,,,,,,,,,,,,,,,,,,,,,,,,,,365.708,373.84,-0.090740741,-0.051851852,1.0,0.0,0.0,2.117,compass,0.0,10.0,10.0,10.0,1.0,SoundStimuli/BadDay_DanielPowter_Original5S.wav,,,,,,,,,,,,,,,,,,,,,,,,,,,,,,,,,,,,,,,,,,,,,,,,,,,,,
,,,,,136759,1,2024-07-12_17h33.11.350,experiment,2024.1.5,Win32,59.95203837,6691931c2c63981b064e1f0c,6691aefc0a86d780d3c3ea61,,,,,,,,,,,,,,,,,,,,,,,,,,,,,,,,,,,,,,,,,,,,,,,,,,,,,,,,,,,,373.841,381.74,0.002777778,-0.000925926,1.0,0.0,0.0,1.883,compass,0.0,11.0,11.0,2.0,1.0,SoundStimuli/Mood_24kGoldnianndior_Original5S.wav,,,,,,,,,,,,,,,,,,,,,,,,,,,,,,,,,,,,,,,,,,,,,,,,,,,,,
,,,,,136759,1,2024-07-12_17h33.11.350,experiment,2024.1.5,Win32,59.95203837,6691931c2c63981b064e1f0c,6691aefc0a86d780d3c3ea61,,,,,,,,,,,,,,,,,,,,,,,,,,,,,,,,,,,,,,,,,,,,,,,,,,,,,,,,,,,,381.741,390.409,-0.000925926,0.002777778,1.0,0.0,0.0,2.65,compass,0.0,12.0,12.0,5.0,1.0,SoundStimuli/MyGirl_TheTemptations_Cover5S.wav,,,,,,,,,,,,,,,,,,,,,,,,,,,,,,,,,,,,,,,,,,,,,,,,,,,,,
,,,,,136759,1,2024-07-12_17h33.11.350,experiment,2024.1.5,Win32,59.95203837,6691931c2c63981b064e1f0c,6691aefc0a86d780d3c3ea61,,,,,,,,,,,,,,,,,,,,,,,,,,,,,,,,,,,,,,,,,,,,,,,,,,,,,,,,,,,,390.413,398.124,-0.060185185,-0.041666667,1.0,0.0,0.0,1.7,compass,0.0,13.0,13.0,18.0,1.0,SoundStimuli/AnotherOneBitesTheDust_Queen_Cover5S.wav,,,,,,,,,,,,,,,,,,,,,,,,,,,,,,,,,,,,,,,,,,,,,,,,,,,,,
,,,,,136759,1,2024-07-12_17h33.11.350,experiment,2024.1.5,Win32,59.95203837,6691931c2c63981b064e1f0c,6691aefc0a86d780d3c3ea61,,,,,,,,,,,,,,,,,,,,,,,,,,,,,,,,,,,,,,,,,,,,,,,,,,,,,,,,,,,,398.125,404.591,-0.109259259,-0.053703704,1.0,0.0,0.0,0.451,compass,0.0,14.0,14.0,13.0,1.0,SoundStimuli/GodOnlyKnows_TheBeachBoys_Original5S.wav,,,,,,,,,,,,,,,,,,,,,,,,,,,,,,,,,,,,,,,,,,,,,,,,,,,,,
,,,,,136759,1,2024-07-12_17h33.11.350,experiment,2024.1.5,Win32,59.95203837,6691931c2c63981b064e1f0c,6691aefc0a86d780d3c3ea61,,,,,,,,,,,,,,,,,,,,,,,,,,,,,,,,,,,,,,,,,,,,,,,,,,,,,,,,,,,,404.591,411.257,0.012037037,0.010185185,1.0,0.0,0.0,0.65,compass,0.0,15.0,15.0,29.0,1.0,SoundStimuli/OldTownRoad_LilNasX_Cover5S.wav,,,,,,,,,,,,,,,,,,,,,,,,,,,,,,,,,,,,,,,,,,,,,,,,,,,,,
,,,,,136759,1,2024-07-12_17h33.11.350,experiment,2024.1.5,Win32,59.95203837,6691931c2c63981b064e1f0c,6691aefc0a86d780d3c3ea61,,,,,,,,,,,,,,,,,,,,,,,,,,,,,,,,,,,,,,,,,,,,,,,,,,,,,,,,,,,,411.258,418.29,0.20462963,0.262037037,1.0,0.0,0.0,1.016,compass,0.0,16.0,16.0,0.0,1.0,SoundStimuli/StayinAlive_BeeGees_Cover5S.wav,,,,,,,,,,,,,,,,,,,,,,,,,,,,,,,,,,,,,,,,,,,,,,,,,,,,,
,,,,,136759,1,2024-07-12_17h33.11.350,experiment,2024.1.5,Win32,59.95203837,6691931c2c63981b064e1f0c,6691aefc0a86d780d3c3ea61,,,,,,,,,,,,,,,,,,,,,,,,,,,,,,,,,,,,,,,,,,,,,,,,,,,,,,,,,,,,418.29,425.491,-0.000925926,0.000925926,1.0,0.0,0.0,1.198,compass,0.0,17.0,17.0,1.0,1.0,SoundStimuli/Stronger_KanyeWest_Cover5S.wav,,,,,,,,,,,,,,,,,,,,,,,,,,,,,,,,,,,,,,,,,,,,,,,,,,,,,
,,,,,136759,1,2024-07-12_17h33.11.350,experiment,2024.1.5,Win32,59.95203837,6691931c2c63981b064e1f0c,6691aefc0a86d780d3c3ea61,,,,,,,,,,,,,,,,,,,,,,,,,,,,,,,,,,,,,,,,,,,,,,,,,,,,,,,,,,,,425.492,432.524,0.161111111,0.083333333,1.0,0.0,0.0,1.017,compass,0.0,18.0,18.0,31.0,1.0,SoundStimuli/TheBattleOfNewOrleans_JohnnyHorton_Original5S.wav,,,,,,,,,,,,,,,,,,,,,,,,,,,,,,,,,,,,,,,,,,,,,,,,,,,,,
,,,,,136759,1,2024-07-12_17h33.11.350,experiment,2024.1.5,Win32,59.95203837,6691931c2c63981b064e1f0c,6691aefc0a86d780d3c3ea61,,,,,,,,,,,,,,,,,,,,,,,,,,,,,,,,,,,,,,,,,,,,,,,,,,,,,,,,,,,,432.524,439.373,0.126851852,0.144444444,1.0,0.0,0.0,0.834,compass,0.0,19.0,19.0,4.0,1.0,SoundStimuli/GetUrFreakOn_MissyElliot_Cover5S.wav,,,,,,,,,,,,,,,,,,,,,,,,,,,,,,,,,,,,,,,,,,,,,,,,,,,,,
,,,,,136759,1,2024-07-12_17h33.11.350,experiment,2024.1.5,Win32,59.95203837,6691931c2c63981b064e1f0c,6691aefc0a86d780d3c3ea61,,,,,,,,,,,,,,,,,,,,,,,,,,,,,,,,,,,,,,,,,,,,,,,,,,,,,,,,,,,,439.373,447.556,-0.023148148,0.026851852,1.0,0.0,0.0,2.182,compass,0.0,20.0,20.0,25.0,1.0,SoundStimuli/Respect_ArethaFranklin_Cover5S.wav,,,,,,,,,,,,,,,,,,,,,,,,,,,,,,,,,,,,,,,,,,,,,,,,,,,,,
,,,,,136759,1,2024-07-12_17h33.11.350,experiment,2024.1.5,Win32,59.95203837,6691931c2c63981b064e1f0c,6691aefc0a86d780d3c3ea61,,,,,,,,,,,,,,,,,,,,,,,,,,,,,,,,,,,,,,,,,,,,,,,,,,,,,,,,,,,,447.557,455.724,0.217592593,0.083333333,1.0,0.0,0.0,2.151,compass,0.0,21.0,21.0,8.0,1.0,SoundStimuli/LikeAPrayer_Madonna_Cover5S.wav,,,,,,,,,,,,,,,,,,,,,,,,,,,,,,,,,,,,,,,,,,,,,,,,,,,,,
,,,,,136759,1,2024-07-12_17h33.11.350,experiment,2024.1.5,Win32,59.95203837,6691931c2c63981b064e1f0c,6691aefc0a86d780d3c3ea61,,,,,,,,,,,,,,,,,,,,,,,,,,,,,,,,,,,,,,,,,,,,,,,,,,,,,,,,,,,,455.727,464.323,0.159259259,0.068518519,1.0,0.0,0.0,2.584,compass,0.0,22.0,22.0,16.0,1.0,SoundStimuli/BohemianRhapsody_Queen_Cover5S.wav,,,,,,,,,,,,,,,,,,,,,,,,,,,,,,,,,,,,,,,,,,,,,,,,,,,,,
,,,,,136759,1,2024-07-12_17h33.11.350,experiment,2024.1.5,Win32,59.95203837,6691931c2c63981b064e1f0c,6691aefc0a86d780d3c3ea61,,,,,,,,,,,,,,,,,,,,,,,,,,,,,,,,,,,,,,,,,,,,,,,,,,,,,,,,,,,,464.324,471.338,0.121296296,0.127777778,1.0,0.0,0.0,1.0,compass,0.0,23.0,23.0,15.0,1.0,SoundStimuli/TikTok_Kesha_Original5S.wav,,,,,,,,,,,,,,,,,,,,,,,,,,,,,,,,,,,,,,,,,,,,,,,,,,,,,
,,,,,136759,1,2024-07-12_17h33.11.350,experiment,2024.1.5,Win32,59.95203837,6691931c2c63981b064e1f0c,6691aefc0a86d780d3c3ea61,,,,,,,,,,,,,,,,,,,,,,,,,,,,,,,,,,,,,,,,,,,,,,,,,,,,,,,,,,,,471.34,478.555,0.110185185,0.131481481,1.0,0.0,0.0,1.2,compass,0.0,24.0,24.0,27.0,1.0,SoundStimuli/ShapeofYou_EdSheeran_Cover5S.wav,,,,,,,,,,,,,,,,,,,,,,,,,,,,,,,,,,,,,,,,,,,,,,,,,,,,,
,,,,,136759,1,2024-07-12_17h33.11.350,experiment,2024.1.5,Win32,59.95203837,6691931c2c63981b064e1f0c,6691aefc0a86d780d3c3ea61,,,,,,,,,,,,,,,,,,,,,,,,,,,,,,,,,,,,,,,,,,,,,,,,,,,,,,,,,,,,478.556,485.489,0.109259259,0.096296296,1.0,0.0,0.0,0.933,compass,0.0,25.0,25.0,22.0,1.0,SoundStimuli/RockWithYou_MichaelJackson_Cover5S.wav,,,,,,,,,,,,,,,,,,,,,,,,,,,,,,,,,,,,,,,,,,,,,,,,,,,,,
,,,,,136759,1,2024-07-12_17h33.11.350,experiment,2024.1.5,Win32,59.95203837,6691931c2c63981b064e1f0c,6691aefc0a86d780d3c3ea61,,,,,,,,,,,,,,,,,,,,,,,,,,,,,,,,,,,,,,,,,,,,,,,,,,,,,,,,,,,,485.489,492.206,0.346296296,0.347222222,1.0,0.0,0.0,0.715,compass,0.0,26.0,26.0,20.0,1.0,SoundStimuli/HeyYa_Outkast_Original5S.wav,,,,,,,,,,,,,,,,,,,,,,,,,,,,,,,,,,,,,,,,,,,,,,,,,,,,,
,,,,,136759,1,2024-07-12_17h33.11.350,experiment,2024.1.5,Win32,59.95203837,6691931c2c63981b064e1f0c,6691aefc0a86d780d3c3ea61,,,,,,,,,,,,,,,,,,,,,,,,,,,,,,,,,,,,,,,,,,,,,,,,,,,,,,,,,,,,492.208,501.389,0.063888889,0.043518519,1.0,0.0,0.0,3.167,compass,0.0,27.0,27.0,32.0,1.0,SoundStimuli/HeatWaves_GlassAnimals_Cover5S.wav,,,,,,,,,,,,,,,,,,,,,,,,,,,,,,,,,,,,,,,,,,,,,,,,,,,,,
,,,,,136759,1,2024-07-12_17h33.11.350,experiment,2024.1.5,Win32,59.95203837,6691931c2c63981b064e1f0c,6691aefc0a86d780d3c3ea61,,,,,,,,,,,,,,,,,,,,,,,,,,,,,,,,,,,,,,,,,,,,,,,,,,,,,,,,,,,,501.39,508.438,0.231481481,0.240740741,1.0,0.0,0.0,1.033,compass,0.0,28.0,28.0,26.0,1.0,SoundStimuli/LivinOnAPrayer_BonJovi_Original5S.wav,,,,,,,,,,,,,,,,,,,,,,,,,,,,,,,,,,,,,,,,,,,,,,,,,,,,,
,,,,,136759,1,2024-07-12_17h33.11.350,experiment,2024.1.5,Win32,59.95203837,6691931c2c63981b064e1f0c,6691aefc0a86d780d3c3ea61,,,,,,,,,,,,,,,,,,,,,,,,,,,,,,,,,,,,,,,,,,,,,,,,,,,,,,,,,,,,508.439,522.54,0.075,0.108333333,1.0,0.0,0.0,8.084,compass,0.0,29.0,29.0,3.0,1.0,SoundStimuli/NoScrubs_TLC_Cover5S.wav,,,,,,,,,,,,,,,,,,,,,,,,,,,,,,,,,,,,,,,,,,,,,,,,,,,,,
,,,,,136759,1,2024-07-12_17h33.11.350,experiment,2024.1.5,Win32,59.95203837,6691931c2c63981b064e1f0c,6691aefc0a86d780d3c3ea61,,,,,,,,,,,,,,,,,,,,,,,,,,,,,,,,,,,,,,,,,,,,,,,,,,,,,,,,,,,,522.541,529.921,0.061111111,0.059259259,1.0,0.0,0.0,1.366,compass,0.0,30.0,30.0,12.0,1.0,SoundStimuli/IWillAlwaysLoveYou_WhitneyHouston_Original5S.wav,,,,,,,,,,,,,,,,,,,,,,,,,,,,,,,,,,,,,,,,,,,,,,,,,,,,,
,,,,,136759,1,2024-07-12_17h33.11.350,experiment,2024.1.5,Win32,59.95203837,6691931c2c63981b064e1f0c,6691aefc0a86d780d3c3ea61,,,,,,,,,,,,,,,,,,,,,,,,,,,,,,,,,,,,,,,,,,,,,,,,,,,,,,,,,,,,529.922,536.489,0.208333333,0.236111111,1.0,0.0,0.0,0.551,compass,0.0,31.0,31.0,11.0,1.0,SoundStimuli/Superstition_StevieWonder_Original5S.wav,,,,,,,,,,,,,,,,,,,,,,,,,,,,,,,,,,,,,,,,,,,,,,,,,,,,,
,,,,,136759,1,2024-07-12_17h33.11.350,experiment,2024.1.5,Win32,59.95203837,6691931c2c63981b064e1f0c,6691aefc0a86d780d3c3ea61,,,,,,,,,,,,,,,,,,,,,,,,,,,,,,,,,,,,,,,,,,,,,,,,,,,,,,,,,,,,536.489,542.788,0.123148148,0.132407407,1.0,0.0,0.0,0.283,compass,0.0,32.0,32.0,28.0,1.0,SoundStimuli/ComeAndGetYourLove_Redbone_Cover5S.wav,,,,,,,,,,,,,,,,,,,,,,,,,,,,,,,,,,,,,,,,,,,,,,,,,,,,,
,,,,,136759,1,2024-07-12_17h33.11.350,experiment,2024.1.5,Win32,59.95203837,6691931c2c63981b064e1f0c,6691aefc0a86d780d3c3ea61,,,,,,,,,,,,,,,,,,,,,,,,,,,,,,,,,,,,,,,,,,,,,,,,,,,,,,,,,,,,542.789,552.021,0.108333333,0.081481481,1.0,0.0,0.0,3.217,compass,0.0,33.0,33.0,24.0,1.0,SoundStimuli/UptownFunk_MarkRonson_Cover5S.wav,,,,,,,,,,,,,,,,,,,,,,,,,,,,,,,,,,,,,,,,,,,,,,,,,,,,,
,,,,,136759,1,2024-07-12_17h33.11.350,experiment,2024.1.5,Win32,59.95203837,6691931c2c63981b064e1f0c,6691aefc0a86d780d3c3ea61,,,,,,,,,,,,,,,,,,,,,,,,,,,,,,,,,,,,,,,,,,,,,,,,,,,,,,,,,,,,552.022,559.055,0.075,0.057407407,1.0,0.0,0.0,1.017,compass,0.0,34.0,34.0,19.0,1.0,SoundStimuli/LetsGetItOn_MarvinGaye_Original5S.wav,,,,,,,,,,,,,,,,,,,,,,,,,,,,,,,,,,,,,,,,,,,,,,,,,,,,,
,,,,,136759,1,2024-07-12_17h33.11.350,experiment,2024.1.5,Win32,59.95203837,6691931c2c63981b064e1f0c,6691aefc0a86d780d3c3ea61,,,,,,,,,,,,,,,,,,,,,,,,,,,,,,,,,,,,,,,,,,,,,,,,,,,,,,,,,,,,,,,,,,,,,,,,,,,559.056,561.888,space,2.78,,561.888,569.054,right,7.147,,0.0,0.0,0.0,0.0,1.0,block_order/blockC.xlsx,,,,,,,,,,,,,,,,,,,,,,,,,,,,,,,,,,,,,
,,,,,136759,1,2024-07-12_17h33.11.350,experiment,2024.1.5,Win32,59.95203837,6691931c2c63981b064e1f0c,6691aefc0a86d780d3c3ea61,,,,,,,,,,,,,,,,,,,,,,,,,,,,,,,,,,,,,,,,,,,,,,,,,,,,,,,,,,,,569.071,577.638,-0.000925926,-0.092592593,1.0,0.0,0.0,2.55,compass,0.0,0.0,0.0,21.0,1.0,SoundStimuli/BridgeOverTroubledWater_SimonAndGarfunkel_Cover5S.wav,,,,,,,,,,,,,,,,,,,,,,,,,,,,,,,,,,,,,,,,,,,,,,,,,,,,,
,,,,,136759,1,2024-07-12_17h33.11.350,experiment,2024.1.5,Win32,59.95203837,6691931c2c63981b064e1f0c,6691aefc0a86d780d3c3ea61,,,,,,,,,,,,,,,,,,,,,,,,,,,,,,,,,,,,,,,,,,,,,,,,,,,,,,,,,,,,577.638,585.671,0.156481481,0.015740741,1.0,0.0,0.0,2.017,compass,0.0,1.0,1.0,32.0,1.0,SoundStimuli/Dilemma_NellyKellyRowland_Original5S.wav,,,,,,,,,,,,,,,,,,,,,,,,,,,,,,,,,,,,,,,,,,,,,,,,,,,,,
,,,,,136759,1,2024-07-12_17h33.11.350,experiment,2024.1.5,Win32,59.95203837,6691931c2c63981b064e1f0c,6691aefc0a86d780d3c3ea61,,,,,,,,,,,,,,,,,,,,,,,,,,,,,,,,,,,,,,,,,,,,,,,,,,,,,,,,,,,,585.672,594.772,0.196296296,0.049074074,1.0,0.0,0.0,3.084,compass,0.0,2.0,2.0,18.0,1.0,SoundStimuli/Weak_SWV_Original5S.wav,,,,,,,,,,,,,,,,,,,,,,,,,,,,,,,,,,,,,,,,,,,,,,,,,,,,,
,,,,,136759,1,2024-07-12_17h33.11.350,experiment,2024.1.5,Win32,59.95203837,6691931c2c63981b064e1f0c,6691aefc0a86d780d3c3ea61,,,,,,,,,,,,,,,,,,,,,,,,,,,,,,,,,,,,,,,,,,,,,,,,,,,,,,,,,,,,594.773,605.488,0.018518519,-0.310185185,1.0,0.0,0.0,4.701,compass,0.0,3.0,3.0,28.0,1.0,SoundStimuli/IWantToHoldYourHand_TheBeatles_Cover5S.wav,,,,,,,,,,,,,,,,,,,,,,,,,,,,,,,,,,,,,,,,,,,,,,,,,,,,,
,,,,,136759,1,2024-07-12_17h33.11.350,experiment,2024.1.5,Win32,59.95203837,6691931c2c63981b064e1f0c,6691aefc0a86d780d3c3ea61,,,,,,,,,,,,,,,,,,,,,,,,,,,,,,,,,,,,,,,,,,,,,,,,,,,,,,,,,,,,605.489,612.553,-0.302777778,-0.291666667,1.0,0.0,0.0,1.05,compass,0.0,4.0,4.0,9.0,1.0,SoundStimuli/HowDoILive_LeAnnRimes_Original5S.wav,,,,,,,,,,,,,,,,,,,,,,,,,,,,,,,,,,,,,,,,,,,,,,,,,,,,,
,,,,,136759,1,2024-07-12_17h33.11.350,experiment,2024.1.5,Win32,59.95203837,6691931c2c63981b064e1f0c,6691aefc0a86d780d3c3ea61,,,,,,,,,,,,,,,,,,,,,,,,,,,,,,,,,,,,,,,,,,,,,,,,,,,,,,,,,,,,612.554,619.703,0.081481481,-0.322222222,1.0,0.0,0.0,1.149,compass,0.0,5.0,5.0,7.0,1.0,SoundStimuli/MackTheKnife_BobbyDarin_Original5S.wav,,,,,,,,,,,,,,,,,,,,,,,,,,,,,,,,,,,,,,,,,,,,,,,,,,,,,
,,,,,136759,1,2024-07-12_17h33.11.350,experiment,2024.1.5,Win32,59.95203837,6691931c2c63981b064e1f0c,6691aefc0a86d780d3c3ea61,,,,,,,,,,,,,,,,,,,,,,,,,,,,,,,,,,,,,,,,,,,,,,,,,,,,,,,,,,,,619.704,627.321,0.150925926,-0.12962963,1.0,0.0,0.0,1.6,compass,0.0,6.0,6.0,0.0,1.0,SoundStimuli/GimmeShelter_RollingStones_Cover5S.wav,,,,,,,,,,,,,,,,,,,,,,,,,,,,,,,,,,,,,,,,,,,,,,,,,,,,,
,,,,,136759,1,2024-07-12_17h33.11.350,experiment,2024.1.5,Win32,59.95203837,6691931c2c63981b064e1f0c,6691aefc0a86d780d3c3ea61,,,,,,,,,,,,,,,,,,,,,,,,,,,,,,,,,,,,,,,,,,,,,,,,,,,,,,,,,,,,627.323,634.904,0.255555556,-0.031481481,1.0,0.0,0.0,1.567,compass,0.0,7.0,7.0,1.0,1.0,SoundStimuli/Smooth_SantanaRobThomas_Cover5S.wav,,,,,,,,,,,,,,,,,,,,,,,,,,,,,,,,,,,,,,,,,,,,,,,,,,,,,
,,,,,136759,1,2024-07-12_17h33.11.350,experiment,2024.1.5,Win32,59.95203837,6691931c2c63981b064e1f0c,6691aefc0a86d780d3c3ea61,,,,,,,,,,,,,,,,,,,,,,,,,,,,,,,,,,,,,,,,,,,,,,,,,,,,,,,,,,,,634.904,642.104,0.234259259,-0.163888889,1.0,0.0,0.0,1.2,compass,0.0,8.0,8.0,25.0,1.0,SoundStimuli/IllMakeLoveToYou_BoyzIIMen_Original5S.wav,,,,,,,,,,,,,,,,,,,,,,,,,,,,,,,,,,,,,,,,,,,,,,,,,,,,,
,,,,,136759,1,2024-07-12_17h33.11.350,experiment,2024.1.5,Win32,59.95203837,6691931c2c63981b064e1f0c,6691aefc0a86d780d3c3ea61,,,,,,,,,,,,,,,,,,,,,,,,,,,,,,,,,,,,,,,,,,,,,,,,,,,,,,,,,,,,642.105,649.07,0.250925926,-0.087037037,1.0,0.0,0.0,0.95,compass,0.0,9.0,9.0,12.0,1.0,SoundStimuli/UnbreakMyHeart_ToniBraxton_Cover5S.wav,,,,,,,,,,,,,,,,,,,,,,,,,,,,,,,,,,,,,,,,,,,,,,,,,,,,,
,,,,,136759,1,2024-07-12_17h33.11.350,experiment,2024.1.5,Win32,59.95203837,6691931c2c63981b064e1f0c,6691aefc0a86d780d3c3ea61,,,,,,,,,,,,,,,,,,,,,,,,,,,,,,,,,,,,,,,,,,,,,,,,,,,,,,,,,,,,649.071,655.887,0.231481481,0.022222222,1.0,0.0,0.0,0.8,compass,0.0,10.0,10.0,34.0,1.0,SoundStimuli/Irreplaceable_Beyonce_Original5S.wav,,,,,,,,,,,,,,,,,,,,,,,,,,,,,,,,,,,,,,,,,,,,,,,,,,,,,
,,,,,136759,1,2024-07-12_17h33.11.350,experiment,2024.1.5,Win32,59.95203837,6691931c2c63981b064e1f0c,6691aefc0a86d780d3c3ea61,,,,,,,,,,,,,,,,,,,,,,,,,,,,,,,,,,,,,,,,,,,,,,,,,,,,,,,,,,,,655.889,665.07,0.300925926,-0.234259259,1.0,0.0,0.0,3.166,compass,0.0,11.0,11.0,23.0,1.0,SoundStimuli/IWalkTheLine_JohnnyCash_Cover5S.wav,,,,,,,,,,,,,,,,,,,,,,,,,,,,,,,,,,,,,,,,,,,,,,,,,,,,,
,,,,,136759,1,2024-07-12_17h33.11.350,experiment,2024.1.5,Win32,59.95203837,6691931c2c63981b064e1f0c,6691aefc0a86d780d3c3ea61,,,,,,,,,,,,,,,,,,,,,,,,,,,,,,,,,,,,,,,,,,,,,,,,,,,,,,,,,,,,665.071,672.486,0.27962963,-0.317592593,1.0,0.0,0.0,1.4,compass,0.0,12.0,12.0,8.0,1.0,SoundStimuli/EndlessLove_DianaRossLionelRichie_Original5S.wav,,,,,,,,,,,,,,,,,,,,,,,,,,,,,,,,,,,,,,,,,,,,,,,,,,,,,
,,,,,136759,1,2024-07-12_17h33.11.350,experiment,2024.1.5,Win32,59.95203837,6691931c2c63981b064e1f0c,6691aefc0a86d780d3c3ea61,,,,,,,,,,,,,,,,,,,,,,,,,,,,,,,,,,,,,,,,,,,,,,,,,,,,,,,,,,,,672.487,679.452,0.267592593,-0.2,1.0,0.0,0.0,0.95,compass,0.0,13.0,13.0,19.0,1.0,SoundStimuli/YouLightUpMyLife_DebbyBoone_Cover5S.wav,,,,,,,,,,,,,,,,,,,,,,,,,,,,,,,,,,,,,,,,,,,,,,,,,,,,,
,,,,,136759,1,2024-07-12_17h33.11.350,experiment,2024.1.5,Win32,59.95203837,6691931c2c63981b064e1f0c,6691aefc0a86d780d3c3ea61,,,,,,,,,,,,,,,,,,,,,,,,,,,,,,,,,,,,,,,,,,,,,,,,,,,,,,,,,,,,679.453,687.105,0.17037037,0.159259259,1.0,0.0,0.0,1.636,compass,0.0,14.0,14.0,31.0,1.0,SoundStimuli/TossinAndTurnin_BobbyLewis_Cover5S.wav,,,,,,,,,,,,,,,,,,,,,,,,,,,,,,,,,,,,,,,,,,,,,,,,,,,,,
,,,,,136759,1,2024-07-12_17h33.11.350,experiment,2024.1.5,Win32,59.95203837,6691931c2c63981b064e1f0c,6691aefc0a86d780d3c3ea61,,,,,,,,,,,,,,,,,,,,,,,,,,,,,,,,,,,,,,,,,,,,,,,,,,,,,,,,,,,,687.105,695.688,0.222222222,0.215740741,1.0,0.0,0.0,2.569,compass,0.0,15.0,15.0,5.0,1.0,SoundStimuli/JoyToTheWorld_ThreeDogNight_Cover5S.wav,,,,,,,,,,,,,,,,,,,,,,,,,,,,,,,,,,,,,,,,,,,,,,,,,,,,,
,,,,,136759,1,2024-07-12_17h33.11.350,experiment,2024.1.5,Win32,59.95203837,6691931c2c63981b064e1f0c,6691aefc0a86d780d3c3ea61,,,,,,,,,,,,,,,,,,,,,,,,,,,,,,,,,,,,,,,,,,,,,,,,,,,,,,,,,,,,695.69,702.385,0.222222222,0.215740741,1.0,0.0,0.0,0.683,compass,0.0,16.0,16.0,20.0,1.0,SoundStimuli/FlashdanceWhatAFeeling_IreneCara_Cover5S.wav,,,,,,,,,,,,,,,,,,,,,,,,,,,,,,,,,,,,,,,,,,,,,,,,,,,,,
,,,,,136759,1,2024-07-12_17h33.11.350,experiment,2024.1.5,Win32,59.95203837,6691931c2c63981b064e1f0c,6691aefc0a86d780d3c3ea61,,,,,,,,,,,,,,,,,,,,,,,,,,,,,,,,,,,,,,,,,,,,,,,,,,,,,,,,,,,,702.386,710.385,0.164814815,0.17037037,1.0,0.0,0.0,1.984,compass,0.0,17.0,17.0,6.0,1.0,SoundStimuli/SaveYourTears_TheWeekndArianaGrande_Original5S.wav,,,,,,,,,,,,,,,,,,,,,,,,,,,,,,,,,,,,,,,,,,,,,,,,,,,,,
,,,,,136759,1,2024-07-12_17h33.11.350,experiment,2024.1.5,Win32,59.95203837,6691931c2c63981b064e1f0c,6691aefc0a86d780d3c3ea61,,,,,,,,,,,,,,,,,,,,,,,,,,,,,,,,,,,,,,,,,,,,,,,,,,,,,,,,,,,,710.386,723.719,-0.287962963,0.025925926,1.0,0.0,0.0,7.318,compass,0.0,18.0,18.0,30.0,1.0,SoundStimuli/SomebodyThatIUsedtoKnow_Gotye_Cover5S.wav,,,,,,,,,,,,,,,,,,,,,,,,,,,,,,,,,,,,,,,,,,,,,,,,,,,,,
,,,,,136759,1,2024-07-12_17h33.11.350,experiment,2024.1.5,Win32,59.95203837,6691931c2c63981b064e1f0c,6691aefc0a86d780d3c3ea61,,,,,,,,,,,,,,,,,,,,,,,,,,,,,,,,,,,,,,,,,,,,,,,,,,,,,,,,,,,,723.72,730.135,0.144444444,-0.148148148,1.0,0.0,0.0,0.4,compass,0.0,19.0,19.0,29.0,1.0,SoundStimuli/BetteDavisEyes_KimCarnes_Cover5S.wav,,,,,,,,,,,,,,,,,,,,,,,,,,,,,,,,,,,,,,,,,,,,,,,,,,,,,
,,,,,136759,1,2024-07-12_17h33.11.350,experiment,2024.1.5,Win32,59.95203837,6691931c2c63981b064e1f0c,6691aefc0a86d780d3c3ea61,,,,,,,,,,,,,,,,,,,,,,,,,,,,,,,,,,,,,,,,,,,,,,,,,,,,,,,,,,,,730.137,739.569,-0.305555556,-0.125,1.0,0.0,0.0,3.418,compass,0.0,20.0,20.0,2.0,1.0,SoundStimuli/SmellsLikeTeenSpirit_Nirvana_Cover5S.wav,,,,,,,,,,,,,,,,,,,,,,,,,,,,,,,,,,,,,,,,,,,,,,,,,,,,,
,,,,,136759,1,2024-07-12_17h33.11.350,experiment,2024.1.5,Win32,59.95203837,6691931c2c63981b064e1f0c,6691aefc0a86d780d3c3ea61,,,,,,,,,,,,,,,,,,,,,,,,,,,,,,,,,,,,,,,,,,,,,,,,,,,,,,,,,,,,739.57,748.351,0.24537037,0.060185185,1.0,0.0,0.0,2.767,compass,0.0,21.0,21.0,26.0,1.0,SoundStimuli/TheSign_AceOfBase_Original5S.wav,,,,,,,,,,,,,,,,,,,,,,,,,,,,,,,,,,,,,,,,,,,,,,,,,,,,,
,,,,,136759,1,2024-07-12_17h33.11.350,experiment,2024.1.5,Win32,59.95203837,6691931c2c63981b064e1f0c,6691aefc0a86d780d3c3ea61,,,,,,,,,,,,,,,,,,,,,,,,,,,,,,,,,,,,,,,,,,,,,,,,,,,,,,,,,,,,748.352,755.302,0.314814815,-0.262037037,1.0,0.0,0.0,0.934,compass,0.0,22.0,22.0,17.0,1.0,SoundStimuli/IWannaDanceWithSomebody_WhitneyHouston_Cover5S.wav,,,,,,,,,,,,,,,,,,,,,,,,,,,,,,,,,,,,,,,,,,,,,,,,,,,,,
,,,,,136759,1,2024-07-12_17h33.11.350,experiment,2024.1.5,Win32,59.95203837,6691931c2c63981b064e1f0c,6691aefc0a86d780d3c3ea61,,,,,,,,,,,,,,,,,,,,,,,,,,,,,,,,,,,,,,,,,,,,,,,,,,,,,,,,,,,,755.304,764.485,0.05,-0.244444444,1.0,0.0,0.0,3.167,compass,0.0,23.0,23.0,13.0,1.0,SoundStimuli/Perfect_EdSheeran_Original5S.wav,,,,,,,,,,,,,,,,,,,,,,,,,,,,,,,,,,,,,,,,,,,,,,,,,,,,,
,,,,,136759,1,2024-07-12_17h33.11.350,experiment,2024.1.5,Win32,59.95203837,6691931c2c63981b064e1f0c,6691aefc0a86d780d3c3ea61,,,,,,,,,,,,,,,,,,,,,,,,,,,,,,,,,,,,,,,,,,,,,,,,,,,,,,,,,,,,764.485,771.185,0.087962963,-0.086111111,1.0,0.0,0.0,0.683,compass,0.0,24.0,24.0,4.0,1.0,SoundStimuli/Dreams_FleetwoodMac_Cover5S.wav,,,,,,,,,,,,,,,,,,,,,,,,,,,,,,,,,,,,,,,,,,,,,,,,,,,,,
,,,,,136759,1,2024-07-12_17h33.11.350,experiment,2024.1.5,Win32,59.95203837,6691931c2c63981b064e1f0c,6691aefc0a86d780d3c3ea61,,,,,,,,,,,,,,,,,,,,,,,,,,,,,,,,,,,,,,,,,,,,,,,,,,,,,,,,,,,,771.185,777.768,0.241666667,-0.189814815,1.0,0.0,0.0,0.567,compass,0.0,25.0,25.0,14.0,1.0,SoundStimuli/LikeARollingStone_BobDylan_Cover5S.wav,,,,,,,,,,,,,,,,,,,,,,,,,,,,,,,,,,,,,,,,,,,,,,,,,,,,,
,,,,,136759,1,2024-07-12_17h33.11.350,experiment,2024.1.5,Win32,59.95203837,6691931c2c63981b064e1f0c,6691aefc0a86d780d3c3ea61,,,,,,,,,,,,,,,,,,,,,,,,,,,,,,,,,,,,,,,,,,,,,,,,,,,,,,,,,,,,777.768,784.984,0.287037037,-0.061111111,1.0,0.0,0.0,1.2,compass,0.0,26.0,26.0,33.0,1.0,SoundStimuli/TheBoyIsMine_BrandyMonica_Cover5S.wav,,,,,,,,,,,,,,,,,,,,,,,,,,,,,,,,,,,,,,,,,,,,,,,,,,,,,
,,,,,136759,1,2024-07-12_17h33.11.350,experiment,2024.1.5,Win32,59.95203837,6691931c2c63981b064e1f0c,6691aefc0a86d780d3c3ea61,,,,,,,,,,,,,,,,,,,,,,,,,,,,,,,,,,,,,,,,,,,,,,,,,,,,,,,,,,,,784.985,794.685,0.328703704,-0.032407407,1.0,0.0,0.0,3.683,compass,0.0,27.0,27.0,10.0,1.0,SoundStimuli/LeFreak_Chic_Original5S.wav,,,,,,,,,,,,,,,,,,,,,,,,,,,,,,,,,,,,,,,,,,,,,,,,,,,,,
,,,,,136759,1,2024-07-12_17h33.11.350,experiment,2024.1.5,Win32,59.95203837,6691931c2c63981b064e1f0c,6691aefc0a86d780d3c3ea61,,,,,,,,,,,,,,,,,,,,,,,,,,,,,,,,,,,,,,,,,,,,,,,,,,,,,,,,,,,,794.687,801.25,0.330555556,0.042592593,1.0,0.0,0.0,0.549,compass,0.0,28.0,28.0,11.0,1.0,SoundStimuli/BlurredLines_RobinThicke_Original5S.wav,,,,,,,,,,,,,,,,,,,,,,,,,,,,,,,,,,,,,,,,,,,,,,,,,,,,,
,,,,,136759,1,2024-07-12_17h33.11.350,experiment,2024.1.5,Win32,59.95203837,6691931c2c63981b064e1f0c,6691aefc0a86d780d3c3ea61,,,,,,,,,,,,,,,,,,,,,,,,,,,,,,,,,,,,,,,,,,,,,,,,,,,,,,,,,,,,801.251,811.167,0.27962963,0.017592593,1.0,0.0,0.0,3.899,compass,0.0,29.0,29.0,3.0,1.0,SoundStimuli/PartyRockAnthem_LMFAO_Cover5S.wav,,,,,,,,,,,,,,,,,,,,,,,,,,,,,,,,,,,,,,,,,,,,,,,,,,,,,
,,,,,136759,1,2024-07-12_17h33.11.350,experiment,2024.1.5,Win32,59.95203837,6691931c2c63981b064e1f0c,6691aefc0a86d780d3c3ea61,,,,,,,,,,,,,,,,,,,,,,,,,,,,,,,,,,,,,,,,,,,,,,,,,,,,,,,,,,,,811.167,818.0,0.301851852,0.134259259,1.0,0.0,0.0,0.833,compass,0.0,30.0,30.0,24.0,1.0,SoundStimuli/Kiss_Prince_Original5S.wav,,,,,,,,,,,,,,,,,,,,,,,,,,,,,,,,,,,,,,,,,,,,,,,,,,,,,
,,,,,136759,1,2024-07-12_17h33.11.350,experiment,2024.1.5,Win32,59.95203837,6691931c2c63981b064e1f0c,6691aefc0a86d780d3c3ea61,,,,,,,,,,,,,,,,,,,,,,,,,,,,,,,,,,,,,,,,,,,,,,,,,,,,,,,,,,,,818.001,825.336,0.275925926,0.17037037,1.0,0.0,0.0,1.318,compass,0.0,31.0,31.0,15.0,1.0,SoundStimuli/CrazyInLove_BeyonceFtJayZ_Original5S.wav,,,,,,,,,,,,,,,,,,,,,,,,,,,,,,,,,,,,,,,,,,,,,,,,,,,,,
,,,,,136759,1,2024-07-12_17h33.11.350,experiment,2024.1.5,Win32,59.95203837,6691931c2c63981b064e1f0c,6691aefc0a86d780d3c3ea61,,,,,,,,,,,,,,,,,,,,,,,,,,,,,,,,,,,,,,,,,,,,,,,,,,,,,,,,,,,,825.339,832.05,0.266666667,-0.069444444,1.0,0.0,0.0,0.701,compass,0.0,32.0,32.0,16.0,1.0,SoundStimuli/ItsAllInTheGame_TommyEdwards_Original5S.wav,,,,,,,,,,,,,,,,,,,,,,,,,,,,,,,,,,,,,,,,,,,,,,,,,,,,,
,,,,,136759,1,2024-07-12_17h33.11.350,experiment,2024.1.5,Win32,59.95203837,6691931c2c63981b064e1f0c,6691aefc0a86d780d3c3ea61,,,,,,,,,,,,,,,,,,,,,,,,,,,,,,,,,,,,,,,,,,,,,,,,,,,,,,,,,,,,832.051,838.1,0.344444444,0.028703704,1.0,0.0,0.0,0.033,compass,0.0,33.0,33.0,22.0,1.0,SoundStimuli/Happy_PharellWilliams_Cover5S.wav,,,,,,,,,,,,,,,,,,,,,,,,,,,,,,,,,,,,,,,,,,,,,,,,,,,,,
,,,,,136759,1,2024-07-12_17h33.11.350,experiment,2024.1.5,Win32,59.95203837,6691931c2c63981b064e1f0c,6691aefc0a86d780d3c3ea61,,,,,,,,,,,,,,,,,,,,,,,,,,,,,,,,,,,,,,,,,,,,,,,,,,,,,,,,,,,,838.1,846.834,0.323148148,0.096296296,1.0,0.0,0.0,2.733,compass,0.0,34.0,34.0,27.0,1.0,SoundStimuli/EyeOfTheTiger_Survivor_Original5S.wav,,,,,,,,,,,,,,,,,,,,,,,,,,,,,,,,,,,,,,,,,,,,,,,,,,,,,
,,,,,136759,1,2024-07-12_17h33.11.350,experiment,2024.1.5,Win32,59.95203837,6691931c2c63981b064e1f0c,6691aefc0a86d780d3c3ea61,,,,,,,,,,,,,,,,,,,,,,,,,,,,,,,,,,,,,,,,,,,,,,,,,,,,,,,,,,,,,,,,,,,,,,,,,,,846.834,851.284,space,4.431,,851.284,854.199,right,2.891,,0.0,1.0,1.0,1.0,1.0,block_order/blockB.xlsx,,,,,,,,,,,,,,,,,,,,,,,,,,,,,,,,,,,,,
,,,,,136759,1,2024-07-12_17h33.11.350,experiment,2024.1.5,Win32,59.95203837,6691931c2c63981b064e1f0c,6691aefc0a86d780d3c3ea61,,,,,,,,,,,,,,,,,,,,,,,,,,,,,,,,,,,,,,,,,,,,,,,,,,,,,,,,,,,,854.211,865.434,0.057407407,-0.167592593,1.0,0.0,0.0,5.218,compass,0.0,0.0,0.0,26.0,1.0,SoundStimuli/LivinOnAPrayer_BonJovi_Cover5S.wav,,,,,,,,,,,,,,,,,,,,,,,,,,,,,,,,,,,,,,,,,,,,,,,,,,,,,
,,,,,136759,1,2024-07-12_17h33.11.350,experiment,2024.1.5,Win32,59.95203837,6691931c2c63981b064e1f0c,6691aefc0a86d780d3c3ea61,,,,,,,,,,,,,,,,,,,,,,,,,,,,,,,,,,,,,,,,,,,,,,,,,,,,,,,,,,,,865.437,872.083,0.321296296,-0.040740741,1.0,0.0,0.0,0.633,compass,0.0,1.0,1.0,5.0,1.0,SoundStimuli/MyGirl_TheTemptations_Original5S.wav,,,,,,,,,,,,,,,,,,,,,,,,,,,,,,,,,,,,,,,,,,,,,,,,,,,,,
,,,,,136759,1,2024-07-12_17h33.11.350,experiment,2024.1.5,Win32,59.95203837,6691931c2c63981b064e1f0c,6691aefc0a86d780d3c3ea61,,,,,,,,,,,,,,,,,,,,,,,,,,,,,,,,,,,,,,,,,,,,,,,,,,,,,,,,,,,,872.084,880.583,-0.013888889,-0.171296296,1.0,0.0,0.0,2.484,compass,0.0,2.0,2.0,13.0,1.0,SoundStimuli/GodOnlyKnows_TheBeachBoys_Cover5S.wav,,,,,,,,,,,,,,,,,,,,,,,,,,,,,,,,,,,,,,,,,,,,,,,,,,,,,
,,,,,136759,1,2024-07-12_17h33.11.350,experiment,2024.1.5,Win32,59.95203837,6691931c2c63981b064e1f0c,6691aefc0a86d780d3c3ea61,,,,,,,,,,,,,,,,,,,,,,,,,,,,,,,,,,,,,,,,,,,,,,,,,,,,,,,,,,,,880.584,886.765,0.165740741,-0.110185185,1.0,0.0,0.0,0.167,compass,0.0,3.0,3.0,11.0,1.0,SoundStimuli/Superstition_StevieWonder_Cover5S.wav,,,,,,,,,,,,,,,,,,,,,,,,,,,,,,,,,,,,,,,,,,,,,,,,,,,,,
,,,,,136759,1,2024-07-12_17h33.11.350,experiment,2024.1.5,Win32,59.95203837,6691931c2c63981b064e1f0c,6691aefc0a86d780d3c3ea61,,,,,,,,,,,,,,,,,,,,,,,,,,,,,,,,,,,,,,,,,,,,,,,,,,,,,,,,,,,,886.767,894.417,0.323148148,-0.010185185,1.0,0.0,0.0,1.633,compass,0.0,4.0,4.0,28.0,1.0,SoundStimuli/ComeAndGetYourLove_Redbone_Original5S.wav,,,,,,,,,,,,,,,,,,,,,,,,,,,,,,,,,,,,,,,,,,,,,,,,,,,,,
,,,,,136759,1,2024-07-12_17h33.11.350,experiment,2024.1.5,Win32,59.95203837,6691931c2c63981b064e1f0c,6691aefc0a86d780d3c3ea61,,,,,,,,,,,,,,,,,,,,,,,,,,,,,,,,,,,,,,,,,,,,,,,,,,,,,,,,,,,,894.418,901.067,0.330555556,0.089814815,1.0,0.0,0.0,0.635,compass,0.0,5.0,5.0,8.0,1.0,SoundStimuli/LikeAPrayer_Madonna_Original5S.wav,,,,,,,,,,,,,,,,,,,,,,,,,,,,,,,,,,,,,,,,,,,,,,,,,,,,,
,,,,,136759,1,2024-07-12_17h33.11.350,experiment,2024.1.5,Win32,59.95203837,6691931c2c63981b064e1f0c,6691aefc0a86d780d3c3ea61,,,,,,,,,,,,,,,,,,,,,,,,,,,,,,,,,,,,,,,,,,,,,,,,,,,,,,,,,,,,901.067,909.399,-0.100925926,-0.133333333,1.0,0.0,0.0,2.316,compass,0.0,6.0,6.0,10.0,1.0,SoundStimuli/BadDay_DanielPowter_Cover5S.wav,,,,,,,,,,,,,,,,,,,,,,,,,,,,,,,,,,,,,,,,,,,,,,,,,,,,,
,,,,,136759,1,2024-07-12_17h33.11.350,experiment,2024.1.5,Win32,59.95203837,6691931c2c63981b064e1f0c,6691aefc0a86d780d3c3ea61,,,,,,,,,,,,,,,,,,,,,,,,,,,,,,,,,,,,,,,,,,,,,,,,,,,,,,,,,,,,909.4,916.882,0.137037037,0.159259259,1.0,0.0,0.0,1.467,compass,0.0,7.0,7.0,24.0,1.0,SoundStimuli/UptownFunk_MarkRonson_Original5S.wav,,,,,,,,,,,,,,,,,,,,,,,,,,,,,,,,,,,,,,,,,,,,,,,,,,,,,
,,,,,136759,1,2024-07-12_17h33.11.350,experiment,2024.1.5,Win32,59.95203837,6691931c2c63981b064e1f0c,6691aefc0a86d780d3c3ea61,,,,,,,,,,,,,,,,,,,,,,,,,,,,,,,,,,,,,,,,,,,,,,,,,,,,,,,,,,,,916.884,925.383,-0.246296296,-0.228703704,1.0,0.0,0.0,2.484,compass,0.0,8.0,8.0,19.0,1.0,SoundStimuli/LetsGetItOn_MarvinGaye_Cover5S.wav,,,,,,,,,,,,,,,,,,,,,,,,,,,,,,,,,,,,,,,,,,,,,,,,,,,,,
,,,,,136759,1,2024-07-12_17h33.11.350,experiment,2024.1.5,Win32,59.95203837,6691931c2c63981b064e1f0c,6691aefc0a86d780d3c3ea61,,,,,,,,,,,,,,,,,,,,,,,,,,,,,,,,,,,,,,,,,,,,,,,,,,,,,,,,,,,,925.386,931.799,0.22037037,-0.287962963,1.0,0.0,0.0,0.4,compass,0.0,9.0,9.0,34.0,1.0,SoundStimuli/AChangeIsGonnaCome_SamCooke_Cover5S.wav,,,,,,,,,,,,,,,,,,,,,,,,,,,,,,,,,,,,,,,,,,,,,,,,,,,,,
,,,,,136759,1,2024-07-12_17h33.11.350,experiment,2024.1.5,Win32,59.95203837,6691931c2c63981b064e1f0c,6691aefc0a86d780d3c3ea61,,,,,,,,,,,,,,,,,,,,,,,,,,,,,,,,,,,,,,,,,,,,,,,,,,,,,,,,,,,,931.8,938.885,0.260185185,-0.282407407,1.0,0.0,0.0,1.085,compass,0.0,10.0,10.0,32.0,1.0,SoundStimuli/HeatWaves_GlassAnimals_Original5S.wav,,,,,,,,,,,,,,,,,,,,,,,,,,,,,,,,,,,,,,,,,,,,,,,,,,,,,
,,,,,136759,1,2024-07-12_17h33.11.350,experiment,2024.1.5,Win32,59.95203837,6691931c2c63981b064e1f0c,6691aefc0a86d780d3c3ea61,,,,,,,,,,,,,,,,,,,,,,,,,,,,,,,,,,,,,,,,,,,,,,,,,,,,,,,,,,,,938.886,947.748,0.0,0.001851852,1.0,0.0,0.0,2.85,compass,0.0,11.0,11.0,31.0,1.0,SoundStimuli/TheBattleOfNewOrleans_JohnnyHorton_Cover5S.wav,,,,,,,,,,,,,,,,,,,,,,,,,,,,,,,,,,,,,,,,,,,,,,,,,,,,,
,,,,,136759,1,2024-07-12_17h33.11.350,experiment,2024.1.5,Win32,59.95203837,6691931c2c63981b064e1f0c,6691aefc0a86d780d3c3ea61,,,,,,,,,,,,,,,,,,,,,,,,,,,,,,,,,,,,,,,,,,,,,,,,,,,,,,,,,,,,947.749,956.532,0.075925926,-0.241666667,1.0,0.0,0.0,2.767,compass,0.0,12.0,12.0,9.0,1.0,SoundStimuli/Despacito_LuisFonsiDaddyYankee_Cover5S.wav,,,,,,,,,,,,,,,,,,,,,,,,,,,,,,,,,,,,,,,,,,,,,,,,,,,,,
,,,,,136759,1,2024-07-12_17h33.11.350,experiment,2024.1.5,Win32,59.95203837,6691931c2c63981b064e1f0c,6691aefc0a86d780d3c3ea61,,,,,,,,,,,,,,,,,,,,,,,,,,,,,,,,,,,,,,,,,,,,,,,,,,,,,,,,,,,,956.532,968.348,0.0,0.265740741,1.0,0.0,0.0,5.801,compass,0.0,13.0,13.0,6.0,1.0,SoundStimuli/Levitating_DuaLipa_Cover5S.wav,,,,,,,,,,,,,,,,,,,,,,,,,,,,,,,,,,,,,,,,,,,,,,,,,,,,,
,,,,,136759,1,2024-07-12_17h33.11.350,experiment,2024.1.5,Win32,59.95203837,6691931c2c63981b064e1f0c,6691aefc0a86d780d3c3ea61,,,,,,,,,,,,,,,,,,,,,,,,,,,,,,,,,,,,,,,,,,,,,,,,,,,,,,,,,,,,968.35,978.148,-0.001851852,-0.322222222,1.0,0.0,0.0,3.783,compass,0.0,14.0,14.0,15.0,1.0,SoundStimuli/TikTok_Kesha_Cover5S.wav,,,,,,,,,,,,,,,,,,,,,,,,,,,,,,,,,,,,,,,,,,,,,,,,,,,,,
,,,,,136759,1,2024-07-12_17h33.11.350,experiment,2024.1.5,Win32,59.95203837,6691931c2c63981b064e1f0c,6691aefc0a86d780d3c3ea61,,,,,,,,,,,,,,,,,,,,,,,,,,,,,,,,,,,,,,,,,,,,,,,,,,,,,,,,,,,,978.148,984.714,0.292592593,0.198148148,1.0,0.0,0.0,0.55,compass,0.0,15.0,15.0,14.0,1.0,SoundStimuli/BlindingLights_TheWeeknd_Original5S.wav,,,,,,,,,,,,,,,,,,,,,,,,,,,,,,,,,,,,,,,,,,,,,,,,,,,,,
,,,,,136759,1,2024-07-12_17h33.11.350,experiment,2024.1.5,Win32,59.95203837,6691931c2c63981b064e1f0c,6691aefc0a86d780d3c3ea61,,,,,,,,,,,,,,,,,,,,,,,,,,,,,,,,,,,,,,,,,,,,,,,,,,,,,,,,,,,,984.715,992.265,0.32962963,-0.177777778,1.0,0.0,0.0,1.534,compass,0.0,16.0,16.0,12.0,1.0,SoundStimuli/IWillAlwaysLoveYou_WhitneyHouston_Cover5S.wav,,,,,,,,,,,,,,,,,,,,,,,,,,,,,,,,,,,,,,,,,,,,,,,,,,,,,
,,,,,136759,1,2024-07-12_17h33.11.350,experiment,2024.1.5,Win32,59.95203837,6691931c2c63981b064e1f0c,6691aefc0a86d780d3c3ea61,,,,,,,,,,,,,,,,,,,,,,,,,,,,,,,,,,,,,,,,,,,,,,,,,,,,,,,,,,,,992.267,1000.548,-0.087962963,-0.276851852,1.0,0.0,0.0,2.268,compass,0.0,17.0,17.0,2.0,1.0,SoundStimuli/Mood_24kGoldnianndior_Cover5S.wav,,,,,,,,,,,,,,,,,,,,,,,,,,,,,,,,,,,,,,,,,,,,,,,,,,,,,
,,,,,136759,1,2024-07-12_17h33.11.350,experiment,2024.1.5,Win32,59.95203837,6691931c2c63981b064e1f0c,6691aefc0a86d780d3c3ea61,,,,,,,,,,,,,,,,,,,,,,,,,,,,,,,,,,,,,,,,,,,,,,,,,,,,,,,,,,,,1000.549,1008.264,0.138888889,0.188888889,1.0,0.0,0.0,1.7,compass,0.0,18.0,18.0,25.0,1.0,SoundStimuli/Respect_ArethaFranklin_Original5S.wav,,,,,,,,,,,,,,,,,,,,,,,,,,,,,,,,,,,,,,,,,,,,,,,,,,,,,
,,,,,136759,1,2024-07-12_17h33.11.350,experiment,2024.1.5,Win32,59.95203837,6691931c2c63981b064e1f0c,6691aefc0a86d780d3c3ea61,,,,,,,,,,,,,,,,,,,,,,,,,,,,,,,,,,,,,,,,,,,,,,,,,,,,,,,,,,,,1008.265,1016.714,0.182407407,0.069444444,1.0,0.0,0.0,2.434,compass,0.0,19.0,19.0,22.0,1.0,SoundStimuli/RockWithYou_MichaelJackson_Original5S.wav,,,,,,,,,,,,,,,,,,,,,,,,,,,,,,,,,,,,,,,,,,,,,,,,,,,,,
,,,,,136759,1,2024-07-12_17h33.11.350,experiment,2024.1.5,Win32,59.95203837,6691931c2c63981b064e1f0c,6691aefc0a86d780d3c3ea61,,,,,,,,,,,,,,,,,,,,,,,,,,,,,,,,,,,,,,,,,,,,,,,,,,,,,,,,,,,,1016.715,1025.233,0.321296296,-0.27037037,1.0,0.0,0.0,2.501,compass,0.0,20.0,20.0,23.0,1.0,SoundStimuli/StrawberryFieldsForever_TheBeatles_Original5S.wav,,,,,,,,,,,,,,,,,,,,,,,,,,,,,,,,,,,,,,,,,,,,,,,,,,,,,
,,,,,136759,1,2024-07-12_17h33.11.350,experiment,2024.1.5,Win32,59.95203837,6691931c2c63981b064e1f0c,6691aefc0a86d780d3c3ea61,,,,,,,,,,,,,,,,,,,,,,,,,,,,,,,,,,,,,,,,,,,,,,,,,,,,,,,,,,,,1025.236,1034.247,-0.228703704,-0.013888889,1.0,0.0,0.0,3.001,compass,0.0,21.0,21.0,16.0,1.0,SoundStimuli/BohemianRhapsody_Queen_Original5S.wav,,,,,,,,,,,,,,,,,,,,,,,,,,,,,,,,,,,,,,,,,,,,,,,,,,,,,
,,,,,136759,1,2024-07-12_17h33.11.350,experiment,2024.1.5,Win32,59.95203837,6691931c2c63981b064e1f0c,6691aefc0a86d780d3c3ea61,,,,,,,,,,,,,,,,,,,,,,,,,,,,,,,,,,,,,,,,,,,,,,,,,,,,,,,,,,,,1034.248,1042.763,0.081481481,0.180555556,1.0,0.0,0.0,2.5,compass,0.0,22.0,22.0,30.0,1.0,SoundStimuli/PokerFace_LadyGaga_Original5S.wav,,,,,,,,,,,,,,,,,,,,,,,,,,,,,,,,,,,,,,,,,,,,,,,,,,,,,
,,,,,136759,1,2024-07-12_17h33.11.350,experiment,2024.1.5,Win32,59.95203837,6691931c2c63981b064e1f0c,6691aefc0a86d780d3c3ea61,,,,,,,,,,,,,,,,,,,,,,,,,,,,,,,,,,,,,,,,,,,,,,,,,,,,,,,,,,,,1042.764,1049.846,0.302777778,-0.030555556,1.0,0.0,0.0,1.082,compass,0.0,23.0,23.0,27.0,1.0,SoundStimuli/ShapeofYou_EdSheeran_Original5S.wav,,,,,,,,,,,,,,,,,,,,,,,,,,,,,,,,,,,,,,,,,,,,,,,,,,,,,
,,,,,136759,1,2024-07-12_17h33.11.350,experiment,2024.1.5,Win32,59.95203837,6691931c2c63981b064e1f0c,6691aefc0a86d780d3c3ea61,,,,,,,,,,,,,,,,,,,,,,,,,,,,,,,,,,,,,,,,,,,,,,,,,,,,,,,,,,,,1049.847,1057.798,0.2,-0.189814815,1.0,0.0,0.0,1.934,compass,0.0,24.0,24.0,17.0,1.0,SoundStimuli/Fallin_AliciaKeys_Original5S.wav,,,,,,,,,,,,,,,,,,,,,,,,,,,,,,,,,,,,,,,,,,,,,,,,,,,,,
,,,,,136759,1,2024-07-12_17h33.11.350,experiment,2024.1.5,Win32,59.95203837,6691931c2c63981b064e1f0c,6691aefc0a86d780d3c3ea61,,,,,,,,,,,,,,,,,,,,,,,,,,,,,,,,,,,,,,,,,,,,,,,,,,,,,,,,,,,,1057.8,1068.03,-0.106481481,0.084259259,1.0,0.0,0.0,4.216,compass,0.0,25.0,25.0,3.0,1.0,SoundStimuli/NoScrubs_TLC_Original5S.wav,,,,,,,,,,,,,,,,,,,,,,,,,,,,,,,,,,,,,,,,,,,,,,,,,,,,,
,,,,,136759,1,2024-07-12_17h33.11.350,experiment,2024.1.5,Win32,59.95203837,6691931c2c63981b064e1f0c,6691aefc0a86d780d3c3ea61,,,,,,,,,,,,,,,,,,,,,,,,,,,,,,,,,,,,,,,,,,,,,,,,,,,,,,,,,,,,1068.031,1074.863,0.228703704,0.078703704,1.0,0.0,0.0,0.817,compass,0.0,26.0,26.0,18.0,1.0,SoundStimuli/AnotherOneBitesTheDust_Queen_Original5S.wav,,,,,,,,,,,,,,,,,,,,,,,,,,,,,,,,,,,,,,,,,,,,,,,,,,,,,
,,,,,136759,1,2024-07-12_17h33.11.350,experiment,2024.1.5,Win32,59.95203837,6691931c2c63981b064e1f0c,6691aefc0a86d780d3c3ea61,,,,,,,,,,,,,,,,,,,,,,,,,,,,,,,,,,,,,,,,,,,,,,,,,,,,,,,,,,,,1074.864,1081.397,0.132407407,0.275925926,1.0,0.0,0.0,0.532,compass,0.0,27.0,27.0,0.0,1.0,SoundStimuli/StayinAlive_BeeGees_Original5S.wav,,,,,,,,,,,,,,,,,,,,,,,,,,,,,,,,,,,,,,,,,,,,,,,,,,,,,
,,,,,136759,1,2024-07-12_17h33.11.350,experiment,2024.1.5,Win32,59.95203837,6691931c2c63981b064e1f0c,6691aefc0a86d780d3c3ea61,,,,,,,,,,,,,,,,,,,,,,,,,,,,,,,,,,,,,,,,,,,,,,,,,,,,,,,,,,,,1081.399,1089.03,0.022222222,-0.125925926,1.0,0.0,0.0,1.616,compass,0.0,28.0,28.0,33.0,1.0,SoundStimuli/StandByMe_BenEKing_Cover5S.wav,,,,,,,,,,,,,,,,,,,,,,,,,,,,,,,,,,,,,,,,,,,,,,,,,,,,,
,,,,,136759,1,2024-07-12_17h33.11.350,experiment,2024.1.5,Win32,59.95203837,6691931c2c63981b064e1f0c,6691aefc0a86d780d3c3ea61,,,,,,,,,,,,,,,,,,,,,,,,,,,,,,,,,,,,,,,,,,,,,,,,,,,,,,,,,,,,1089.03,1096.413,0.127777778,0.025,1.0,0.0,0.0,1.366,compass,0.0,29.0,29.0,29.0,1.0,SoundStimuli/OldTownRoad_LilNasX_Original5S.wav,,,,,,,,,,,,,,,,,,,,,,,,,,,,,,,,,,,,,,,,,,,,,,,,,,,,,
,,,,,136759,1,2024-07-12_17h33.11.350,experiment,2024.1.5,Win32,59.95203837,6691931c2c63981b064e1f0c,6691aefc0a86d780d3c3ea61,,,,,,,,,,,,,,,,,,,,,,,,,,,,,,,,,,,,,,,,,,,,,,,,,,,,,,,,,,,,1096.415,1104.729,0.017592593,0.02037037,1.0,0.0,0.0,2.301,compass,0.0,30.0,30.0,21.0,1.0,SoundStimuli/GoodGollyMissMolly_LittleRichard_Cover5S.wav,,,,,,,,,,,,,,,,,,,,,,,,,,,,,,,,,,,,,,,,,,,,,,,,,,,,,
,,,,,136759,1,2024-07-12_17h33.11.350,experiment,2024.1.5,Win32,59.95203837,6691931c2c63981b064e1f0c,6691aefc0a86d780d3c3ea61,,,,,,,,,,,,,,,,,,,,,,,,,,,,,,,,,,,,,,,,,,,,,,,,,,,,,,,,,,,,1104.73,1111.613,-0.001851852,0.000925926,1.0,0.0,0.0,0.883,compass,0.0,31.0,31.0,1.0,1.0,SoundStimuli/Stronger_KanyeWest_Original5S.wav,,,,,,,,,,,,,,,,,,,,,,,,,,,,,,,,,,,,,,,,,,,,,,,,,,,,,
,,,,,136759,1,2024-07-12_17h33.11.350,experiment,2024.1.5,Win32,59.95203837,6691931c2c63981b064e1f0c,6691aefc0a86d780d3c3ea61,,,,,,,,,,,,,,,,,,,,,,,,,,,,,,,,,,,,,,,,,,,,,,,,,,,,,,,,,,,,1111.614,1121.179,0.002777778,-0.265740741,1.0,0.0,0.0,3.55,compass,0.0,32.0,32.0,20.0,1.0,SoundStimuli/HeyYa_Outkast_Cover5S.wav,,,,,,,,,,,,,,,,,,,,,,,,,,,,,,,,,,,,,,,,,,,,,,,,,,,,,
,,,,,136759,1,2024-07-12_17h33.11.350,experiment,2024.1.5,Win32,59.95203837,6691931c2c63981b064e1f0c,6691aefc0a86d780d3c3ea61,,,,,,,,,,,,,,,,,,,,,,,,,,,,,,,,,,,,,,,,,,,,,,,,,,,,,,,,,,,,1121.18,1129.264,0.053703704,0.101851852,1.0,0.0,0.0,2.068,compass,0.0,33.0,33.0,7.0,1.0,SoundStimuli/NoOne_AliciaKeys_Cover5S.wav,,,,,,,,,,,,,,,,,,,,,,,,,,,,,,,,,,,,,,,,,,,,,,,,,,,,,
,,,,,136759,1,2024-07-12_17h33.11.350,experiment,2024.1.5,Win32,59.95203837,6691931c2c63981b064e1f0c,6691aefc0a86d780d3c3ea61,,,,,,,,,,,,,,,,,,,,,,,,,,,,,,,,,,,,,,,,,,,,,,,,,,,,,,,,,,,,1129.267,1139.063,0.175,0.036111111,1.0,0.0,0.0,3.784,compass,0.0,34.0,34.0,4.0,1.0,SoundStimuli/GetUrFreakOn_MissyElliot_Original5S.wav,,,,,,,,,,,,,,,,,,,,,,,,,,,,,,,,,,,,,,,,,,,,,,,,,,,,,
,,,,,136759,1,2024-07-12_17h33.11.350,experiment,2024.1.5,Win32,59.95203837,6691931c2c63981b064e1f0c,6691aefc0a86d780d3c3ea61,,,,,,,,,,,,,,,,,,,,,,,,,,,,,,,,,,,,,,,,,,,,,,,,,,,,,,,,,,,,,,,,,,,,,,,,,,,1139.063,1179.946,space,40.864,,1179.946,1182.962,right,2.986,,0.0,2.0,2.0,2.0,1.0,block_order/blockA.xlsx,,,,,,,,,,,,,,,,,,,,,,,,,,,,,,,,,,,,,
,,,,,136759,1,2024-07-12_17h33.11.350,experiment,2024.1.5,Win32,59.95203837,6691931c2c63981b064e1f0c,6691aefc0a86d780d3c3ea61,,,,,,,,,,,,,,,,,,,,,,,,,,,,,,,,,,,,,,,,,,,,,,,,,,,,,,,,,,,,1182.999,1189.929,0.250925926,0.163888889,1.0,0.0,0.0,0.917,compass,0.0,0.0,0.0,3.0,1.0,SoundStimuli/PartyRockAnthem_LMFAO_Original5S.wav,,,,,,,,,,,,,,,,,,,,,,,,,,,,,,,,,,,,,,,,,,,,,,,,,,,,,
,,,,,136759,1,2024-07-12_17h33.11.350,experiment,2024.1.5,Win32,59.95203837,6691931c2c63981b064e1f0c,6691aefc0a86d780d3c3ea61,,,,,,,,,,,,,,,,,,,,,,,,,,,,,,,,,,,,,,,,,,,,,,,,,,,,,,,,,,,,1189.93,1199.245,-0.062037037,-0.153703704,1.0,0.0,0.0,3.301,compass,0.0,1.0,1.0,33.0,1.0,SoundStimuli/TheBoyIsMine_BrandyMonica_Original5S.wav,,,,,,,,,,,,,,,,,,,,,,,,,,,,,,,,,,,,,,,,,,,,,,,,,,,,,
,,,,,136759,1,2024-07-12_17h33.11.350,experiment,2024.1.5,Win32,59.95203837,6691931c2c63981b064e1f0c,6691aefc0a86d780d3c3ea61,,,,,,,,,,,,,,,,,,,,,,,,,,,,,,,,,,,,,,,,,,,,,,,,,,,,,,,,,,,,1199.248,1205.962,0.344444444,0.15,1.0,0.0,0.0,0.7,compass,0.0,2.0,2.0,28.0,1.0,SoundStimuli/IWantToHoldYourHand_TheBeatles_Original5S.wav,,,,,,,,,,,,,,,,,,,,,,,,,,,,,,,,,,,,,,,,,,,,,,,,,,,,,
,,,,,136759,1,2024-07-12_17h33.11.350,experiment,2024.1.5,Win32,59.95203837,6691931c2c63981b064e1f0c,6691aefc0a86d780d3c3ea61,,,,,,,,,,,,,,,,,,,,,,,,,,,,,,,,,,,,,,,,,,,,,,,,,,,,,,,,,,,,1205.963,1212.461,-0.328703704,-0.294444444,1.0,0.0,0.0,0.484,compass,0.0,3.0,3.0,9.0,1.0,SoundStimuli/HowDoILive_LeAnnRimes_Cover5S.wav,,,,,,,,,,,,,,,,,,,,,,,,,,,,,,,,,,,,,,,,,,,,,,,,,,,,,
,,,,,136759,1,2024-07-12_17h33.11.350,experiment,2024.1.5,Win32,59.95203837,6691931c2c63981b064e1f0c,6691aefc0a86d780d3c3ea61,,,,,,,,,,,,,,,,,,,,,,,,,,,,,,,,,,,,,,,,,,,,,,,,,,,,,,,,,,,,1212.462,1218.511,0.34537037,0.340740741,1.0,0.0,0.0,0.033,compass,0.0,4.0,4.0,26.0,1.0,SoundStimuli/TheSign_AceOfBase_Cover5S.wav,,,,,,,,,,,,,,,,,,,,,,,,,,,,,,,,,,,,,,,,,,,,,,,,,,,,,
,,,,,136759,1,2024-07-12_17h33.11.350,experiment,2024.1.5,Win32,59.95203837,6691931c2c63981b064e1f0c,6691aefc0a86d780d3c3ea61,,,,,,,,,,,,,,,,,,,,,,,,,,,,,,,,,,,,,,,,,,,,,,,,,,,,,,,,,,,,1218.512,1225.478,-0.326851852,0.063888889,1.0,0.0,0.0,0.95,compass,0.0,5.0,5.0,2.0,1.0,SoundStimuli/SmellsLikeTeenSpirit_Nirvana_Original5S.wav,,,,,,,,,,,,,,,,,,,,,,,,,,,,,,,,,,,,,,,,,,,,,,,,,,,,,
,,,,,136759,1,2024-07-12_17h33.11.350,experiment,2024.1.5,Win32,59.95203837,6691931c2c63981b064e1f0c,6691aefc0a86d780d3c3ea61,,,,,,,,,,,,,,,,,,,,,,,,,,,,,,,,,,,,,,,,,,,,,,,,,,,,,,,,,,,,1225.478,1233.428,0.313888889,0.135185185,1.0,0.0,0.0,1.949,compass,0.0,6.0,6.0,17.0,1.0,SoundStimuli/IWannaDanceWithSomebody_WhitneyHouston_Original5S.wav,,,,,,,,,,,,,,,,,,,,,,,,,,,,,,,,,,,,,,,,,,,,,,,,,,,,,
,,,,,136759,1,2024-07-12_17h33.11.350,experiment,2024.1.5,Win32,59.95203837,6691931c2c63981b064e1f0c,6691aefc0a86d780d3c3ea61,,,,,,,,,,,,,,,,,,,,,,,,,,,,,,,,,,,,,,,,,,,,,,,,,,,,,,,,,,,,1233.43,1240.495,0.109259259,-0.205555556,1.0,0.0,0.0,1.05,compass,0.0,7.0,7.0,8.0,1.0,SoundStimuli/EndlessLove_DianaRossLionelRichie_Cover5S.wav,,,,,,,,,,,,,,,,,,,,,,,,,,,,,,,,,,,,,,,,,,,,,,,,,,,,,
,,,,,136759,1,2024-07-12_17h33.11.350,experiment,2024.1.5,Win32,59.95203837,6691931c2c63981b064e1f0c,6691aefc0a86d780d3c3ea61,,,,,,,,,,,,,,,,,,,,,,,,,,,,,,,,,,,,,,,,,,,,,,,,,,,,,,,,,,,,1240.495,1247.127,0.285185185,0.165740741,1.0,0.0,0.0,0.616,compass,0.0,8.0,8.0,27.0,1.0,SoundStimuli/EyeOfTheTiger_Survivor_Cover5S.wav,,,,,,,,,,,,,,,,,,,,,,,,,,,,,,,,,,,,,,,,,,,,,,,,,,,,,
,,,,,136759,1,2024-07-12_17h33.11.350,experiment,2024.1.5,Win32,59.95203837,6691931c2c63981b064e1f0c,6691aefc0a86d780d3c3ea61,,,,,,,,,,,,,,,,,,,,,,,,,,,,,,,,,,,,,,,,,,,,,,,,,,,,,,,,,,,,1247.127,1254.727,0.014814815,-0.214814815,1.0,0.0,0.0,1.599,compass,0.0,9.0,9.0,34.0,1.0,SoundStimuli/Irreplaceable_Beyonce_Cover5S.wav,,,,,,,,,,,,,,,,,,,,,,,,,,,,,,,,,,,,,,,,,,,,,,,,,,,,,
,,,,,136759,1,2024-07-12_17h33.11.350,experiment,2024.1.5,Win32,59.95203837,6691931c2c63981b064e1f0c,6691aefc0a86d780d3c3ea61,,,,,,,,,,,,,,,,,,,,,,,,,,,,,,,,,,,,,,,,,,,,,,,,,,,,,,,,,,,,1254.728,1262.577,-0.000925926,0.006481481,1.0,0.0,0.0,1.834,compass,0.0,10.0,10.0,7.0,1.0,SoundStimuli/MackTheKnife_BobbyDarin_Cover5S.wav,,,,,,,,,,,,,,,,,,,,,,,,,,,,,,,,,,,,,,,,,,,,,,,,,,,,,
,,,,,136759,1,2024-07-12_17h33.11.350,experiment,2024.1.5,Win32,59.95203837,6691931c2c63981b064e1f0c,6691aefc0a86d780d3c3ea61,,,,,,,,,,,,,,,,,,,,,,,,,,,,,,,,,,,,,,,,,,,,,,,,,,,,,,,,,,,,1262.578,1269.745,0.200925926,0.060185185,1.0,0.0,0.0,1.151,compass,0.0,11.0,11.0,23.0,1.0,SoundStimuli/IWalkTheLine_JohnnyCash_Original5S.wav,,,,,,,,,,,,,,,,,,,,,,,,,,,,,,,,,,,,,,,,,,,,,,,,,,,,,
,,,,,136759,1,2024-07-12_17h33.11.350,experiment,2024.1.5,Win32,59.95203837,6691931c2c63981b064e1f0c,6691aefc0a86d780d3c3ea61,,,,,,,,,,,,,,,,,,,,,,,,,,,,,,,,,,,,,,,,,,,,,,,,,,,,,,,,,,,,1269.75,1279.593,-0.224074074,-0.130555556,1.0,0.0,0.0,3.834,compass,0.0,12.0,12.0,12.0,1.0,SoundStimuli/UnbreakMyHeart_ToniBraxton_Original5S.wav,,,,,,,,,,,,,,,,,,,,,,,,,,,,,,,,,,,,,,,,,,,,,,,,,,,,,
,,,,,136759,1,2024-07-12_17h33.11.350,experiment,2024.1.5,Win32,59.95203837,6691931c2c63981b064e1f0c,6691aefc0a86d780d3c3ea61,,,,,,,,,,,,,,,,,,,,,,,,,,,,,,,,,,,,,,,,,,,,,,,,,,,,,,,,,,,,1279.594,1289.943,-0.023148148,-0.088888889,1.0,0.0,0.0,4.349,compass,0.0,13.0,13.0,18.0,1.0,SoundStimuli/Weak_SWV_Cover5S.wav,,,,,,,,,,,,,,,,,,,,,,,,,,,,,,,,,,,,,,,,,,,,,,,,,,,,,
,,,,,136759,1,2024-07-12_17h33.11.350,experiment,2024.1.5,Win32,59.95203837,6691931c2c63981b064e1f0c,6691aefc0a86d780d3c3ea61,,,,,,,,,,,,,,,,,,,,,,,,,,,,,,,,,,,,,,,,,,,,,,,,,,,,,,,,,,,,1289.944,1301.744,0.097222222,0.016666667,1.0,0.0,0.0,5.784,compass,0.0,14.0,14.0,31.0,1.0,SoundStimuli/TossinAndTurnin_BobbyLewis_Original5S.wav,,,,,,,,,,,,,,,,,,,,,,,,,,,,,,,,,,,,,,,,,,,,,,,,,,,,,
,,,,,136759,1,2024-07-12_17h33.11.350,experiment,2024.1.5,Win32,59.95203837,6691931c2c63981b064e1f0c,6691aefc0a86d780d3c3ea61,,,,,,,,,,,,,,,,,,,,,,,,,,,,,,,,,,,,,,,,,,,,,,,,,,,,,,,,,,,,1301.748,1309.243,0.188888889,-0.080555556,1.0,0.0,0.0,1.484,compass,0.0,15.0,15.0,29.0,1.0,SoundStimuli/BetteDavisEyes_KimCarnes_Original5S.wav,,,,,,,,,,,,,,,,,,,,,,,,,,,,,,,,,,,,,,,,,,,,,,,,,,,,,
,,,,,136759,1,2024-07-12_17h33.11.350,experiment,2024.1.5,Win32,59.95203837,6691931c2c63981b064e1f0c,6691aefc0a86d780d3c3ea61,,,,,,,,,,,,,,,,,,,,,,,,,,,,,,,,,,,,,,,,,,,,,,,,,,,,,,,,,,,,1309.243,1316.46,0.15,0.039814815,1.0,0.0,0.0,1.2,compass,0.0,16.0,16.0,22.0,1.0,SoundStimuli/Happy_PharellWilliams_Original5S.wav,,,,,,,,,,,,,,,,,,,,,,,,,,,,,,,,,,,,,,,,,,,,,,,,,,,,,
,,,,,136759,1,2024-07-12_17h33.11.350,experiment,2024.1.5,Win32,59.95203837,6691931c2c63981b064e1f0c,6691aefc0a86d780d3c3ea61,,,,,,,,,,,,,,,,,,,,,,,,,,,,,,,,,,,,,,,,,,,,,,,,,,,,,,,,,,,,1316.46,1326.842,0.281481481,-0.236111111,1.0,0.0,0.0,4.367,compass,0.0,17.0,17.0,25.0,1.0,SoundStimuli/IllMakeLoveToYou_BoyzIIMen_Cover5S.wav,,,,,,,,,,,,,,,,,,,,,,,,,,,,,,,,,,,,,,,,,,,,,,,,,,,,,
,,,,,136759,1,2024-07-12_17h33.11.350,experiment,2024.1.5,Win32,59.95203837,6691931c2c63981b064e1f0c,6691aefc0a86d780d3c3ea61,,,,,,,,,,,,,,,,,,,,,,,,,,,,,,,,,,,,,,,,,,,,,,,,,,,,,,,,,,,,1326.843,1337.459,0.221296296,-0.308333333,1.0,0.0,0.0,4.599,compass,0.0,18.0,18.0,16.0,1.0,SoundStimuli/ItsAllInTheGame_TommyEdwards_Cover5S.wav,,,,,,,,,,,,,,,,,,,,,,,,,,,,,,,,,,,,,,,,,,,,,,,,,,,,,
,,,,,136759,1,2024-07-12_17h33.11.350,experiment,2024.1.5,Win32,59.95203837,6691931c2c63981b064e1f0c,6691aefc0a86d780d3c3ea61,,,,,,,,,,,,,,,,,,,,,,,,,,,,,,,,,,,,,,,,,,,,,,,,,,,,,,,,,,,,1337.461,1346.059,0.275925926,-0.082407407,1.0,0.0,0.0,2.583,compass,0.0,19.0,19.0,4.0,1.0,SoundStimuli/Dreams_FleetwoodMac_Original5S.wav,,,,,,,,,,,,,,,,,,,,,,,,,,,,,,,,,,,,,,,,,,,,,,,,,,,,,
,,,,,136759,1,2024-07-12_17h33.11.350,experiment,2024.1.5,Win32,59.95203837,6691931c2c63981b064e1f0c,6691aefc0a86d780d3c3ea61,,,,,,,,,,,,,,,,,,,,,,,,,,,,,,,,,,,,,,,,,,,,,,,,,,,,,,,,,,,,1346.06,1372.078,,,,,,,,0.0,20.0,20.0,21.0,1.0,SoundStimuli/BridgeOverTroubledWater_SimonAndGarfunkel_Original5S.wav,,,,,,,,,,,,,,,,,,,,,,,,,,,,,,,,,,,,,,,,,,,,,,,,,,,,,
,,,,,136759,1,2024-07-12_17h33.11.350,experiment,2024.1.5,Win32,59.95203837,6691931c2c63981b064e1f0c,6691aefc0a86d780d3c3ea61,,,,,,,,,,,,,,,,,,,,,,,,,,,,,,,,,,,,,,,,,,,,,,,,,,,,,,,,,,,,1372.085,1387.743,0.205555556,0.191666667,1.0,0.0,0.0,9.652,compass,0.0,21.0,21.0,0.0,1.0,SoundStimuli/GimmeShelter_RollingStones_Original5S.wav,,,,,,,,,,,,,,,,,,,,,,,,,,,,,,,,,,,,,,,,,,,,,,,,,,,,,
,,,,,136759,1,2024-07-12_17h33.11.350,experiment,2024.1.5,Win32,59.95203837,6691931c2c63981b064e1f0c,6691aefc0a86d780d3c3ea61,,,,,,,,,,,,,,,,,,,,,,,,,,,,,,,,,,,,,,,,,,,,,,,,,,,,,,,,,,,,1387.744,1396.625,0.180555556,0.131481481,1.0,0.0,0.0,2.867,compass,0.0,22.0,22.0,1.0,1.0,SoundStimuli/Smooth_SantanaRobThomas_Original5S.wav,,,,,,,,,,,,,,,,,,,,,,,,,,,,,,,,,,,,,,,,,,,,,,,,,,,,,
,,,,,136759,1,2024-07-12_17h33.11.350,experiment,2024.1.5,Win32,59.95203837,6691931c2c63981b064e1f0c,6691aefc0a86d780d3c3ea61,,,,,,,,,,,,,,,,,,,,,,,,,,,,,,,,,,,,,,,,,,,,,,,,,,,,,,,,,,,,1396.626,1403.358,0.25,-0.090740741,1.0,0.0,0.0,0.717,compass,0.0,23.0,23.0,14.0,1.0,SoundStimuli/LikeARollingStone_BobDylan_Original5S.wav,,,,,,,,,,,,,,,,,,,,,,,,,,,,,,,,,,,,,,,,,,,,,,,,,,,,,
,,,,,136759,1,2024-07-12_17h33.11.350,experiment,2024.1.5,Win32,59.95203837,6691931c2c63981b064e1f0c,6691aefc0a86d780d3c3ea61,,,,,,,,,,,,,,,,,,,,,,,,,,,,,,,,,,,,,,,,,,,,,,,,,,,,,,,,,,,,1403.36,1410.325,0.12962963,0.131481481,1.0,0.0,0.0,0.95,compass,0.0,24.0,24.0,20.0,1.0,SoundStimuli/FlashdanceWhatAFeeling_IreneCara_Original5S.wav,,,,,,,,,,,,,,,,,,,,,,,,,,,,,,,,,,,,,,,,,,,,,,,,,,,,,
,,,,,136759,1,2024-07-12_17h33.11.350,experiment,2024.1.5,Win32,59.95203837,6691931c2c63981b064e1f0c,6691aefc0a86d780d3c3ea61,,,,,,,,,,,,,,,,,,,,,,,,,,,,,,,,,,,,,,,,,,,,,,,,,,,,,,,,,,,,1410.326,1418.825,0.163888889,-0.030555556,1.0,0.0,0.0,2.483,compass,0.0,25.0,25.0,5.0,1.0,SoundStimuli/JoyToTheWorld_ThreeDogNight_Original5S.wav,,,,,,,,,,,,,,,,,,,,,,,,,,,,,,,,,,,,,,,,,,,,,,,,,,,,,
,,,,,136759,1,2024-07-12_17h33.11.350,experiment,2024.1.5,Win32,59.95203837,6691931c2c63981b064e1f0c,6691aefc0a86d780d3c3ea61,,,,,,,,,,,,,,,,,,,,,,,,,,,,,,,,,,,,,,,,,,,,,,,,,,,,,,,,,,,,1418.826,1424.992,0.221296296,0.039814815,1.0,0.0,0.0,0.151,compass,0.0,26.0,26.0,11.0,1.0,SoundStimuli/BlurredLines_RobinThicke_Cover5S.wav,,,,,,,,,,,,,,,,,,,,,,,,,,,,,,,,,,,,,,,,,,,,,,,,,,,,,
,,,,,136759,1,2024-07-12_17h33.11.350,experiment,2024.1.5,Win32,59.95203837,6691931c2c63981b064e1f0c,6691aefc0a86d780d3c3ea61,,,,,,,,,,,,,,,,,,,,,,,,,,,,,,,,,,,,,,,,,,,,,,,,,,,,,,,,,,,,1424.992,1433.092,0.330555556,-0.184259259,1.0,0.0,0.0,2.084,compass,0.0,27.0,27.0,19.0,1.0,SoundStimuli/YouLightUpMyLife_DebbyBoone_Original5S.wav,,,,,,,,,,,,,,,,,,,,,,,,,,,,,,,,,,,,,,,,,,,,,,,,,,,,,
,,,,,136759,1,2024-07-12_17h33.11.350,experiment,2024.1.5,Win32,59.95203837,6691931c2c63981b064e1f0c,6691aefc0a86d780d3c3ea61,,,,,,,,,,,,,,,,,,,,,,,,,,,,,,,,,,,,,,,,,,,,,,,,,,,,,,,,,,,,1433.097,1441.641,-0.019444444,-0.158333333,1.0,0.0,0.0,2.534,compass,0.0,28.0,28.0,6.0,1.0,SoundStimuli/SaveYourTears_TheWeekndArianaGrande_Cover5S.wav,,,,,,,,,,,,,,,,,,,,,,,,,,,,,,,,,,,,,,,,,,,,,,,,,,,,,
,,,,,136759,1,2024-07-12_17h33.11.350,experiment,2024.1.5,Win32,59.95203837,6691931c2c63981b064e1f0c,6691aefc0a86d780d3c3ea61,,,,,,,,,,,,,,,,,,,,,,,,,,,,,,,,,,,,,,,,,,,,,,,,,,,,,,,,,,,,1441.642,1448.407,0.035185185,0.025,1.0,0.0,0.0,0.75,compass,0.0,29.0,29.0,24.0,1.0,SoundStimuli/Kiss_Prince_Cover5S.wav,,,,,,,,,,,,,,,,,,,,,,,,,,,,,,,,,,,,,,,,,,,,,,,,,,,,,
,,,,,136759,1,2024-07-12_17h33.11.350,experiment,2024.1.5,Win32,59.95203837,6691931c2c63981b064e1f0c,6691aefc0a86d780d3c3ea61,,,,,,,,,,,,,,,,,,,,,,,,,,,,,,,,,,,,,,,,,,,,,,,,,,,,,,,,,,,,1448.408,1456.307,-0.276851852,-0.223148148,1.0,0.0,0.0,1.883,compass,0.0,30.0,30.0,30.0,1.0,SoundStimuli/SomebodyThatIUsedtoKnow_Gotye_Original5S.wav,,,,,,,,,,,,,,,,,,,,,,,,,,,,,,,,,,,,,,,,,,,,,,,,,,,,,
,,,,,136759,1,2024-07-12_17h33.11.350,experiment,2024.1.5,Win32,59.95203837,6691931c2c63981b064e1f0c,6691aefc0a86d780d3c3ea61,,,,,,,,,,,,,,,,,,,,,,,,,,,,,,,,,,,,,,,,,,,,,,,,,,,,,,,,,,,,1456.308,1465.658,0.125,0.119444444,1.0,0.0,0.0,3.348,compass,0.0,31.0,31.0,10.0,1.0,SoundStimuli/LeFreak_Chic_Cover5S.wav,,,,,,,,,,,,,,,,,,,,,,,,,,,,,,,,,,,,,,,,,,,,,,,,,,,,,
,,,,,136759,1,2024-07-12_17h33.11.350,experiment,2024.1.5,Win32,59.95203837,6691931c2c63981b064e1f0c,6691aefc0a86d780d3c3ea61,,,,,,,,,,,,,,,,,,,,,,,,,,,,,,,,,,,,,,,,,,,,,,,,,,,,,,,,,,,,1465.659,1474.991,0.030555556,-0.25462963,1.0,0.0,0.0,3.317,compass,0.0,32.0,32.0,32.0,1.0,SoundStimuli/Dilemma_NellyKellyRowland_Cover5S.wav,,,,,,,,,,,,,,,,,,,,,,,,,,,,,,,,,,,,,,,,,,,,,,,,,,,,,
,,,,,136759,1,2024-07-12_17h33.11.350,experiment,2024.1.5,Win32,59.95203837,6691931c2c63981b064e1f0c,6691aefc0a86d780d3c3ea61,,,,,,,,,,,,,,,,,,,,,,,,,,,,,,,,,,,,,,,,,,,,,,,,,,,,,,,,,,,,1474.991,1484.291,0.000925926,-0.111111111,1.0,0.0,0.0,3.284,compass,0.0,33.0,33.0,15.0,1.0,SoundStimuli/CrazyInLove_BeyonceFtJayZ_Cover5S.wav,,,,,,,,,,,,,,,,,,,,,,,,,,,,,,,,,,,,,,,,,,,,,,,,,,,,,
,,,,,136759,1,2024-07-12_17h33.11.350,experiment,2024.1.5,Win32,59.95203837,6691931c2c63981b064e1f0c,6691aefc0a86d780d3c3ea61,,,,,,,,,,,,,,,,,,,,,,,,,,,,,,,,,,,,,,,,,,,,,,,,,,,,,,,,,,,,1484.291,1490.791,0.17037037,-0.001851852,1.0,0.0,0.0,0.498,compass,0.0,34.0,34.0,13.0,1.0,SoundStimuli/Perfect_EdSheeran_Cover5S.wav,,,,,,,,,,,,,,,,,,,,,,,,,,,,,,,,,,,,,,,,,,,,,,,,,,,,,
,,,,,136759,1,2024-07-12_17h33.11.350,experiment,2024.1.5,Win32,59.95203837,6691931c2c63981b064e1f0c,6691aefc0a86d780d3c3ea61,,,,,,,,,,,,,,,,,,,,,,,,,,,,,,,,,,,,,,,,,,,,,,,,,,,,,,,,,,,,,,,,,,,,,,,,,,,1490.791,1490.792,,,,1490.792,1490.792,,,,0.0,3.0,3.0,3.0,1.0,block_order/blockD.xlsx,,,,,,,,,,,,,,,,,,,,,,,,,,,,,,,,,,,,,
,,,,,136759,1,2024-07-12_17h33.11.350,experiment,2024.1.5,Win32,59.95203837,6691931c2c63981b064e1f0c,6691aefc0a86d780d3c3ea61,,,,,,,,,,,,,,,,,,,,,,,,,,,,,,,,,,,,,,,,,,,,,,,,,,,,,,,,,,,,,,,,,,,,,,,,,,,,,,,,,,,,,,,,,,,48.0,Item 2,I've toyed around with experimental electronic. None of it was any good.,Item 4,"Youtube, sometimes car radio",5.0,6.0,doomscrolling,Never,Rarely,Never,Never,Often,Often,Never,Never,Rarely,Rarely,Never,Sometimes,Often,Rarely,Never,Rarely,"breakcore, witch house, wave, lofi, drum and bass, jungle, japanoise, dungeon synth (all of which could technically fit into electronic)",witch house,wave,DnB,"I used to mostly listen to metal, then I got old.",I listen as the mood strikes.,0.0,0.0,0.0,0.0,1.0,,
,,,,,136759,1,2024-07-12_17h33.11.350,experiment,2024.1.5,Win32,59.95203837,6691931c2c63981b064e1f0c,6691aefc0a86d780d3c3ea61,,,,,,,,,,,,,,,,,,,,,,,,,,,,,,,,,,,,,,,,,,,,,,,,,,,,,,,,,,,,,,,,,,,,,,,,,,,,,,,,,,,,,,,,,,,,,,,,,,,,,,,,,,,,,,,,,,,,,,,,,,,,,,1837.153,1839.302
