welcome.started,welcome.stopped,space_to_continue.keys,space_to_continue.rt,space_to_continue.duration,participant,session,date,expName,psychopyVersion,OS,frameRate,STUDY_ID,SESSION_ID,consent.consent,consent.consent_recontact,consent_check.started,consent_check.stopped,calibration_ready.started,calibration_ready.stopped,cal_ready.keys,cal_ready.rt,cal_ready.duration,calibration.started,calibration.stopped,mouse.x,mouse.y,mouse.leftButton,mouse.midButton,mouse.rightButton,mouse.time,mouse.clicked_name,move_on.keys,move_on.rt,move_on.duration,run_cal.thisRepN,run_cal.thisTrialN,run_cal.thisN,run_cal.thisIndex,run_cal.ran,emotion_training_ready.started,emotion_training_ready.stopped,training_move_on.keys,training_move_on.rt,training_move_on.duration,examples.started,examples.stopped,emotion_scale.started,emotion_scale.stopped,scale_next.keys,scale_next.rt,scale_next.duration,instructions.started,instructions.stopped,next.keys,next.rt,next.duration,practice_task.started,practice_task.stopped,mouse_rating_2.x,mouse_rating_2.y,mouse_rating_2.leftButton,mouse_rating_2.midButton,mouse_rating_2.rightButton,mouse_rating_2.time,mouse_rating_2.clicked_name,ready.started,ready.stopped,key_resp.keys,key_resp.rt,key_resp.duration,set_group.started,set_group.stopped,task.started,task.stopped,mouse_rating.x,mouse_rating.y,mouse_rating.leftButton,mouse_rating.midButton,mouse_rating.rightButton,mouse_rating.time,mouse_rating.clicked_name,trials.thisRepN,trials.thisTrialN,trials.thisN,trials.thisIndex,trials.ran,clip,short_break.started,short_break.stopped,space_to_move_on.keys,space_to_move_on.rt,space_to_move_on.duration,instruction_reminder.started,instruction_reminder.stopped,reminder_move_on.keys,reminder_move_on.rt,reminder_move_on.duration,blocks.thisRepN,blocks.thisTrialN,blocks.thisN,blocks.thisIndex,blocks.ran,block,post_survey.age,post_survey.musician,post_survey.music_making,post_survey.listen_time,post_survey.medium,post_survey.music_seeking,post_survey.music_choice,post_survey.activities,post_survey.question1.Electronic (EDM),post_survey.question1.Reggae,post_survey.question1.Country,post_survey.question1.Metal,post_survey.question1.Ambient,post_survey.question1.Pop,post_survey.question1.Hip hop,post_survey.question1.A cappella,post_survey.question1.Jazz,post_survey.question1.Classical,post_survey.question1.Alternative rock,post_survey.question1.R&B,post_survey.question1.Disco,post_survey.question1.Latin,post_survey.question1.Classic rock,post_survey.question1.Folk/indie,post_survey.other_genres,post_survey.genres_ranked.text1,post_survey.genres_ranked.text2,post_survey.genres_ranked.text3,post_survey.habit_change,post_survey.habits,show_exp.thisRepN,show_exp.thisTrialN,show_exp.thisN,show_exp.thisIndex,show_exp.ran,goodbye.started,goodbye.stopped
0.0047,1.7365,space,1.7103,,160159,1,2024-07-12_19h20.54.026,experiment,2024.1.5,Win32,59.52380952,6691931c2c63981b064e1f0c,6691ba09250cdadffd5d9dba,,,,,,,,,,,,,,,,,,,,,,,,,,,,,,,,,,,,,,,,,,,,,,,,,,,,,,,,,,,,,,,,,,,,,,,,,,,,,,,,,,,,,,,,,,,,,,,,,,,,,,,,,,,,,,,,,,,,,,,,,,,,,,,
,,,,,160159,1,2024-07-12_19h20.54.026,experiment,2024.1.5,Win32,59.52380952,6691931c2c63981b064e1f0c,6691ba09250cdadffd5d9dba,yes,yes,,,,,,,,,,,,,,,,,,,,,,,,,,,,,,,,,,,,,,,,,,,,,,,,,,,,,,,,,,,,,,,,,,,,,,,,,,,,,,,,,,,,,,,,,,,,,,,,,,,,,,,,,,,,,,,,,,,,,,,,,,,,,
,,,,,160159,1,2024-07-12_19h20.54.026,experiment,2024.1.5,Win32,59.52380952,6691931c2c63981b064e1f0c,6691ba09250cdadffd5d9dba,,,65.3351,65.3353,,,,,,,,,,,,,,,,,,,,,,,,,,,,,,,,,,,,,,,,,,,,,,,,,,,,,,,,,,,,,,,,,,,,,,,,,,,,,,,,,,,,,,,,,,,,,,,,,,,,,,,,,,,,,,,,,,,,,,,,,,,
,,,,,160159,1,2024-07-12_19h20.54.026,experiment,2024.1.5,Win32,59.52380952,6691931c2c63981b064e1f0c,6691ba09250cdadffd5d9dba,,,,,65.3372,68.8948,space,3.5386,,68.8957,100.9739,"[-0.028703689575195312,0.02301368190817637,-0.025205429286172944]","[-0.39444443031593607,-0.4153424824753853,-0.4186301871521832]","[1,1,1]","[0,0,0]","[0,0,0]","[10.921499999999995,22.975400000005962,25.3095]",[],n,31.0306,,0.0,0.0,0.0,0.0,1.0,,,,,,,,,,,,,,,,,,,,,,,,,,,,,,,,,,,,,,,,,,,,,,,,,,,,,,,,,,,,,,,,,,,,,,,,,,,,,,,,,,,,,,,,,,,,,,,,,,,,,
,,,,,160159,1,2024-07-12_19h20.54.026,experiment,2024.1.5,Win32,59.52380952,6691931c2c63981b064e1f0c,6691ba09250cdadffd5d9dba,,,,,,,,,,100.9823,120.4473,"[-0.014246525176583905,0.11178087208369007,-0.015342482475385274,1.012602840057791]","[-0.4087671567315925,-0.24438359508775684,-0.4153425660851884,0.03397258601776541]","[1,1,1,1]","[0,0,0,0]","[0,0,0,0]","[1.7006999999881032,8.222199999988106,9.787000000000006,10.854099999994048]","[""play_button"",""play_button""]",y,18.4407,,1.0,0.0,1.0,0.0,1.0,,,,,,,,,,,,,,,,,,,,,,,,,,,,,,,,,,,,,,,,,,,,,,,,,,,,,,,,,,,,,,,,,,,,,,,,,,,,,,,,,,,,,,,,,,,,,,,,,,,,,
,,,,,160159,1,2024-07-12_19h20.54.026,experiment,2024.1.5,Win32,59.52380952,6691931c2c63981b064e1f0c,6691ba09250cdadffd5d9dba,,,,,,,,,,,,,,,,,,,,,,,,,,,120.4481,144.4233,space,23.9576,,144.4235,264.4348,264.4352,272.8879,right,4.9392,,272.8881,279.2903,space,6.3762,,279.2906,290.6948,0.183013749,-0.054794521,1.0,0.0,0.0,5.4024,compass_2,290.695,292.5781,space,1.8621,,292.5783,292.586,292.6067,299.4144,0.291506833,0.312328767,1.0,0.0,0.0,0.8006,compass,0.0,0.0,0.0,27.0,1.0,SoundStimuli/EyeOfTheTiger_Survivor_Original5S.wav,,,,,,,,,,,,,,,,,,,,,,,,,,,,,,,,,,,,,,,,,,,,,,,,,,,,,
,,,,,160159,1,2024-07-12_19h20.54.026,experiment,2024.1.5,Win32,59.52380952,6691931c2c63981b064e1f0c,6691ba09250cdadffd5d9dba,,,,,,,,,,,,,,,,,,,,,,,,,,,,,,,,,,,,,,,,,,,,,,,,,,,,,,,,,,,,299.4228,308.5533,0.111780872,-0.02739726,1.0,0.0,0.0,3.1204,compass,0.0,1.0,1.0,25.0,1.0,SoundStimuli/IllMakeLoveToYou_BoyzIIMen_Original5S.wav,,,,,,,,,,,,,,,,,,,,,,,,,,,,,,,,,,,,,,,,,,,,,,,,,,,,,
,,,,,160159,1,2024-07-12_19h20.54.026,experiment,2024.1.5,Win32,59.52380952,6691931c2c63981b064e1f0c,6691ba09250cdadffd5d9dba,,,,,,,,,,,,,,,,,,,,,,,,,,,,,,,,,,,,,,,,,,,,,,,,,,,,,,,,,,,,308.5618,314.7198,0.198356148,0.202739726,1.0,0.0,0.0,0.1502,compass,0.0,2.0,2.0,26.0,1.0,SoundStimuli/TheSign_AceOfBase_Original5S.wav,,,,,,,,,,,,,,,,,,,,,,,,,,,,,,,,,,,,,,,,,,,,,,,,,,,,,
,,,,,160159,1,2024-07-12_19h20.54.026,experiment,2024.1.5,Win32,59.52380952,6691931c2c63981b064e1f0c,6691ba09250cdadffd5d9dba,,,,,,,,,,,,,,,,,,,,,,,,,,,,,,,,,,,,,,,,,,,,,,,,,,,,,,,,,,,,314.7269,325.3238,0.229041113,-0.242191764,1.0,0.0,0.0,4.585,compass,0.0,3.0,3.0,6.0,1.0,SoundStimuli/SaveYourTears_TheWeekndArianaGrande_Original5S.wav,,,,,,,,,,,,,,,,,,,,,,,,,,,,,,,,,,,,,,,,,,,,,,,,,,,,,
,,,,,160159,1,2024-07-12_19h20.54.026,experiment,2024.1.5,Win32,59.52380952,6691931c2c63981b064e1f0c,6691ba09250cdadffd5d9dba,,,,,,,,,,,,,,,,,,,,,,,,,,,,,,,,,,,,,,,,,,,,,,,,,,,,,,,,,,,,325.3317,334.3967,0.110684915,-0.100821926,1.0,0.0,0.0,3.0541,compass,0.0,4.0,4.0,4.0,1.0,SoundStimuli/Dreams_FleetwoodMac_Cover5S.wav,,,,,,,,,,,,,,,,,,,,,,,,,,,,,,,,,,,,,,,,,,,,,,,,,,,,,
,,,,,160159,1,2024-07-12_19h20.54.026,experiment,2024.1.5,Win32,59.52380952,6691931c2c63981b064e1f0c,6691ba09250cdadffd5d9dba,,,,,,,,,,,,,,,,,,,,,,,,,,,,,,,,,,,,,,,,,,,,,,,,,,,,,,,,,,,,334.4042,341.7631,0.024109639,0.031780797,1.0,0.0,0.0,1.3505,compass,0.0,5.0,5.0,3.0,1.0,SoundStimuli/PartyRockAnthem_LMFAO_Cover5S.wav,,,,,,,,,,,,,,,,,,,,,,,,,,,,,,,,,,,,,,,,,,,,,,,,,,,,,
,,,,,160159,1,2024-07-12_19h20.54.026,experiment,2024.1.5,Win32,59.52380952,6691931c2c63981b064e1f0c,6691ba09250cdadffd5d9dba,,,,,,,,,,,,,,,,,,,,,,,,,,,,,,,,,,,,,,,,,,,,,,,,,,,,,,,,,,,,341.7709,348.5159,0.17863017,-0.169863014,1.0,0.0,0.0,0.7338,compass,0.0,6.0,6.0,32.0,1.0,SoundStimuli/Dilemma_NellyKellyRowland_Original5S.wav,,,,,,,,,,,,,,,,,,,,,,,,,,,,,,,,,,,,,,,,,,,,,,,,,,,,,
,,,,,160159,1,2024-07-12_19h20.54.026,experiment,2024.1.5,Win32,59.52380952,6691931c2c63981b064e1f0c,6691ba09250cdadffd5d9dba,,,,,,,,,,,,,,,,,,,,,,,,,,,,,,,,,,,,,,,,,,,,,,,,,,,,,,,,,,,,348.5234,356.7026,-0.249862964,0.055890394,1.0,0.0,0.0,2.1677,compass,0.0,7.0,7.0,5.0,1.0,SoundStimuli/JoyToTheWorld_ThreeDogNight_Cover5S.wav,,,,,,,,,,,,,,,,,,,,,,,,,,,,,,,,,,,,,,,,,,,,,,,,,,,,,
,,,,,160159,1,2024-07-12_19h20.54.026,experiment,2024.1.5,Win32,59.52380952,6691931c2c63981b064e1f0c,6691ba09250cdadffd5d9dba,,,,,,,,,,,,,,,,,,,,,,,,,,,,,,,,,,,,,,,,,,,,,,,,,,,,,,,,,,,,356.7111,363.2045,0.153424658,-0.15890411,1.0,0.0,0.0,0.4835,compass,0.0,8.0,8.0,7.0,1.0,SoundStimuli/MackTheKnife_BobbyDarin_Original5S.wav,,,,,,,,,,,,,,,,,,,,,,,,,,,,,,,,,,,,,,,,,,,,,,,,,,,,,
,,,,,160159,1,2024-07-12_19h20.54.026,experiment,2024.1.5,Win32,59.52380952,6691931c2c63981b064e1f0c,6691ba09250cdadffd5d9dba,,,,,,,,,,,,,,,,,,,,,,,,,,,,,,,,,,,,,,,,,,,,,,,,,,,,,,,,,,,,363.2122,370.7573,0.108493167,0.024109556,1.0,0.0,0.0,1.5338,compass,0.0,9.0,9.0,1.0,1.0,SoundStimuli/Smooth_SantanaRobThomas_Cover5S.wav,,,,,,,,,,,,,,,,,,,,,,,,,,,,,,,,,,,,,,,,,,,,,,,,,,,,,
,,,,,160159,1,2024-07-12_19h20.54.026,experiment,2024.1.5,Win32,59.52380952,6691931c2c63981b064e1f0c,6691ba09250cdadffd5d9dba,,,,,,,,,,,,,,,,,,,,,,,,,,,,,,,,,,,,,,,,,,,,,,,,,,,,,,,,,,,,370.7646,377.2263,0.244383595,0.269589045,1.0,0.0,0.0,0.4495,compass,0.0,10.0,10.0,15.0,1.0,SoundStimuli/CrazyInLove_BeyonceFtJayZ_Original5S.wav,,,,,,,,,,,,,,,,,,,,,,,,,,,,,,,,,,,,,,,,,,,,,,,,,,,,,
,,,,,160159,1,2024-07-12_19h20.54.026,experiment,2024.1.5,Win32,59.52380952,6691931c2c63981b064e1f0c,6691ba09250cdadffd5d9dba,,,,,,,,,,,,,,,,,,,,,,,,,,,,,,,,,,,,,,,,,,,,,,,,,,,,,,,,,,,,377.2343,384.5459,-0.030684881,-0.181917833,1.0,0.0,0.0,1.3007,compass,0.0,11.0,11.0,19.0,1.0,SoundStimuli/YouLightUpMyLife_DebbyBoone_Cover5S.wav,,,,,,,,,,,,,,,,,,,,,,,,,,,,,,,,,,,,,,,,,,,,,,,,,,,,,
,,,,,160159,1,2024-07-12_19h20.54.026,experiment,2024.1.5,Win32,59.52380952,6691931c2c63981b064e1f0c,6691ba09250cdadffd5d9dba,,,,,,,,,,,,,,,,,,,,,,,,,,,,,,,,,,,,,,,,,,,,,,,,,,,,,,,,,,,,384.5538,391.1482,0.277260307,0.326575345,1.0,0.0,0.0,0.5837,compass,0.0,12.0,12.0,11.0,1.0,SoundStimuli/BlurredLines_RobinThicke_Original5S.wav,,,,,,,,,,,,,,,,,,,,,,,,,,,,,,,,,,,,,,,,,,,,,,,,,,,,,
,,,,,160159,1,2024-07-12_19h20.54.026,experiment,2024.1.5,Win32,59.52380952,6691931c2c63981b064e1f0c,6691ba09250cdadffd5d9dba,,,,,,,,,,,,,,,,,,,,,,,,,,,,,,,,,,,,,,,,,,,,,,,,,,,,,,,,,,,,391.156,397.284,0.053698647,0.028493134,1.0,0.0,0.0,0.1167,compass,0.0,13.0,13.0,12.0,1.0,SoundStimuli/UnbreakMyHeart_ToniBraxton_Cover5S.wav,,,,,,,,,,,,,,,,,,,,,,,,,,,,,,,,,,,,,,,,,,,,,,,,,,,,,
,,,,,160159,1,2024-07-12_19h20.54.026,experiment,2024.1.5,Win32,59.52380952,6691931c2c63981b064e1f0c,6691ba09250cdadffd5d9dba,,,,,,,,,,,,,,,,,,,,,,,,,,,,,,,,,,,,,,,,,,,,,,,,,,,,,,,,,,,,397.2914,404.1031,0.107397294,0.116164367,1.0,0.0,0.0,0.8004,compass,0.0,14.0,14.0,22.0,1.0,SoundStimuli/Happy_PharellWilliams_Cover5S.wav,,,,,,,,,,,,,,,,,,,,,,,,,,,,,,,,,,,,,,,,,,,,,,,,,,,,,
,,,,,160159,1,2024-07-12_19h20.54.026,experiment,2024.1.5,Win32,59.52380952,6691931c2c63981b064e1f0c,6691ba09250cdadffd5d9dba,,,,,,,,,,,,,,,,,,,,,,,,,,,,,,,,,,,,,,,,,,,,,,,,,,,,,,,,,,,,404.1105,412.2062,-0.058082142,0.043835616,1.0,0.0,0.0,2.0843,compass,0.0,15.0,15.0,34.0,1.0,SoundStimuli/Irreplaceable_Beyonce_Original5S.wav,,,,,,,,,,,,,,,,,,,,,,,,,,,,,,,,,,,,,,,,,,,,,,,,,,,,,
,,,,,160159,1,2024-07-12_19h20.54.026,experiment,2024.1.5,Win32,59.52380952,6691931c2c63981b064e1f0c,6691ba09250cdadffd5d9dba,,,,,,,,,,,,,,,,,,,,,,,,,,,,,,,,,,,,,,,,,,,,,,,,,,,,,,,,,,,,412.214,419.1421,0.063561761,-0.103013715,1.0,0.0,0.0,0.9171,compass,0.0,16.0,16.0,16.0,1.0,SoundStimuli/ItsAllInTheGame_TommyEdwards_Original5S.wav,,,,,,,,,,,,,,,,,,,,,,,,,,,,,,,,,,,,,,,,,,,,,,,,,,,,,
,,,,,160159,1,2024-07-12_19h20.54.026,experiment,2024.1.5,Win32,59.52380952,6691931c2c63981b064e1f0c,6691ba09250cdadffd5d9dba,,,,,,,,,,,,,,,,,,,,,,,,,,,,,,,,,,,,,,,,,,,,,,,,,,,,,,,,,,,,419.1494,425.6114,0.077808202,0.046027364,1.0,0.0,0.0,0.4505,compass,0.0,17.0,17.0,20.0,1.0,SoundStimuli/FlashdanceWhatAFeeling_IreneCara_Cover5S.wav,,,,,,,,,,,,,,,,,,,,,,,,,,,,,,,,,,,,,,,,,,,,,,,,,,,,,
,,,,,160159,1,2024-07-12_19h20.54.026,experiment,2024.1.5,Win32,59.52380952,6691931c2c63981b064e1f0c,6691ba09250cdadffd5d9dba,,,,,,,,,,,,,,,,,,,,,,,,,,,,,,,,,,,,,,,,,,,,,,,,,,,,,,,,,,,,425.6191,433.8475,0.053698647,-0.085479444,1.0,0.0,0.0,2.2174,compass,0.0,18.0,18.0,21.0,1.0,SoundStimuli/BridgeOverTroubledWater_SimonAndGarfunkel_Cover5S.wav,,,,,,,,,,,,,,,,,,,,,,,,,,,,,,,,,,,,,,,,,,,,,,,,,,,,,
,,,,,160159,1,2024-07-12_19h20.54.026,experiment,2024.1.5,Win32,59.52380952,6691931c2c63981b064e1f0c,6691ba09250cdadffd5d9dba,,,,,,,,,,,,,,,,,,,,,,,,,,,,,,,,,,,,,,,,,,,,,,,,,,,,,,,,,,,,433.8553,440.3,0.132602723,0.177534213,1.0,0.0,0.0,0.4335,compass,0.0,19.0,19.0,24.0,1.0,SoundStimuli/Kiss_Prince_Original5S.wav,,,,,,,,,,,,,,,,,,,,,,,,,,,,,,,,,,,,,,,,,,,,,,,,,,,,,
,,,,,160159,1,2024-07-12_19h20.54.026,experiment,2024.1.5,Win32,59.52380952,6691931c2c63981b064e1f0c,6691ba09250cdadffd5d9dba,,,,,,,,,,,,,,,,,,,,,,,,,,,,,,,,,,,,,,,,,,,,,,,,,,,,,,,,,,,,440.3078,446.9524,0.189589075,-0.280547928,1.0,0.0,0.0,0.6336,compass,0.0,20.0,20.0,17.0,1.0,SoundStimuli/IWannaDanceWithSomebody_WhitneyHouston_Cover5S.wav,,,,,,,,,,,,,,,,,,,,,,,,,,,,,,,,,,,,,,,,,,,,,,,,,,,,,
,,,,,160159,1,2024-07-12_19h20.54.026,experiment,2024.1.5,Win32,59.52380952,6691931c2c63981b064e1f0c,6691ba09250cdadffd5d9dba,,,,,,,,,,,,,,,,,,,,,,,,,,,,,,,,,,,,,,,,,,,,,,,,,,,,,,,,,,,,446.9603,454.6053,0.082191781,0.095342432,1.0,0.0,0.0,1.634,compass,0.0,21.0,21.0,2.0,1.0,SoundStimuli/SmellsLikeTeenSpirit_Nirvana_Cover5S.wav,,,,,,,,,,,,,,,,,,,,,,,,,,,,,,,,,,,,,,,,,,,,,,,,,,,,,
,,,,,160159,1,2024-07-12_19h20.54.026,experiment,2024.1.5,Win32,59.52380952,6691931c2c63981b064e1f0c,6691ba09250cdadffd5d9dba,,,,,,,,,,,,,,,,,,,,,,,,,,,,,,,,,,,,,,,,,,,,,,,,,,,,,,,,,,,,454.6129,461.3245,0.094246559,-0.104109589,1.0,0.0,0.0,0.7005,compass,0.0,22.0,22.0,29.0,1.0,SoundStimuli/BetteDavisEyes_KimCarnes_Cover5S.wav,,,,,,,,,,,,,,,,,,,,,,,,,,,,,,,,,,,,,,,,,,,,,,,,,,,,,
,,,,,160159,1,2024-07-12_19h20.54.026,experiment,2024.1.5,Win32,59.52380952,6691931c2c63981b064e1f0c,6691ba09250cdadffd5d9dba,,,,,,,,,,,,,,,,,,,,,,,,,,,,,,,,,,,,,,,,,,,,,,,,,,,,,,,,,,,,461.3315,468.2937,0.039452038,-0.161095899,1.0,0.0,0.0,0.9503,compass,0.0,23.0,23.0,23.0,1.0,SoundStimuli/IWalkTheLine_JohnnyCash_Cover5S.wav,,,,,,,,,,,,,,,,,,,,,,,,,,,,,,,,,,,,,,,,,,,,,,,,,,,,,
,,,,,160159,1,2024-07-12_19h20.54.026,experiment,2024.1.5,Win32,59.52380952,6691931c2c63981b064e1f0c,6691ba09250cdadffd5d9dba,,,,,,,,,,,,,,,,,,,,,,,,,,,,,,,,,,,,,,,,,,,,,,,,,,,,,,,,,,,,468.3011,474.963,0.250958921,0.279452034,1.0,0.0,0.0,0.6501,compass,0.0,24.0,24.0,33.0,1.0,SoundStimuli/TheBoyIsMine_BrandyMonica_Cover5S.wav,,,,,,,,,,,,,,,,,,,,,,,,,,,,,,,,,,,,,,,,,,,,,,,,,,,,,
,,,,,160159,1,2024-07-12_19h20.54.026,experiment,2024.1.5,Win32,59.52380952,6691931c2c63981b064e1f0c,6691ba09250cdadffd5d9dba,,,,,,,,,,,,,,,,,,,,,,,,,,,,,,,,,,,,,,,,,,,,,,,,,,,,,,,,,,,,474.9696,481.282,-0.236712312,-0.272876813,1.0,0.0,0.0,0.2999,compass,0.0,25.0,25.0,9.0,1.0,SoundStimuli/HowDoILive_LeAnnRimes_Original5S.wav,,,,,,,,,,,,,,,,,,,,,,,,,,,,,,,,,,,,,,,,,,,,,,,,,,,,,
,,,,,160159,1,2024-07-12_19h20.54.026,experiment,2024.1.5,Win32,59.52380952,6691931c2c63981b064e1f0c,6691ba09250cdadffd5d9dba,,,,,,,,,,,,,,,,,,,,,,,,,,,,,,,,,,,,,,,,,,,,,,,,,,,,,,,,,,,,481.2896,489.1515,0.049315068,-0.047123321,1.0,0.0,0.0,1.8504,compass,0.0,26.0,26.0,8.0,1.0,SoundStimuli/EndlessLove_DianaRossLionelRichie_Original5S.wav,,,,,,,,,,,,,,,,,,,,,,,,,,,,,,,,,,,,,,,,,,,,,,,,,,,,,
,,,,,160159,1,2024-07-12_19h20.54.026,experiment,2024.1.5,Win32,59.52380952,6691931c2c63981b064e1f0c,6691ba09250cdadffd5d9dba,,,,,,,,,,,,,,,,,,,,,,,,,,,,,,,,,,,,,,,,,,,,,,,,,,,,,,,,,,,,489.1592,495.9374,0.109589041,0.132602723,1.0,0.0,0.0,0.767,compass,0.0,27.0,27.0,30.0,1.0,SoundStimuli/SomebodyThatIUsedtoKnow_Gotye_Cover5S.wav,,,,,,,,,,,,,,,,,,,,,,,,,,,,,,,,,,,,,,,,,,,,,,,,,,,,,
,,,,,160159,1,2024-07-12_19h20.54.026,experiment,2024.1.5,Win32,59.52380952,6691931c2c63981b064e1f0c,6691ba09250cdadffd5d9dba,,,,,,,,,,,,,,,,,,,,,,,,,,,,,,,,,,,,,,,,,,,,,,,,,,,,,,,,,,,,495.9456,502.9399,0.060273973,-0.21260284,1.0,0.0,0.0,0.9838,compass,0.0,28.0,28.0,28.0,1.0,SoundStimuli/IWantToHoldYourHand_TheBeatles_Cover5S.wav,,,,,,,,,,,,,,,,,,,,,,,,,,,,,,,,,,,,,,,,,,,,,,,,,,,,,
,,,,,160159,1,2024-07-12_19h20.54.026,experiment,2024.1.5,Win32,59.52380952,6691931c2c63981b064e1f0c,6691ba09250cdadffd5d9dba,,,,,,,,,,,,,,,,,,,,,,,,,,,,,,,,,,,,,,,,,,,,,,,,,,,,,,,,,,,,502.9474,509.8426,0.326575376,0.300273968,1.0,0.0,0.0,0.8835,compass,0.0,29.0,29.0,10.0,1.0,SoundStimuli/LeFreak_Chic_Original5S.wav,,,,,,,,,,,,,,,,,,,,,,,,,,,,,,,,,,,,,,,,,,,,,,,,,,,,,
,,,,,160159,1,2024-07-12_19h20.54.026,experiment,2024.1.5,Win32,59.52380952,6691931c2c63981b064e1f0c,6691ba09250cdadffd5d9dba,,,,,,,,,,,,,,,,,,,,,,,,,,,,,,,,,,,,,,,,,,,,,,,,,,,,,,,,,,,,509.8501,516.2616,0.035068543,-0.324383545,1.0,0.0,0.0,0.4002,compass,0.0,30.0,30.0,14.0,1.0,SoundStimuli/LikeARollingStone_BobDylan_Cover5S.wav,,,,,,,,,,,,,,,,,,,,,,,,,,,,,,,,,,,,,,,,,,,,,,,,,,,,,
,,,,,160159,1,2024-07-12_19h20.54.026,experiment,2024.1.5,Win32,59.52380952,6691931c2c63981b064e1f0c,6691ba09250cdadffd5d9dba,,,,,,,,,,,,,,,,,,,,,,,,,,,,,,,,,,,,,,,,,,,,,,,,,,,,,,,,,,,,516.2696,523.6479,0.293698664,-0.29260279,1.0,0.0,0.0,1.3674,compass,0.0,31.0,31.0,13.0,1.0,SoundStimuli/Perfect_EdSheeran_Original5S.wav,,,,,,,,,,,,,,,,,,,,,,,,,,,,,,,,,,,,,,,,,,,,,,,,,,,,,
,,,,,160159,1,2024-07-12_19h20.54.026,experiment,2024.1.5,Win32,59.52380952,6691931c2c63981b064e1f0c,6691ba09250cdadffd5d9dba,,,,,,,,,,,,,,,,,,,,,,,,,,,,,,,,,,,,,,,,,,,,,,,,,,,,,,,,,,,,523.6558,530.1668,0.321095924,-0.026301387,1.0,0.0,0.0,0.4999,compass,0.0,32.0,32.0,18.0,1.0,SoundStimuli/Weak_SWV_Original5S.wav,,,,,,,,,,,,,,,,,,,,,,,,,,,,,,,,,,,,,,,,,,,,,,,,,,,,,
,,,,,160159,1,2024-07-12_19h20.54.026,experiment,2024.1.5,Win32,59.52380952,6691931c2c63981b064e1f0c,6691ba09250cdadffd5d9dba,,,,,,,,,,,,,,,,,,,,,,,,,,,,,,,,,,,,,,,,,,,,,,,,,,,,,,,,,,,,530.1749,536.6692,-0.024109472,0.028493134,1.0,0.0,0.0,0.4835,compass,0.0,33.0,33.0,31.0,1.0,SoundStimuli/TossinAndTurnin_BobbyLewis_Cover5S.wav,,,,,,,,,,,,,,,,,,,,,,,,,,,,,,,,,,,,,,,,,,,,,,,,,,,,,
,,,,,160159,1,2024-07-12_19h20.54.026,experiment,2024.1.5,Win32,59.52380952,6691931c2c63981b064e1f0c,6691ba09250cdadffd5d9dba,,,,,,,,,,,,,,,,,,,,,,,,,,,,,,,,,,,,,,,,,,,,,,,,,,,,,,,,,,,,536.6774,543.305,0.012054778,0.003287663,1.0,0.0,0.0,0.617,compass,0.0,34.0,34.0,0.0,1.0,SoundStimuli/GimmeShelter_RollingStones_Cover5S.wav,,,,,,,,,,,,,,,,,,,,,,,,,,,,,,,,,,,,,,,,,,,,,,,,,,,,,
,,,,,160159,1,2024-07-12_19h20.54.026,experiment,2024.1.5,Win32,59.52380952,6691931c2c63981b064e1f0c,6691ba09250cdadffd5d9dba,,,,,,,,,,,,,,,,,,,,,,,,,,,,,,,,,,,,,,,,,,,,,,,,,,,,,,,,,,,,,,,,,,,,,,,,,,,543.3134,545.1226,space,1.7883,,545.1228,552.6258,right,7.4835,,0.0,0.0,0.0,0.0,1.0,block_order/blockB.xlsx,,,,,,,,,,,,,,,,,,,,,,,,,,,,,,,,,,,,,
,,,,,160159,1,2024-07-12_19h20.54.026,experiment,2024.1.5,Win32,59.52380952,6691931c2c63981b064e1f0c,6691ba09250cdadffd5d9dba,,,,,,,,,,,,,,,,,,,,,,,,,,,,,,,,,,,,,,,,,,,,,,,,,,,,,,,,,,,,552.6403,559.978,0.062465804,-0.312328767,1.0,0.0,0.0,1.3338,compass,0.0,0.0,0.0,2.0,1.0,SoundStimuli/Mood_24kGoldnianndior_Cover5S.wav,,,,,,,,,,,,,,,,,,,,,,,,,,,,,,,,,,,,,,,,,,,,,,,,,,,,,
,,,,,160159,1,2024-07-12_19h20.54.026,experiment,2024.1.5,Win32,59.52380952,6691931c2c63981b064e1f0c,6691ba09250cdadffd5d9dba,,,,,,,,,,,,,,,,,,,,,,,,,,,,,,,,,,,,,,,,,,,,,,,,,,,,,,,,,,,,559.9859,566.2971,0.039452038,0.021917808,1.0,0.0,0.0,0.3003,compass,0.0,1.0,1.0,4.0,1.0,SoundStimuli/GetUrFreakOn_MissyElliot_Original5S.wav,,,,,,,,,,,,,,,,,,,,,,,,,,,,,,,,,,,,,,,,,,,,,,,,,,,,,
,,,,,160159,1,2024-07-12_19h20.54.026,experiment,2024.1.5,Win32,59.52380952,6691931c2c63981b064e1f0c,6691ba09250cdadffd5d9dba,,,,,,,,,,,,,,,,,,,,,,,,,,,,,,,,,,,,,,,,,,,,,,,,,,,,,,,,,,,,566.3053,573.8998,-0.060273973,0.030684923,1.0,0.0,0.0,1.5839,compass,0.0,2.0,2.0,9.0,1.0,SoundStimuli/Despacito_LuisFonsiDaddyYankee_Cover5S.wav,,,,,,,,,,,,,,,,,,,,,,,,,,,,,,,,,,,,,,,,,,,,,,,,,,,,,
,,,,,160159,1,2024-07-12_19h20.54.026,experiment,2024.1.5,Win32,59.52380952,6691931c2c63981b064e1f0c,6691ba09250cdadffd5d9dba,,,,,,,,,,,,,,,,,,,,,,,,,,,,,,,,,,,,,,,,,,,,,,,,,,,,,,,,,,,,573.9076,580.6024,0.054794521,-0.215890461,1.0,0.0,0.0,0.6838,compass,0.0,3.0,3.0,13.0,1.0,SoundStimuli/GodOnlyKnows_TheBeachBoys_Cover5S.wav,,,,,,,,,,,,,,,,,,,,,,,,,,,,,,,,,,,,,,,,,,,,,,,,,,,,,
,,,,,160159,1,2024-07-12_19h20.54.026,experiment,2024.1.5,Win32,59.52380952,6691931c2c63981b064e1f0c,6691ba09250cdadffd5d9dba,,,,,,,,,,,,,,,,,,,,,,,,,,,,,,,,,,,,,,,,,,,,,,,,,,,,,,,,,,,,580.609,587.4716,0.012054778,0.02739726,1.0,0.0,0.0,0.8484,compass,0.0,4.0,4.0,21.0,1.0,SoundStimuli/GoodGollyMissMolly_LittleRichard_Cover5S.wav,,,,,,,,,,,,,,,,,,,,,,,,,,,,,,,,,,,,,,,,,,,,,,,,,,,,,
,,,,,160159,1,2024-07-12_19h20.54.026,experiment,2024.1.5,Win32,59.52380952,6691931c2c63981b064e1f0c,6691ba09250cdadffd5d9dba,,,,,,,,,,,,,,,,,,,,,,,,,,,,,,,,,,,,,,,,,,,,,,,,,,,,,,,,,,,,587.4798,594.491,-0.040547828,-0.030684965,1.0,0.0,0.0,1.0006,compass,0.0,5.0,5.0,10.0,1.0,SoundStimuli/BadDay_DanielPowter_Cover5S.wav,,,,,,,,,,,,,,,,,,,,,,,,,,,,,,,,,,,,,,,,,,,,,,,,,,,,,
,,,,,160159,1,2024-07-12_19h20.54.026,experiment,2024.1.5,Win32,59.52380952,6691931c2c63981b064e1f0c,6691ba09250cdadffd5d9dba,,,,,,,,,,,,,,,,,,,,,,,,,,,,,,,,,,,,,,,,,,,,,,,,,,,,,,,,,,,,594.4993,601.01,0.268493151,0.282739718,1.0,0.0,0.0,0.5002,compass,0.0,6.0,6.0,0.0,1.0,SoundStimuli/StayinAlive_BeeGees_Original5S.wav,,,,,,,,,,,,,,,,,,,,,,,,,,,,,,,,,,,,,,,,,,,,,,,,,,,,,
,,,,,160159,1,2024-07-12_19h20.54.026,experiment,2024.1.5,Win32,59.52380952,6691931c2c63981b064e1f0c,6691ba09250cdadffd5d9dba,,,,,,,,,,,,,,,,,,,,,,,,,,,,,,,,,,,,,,,,,,,,,,,,,,,,,,,,,,,,601.0183,607.3959,0.277260307,0.289315064,1.0,0.0,0.0,0.367,compass,0.0,7.0,7.0,28.0,1.0,SoundStimuli/ComeAndGetYourLove_Redbone_Original5S.wav,,,,,,,,,,,,,,,,,,,,,,,,,,,,,,,,,,,,,,,,,,,,,,,,,,,,,
,,,,,160159,1,2024-07-12_19h20.54.026,experiment,2024.1.5,Win32,59.52380952,6691931c2c63981b064e1f0c,6691ba09250cdadffd5d9dba,,,,,,,,,,,,,,,,,,,,,,,,,,,,,,,,,,,,,,,,,,,,,,,,,,,,,,,,,,,,607.4035,613.8981,0.259726078,0.27835616,1.0,0.0,0.0,0.4837,compass,0.0,8.0,8.0,8.0,1.0,SoundStimuli/LikeAPrayer_Madonna_Original5S.wav,,,,,,,,,,,,,,,,,,,,,,,,,,,,,,,,,,,,,,,,,,,,,,,,,,,,,
,,,,,160159,1,2024-07-12_19h20.54.026,experiment,2024.1.5,Win32,59.52380952,6691931c2c63981b064e1f0c,6691ba09250cdadffd5d9dba,,,,,,,,,,,,,,,,,,,,,,,,,,,,,,,,,,,,,,,,,,,,,,,,,,,,,,,,,,,,613.9059,620.7506,0.334246575,0.015342441,1.0,0.0,0.0,0.8334,compass,0.0,9.0,9.0,27.0,1.0,SoundStimuli/ShapeofYou_EdSheeran_Original5S.wav,,,,,,,,,,,,,,,,,,,,,,,,,,,,,,,,,,,,,,,,,,,,,,,,,,,,,
,,,,,160159,1,2024-07-12_19h20.54.026,experiment,2024.1.5,Win32,59.52380952,6691931c2c63981b064e1f0c,6691ba09250cdadffd5d9dba,,,,,,,,,,,,,,,,,,,,,,,,,,,,,,,,,,,,,,,,,,,,,,,,,,,,,,,,,,,,620.7586,627.4198,0.020821935,-0.338630237,1.0,0.0,0.0,0.6501,compass,0.0,10.0,10.0,31.0,1.0,SoundStimuli/TheBattleOfNewOrleans_JohnnyHorton_Cover5S.wav,,,,,,,,,,,,,,,,,,,,,,,,,,,,,,,,,,,,,,,,,,,,,,,,,,,,,
,,,,,160159,1,2024-07-12_19h20.54.026,experiment,2024.1.5,Win32,59.52380952,6691931c2c63981b064e1f0c,6691ba09250cdadffd5d9dba,,,,,,,,,,,,,,,,,,,,,,,,,,,,,,,,,,,,,,,,,,,,,,,,,,,,,,,,,,,,627.4277,634.0389,0.309041146,0.17643836,1.0,0.0,0.0,0.6001,compass,0.0,11.0,11.0,1.0,1.0,SoundStimuli/Stronger_KanyeWest_Original5S.wav,,,,,,,,,,,,,,,,,,,,,,,,,,,,,,,,,,,,,,,,,,,,,,,,,,,,,
,,,,,160159,1,2024-07-12_19h20.54.026,experiment,2024.1.5,Win32,59.52380952,6691931c2c63981b064e1f0c,6691ba09250cdadffd5d9dba,,,,,,,,,,,,,,,,,,,,,,,,,,,,,,,,,,,,,,,,,,,,,,,,,,,,,,,,,,,,634.0467,640.6248,0.232328817,0.318904114,1.0,0.0,0.0,0.5668,compass,0.0,12.0,12.0,7.0,1.0,SoundStimuli/NoOne_AliciaKeys_Cover5S.wav,,,,,,,,,,,,,,,,,,,,,,,,,,,,,,,,,,,,,,,,,,,,,,,,,,,,,
,,,,,160159,1,2024-07-12_19h20.54.026,experiment,2024.1.5,Win32,59.52380952,6691931c2c63981b064e1f0c,6691ba09250cdadffd5d9dba,,,,,,,,,,,,,,,,,,,,,,,,,,,,,,,,,,,,,,,,,,,,,,,,,,,,,,,,,,,,640.6326,647.444,-0.020821935,0.333150681,1.0,0.0,0.0,0.8002,compass,0.0,13.0,13.0,34.0,1.0,SoundStimuli/AChangeIsGonnaCome_SamCooke_Cover5S.wav,,,,,,,,,,,,,,,,,,,,,,,,,,,,,,,,,,,,,,,,,,,,,,,,,,,,,
,,,,,160159,1,2024-07-12_19h20.54.026,experiment,2024.1.5,Win32,59.52380952,6691931c2c63981b064e1f0c,6691ba09250cdadffd5d9dba,,,,,,,,,,,,,,,,,,,,,,,,,,,,,,,,,,,,,,,,,,,,,,,,,,,,,,,,,,,,647.4515,653.9297,0.299178116,0.179726023,1.0,0.0,0.0,0.4667,compass,0.0,14.0,14.0,22.0,1.0,SoundStimuli/RockWithYou_MichaelJackson_Original5S.wav,,,,,,,,,,,,,,,,,,,,,,,,,,,,,,,,,,,,,,,,,,,,,,,,,,,,,
,,,,,160159,1,2024-07-12_19h20.54.026,experiment,2024.1.5,Win32,59.52380952,6691931c2c63981b064e1f0c,6691ba09250cdadffd5d9dba,,,,,,,,,,,,,,,,,,,,,,,,,,,,,,,,,,,,,,,,,,,,,,,,,,,,,,,,,,,,653.9378,660.9657,0.286027381,-0.139178091,1.0,0.0,0.0,1.0169,compass,0.0,15.0,15.0,15.0,1.0,SoundStimuli/TikTok_Kesha_Cover5S.wav,,,,,,,,,,,,,,,,,,,,,,,,,,,,,,,,,,,,,,,,,,,,,,,,,,,,,
,,,,,160159,1,2024-07-12_19h20.54.026,experiment,2024.1.5,Win32,59.52380952,6691931c2c63981b064e1f0c,6691ba09250cdadffd5d9dba,,,,,,,,,,,,,,,,,,,,,,,,,,,,,,,,,,,,,,,,,,,,,,,,,,,,,,,,,,,,660.9736,667.4684,0.284931507,-0.344109689,1.0,0.0,0.0,0.4838,compass,0.0,16.0,16.0,19.0,1.0,SoundStimuli/LetsGetItOn_MarvinGaye_Cover5S.wav,,,,,,,,,,,,,,,,,,,,,,,,,,,,,,,,,,,,,,,,,,,,,,,,,,,,,
,,,,,160159,1,2024-07-12_19h20.54.026,experiment,2024.1.5,Win32,59.52380952,6691931c2c63981b064e1f0c,6691ba09250cdadffd5d9dba,,,,,,,,,,,,,,,,,,,,,,,,,,,,,,,,,,,,,,,,,,,,,,,,,,,,,,,,,,,,667.4761,673.8205,0.282739759,0.036164375,1.0,0.0,0.0,0.3335,compass,0.0,17.0,17.0,25.0,1.0,SoundStimuli/Respect_ArethaFranklin_Original5S.wav,,,,,,,,,,,,,,,,,,,,,,,,,,,,,,,,,,,,,,,,,,,,,,,,,,,,,
,,,,,160159,1,2024-07-12_19h20.54.026,experiment,2024.1.5,Win32,59.52380952,6691931c2c63981b064e1f0c,6691ba09250cdadffd5d9dba,,,,,,,,,,,,,,,,,,,,,,,,,,,,,,,,,,,,,,,,,,,,,,,,,,,,,,,,,,,,673.8284,682.3405,-0.025205429,-0.329862997,1.0,0.0,0.0,2.5011,compass,0.0,18.0,18.0,26.0,1.0,SoundStimuli/LivinOnAPrayer_BonJovi_Cover5S.wav,,,,,,,,,,,,,,,,,,,,,,,,,,,,,,,,,,,,,,,,,,,,,,,,,,,,,
,,,,,160159,1,2024-07-12_19h20.54.026,experiment,2024.1.5,Win32,59.52380952,6691931c2c63981b064e1f0c,6691ba09250cdadffd5d9dba,,,,,,,,,,,,,,,,,,,,,,,,,,,,,,,,,,,,,,,,,,,,,,,,,,,,,,,,,,,,682.348,689.0095,0.032876712,0.138082175,1.0,0.0,0.0,0.6495,compass,0.0,19.0,19.0,18.0,1.0,SoundStimuli/AnotherOneBitesTheDust_Queen_Original5S.wav,,,,,,,,,,,,,,,,,,,,,,,,,,,,,,,,,,,,,,,,,,,,,,,,,,,,,
,,,,,160159,1,2024-07-12_19h20.54.026,experiment,2024.1.5,Win32,59.52380952,6691931c2c63981b064e1f0c,6691ba09250cdadffd5d9dba,,,,,,,,,,,,,,,,,,,,,,,,,,,,,,,,,,,,,,,,,,,,,,,,,,,,,,,,,,,,689.0172,696.6959,0.024109639,0.016438356,1.0,0.0,0.0,1.6675,compass,0.0,20.0,20.0,20.0,1.0,SoundStimuli/HeyYa_Outkast_Cover5S.wav,,,,,,,,,,,,,,,,,,,,,,,,,,,,,,,,,,,,,,,,,,,,,,,,,,,,,
,,,,,160159,1,2024-07-12_19h20.54.026,experiment,2024.1.5,Win32,59.52380952,6691931c2c63981b064e1f0c,6691ba09250cdadffd5d9dba,,,,,,,,,,,,,,,,,,,,,,,,,,,,,,,,,,,,,,,,,,,,,,,,,,,,,,,,,,,,696.7036,703.048,0.188493201,0.18630137,1.0,0.0,0.0,0.3334,compass,0.0,21.0,21.0,3.0,1.0,SoundStimuli/NoScrubs_TLC_Original5S.wav,,,,,,,,,,,,,,,,,,,,,,,,,,,,,,,,,,,,,,,,,,,,,,,,,,,,,
,,,,,160159,1,2024-07-12_19h20.54.026,experiment,2024.1.5,Win32,59.52380952,6691931c2c63981b064e1f0c,6691ba09250cdadffd5d9dba,,,,,,,,,,,,,,,,,,,,,,,,,,,,,,,,,,,,,,,,,,,,,,,,,,,,,,,,,,,,703.0556,710.301,0.338630154,0.023013682,1.0,0.0,0.0,1.2341,compass,0.0,22.0,22.0,23.0,1.0,SoundStimuli/StrawberryFieldsForever_TheBeatles_Original5S.wav,,,,,,,,,,,,,,,,,,,,,,,,,,,,,,,,,,,,,,,,,,,,,,,,,,,,,
,,,,,160159,1,2024-07-12_19h20.54.026,experiment,2024.1.5,Win32,59.52380952,6691931c2c63981b064e1f0c,6691ba09250cdadffd5d9dba,,,,,,,,,,,,,,,,,,,,,,,,,,,,,,,,,,,,,,,,,,,,,,,,,,,,,,,,,,,,710.3091,716.9867,0.300273989,0.303561631,1.0,0.0,0.0,0.6669,compass,0.0,23.0,23.0,14.0,1.0,SoundStimuli/BlindingLights_TheWeeknd_Original5S.wav,,,,,,,,,,,,,,,,,,,,,,,,,,,,,,,,,,,,,,,,,,,,,,,,,,,,,
,,,,,160159,1,2024-07-12_19h20.54.026,experiment,2024.1.5,Win32,59.52380952,6691931c2c63981b064e1f0c,6691ba09250cdadffd5d9dba,,,,,,,,,,,,,,,,,,,,,,,,,,,,,,,,,,,,,,,,,,,,,,,,,,,,,,,,,,,,716.9942,725.9738,0.025205597,0.337534249,1.0,0.0,0.0,2.9683,compass,0.0,24.0,24.0,6.0,1.0,SoundStimuli/Levitating_DuaLipa_Cover5S.wav,,,,,,,,,,,,,,,,,,,,,,,,,,,,,,,,,,,,,,,,,,,,,,,,,,,,,
,,,,,160159,1,2024-07-12_19h20.54.026,experiment,2024.1.5,Win32,59.52380952,6691931c2c63981b064e1f0c,6691ba09250cdadffd5d9dba,,,,,,,,,,,,,,,,,,,,,,,,,,,,,,,,,,,,,,,,,,,,,,,,,,,,,,,,,,,,725.9815,732.9592,0.253150668,0.218082188,1.0,0.0,0.0,0.9668,compass,0.0,25.0,25.0,32.0,1.0,SoundStimuli/HeatWaves_GlassAnimals_Original5S.wav,,,,,,,,,,,,,,,,,,,,,,,,,,,,,,,,,,,,,,,,,,,,,,,,,,,,,
,,,,,160159,1,2024-07-12_19h20.54.026,experiment,2024.1.5,Win32,59.52380952,6691931c2c63981b064e1f0c,6691ba09250cdadffd5d9dba,,,,,,,,,,,,,,,,,,,,,,,,,,,,,,,,,,,,,,,,,,,,,,,,,,,,,,,,,,,,732.9668,739.8787,0.335342449,0.329863007,1.0,0.0,0.0,0.9004,compass,0.0,26.0,26.0,30.0,1.0,SoundStimuli/PokerFace_LadyGaga_Original5S.wav,,,,,,,,,,,,,,,,,,,,,,,,,,,,,,,,,,,,,,,,,,,,,,,,,,,,,
,,,,,160159,1,2024-07-12_19h20.54.026,experiment,2024.1.5,Win32,59.52380952,6691931c2c63981b064e1f0c,6691ba09250cdadffd5d9dba,,,,,,,,,,,,,,,,,,,,,,,,,,,,,,,,,,,,,,,,,,,,,,,,,,,,,,,,,,,,739.8863,746.3476,0.122739776,0.108493126,1.0,0.0,0.0,0.4499,compass,0.0,27.0,27.0,24.0,1.0,SoundStimuli/UptownFunk_MarkRonson_Original5S.wav,,,,,,,,,,,,,,,,,,,,,,,,,,,,,,,,,,,,,,,,,,,,,,,,,,,,,
,,,,,160159,1,2024-07-12_19h20.54.026,experiment,2024.1.5,Win32,59.52380952,6691931c2c63981b064e1f0c,6691ba09250cdadffd5d9dba,,,,,,,,,,,,,,,,,,,,,,,,,,,,,,,,,,,,,,,,,,,,,,,,,,,,,,,,,,,,746.3549,753.1501,0.061369846,-0.164383562,1.0,0.0,0.0,0.7836,compass,0.0,28.0,28.0,12.0,1.0,SoundStimuli/IWillAlwaysLoveYou_WhitneyHouston_Cover5S.wav,,,,,,,,,,,,,,,,,,,,,,,,,,,,,,,,,,,,,,,,,,,,,,,,,,,,,
,,,,,160159,1,2024-07-12_19h20.54.026,experiment,2024.1.5,Win32,59.52380952,6691931c2c63981b064e1f0c,6691ba09250cdadffd5d9dba,,,,,,,,,,,,,,,,,,,,,,,,,,,,,,,,,,,,,,,,,,,,,,,,,,,,,,,,,,,,753.1578,760.3862,0.043835616,-0.037260291,1.0,0.0,0.0,1.2173,compass,0.0,29.0,29.0,11.0,1.0,SoundStimuli/Superstition_StevieWonder_Cover5S.wav,,,,,,,,,,,,,,,,,,,,,,,,,,,,,,,,,,,,,,,,,,,,,,,,,,,,,
,,,,,160159,1,2024-07-12_19h20.54.026,experiment,2024.1.5,Win32,59.52380952,6691931c2c63981b064e1f0c,6691ba09250cdadffd5d9dba,,,,,,,,,,,,,,,,,,,,,,,,,,,,,,,,,,,,,,,,,,,,,,,,,,,,,,,,,,,,760.3949,767.5221,0.338630154,0.033972586,1.0,0.0,0.0,1.1171,compass,0.0,30.0,30.0,5.0,1.0,SoundStimuli/MyGirl_TheTemptations_Original5S.wav,,,,,,,,,,,,,,,,,,,,,,,,,,,,,,,,,,,,,,,,,,,,,,,,,,,,,
,,,,,160159,1,2024-07-12_19h20.54.026,experiment,2024.1.5,Win32,59.52380952,6691931c2c63981b064e1f0c,6691ba09250cdadffd5d9dba,,,,,,,,,,,,,,,,,,,,,,,,,,,,,,,,,,,,,,,,,,,,,,,,,,,,,,,,,,,,767.5301,773.9579,0.047123405,-0.321095924,1.0,0.0,0.0,0.4166,compass,0.0,31.0,31.0,29.0,1.0,SoundStimuli/OldTownRoad_LilNasX_Original5S.wav,,,,,,,,,,,,,,,,,,,,,,,,,,,,,,,,,,,,,,,,,,,,,,,,,,,,,
,,,,,160159,1,2024-07-12_19h20.54.026,experiment,2024.1.5,Win32,59.52380952,6691931c2c63981b064e1f0c,6691ba09250cdadffd5d9dba,,,,,,,,,,,,,,,,,,,,,,,,,,,,,,,,,,,,,,,,,,,,,,,,,,,,,,,,,,,,773.9656,780.627,0.090958938,-0.037260291,1.0,0.0,0.0,0.6503,compass,0.0,32.0,32.0,33.0,1.0,SoundStimuli/StandByMe_BenEKing_Cover5S.wav,,,,,,,,,,,,,,,,,,,,,,,,,,,,,,,,,,,,,,,,,,,,,,,,,,,,,
,,,,,160159,1,2024-07-12_19h20.54.026,experiment,2024.1.5,Win32,59.52380952,6691931c2c63981b064e1f0c,6691ba09250cdadffd5d9dba,,,,,,,,,,,,,,,,,,,,,,,,,,,,,,,,,,,,,,,,,,,,,,,,,,,,,,,,,,,,780.6348,787.1795,0.058082309,-0.048219195,1.0,0.0,0.0,0.5335,compass,0.0,33.0,33.0,17.0,1.0,SoundStimuli/Fallin_AliciaKeys_Original5S.wav,,,,,,,,,,,,,,,,,,,,,,,,,,,,,,,,,,,,,,,,,,,,,,,,,,,,,
,,,,,160159,1,2024-07-12_19h20.54.026,experiment,2024.1.5,Win32,59.52380952,6691931c2c63981b064e1f0c,6691ba09250cdadffd5d9dba,,,,,,,,,,,,,,,,,,,,,,,,,,,,,,,,,,,,,,,,,,,,,,,,,,,,,,,,,,,,787.1877,794.799,-0.050410942,0.314520535,1.0,0.0,0.0,1.6006,compass,0.0,34.0,34.0,16.0,1.0,SoundStimuli/BohemianRhapsody_Queen_Original5S.wav,,,,,,,,,,,,,,,,,,,,,,,,,,,,,,,,,,,,,,,,,,,,,,,,,,,,,
,,,,,160159,1,2024-07-12_19h20.54.026,experiment,2024.1.5,Win32,59.52380952,6691931c2c63981b064e1f0c,6691ba09250cdadffd5d9dba,,,,,,,,,,,,,,,,,,,,,,,,,,,,,,,,,,,,,,,,,,,,,,,,,,,,,,,,,,,,,,,,,,,,,,,,,,,794.8064,796.2013,space,1.3813,,796.2015,800.0842,right,3.8678,,0.0,1.0,1.0,1.0,1.0,block_order/blockA.xlsx,,,,,,,,,,,,,,,,,,,,,,,,,,,,,,,,,,,,,
,,,,,160159,1,2024-07-12_19h20.54.026,experiment,2024.1.5,Win32,59.52380952,6691931c2c63981b064e1f0c,6691ba09250cdadffd5d9dba,,,,,,,,,,,,,,,,,,,,,,,,,,,,,,,,,,,,,,,,,,,,,,,,,,,,,,,,,,,,800.0988,808.3874,-0.062465636,-0.31013702,1.0,0.0,0.0,2.284,compass,0.0,0.0,0.0,6.0,1.0,SoundStimuli/SaveYourTears_TheWeekndArianaGrande_Cover5S.wav,,,,,,,,,,,,,,,,,,,,,,,,,,,,,,,,,,,,,,,,,,,,,,,,,,,,,
,,,,,160159,1,2024-07-12_19h20.54.026,experiment,2024.1.5,Win32,59.52380952,6691931c2c63981b064e1f0c,6691ba09250cdadffd5d9dba,,,,,,,,,,,,,,,,,,,,,,,,,,,,,,,,,,,,,,,,,,,,,,,,,,,,,,,,,,,,808.3956,814.7732,0.157808236,-0.098630137,1.0,0.0,0.0,0.3666,compass,0.0,1.0,1.0,4.0,1.0,SoundStimuli/Dreams_FleetwoodMac_Original5S.wav,,,,,,,,,,,,,,,,,,,,,,,,,,,,,,,,,,,,,,,,,,,,,,,,,,,,,
,,,,,160159,1,2024-07-12_19h20.54.026,experiment,2024.1.5,Win32,59.52380952,6691931c2c63981b064e1f0c,6691ba09250cdadffd5d9dba,,,,,,,,,,,,,,,,,,,,,,,,,,,,,,,,,,,,,,,,,,,,,,,,,,,,,,,,,,,,814.7812,821.1088,0.166575393,0.170958908,1.0,0.0,0.0,0.3166,compass,0.0,2.0,2.0,33.0,1.0,SoundStimuli/TheBoyIsMine_BrandyMonica_Original5S.wav,,,,,,,,,,,,,,,,,,,,,,,,,,,,,,,,,,,,,,,,,,,,,,,,,,,,,
,,,,,160159,1,2024-07-12_19h20.54.026,experiment,2024.1.5,Win32,59.52380952,6691931c2c63981b064e1f0c,6691ba09250cdadffd5d9dba,,,,,,,,,,,,,,,,,,,,,,,,,,,,,,,,,,,,,,,,,,,,,,,,,,,,,,,,,,,,821.1165,827.8947,0.080000033,0.304657526,1.0,0.0,0.0,0.7671,compass,0.0,3.0,3.0,2.0,1.0,SoundStimuli/SmellsLikeTeenSpirit_Nirvana_Original5S.wav,,,,,,,,,,,,,,,,,,,,,,,,,,,,,,,,,,,,,,,,,,,,,,,,,,,,,
,,,,,160159,1,2024-07-12_19h20.54.026,experiment,2024.1.5,Win32,59.52380952,6691931c2c63981b064e1f0c,6691ba09250cdadffd5d9dba,,,,,,,,,,,,,,,,,,,,,,,,,,,,,,,,,,,,,,,,,,,,,,,,,,,,,,,,,,,,827.9021,834.7974,0.048219195,-0.273972603,1.0,0.0,0.0,0.8836,compass,0.0,4.0,4.0,19.0,1.0,SoundStimuli/YouLightUpMyLife_DebbyBoone_Original5S.wav,,,,,,,,,,,,,,,,,,,,,,,,,,,,,,,,,,,,,,,,,,,,,,,,,,,,,
,,,,,160159,1,2024-07-12_19h20.54.026,experiment,2024.1.5,Win32,59.52380952,6691931c2c63981b064e1f0c,6691ba09250cdadffd5d9dba,,,,,,,,,,,,,,,,,,,,,,,,,,,,,,,,,,,,,,,,,,,,,,,,,,,,,,,,,,,,834.8058,841.283,0.069041213,-0.273972603,1.0,0.0,0.0,0.4669,compass,0.0,5.0,5.0,18.0,1.0,SoundStimuli/Weak_SWV_Cover5S.wav,,,,,,,,,,,,,,,,,,,,,,,,,,,,,,,,,,,,,,,,,,,,,,,,,,,,,
,,,,,160159,1,2024-07-12_19h20.54.026,experiment,2024.1.5,Win32,59.52380952,6691931c2c63981b064e1f0c,6691ba09250cdadffd5d9dba,,,,,,,,,,,,,,,,,,,,,,,,,,,,,,,,,,,,,,,,,,,,,,,,,,,,,,,,,,,,841.2894,849.0859,-0.063561594,0.21369863,1.0,0.0,0.0,1.7842,compass,0.0,6.0,6.0,30.0,1.0,SoundStimuli/SomebodyThatIUsedtoKnow_Gotye_Original5S.wav,,,,,,,,,,,,,,,,,,,,,,,,,,,,,,,,,,,,,,,,,,,,,,,,,,,,,
,,,,,160159,1,2024-07-12_19h20.54.026,experiment,2024.1.5,Win32,59.52380952,6691931c2c63981b064e1f0c,6691ba09250cdadffd5d9dba,,,,,,,,,,,,,,,,,,,,,,,,,,,,,,,,,,,,,,,,,,,,,,,,,,,,,,,,,,,,849.0942,855.9218,0.118356198,0.232328713,1.0,0.0,0.0,0.8169,compass,0.0,7.0,7.0,26.0,1.0,SoundStimuli/TheSign_AceOfBase_Cover5S.wav,,,,,,,,,,,,,,,,,,,,,,,,,,,,,,,,,,,,,,,,,,,,,,,,,,,,,
,,,,,160159,1,2024-07-12_19h20.54.026,experiment,2024.1.5,Win32,59.52380952,6691931c2c63981b064e1f0c,6691ba09250cdadffd5d9dba,,,,,,,,,,,,,,,,,,,,,,,,,,,,,,,,,,,,,,,,,,,,,,,,,,,,,,,,,,,,855.9299,863.0245,0.161095941,-0.172054803,1.0,0.0,0.0,1.0835,compass,0.0,8.0,8.0,32.0,1.0,SoundStimuli/Dilemma_NellyKellyRowland_Cover5S.wav,,,,,,,,,,,,,,,,,,,,,,,,,,,,,,,,,,,,,,,,,,,,,,,,,,,,,
,,,,,160159,1,2024-07-12_19h20.54.026,experiment,2024.1.5,Win32,59.52380952,6691931c2c63981b064e1f0c,6691ba09250cdadffd5d9dba,,,,,,,,,,,,,,,,,,,,,,,,,,,,,,,,,,,,,,,,,,,,,,,,,,,,,,,,,,,,863.0323,869.6103,0.066849298,0.02739726,1.0,0.0,0.0,0.567,compass,0.0,9.0,9.0,0.0,1.0,SoundStimuli/GimmeShelter_RollingStones_Original5S.wav,,,,,,,,,,,,,,,,,,,,,,,,,,,,,,,,,,,,,,,,,,,,,,,,,,,,,
,,,,,160159,1,2024-07-12_19h20.54.026,experiment,2024.1.5,Win32,59.52380952,6691931c2c63981b064e1f0c,6691ba09250cdadffd5d9dba,,,,,,,,,,,,,,,,,,,,,,,,,,,,,,,,,,,,,,,,,,,,,,,,,,,,,,,,,,,,869.618,876.0964,0.053698647,0.077808202,1.0,0.0,0.0,0.4671,compass,0.0,10.0,10.0,15.0,1.0,SoundStimuli/CrazyInLove_BeyonceFtJayZ_Cover5S.wav,,,,,,,,,,,,,,,,,,,,,,,,,,,,,,,,,,,,,,,,,,,,,,,,,,,,,
,,,,,160159,1,2024-07-12_19h20.54.026,experiment,2024.1.5,Win32,59.52380952,6691931c2c63981b064e1f0c,6691ba09250cdadffd5d9dba,,,,,,,,,,,,,,,,,,,,,,,,,,,,,,,,,,,,,,,,,,,,,,,,,,,,,,,,,,,,876.1044,884.3824,0.026301387,0.020821893,1.0,0.0,0.0,2.2674,compass,0.0,11.0,11.0,29.0,1.0,SoundStimuli/BetteDavisEyes_KimCarnes_Original5S.wav,,,,,,,,,,,,,,,,,,,,,,,,,,,,,,,,,,,,,,,,,,,,,,,,,,,,,
,,,,,160159,1,2024-07-12_19h20.54.026,experiment,2024.1.5,Win32,59.52380952,6691931c2c63981b064e1f0c,6691ba09250cdadffd5d9dba,,,,,,,,,,,,,,,,,,,,,,,,,,,,,,,,,,,,,,,,,,,,,,,,,,,,,,,,,,,,884.39,890.7014,0.197260274,-0.167671225,1.0,0.0,0.0,0.2999,compass,0.0,12.0,12.0,34.0,1.0,SoundStimuli/Irreplaceable_Beyonce_Cover5S.wav,,,,,,,,,,,,,,,,,,,,,,,,,,,,,,,,,,,,,,,,,,,,,,,,,,,,,
,,,,,160159,1,2024-07-12_19h20.54.026,experiment,2024.1.5,Win32,59.52380952,6691931c2c63981b064e1f0c,6691ba09250cdadffd5d9dba,,,,,,,,,,,,,,,,,,,,,,,,,,,,,,,,,,,,,,,,,,,,,,,,,,,,,,,,,,,,890.7096,897.4708,0.328767123,-0.026301387,1.0,0.0,0.0,0.7504,compass,0.0,13.0,13.0,27.0,1.0,SoundStimuli/EyeOfTheTiger_Survivor_Cover5S.wav,,,,,,,,,,,,,,,,,,,,,,,,,,,,,,,,,,,,,,,,,,,,,,,,,,,,,
,,,,,160159,1,2024-07-12_19h20.54.026,experiment,2024.1.5,Win32,59.52380952,6691931c2c63981b064e1f0c,6691ba09250cdadffd5d9dba,,,,,,,,,,,,,,,,,,,,,,,,,,,,,,,,,,,,,,,,,,,,,,,,,,,,,,,,,,,,897.4783,903.8231,0.329862997,0.332054797,1.0,0.0,0.0,0.3334,compass,0.0,14.0,14.0,3.0,1.0,SoundStimuli/PartyRockAnthem_LMFAO_Original5S.wav,,,,,,,,,,,,,,,,,,,,,,,,,,,,,,,,,,,,,,,,,,,,,,,,,,,,,
,,,,,160159,1,2024-07-12_19h20.54.026,experiment,2024.1.5,Win32,59.52380952,6691931c2c63981b064e1f0c,6691ba09250cdadffd5d9dba,,,,,,,,,,,,,,,,,,,,,,,,,,,,,,,,,,,,,,,,,,,,,,,,,,,,,,,,,,,,903.8312,910.3089,-0.273972603,-0.325479502,1.0,0.0,0.0,0.467,compass,0.0,15.0,15.0,12.0,1.0,SoundStimuli/UnbreakMyHeart_ToniBraxton_Original5S.wav,,,,,,,,,,,,,,,,,,,,,,,,,,,,,,,,,,,,,,,,,,,,,,,,,,,,,
,,,,,160159,1,2024-07-12_19h20.54.026,experiment,2024.1.5,Win32,59.52380952,6691931c2c63981b064e1f0c,6691ba09250cdadffd5d9dba,,,,,,,,,,,,,,,,,,,,,,,,,,,,,,,,,,,,,,,,,,,,,,,,,,,,,,,,,,,,910.3171,916.8446,0.312328767,0.277260266,1.0,0.0,0.0,0.5166,compass,0.0,16.0,16.0,20.0,1.0,SoundStimuli/FlashdanceWhatAFeeling_IreneCara_Original5S.wav,,,,,,,,,,,,,,,,,,,,,,,,,,,,,,,,,,,,,,,,,,,,,,,,,,,,,
,,,,,160159,1,2024-07-12_19h20.54.026,experiment,2024.1.5,Win32,59.52380952,6691931c2c63981b064e1f0c,6691ba09250cdadffd5d9dba,,,,,,,,,,,,,,,,,,,,,,,,,,,,,,,,,,,,,,,,,,,,,,,,,,,,,,,,,,,,916.8521,924.1139,0.053698647,0.041643827,1.0,0.0,0.0,1.2506,compass,0.0,17.0,17.0,5.0,1.0,SoundStimuli/JoyToTheWorld_ThreeDogNight_Original5S.wav,,,,,,,,,,,,,,,,,,,,,,,,,,,,,,,,,,,,,,,,,,,,,,,,,,,,,
,,,,,160159,1,2024-07-12_19h20.54.026,experiment,2024.1.5,Win32,59.52380952,6691931c2c63981b064e1f0c,6691ba09250cdadffd5d9dba,,,,,,,,,,,,,,,,,,,,,,,,,,,,,,,,,,,,,,,,,,,,,,,,,,,,,,,,,,,,924.1217,930.5497,0.111780872,0.233424649,1.0,0.0,0.0,0.4166,compass,0.0,18.0,18.0,11.0,1.0,SoundStimuli/BlurredLines_RobinThicke_Cover5S.wav,,,,,,,,,,,,,,,,,,,,,,,,,,,,,,,,,,,,,,,,,,,,,,,,,,,,,
,,,,,160159,1,2024-07-12_19h20.54.026,experiment,2024.1.5,Win32,59.52380952,6691931c2c63981b064e1f0c,6691ba09250cdadffd5d9dba,,,,,,,,,,,,,,,,,,,,,,,,,,,,,,,,,,,,,,,,,,,,,,,,,,,,,,,,,,,,930.5579,937.1692,0.336438406,0.328767102,1.0,0.0,0.0,0.6006,compass,0.0,19.0,19.0,22.0,1.0,SoundStimuli/Happy_PharellWilliams_Original5S.wav,,,,,,,,,,,,,,,,,,,,,,,,,,,,,,,,,,,,,,,,,,,,,,,,,,,,,
,,,,,160159,1,2024-07-12_19h20.54.026,experiment,2024.1.5,Win32,59.52380952,6691931c2c63981b064e1f0c,6691ba09250cdadffd5d9dba,,,,,,,,,,,,,,,,,,,,,,,,,,,,,,,,,,,,,,,,,,,,,,,,,,,,,,,,,,,,937.1772,943.8714,-0.020821935,0.037260249,1.0,0.0,0.0,0.6837,compass,0.0,20.0,20.0,7.0,1.0,SoundStimuli/MackTheKnife_BobbyDarin_Cover5S.wav,,,,,,,,,,,,,,,,,,,,,,,,,,,,,,,,,,,,,,,,,,,,,,,,,,,,,
,,,,,160159,1,2024-07-12_19h20.54.026,experiment,2024.1.5,Win32,59.52380952,6691931c2c63981b064e1f0c,6691ba09250cdadffd5d9dba,,,,,,,,,,,,,,,,,,,,,,,,,,,,,,,,,,,,,,,,,,,,,,,,,,,,,,,,,,,,943.8795,950.874,0.321095924,0.031780797,1.0,0.0,0.0,0.9835,compass,0.0,21.0,21.0,14.0,1.0,SoundStimuli/LikeARollingStone_BobDylan_Original5S.wav,,,,,,,,,,,,,,,,,,,,,,,,,,,,,,,,,,,,,,,,,,,,,,,,,,,,,
,,,,,160159,1,2024-07-12_19h20.54.026,experiment,2024.1.5,Win32,59.52380952,6691931c2c63981b064e1f0c,6691ba09250cdadffd5d9dba,,,,,,,,,,,,,,,,,,,,,,,,,,,,,,,,,,,,,,,,,,,,,,,,,,,,,,,,,,,,950.8827,957.5939,0.050410942,-0.157808278,1.0,0.0,0.0,0.7006,compass,0.0,22.0,22.0,23.0,1.0,SoundStimuli/IWalkTheLine_JohnnyCash_Original5S.wav,,,,,,,,,,,,,,,,,,,,,,,,,,,,,,,,,,,,,,,,,,,,,,,,,,,,,
,,,,,160159,1,2024-07-12_19h20.54.026,experiment,2024.1.5,Win32,59.52380952,6691931c2c63981b064e1f0c,6691ba09250cdadffd5d9dba,,,,,,,,,,,,,,,,,,,,,,,,,,,,,,,,,,,,,,,,,,,,,,,,,,,,,,,,,,,,957.6014,964.7291,0.032876712,-0.037260291,1.0,0.0,0.0,1.1172,compass,0.0,23.0,23.0,24.0,1.0,SoundStimuli/Kiss_Prince_Cover5S.wav,,,,,,,,,,,,,,,,,,,,,,,,,,,,,,,,,,,,,,,,,,,,,,,,,,,,,
,,,,,160159,1,2024-07-12_19h20.54.026,experiment,2024.1.5,Win32,59.52380952,6691931c2c63981b064e1f0c,6691ba09250cdadffd5d9dba,,,,,,,,,,,,,,,,,,,,,,,,,,,,,,,,,,,,,,,,,,,,,,,,,,,,,,,,,,,,964.7371,971.2317,0.211506883,-0.050410984,1.0,0.0,0.0,0.4836,compass,0.0,24.0,24.0,13.0,1.0,SoundStimuli/Perfect_EdSheeran_Cover5S.wav,,,,,,,,,,,,,,,,,,,,,,,,,,,,,,,,,,,,,,,,,,,,,,,,,,,,,
,,,,,160159,1,2024-07-12_19h20.54.026,experiment,2024.1.5,Win32,59.52380952,6691931c2c63981b064e1f0c,6691ba09250cdadffd5d9dba,,,,,,,,,,,,,,,,,,,,,,,,,,,,,,,,,,,,,,,,,,,,,,,,,,,,,,,,,,,,971.2398,977.3005,0.172054845,0.108493126,1.0,0.0,0.0,0.0498,compass,0.0,25.0,25.0,17.0,1.0,SoundStimuli/IWannaDanceWithSomebody_WhitneyHouston_Original5S.wav,,,,,,,,,,,,,,,,,,,,,,,,,,,,,,,,,,,,,,,,,,,,,,,,,,,,,
,,,,,160159,1,2024-07-12_19h20.54.026,experiment,2024.1.5,Win32,59.52380952,6691931c2c63981b064e1f0c,6691ba09250cdadffd5d9dba,,,,,,,,,,,,,,,,,,,,,,,,,,,,,,,,,,,,,,,,,,,,,,,,,,,,,,,,,,,,977.3089,983.9696,0.135890428,-0.325479502,1.0,0.0,0.0,0.6501,compass,0.0,26.0,26.0,21.0,1.0,SoundStimuli/BridgeOverTroubledWater_SimonAndGarfunkel_Original5S.wav,,,,,,,,,,,,,,,,,,,,,,,,,,,,,,,,,,,,,,,,,,,,,,,,,,,,,
,,,,,160159,1,2024-07-12_19h20.54.026,experiment,2024.1.5,Win32,59.52380952,6691931c2c63981b064e1f0c,6691ba09250cdadffd5d9dba,,,,,,,,,,,,,,,,,,,,,,,,,,,,,,,,,,,,,,,,,,,,,,,,,,,,,,,,,,,,983.9775,990.7388,0.067945256,0.090958896,1.0,0.0,0.0,0.7502,compass,0.0,27.0,27.0,31.0,1.0,SoundStimuli/TossinAndTurnin_BobbyLewis_Original5S.wav,,,,,,,,,,,,,,,,,,,,,,,,,,,,,,,,,,,,,,,,,,,,,,,,,,,,,
,,,,,160159,1,2024-07-12_19h20.54.026,experiment,2024.1.5,Win32,59.52380952,6691931c2c63981b064e1f0c,6691ba09250cdadffd5d9dba,,,,,,,,,,,,,,,,,,,,,,,,,,,,,,,,,,,,,,,,,,,,,,,,,,,,,,,,,,,,990.7468,996.9245,0.301369863,0.050410942,1.0,0.0,0.0,0.1666,compass,0.0,28.0,28.0,28.0,1.0,SoundStimuli/IWantToHoldYourHand_TheBeatles_Original5S.wav,,,,,,,,,,,,,,,,,,,,,,,,,,,,,,,,,,,,,,,,,,,,,,,,,,,,,
,,,,,160159,1,2024-07-12_19h20.54.026,experiment,2024.1.5,Win32,59.52380952,6691931c2c63981b064e1f0c,6691ba09250cdadffd5d9dba,,,,,,,,,,,,,,,,,,,,,,,,,,,,,,,,,,,,,,,,,,,,,,,,,,,,,,,,,,,,996.9322,1005.0109,-0.019725977,-0.332054828,1.0,0.0,0.0,2.0676,compass,0.0,29.0,29.0,16.0,1.0,SoundStimuli/ItsAllInTheGame_TommyEdwards_Cover5S.wav,,,,,,,,,,,,,,,,,,,,,,,,,,,,,,,,,,,,,,,,,,,,,,,,,,,,,
,,,,,160159,1,2024-07-12_19h20.54.026,experiment,2024.1.5,Win32,59.52380952,6691931c2c63981b064e1f0c,6691ba09250cdadffd5d9dba,,,,,,,,,,,,,,,,,,,,,,,,,,,,,,,,,,,,,,,,,,,,,,,,,,,,,,,,,,,,1005.019,1011.4132,0.169863014,-0.169863014,1.0,0.0,0.0,0.3832,compass,0.0,30.0,30.0,25.0,1.0,SoundStimuli/IllMakeLoveToYou_BoyzIIMen_Cover5S.wav,,,,,,,,,,,,,,,,,,,,,,,,,,,,,,,,,,,,,,,,,,,,,,,,,,,,,
,,,,,160159,1,2024-07-12_19h20.54.026,experiment,2024.1.5,Win32,59.52380952,6691931c2c63981b064e1f0c,6691ba09250cdadffd5d9dba,,,,,,,,,,,,,,,,,,,,,,,,,,,,,,,,,,,,,,,,,,,,,,,,,,,,,,,,,,,,1011.4201,1018.0824,0.173150718,0.018630104,1.0,0.0,0.0,0.6503,compass,0.0,31.0,31.0,10.0,1.0,SoundStimuli/LeFreak_Chic_Cover5S.wav,,,,,,,,,,,,,,,,,,,,,,,,,,,,,,,,,,,,,,,,,,,,,,,,,,,,,
,,,,,160159,1,2024-07-12_19h20.54.026,experiment,2024.1.5,Win32,59.52380952,6691931c2c63981b064e1f0c,6691ba09250cdadffd5d9dba,,,,,,,,,,,,,,,,,,,,,,,,,,,,,,,,,,,,,,,,,,,,,,,,,,,,,,,,,,,,1018.0899,1025.3685,0.323287671,-0.02739726,1.0,0.0,0.0,1.267,compass,0.0,32.0,32.0,8.0,1.0,SoundStimuli/EndlessLove_DianaRossLionelRichie_Cover5S.wav,,,,,,,,,,,,,,,,,,,,,,,,,,,,,,,,,,,,,,,,,,,,,,,,,,,,,
,,,,,160159,1,2024-07-12_19h20.54.026,experiment,2024.1.5,Win32,59.52380952,6691931c2c63981b064e1f0c,6691ba09250cdadffd5d9dba,,,,,,,,,,,,,,,,,,,,,,,,,,,,,,,,,,,,,,,,,,,,,,,,,,,,,,,,,,,,1025.3766,1032.1043,-0.038356164,-0.02739726,1.0,0.0,0.0,0.7168,compass,0.0,33.0,33.0,9.0,1.0,SoundStimuli/HowDoILive_LeAnnRimes_Cover5S.wav,,,,,,,,,,,,,,,,,,,,,,,,,,,,,,,,,,,,,,,,,,,,,,,,,,,,,
,,,,,160159,1,2024-07-12_19h20.54.026,experiment,2024.1.5,Win32,59.52380952,6691931c2c63981b064e1f0c,6691ba09250cdadffd5d9dba,,,,,,,,,,,,,,,,,,,,,,,,,,,,,,,,,,,,,,,,,,,,,,,,,,,,,,,,,,,,1032.1117,1038.59,0.122739776,0.115068493,1.0,0.0,0.0,0.4666,compass,0.0,34.0,34.0,1.0,1.0,SoundStimuli/Smooth_SantanaRobThomas_Original5S.wav,,,,,,,,,,,,,,,,,,,,,,,,,,,,,,,,,,,,,,,,,,,,,,,,,,,,,
,,,,,160159,1,2024-07-12_19h20.54.026,experiment,2024.1.5,Win32,59.52380952,6691931c2c63981b064e1f0c,6691ba09250cdadffd5d9dba,,,,,,,,,,,,,,,,,,,,,,,,,,,,,,,,,,,,,,,,,,,,,,,,,,,,,,,,,,,,,,,,,,,,,,,,,,,1038.5977,1039.8405,space,1.2278,,1039.8406,1041.4922,right,1.6354,,0.0,2.0,2.0,2.0,1.0,block_order/blockD.xlsx,,,,,,,,,,,,,,,,,,,,,,,,,,,,,,,,,,,,,
,,,,,160159,1,2024-07-12_19h20.54.026,experiment,2024.1.5,Win32,59.52380952,6691931c2c63981b064e1f0c,6691ba09250cdadffd5d9dba,,,,,,,,,,,,,,,,,,,,,,,,,,,,,,,,,,,,,,,,,,,,,,,,,,,,,,,,,,,,1041.5007,1048.1269,0.193972653,0.03506846,1.0,0.0,0.0,0.6169,compass,0.0,0.0,0.0,19.0,1.0,SoundStimuli/LetsGetItOn_MarvinGaye_Original5S.wav,,,,,,,,,,,,,,,,,,,,,,,,,,,,,,,,,,,,,,,,,,,,,,,,,,,,,
,,,,,160159,1,2024-07-12_19h20.54.026,experiment,2024.1.5,Win32,59.52380952,6691931c2c63981b064e1f0c,6691ba09250cdadffd5d9dba,,,,,,,,,,,,,,,,,,,,,,,,,,,,,,,,,,,,,,,,,,,,,,,,,,,,,,,,,,,,1048.1347,1054.5965,0.314520598,0.165479456,1.0,0.0,0.0,0.4505,compass,0.0,1.0,1.0,24.0,1.0,SoundStimuli/UptownFunk_MarkRonson_Cover5S.wav,,,,,,,,,,,,,,,,,,,,,,,,,,,,,,,,,,,,,,,,,,,,,,,,,,,,,
,,,,,160159,1,2024-07-12_19h20.54.026,experiment,2024.1.5,Win32,59.52380952,6691931c2c63981b064e1f0c,6691ba09250cdadffd5d9dba,,,,,,,,,,,,,,,,,,,,,,,,,,,,,,,,,,,,,,,,,,,,,,,,,,,,,,,,,,,,1054.6041,1060.9818,0.174246592,0.180821918,1.0,0.0,0.0,0.3666,compass,0.0,2.0,2.0,8.0,1.0,SoundStimuli/LikeAPrayer_Madonna_Cover5S.wav,,,,,,,,,,,,,,,,,,,,,,,,,,,,,,,,,,,,,,,,,,,,,,,,,,,,,
,,,,,160159,1,2024-07-12_19h20.54.026,experiment,2024.1.5,Win32,59.52380952,6691931c2c63981b064e1f0c,6691ba09250cdadffd5d9dba,,,,,,,,,,,,,,,,,,,,,,,,,,,,,,,,,,,,,,,,,,,,,,,,,,,,,,,,,,,,1060.9902,1067.6176,0.189589075,-0.036164417,1.0,0.0,0.0,0.6167,compass,0.0,3.0,3.0,18.0,1.0,SoundStimuli/AnotherOneBitesTheDust_Queen_Cover5S.wav,,,,,,,,,,,,,,,,,,,,,,,,,,,,,,,,,,,,,,,,,,,,,,,,,,,,,
,,,,,160159,1,2024-07-12_19h20.54.026,experiment,2024.1.5,Win32,59.52380952,6691931c2c63981b064e1f0c,6691ba09250cdadffd5d9dba,,,,,,,,,,,,,,,,,,,,,,,,,,,,,,,,,,,,,,,,,,,,,,,,,,,,,,,,,,,,1067.6261,1074.137,0.295890411,0.30794521,1.0,0.0,0.0,0.5006,compass,0.0,4.0,4.0,26.0,1.0,SoundStimuli/LivinOnAPrayer_BonJovi_Original5S.wav,,,,,,,,,,,,,,,,,,,,,,,,,,,,,,,,,,,,,,,,,,,,,,,,,,,,,
,,,,,160159,1,2024-07-12_19h20.54.026,experiment,2024.1.5,Win32,59.52380952,6691931c2c63981b064e1f0c,6691ba09250cdadffd5d9dba,,,,,,,,,,,,,,,,,,,,,,,,,,,,,,,,,,,,,,,,,,,,,,,,,,,,,,,,,,,,1074.1443,1080.2892,0.038356164,0.037260249,1.0,0.0,0.0,0.1335,compass,0.0,5.0,5.0,0.0,1.0,SoundStimuli/StayinAlive_BeeGees_Cover5S.wav,,,,,,,,,,,,,,,,,,,,,,,,,,,,,,,,,,,,,,,,,,,,,,,,,,,,,
,,,,,160159,1,2024-07-12_19h20.54.026,experiment,2024.1.5,Win32,59.52380952,6691931c2c63981b064e1f0c,6691ba09250cdadffd5d9dba,,,,,,,,,,,,,,,,,,,,,,,,,,,,,,,,,,,,,,,,,,,,,,,,,,,,,,,,,,,,1080.2967,1087.4418,0.334246575,0.310136978,1.0,0.0,0.0,1.1338,compass,0.0,6.0,6.0,32.0,1.0,SoundStimuli/HeatWaves_GlassAnimals_Cover5S.wav,,,,,,,,,,,,,,,,,,,,,,,,,,,,,,,,,,,,,,,,,,,,,,,,,,,,,
,,,,,160159,1,2024-07-12_19h20.54.026,experiment,2024.1.5,Win32,59.52380952,6691931c2c63981b064e1f0c,6691ba09250cdadffd5d9dba,,,,,,,,,,,,,,,,,,,,,,,,,,,,,,,,,,,,,,,,,,,,,,,,,,,,,,,,,,,,1087.4504,1093.8606,0.33753428,-0.037260291,1.0,0.0,0.0,0.4001,compass,0.0,7.0,7.0,34.0,1.0,SoundStimuli/AChangeIsGonnaCome_SamCooke_Original5S.wav,,,,,,,,,,,,,,,,,,,,,,,,,,,,,,,,,,,,,,,,,,,,,,,,,,,,,
,,,,,160159,1,2024-07-12_19h20.54.026,experiment,2024.1.5,Win32,59.52380952,6691931c2c63981b064e1f0c,6691ba09250cdadffd5d9dba,,,,,,,,,,,,,,,,,,,,,,,,,,,,,,,,,,,,,,,,,,,,,,,,,,,,,,,,,,,,1093.868,1100.2631,0.270684982,0.28821917,1.0,0.0,0.0,0.3835,compass,0.0,8.0,8.0,20.0,1.0,SoundStimuli/HeyYa_Outkast_Original5S.wav,,,,,,,,,,,,,,,,,,,,,,,,,,,,,,,,,,,,,,,,,,,,,,,,,,,,,
,,,,,160159,1,2024-07-12_19h20.54.026,experiment,2024.1.5,Win32,59.52380952,6691931c2c63981b064e1f0c,6691ba09250cdadffd5d9dba,,,,,,,,,,,,,,,,,,,,,,,,,,,,,,,,,,,,,,,,,,,,,,,,,,,,,,,,,,,,1100.2709,1107.2826,-0.123835566,-0.092054811,1.0,0.0,0.0,1.0005,compass,0.0,9.0,9.0,13.0,1.0,SoundStimuli/GodOnlyKnows_TheBeachBoys_Original5S.wav,,,,,,,,,,,,,,,,,,,,,,,,,,,,,,,,,,,,,,,,,,,,,,,,,,,,,
,,,,,160159,1,2024-07-12_19h20.54.026,experiment,2024.1.5,Win32,59.52380952,6691931c2c63981b064e1f0c,6691ba09250cdadffd5d9dba,,,,,,,,,,,,,,,,,,,,,,,,,,,,,,,,,,,,,,,,,,,,,,,,,,,,,,,,,,,,1107.2902,1114.6853,0.165479435,-0.15671232,1.0,0.0,0.0,1.3838,compass,0.0,10.0,10.0,29.0,1.0,SoundStimuli/OldTownRoad_LilNasX_Cover5S.wav,,,,,,,,,,,,,,,,,,,,,,,,,,,,,,,,,,,,,,,,,,,,,,,,,,,,,
,,,,,160159,1,2024-07-12_19h20.54.026,experiment,2024.1.5,Win32,59.52380952,6691931c2c63981b064e1f0c,6691ba09250cdadffd5d9dba,,,,,,,,,,,,,,,,,,,,,,,,,,,,,,,,,,,,,,,,,,,,,,,,,,,,,,,,,,,,1114.6933,1120.8374,0.21369863,-0.15671232,1.0,0.0,0.0,0.1335,compass,0.0,11.0,11.0,16.0,1.0,SoundStimuli/BohemianRhapsody_Queen_Cover5S.wav,,,,,,,,,,,,,,,,,,,,,,,,,,,,,,,,,,,,,,,,,,,,,,,,,,,,,
,,,,,160159,1,2024-07-12_19h20.54.026,experiment,2024.1.5,Win32,59.52380952,6691931c2c63981b064e1f0c,6691ba09250cdadffd5d9dba,,,,,,,,,,,,,,,,,,,,,,,,,,,,,,,,,,,,,,,,,,,,,,,,,,,,,,,,,,,,1120.8455,1128.1902,-0.050410942,-0.266301403,1.0,0.0,0.0,1.334,compass,0.0,12.0,12.0,10.0,1.0,SoundStimuli/BadDay_DanielPowter_Original5S.wav,,,,,,,,,,,,,,,,,,,,,,,,,,,,,,,,,,,,,,,,,,,,,,,,,,,,,
,,,,,160159,1,2024-07-12_19h20.54.026,experiment,2024.1.5,Win32,59.52380952,6691931c2c63981b064e1f0c,6691ba09250cdadffd5d9dba,,,,,,,,,,,,,,,,,,,,,,,,,,,,,,,,,,,,,,,,,,,,,,,,,,,,,,,,,,,,1128.1985,1137.6779,-0.077808202,0.165479456,1.0,0.0,0.0,3.4689,compass,0.0,13.0,13.0,7.0,1.0,SoundStimuli/NoOne_AliciaKeys_Original5S.wav,,,,,,,,,,,,,,,,,,,,,,,,,,,,,,,,,,,,,,,,,,,,,,,,,,,,,
,,,,,160159,1,2024-07-12_19h20.54.026,experiment,2024.1.5,Win32,59.52380952,6691931c2c63981b064e1f0c,6691ba09250cdadffd5d9dba,,,,,,,,,,,,,,,,,,,,,,,,,,,,,,,,,,,,,,,,,,,,,,,,,,,,,,,,,,,,1137.6857,1144.6297,0.054794521,-0.076712329,1.0,0.0,0.0,0.933,compass,0.0,14.0,14.0,1.0,1.0,SoundStimuli/Stronger_KanyeWest_Cover5S.wav,,,,,,,,,,,,,,,,,,,,,,,,,,,,,,,,,,,,,,,,,,,,,,,,,,,,,
,,,,,160159,1,2024-07-12_19h20.54.026,experiment,2024.1.5,Win32,59.52380952,6691931c2c63981b064e1f0c,6691ba09250cdadffd5d9dba,,,,,,,,,,,,,,,,,,,,,,,,,,,,,,,,,,,,,,,,,,,,,,,,,,,,,,,,,,,,1144.6375,1151.2488,0.067945256,0.071232877,1.0,0.0,0.0,0.6,compass,0.0,15.0,15.0,4.0,1.0,SoundStimuli/GetUrFreakOn_MissyElliot_Cover5S.wav,,,,,,,,,,,,,,,,,,,,,,,,,,,,,,,,,,,,,,,,,,,,,,,,,,,,,
,,,,,160159,1,2024-07-12_19h20.54.026,experiment,2024.1.5,Win32,59.52380952,6691931c2c63981b064e1f0c,6691ba09250cdadffd5d9dba,,,,,,,,,,,,,,,,,,,,,,,,,,,,,,,,,,,,,,,,,,,,,,,,,,,,,,,,,,,,1151.2565,1157.6516,0.280547928,-0.281643886,1.0,0.0,0.0,0.3839,compass,0.0,16.0,16.0,33.0,1.0,SoundStimuli/StandByMe_BenEKing_Original5S.wav,,,,,,,,,,,,,,,,,,,,,,,,,,,,,,,,,,,,,,,,,,,,,,,,,,,,,
,,,,,160159,1,2024-07-12_19h20.54.026,experiment,2024.1.5,Win32,59.52380952,6691931c2c63981b064e1f0c,6691ba09250cdadffd5d9dba,,,,,,,,,,,,,,,,,,,,,,,,,,,,,,,,,,,,,,,,,,,,,,,,,,,,,,,,,,,,1157.6595,1164.4037,0.314520598,0.030684923,1.0,0.0,0.0,0.7336,compass,0.0,17.0,17.0,11.0,1.0,SoundStimuli/Superstition_StevieWonder_Original5S.wav,,,,,,,,,,,,,,,,,,,,,,,,,,,,,,,,,,,,,,,,,,,,,,,,,,,,,
,,,,,160159,1,2024-07-12_19h20.54.026,experiment,2024.1.5,Win32,59.52380952,6691931c2c63981b064e1f0c,6691ba09250cdadffd5d9dba,,,,,,,,,,,,,,,,,,,,,,,,,,,,,,,,,,,,,,,,,,,,,,,,,,,,,,,,,,,,1164.4116,1170.8731,0.300273989,0.319999987,1.0,0.0,0.0,0.4503,compass,0.0,18.0,18.0,15.0,1.0,SoundStimuli/TikTok_Kesha_Original5S.wav,,,,,,,,,,,,,,,,,,,,,,,,,,,,,,,,,,,,,,,,,,,,,,,,,,,,,
,,,,,160159,1,2024-07-12_19h20.54.026,experiment,2024.1.5,Win32,59.52380952,6691931c2c63981b064e1f0c,6691ba09250cdadffd5d9dba,,,,,,,,,,,,,,,,,,,,,,,,,,,,,,,,,,,,,,,,,,,,,,,,,,,,,,,,,,,,1170.8814,1177.3086,0.147945205,0.029589008,1.0,0.0,0.0,0.4171,compass,0.0,19.0,19.0,14.0,1.0,SoundStimuli/BlindingLights_TheWeeknd_Cover5S.wav,,,,,,,,,,,,,,,,,,,,,,,,,,,,,,,,,,,,,,,,,,,,,,,,,,,,,
,,,,,160159,1,2024-07-12_19h20.54.026,experiment,2024.1.5,Win32,59.52380952,6691931c2c63981b064e1f0c,6691ba09250cdadffd5d9dba,,,,,,,,,,,,,,,,,,,,,,,,,,,,,,,,,,,,,,,,,,,,,,,,,,,,,,,,,,,,1177.3165,1184.1945,0.039452038,0.037260249,1.0,0.0,0.0,0.867,compass,0.0,20.0,20.0,17.0,1.0,SoundStimuli/Fallin_AliciaKeys_Cover5S.wav,,,,,,,,,,,,,,,,,,,,,,,,,,,,,,,,,,,,,,,,,,,,,,,,,,,,,
,,,,,160159,1,2024-07-12_19h20.54.026,experiment,2024.1.5,Win32,59.52380952,6691931c2c63981b064e1f0c,6691ba09250cdadffd5d9dba,,,,,,,,,,,,,,,,,,,,,,,,,,,,,,,,,,,,,,,,,,,,,,,,,,,,,,,,,,,,1184.203,1190.8135,0.175342466,0.169863014,1.0,0.0,0.0,0.6003,compass,0.0,21.0,21.0,6.0,1.0,SoundStimuli/Levitating_DuaLipa_Original5S.wav,,,,,,,,,,,,,,,,,,,,,,,,,,,,,,,,,,,,,,,,,,,,,,,,,,,,,
,,,,,160159,1,2024-07-12_19h20.54.026,experiment,2024.1.5,Win32,59.52380952,6691931c2c63981b064e1f0c,6691ba09250cdadffd5d9dba,,,,,,,,,,,,,,,,,,,,,,,,,,,,,,,,,,,,,,,,,,,,,,,,,,,,,,,,,,,,1190.8208,1197.3827,0.267397277,-0.151232868,1.0,0.0,0.0,0.5499,compass,0.0,22.0,22.0,27.0,1.0,SoundStimuli/ShapeofYou_EdSheeran_Cover5S.wav,,,,,,,,,,,,,,,,,,,,,,,,,,,,,,,,,,,,,,,,,,,,,,,,,,,,,
,,,,,160159,1,2024-07-12_19h20.54.026,experiment,2024.1.5,Win32,59.52380952,6691931c2c63981b064e1f0c,6691ba09250cdadffd5d9dba,,,,,,,,,,,,,,,,,,,,,,,,,,,,,,,,,,,,,,,,,,,,,,,,,,,,,,,,,,,,1197.3909,1204.5854,0.312328767,-0.036164417,1.0,0.0,0.0,1.1837,compass,0.0,23.0,23.0,22.0,1.0,SoundStimuli/RockWithYou_MichaelJackson_Cover5S.wav,,,,,,,,,,,,,,,,,,,,,,,,,,,,,,,,,,,,,,,,,,,,,,,,,,,,,
,,,,,160159,1,2024-07-12_19h20.54.026,experiment,2024.1.5,Win32,59.52380952,6691931c2c63981b064e1f0c,6691ba09250cdadffd5d9dba,,,,,,,,,,,,,,,,,,,,,,,,,,,,,,,,,,,,,,,,,,,,,,,,,,,,,,,,,,,,1204.5932,1212.5385,-0.130410976,0.023013682,1.0,0.0,0.0,1.9338,compass,0.0,24.0,24.0,2.0,1.0,SoundStimuli/Mood_24kGoldnianndior_Original5S.wav,,,,,,,,,,,,,,,,,,,,,,,,,,,,,,,,,,,,,,,,,,,,,,,,,,,,,
,,,,,160159,1,2024-07-12_19h20.54.026,experiment,2024.1.5,Win32,59.52380952,6691931c2c63981b064e1f0c,6691ba09250cdadffd5d9dba,,,,,,,,,,,,,,,,,,,,,,,,,,,,,,,,,,,,,,,,,,,,,,,,,,,,,,,,,,,,1212.5462,1222.1588,-0.02739726,0.052602731,1.0,0.0,0.0,3.6016,compass,0.0,25.0,25.0,23.0,1.0,SoundStimuli/StrawberryFieldsForever_TheBeatles_Cover5S.wav,,,,,,,,,,,,,,,,,,,,,,,,,,,,,,,,,,,,,,,,,,,,,,,,,,,,,
,,,,,160159,1,2024-07-12_19h20.54.026,experiment,2024.1.5,Win32,59.52380952,6691931c2c63981b064e1f0c,6691ba09250cdadffd5d9dba,,,,,,,,,,,,,,,,,,,,,,,,,,,,,,,,,,,,,,,,,,,,,,,,,,,,,,,,,,,,1222.1679,1229.478,0.054794521,0.024109556,1.0,0.0,0.0,1.3003,compass,0.0,26.0,26.0,3.0,1.0,SoundStimuli/NoScrubs_TLC_Cover5S.wav,,,,,,,,,,,,,,,,,,,,,,,,,,,,,,,,,,,,,,,,,,,,,,,,,,,,,
,,,,,160159,1,2024-07-12_19h20.54.026,experiment,2024.1.5,Win32,59.52380952,6691931c2c63981b064e1f0c,6691ba09250cdadffd5d9dba,,,,,,,,,,,,,,,,,,,,,,,,,,,,,,,,,,,,,,,,,,,,,,,,,,,,,,,,,,,,1229.4859,1236.681,0.234520565,0.056986268,1.0,0.0,0.0,1.184,compass,0.0,27.0,27.0,21.0,1.0,SoundStimuli/GoodGollyMissMolly_LittleRichard_Original5S.wav,,,,,,,,,,,,,,,,,,,,,,,,,,,,,,,,,,,,,,,,,,,,,,,,,,,,,
,,,,,160159,1,2024-07-12_19h20.54.026,experiment,2024.1.5,Win32,59.52380952,6691931c2c63981b064e1f0c,6691ba09250cdadffd5d9dba,,,,,,,,,,,,,,,,,,,,,,,,,,,,,,,,,,,,,,,,,,,,,,,,,,,,,,,,,,,,1236.689,1243.1998,0.255342499,0.257534226,1.0,0.0,0.0,0.5002,compass,0.0,28.0,28.0,9.0,1.0,SoundStimuli/Despacito_LuisFonsiDaddyYankee_Original5S.wav,,,,,,,,,,,,,,,,,,,,,,,,,,,,,,,,,,,,,,,,,,,,,,,,,,,,,
,,,,,160159,1,2024-07-12_19h20.54.026,experiment,2024.1.5,Win32,59.52380952,6691931c2c63981b064e1f0c,6691ba09250cdadffd5d9dba,,,,,,,,,,,,,,,,,,,,,,,,,,,,,,,,,,,,,,,,,,,,,,,,,,,,,,,,,,,,1243.2075,1249.6022,0.021917808,0.306849294,1.0,0.0,0.0,0.3833,compass,0.0,29.0,29.0,12.0,1.0,SoundStimuli/IWillAlwaysLoveYou_WhitneyHouston_Original5S.wav,,,,,,,,,,,,,,,,,,,,,,,,,,,,,,,,,,,,,,,,,,,,,,,,,,,,,
,,,,,160159,1,2024-07-12_19h20.54.026,experiment,2024.1.5,Win32,59.52380952,6691931c2c63981b064e1f0c,6691ba09250cdadffd5d9dba,,,,,,,,,,,,,,,,,,,,,,,,,,,,,,,,,,,,,,,,,,,,,,,,,,,,,,,,,,,,1249.6098,1256.0545,0.090958938,0.225753429,1.0,0.0,0.0,0.4332,compass,0.0,30.0,30.0,30.0,1.0,SoundStimuli/PokerFace_LadyGaga_Cover5S.wav,,,,,,,,,,,,,,,,,,,,,,,,,,,,,,,,,,,,,,,,,,,,,,,,,,,,,
,,,,,160159,1,2024-07-12_19h20.54.026,experiment,2024.1.5,Win32,59.52380952,6691931c2c63981b064e1f0c,6691ba09250cdadffd5d9dba,,,,,,,,,,,,,,,,,,,,,,,,,,,,,,,,,,,,,,,,,,,,,,,,,,,,,,,,,,,,1256.0612,1264.0243,0.053698647,0.302465758,1.0,0.0,0.0,1.9509,compass,0.0,31.0,31.0,28.0,1.0,SoundStimuli/ComeAndGetYourLove_Redbone_Cover5S.wav,,,,,,,,,,,,,,,,,,,,,,,,,,,,,,,,,,,,,,,,,,,,,,,,,,,,,
,,,,,160159,1,2024-07-12_19h20.54.026,experiment,2024.1.5,Win32,59.52380952,6691931c2c63981b064e1f0c,6691ba09250cdadffd5d9dba,,,,,,,,,,,,,,,,,,,,,,,,,,,,,,,,,,,,,,,,,,,,,,,,,,,,,,,,,,,,1264.0319,1270.4768,-0.078903993,0.131506849,1.0,0.0,0.0,0.4333,compass,0.0,32.0,32.0,25.0,1.0,SoundStimuli/Respect_ArethaFranklin_Cover5S.wav,,,,,,,,,,,,,,,,,,,,,,,,,,,,,,,,,,,,,,,,,,,,,,,,,,,,,
,,,,,160159,1,2024-07-12_19h20.54.026,experiment,2024.1.5,Win32,59.52380952,6691931c2c63981b064e1f0c,6691ba09250cdadffd5d9dba,,,,,,,,,,,,,,,,,,,,,,,,,,,,,,,,,,,,,,,,,,,,,,,,,,,,,,,,,,,,1270.4848,1277.0292,0.062465804,-0.064657551,1.0,0.0,0.0,0.5334,compass,0.0,33.0,33.0,5.0,1.0,SoundStimuli/MyGirl_TheTemptations_Cover5S.wav,,,,,,,,,,,,,,,,,,,,,,,,,,,,,,,,,,,,,,,,,,,,,,,,,,,,,
,,,,,160159,1,2024-07-12_19h20.54.026,experiment,2024.1.5,Win32,59.52380952,6691931c2c63981b064e1f0c,6691ba09250cdadffd5d9dba,,,,,,,,,,,,,,,,,,,,,,,,,,,,,,,,,,,,,,,,,,,,,,,,,,,,,,,,,,,,1277.0367,1283.5149,0.058082309,-0.033972628,1.0,0.0,0.0,0.4667,compass,0.0,34.0,34.0,31.0,1.0,SoundStimuli/TheBattleOfNewOrleans_JohnnyHorton_Original5S.wav,,,,,,,,,,,,,,,,,,,,,,,,,,,,,,,,,,,,,,,,,,,,,,,,,,,,,
,,,,,160159,1,2024-07-12_19h20.54.026,experiment,2024.1.5,Win32,59.52380952,6691931c2c63981b064e1f0c,6691ba09250cdadffd5d9dba,,,,,,,,,,,,,,,,,,,,,,,,,,,,,,,,,,,,,,,,,,,,,,,,,,,,,,,,,,,,,,,,,,,,,,,,,,,1283.5223,1283.5224,,,,1283.5224,1283.5224,,,,0.0,3.0,3.0,3.0,1.0,block_order/blockC.xlsx,,,,,,,,,,,,,,,,,,,,,,,,,,,,,,,,,,,,,
,,,,,160159,1,2024-07-12_19h20.54.026,experiment,2024.1.5,Win32,59.52380952,6691931c2c63981b064e1f0c,6691ba09250cdadffd5d9dba,,,,,,,,,,,,,,,,,,,,,,,,,,,,,,,,,,,,,,,,,,,,,,,,,,,,,,,,,,,,,,,,,,,,,,,,,,,,,,,,,,,,,,,,,,,20.0,Item 2,I am not a musician.,Item 5,"Spotify, SoundCloud",5.0,6.0,"Working out, folding laundry, cooking, and drawing",Sometimes,Never,Never,Often,Rarely,Always,Often,Never,Never,Never,Always,Sometimes,Never,Rarely,Sometimes,Often,"Shoegaze, indie rock, rap, house, metalcore, emo",Alternative rock,Metalcore,Indie Rock,"I used to be very stubborn when it came to listening to music, but now I am very much open to listening to recommendations from friends and family. ","I listen to music that will reflect upon what mood I want to feel, so if I want to get hyped and ready to lift I will put on a heavy metal song; If I'm chilling out and relaxing while drawing, I'll put on something mellow and soothing.",0.0,0.0,0.0,0.0,1.0,,
,,,,,160159,1,2024-07-12_19h20.54.026,experiment,2024.1.5,Win32,59.52380952,6691931c2c63981b064e1f0c,6691ba09250cdadffd5d9dba,,,,,,,,,,,,,,,,,,,,,,,,,,,,,,,,,,,,,,,,,,,,,,,,,,,,,,,,,,,,,,,,,,,,,,,,,,,,,,,,,,,,,,,,,,,,,,,,,,,,,,,,,,,,,,,,,,,,,,,,,,,,,,1635.1654,1637.5806
