welcome.started,welcome.stopped,space_to_continue.keys,space_to_continue.rt,space_to_continue.duration,participant,session,date,expName,psychopyVersion,OS,frameRate,STUDY_ID,SESSION_ID,consent.consent,consent.consent_recontact,consent_check.started,consent_check.stopped,calibration_ready.started,calibration_ready.stopped,cal_ready.keys,cal_ready.rt,cal_ready.duration,calibration.started,calibration.stopped,mouse.x,mouse.y,mouse.leftButton,mouse.midButton,mouse.rightButton,mouse.time,mouse.clicked_name,move_on.keys,move_on.rt,move_on.duration,run_cal.thisRepN,run_cal.thisTrialN,run_cal.thisN,run_cal.thisIndex,run_cal.ran,emotion_training_ready.started,emotion_training_ready.stopped,training_move_on.keys,training_move_on.rt,training_move_on.duration,examples.started,examples.stopped,emotion_scale.started,emotion_scale.stopped,scale_next.keys,scale_next.rt,scale_next.duration,instructions.started,instructions.stopped,next.keys,next.rt,next.duration,practice_task.started,practice_task.stopped,mouse_rating_2.x,mouse_rating_2.y,mouse_rating_2.leftButton,mouse_rating_2.midButton,mouse_rating_2.rightButton,mouse_rating_2.time,mouse_rating_2.clicked_name,ready.started,ready.stopped,key_resp.keys,key_resp.rt,key_resp.duration,set_group.started,set_group.stopped,task.started,task.stopped,mouse_rating.x,mouse_rating.y,mouse_rating.leftButton,mouse_rating.midButton,mouse_rating.rightButton,mouse_rating.time,mouse_rating.clicked_name,trials.thisRepN,trials.thisTrialN,trials.thisN,trials.thisIndex,trials.ran,clip,short_break.started,short_break.stopped,space_to_move_on.keys,space_to_move_on.rt,space_to_move_on.duration,instruction_reminder.started,instruction_reminder.stopped,reminder_move_on.keys,reminder_move_on.rt,reminder_move_on.duration,blocks.thisRepN,blocks.thisTrialN,blocks.thisN,blocks.thisIndex,blocks.ran,block,post_survey.age,post_survey.musician,post_survey.music_making,post_survey.listen_time,post_survey.medium,post_survey.music_seeking,post_survey.music_choice,post_survey.activities,post_survey.question1.Hip hop,post_survey.question1.Ambient,post_survey.question1.R&B,post_survey.question1.Alternative rock,post_survey.question1.Disco,post_survey.question1.Folk/indie,post_survey.question1.Classic rock,post_survey.question1.Metal,post_survey.question1.Classical,post_survey.question1.Jazz,post_survey.question1.A cappella,post_survey.question1.Electronic (EDM),post_survey.question1.Reggae,post_survey.question1.Country,post_survey.question1.Pop,post_survey.question1.Latin,post_survey.other_genres,post_survey.genres_ranked.text1,post_survey.genres_ranked.text2,post_survey.genres_ranked.text3,post_survey.habit_change,show_exp.thisRepN,show_exp.thisTrialN,show_exp.thisN,show_exp.thisIndex,show_exp.ran,goodbye.started,goodbye.stopped
0.0005,1.8529,space,1.8439,,216748,1,2024-07-12_18h19.15.979,experiment,2024.1.5,Win32,60.24096386,6691931c2c63981b064e1f0c,6691abc41aa2fa0d090c3e2c,,,,,,,,,,,,,,,,,,,,,,,,,,,,,,,,,,,,,,,,,,,,,,,,,,,,,,,,,,,,,,,,,,,,,,,,,,,,,,,,,,,,,,,,,,,,,,,,,,,,,,,,,,,,,,,,,,,,,,,,,,,,,,
,,,,,216748,1,2024-07-12_18h19.15.979,experiment,2024.1.5,Win32,60.24096386,6691931c2c63981b064e1f0c,6691abc41aa2fa0d090c3e2c,yes,yes,,,,,,,,,,,,,,,,,,,,,,,,,,,,,,,,,,,,,,,,,,,,,,,,,,,,,,,,,,,,,,,,,,,,,,,,,,,,,,,,,,,,,,,,,,,,,,,,,,,,,,,,,,,,,,,,,,,,,,,,,,,,
,,,,,216748,1,2024-07-12_18h19.15.979,experiment,2024.1.5,Win32,60.24096386,6691931c2c63981b064e1f0c,6691abc41aa2fa0d090c3e2c,,,86.8371,86.8373,,,,,,,,,,,,,,,,,,,,,,,,,,,,,,,,,,,,,,,,,,,,,,,,,,,,,,,,,,,,,,,,,,,,,,,,,,,,,,,,,,,,,,,,,,,,,,,,,,,,,,,,,,,,,,,,,,,,,,,,,,
,,,,,216748,1,2024-07-12_18h19.15.979,experiment,2024.1.5,Win32,60.24096386,6691931c2c63981b064e1f0c,6691abc41aa2fa0d090c3e2c,,,,,86.8402,185.8695,space,99.0043,,185.8787,205.0552,[-0.011111111111111112],[-0.4266666666666667],[1],[0],[0],[6.780800000011908],"[""play_button""]",y,18.1326,,0.0,0.0,0.0,0.0,1.0,,,,,,,,,,,,,,,,,,,,,,,,,,,,,,,,,,,,,,,,,,,,,,,,,,,,,,,,,,,,,,,,,,,,,,,,,,,,,,,,,,,,,,,,,,,,,,,,,,,,
,,,,,216748,1,2024-07-12_18h19.15.979,experiment,2024.1.5,Win32,60.24096386,6691931c2c63981b064e1f0c,6691abc41aa2fa0d090c3e2c,,,,,,,,,,,,,,,,,,,,,,,,,,,205.0556,225.2568,space,20.1867,,225.2572,345.2692,345.2697,354.2968,right,5.4951,,354.2969,360.7359,space,6.4137,,360.7361,367.7255,0.186666667,-0.18,1.0,0.0,0.0,0.9776,compass_2,367.7264,370.0396,space,2.2879,,370.0401,370.0574,370.0883,376.9807,0.24,0.275555556,1.0,0.0,0.0,0.882,compass,0.0,0.0,0.0,7.0,1.0,SoundStimuli/NoOne_AliciaKeys_Original5S.wav,,,,,,,,,,,,,,,,,,,,,,,,,,,,,,,,,,,,,,,,,,,,,,,,,,,,
,,,,,216748,1,2024-07-12_18h19.15.979,experiment,2024.1.5,Win32,60.24096386,6691931c2c63981b064e1f0c,6691abc41aa2fa0d090c3e2c,,,,,,,,,,,,,,,,,,,,,,,,,,,,,,,,,,,,,,,,,,,,,,,,,,,,,,,,,,,,376.9903,383.573,0.204444444,0.145555556,1.0,0.0,0.0,0.5664,compass,0.0,1.0,1.0,28.0,1.0,SoundStimuli/ComeAndGetYourLove_Redbone_Cover5S.wav,,,,,,,,,,,,,,,,,,,,,,,,,,,,,,,,,,,,,,,,,,,,,,,,,,,,
,,,,,216748,1,2024-07-12_18h19.15.979,experiment,2024.1.5,Win32,60.24096386,6691931c2c63981b064e1f0c,6691abc41aa2fa0d090c3e2c,,,,,,,,,,,,,,,,,,,,,,,,,,,,,,,,,,,,,,,,,,,,,,,,,,,,,,,,,,,,383.5846,397.124,0.301111111,0.315555556,1.0,0.0,0.0,7.5243,compass,0.0,2.0,2.0,6.0,1.0,SoundStimuli/Levitating_DuaLipa_Original5S.wav,,,,,,,,,,,,,,,,,,,,,,,,,,,,,,,,,,,,,,,,,,,,,,,,,,,,
,,,,,216748,1,2024-07-12_18h19.15.979,experiment,2024.1.5,Win32,60.24096386,6691931c2c63981b064e1f0c,6691abc41aa2fa0d090c3e2c,,,,,,,,,,,,,,,,,,,,,,,,,,,,,,,,,,,,,,,,,,,,,,,,,,,,,,,,,,,,397.134,411.7236,-0.222222222,-0.242222222,1.0,0.0,0.0,8.573,compass,0.0,3.0,3.0,18.0,1.0,SoundStimuli/AnotherOneBitesTheDust_Queen_Cover5S.wav,,,,,,,,,,,,,,,,,,,,,,,,,,,,,,,,,,,,,,,,,,,,,,,,,,,,
,,,,,216748,1,2024-07-12_18h19.15.979,experiment,2024.1.5,Win32,60.24096386,6691931c2c63981b064e1f0c,6691abc41aa2fa0d090c3e2c,,,,,,,,,,,,,,,,,,,,,,,,,,,,,,,,,,,,,,,,,,,,,,,,,,,,,,,,,,,,411.7324,420.6636,0.245555556,-0.263333333,1.0,0.0,0.0,2.9301,compass,0.0,4.0,4.0,34.0,1.0,SoundStimuli/AChangeIsGonnaCome_SamCooke_Original5S.wav,,,,,,,,,,,,,,,,,,,,,,,,,,,,,,,,,,,,,,,,,,,,,,,,,,,,
,,,,,216748,1,2024-07-12_18h19.15.979,experiment,2024.1.5,Win32,60.24096386,6691931c2c63981b064e1f0c,6691abc41aa2fa0d090c3e2c,,,,,,,,,,,,,,,,,,,,,,,,,,,,,,,,,,,,,,,,,,,,,,,,,,,,,,,,,,,,420.6719,426.8231,-0.251111111,0.235555556,1.0,0.0,0.0,0.1502,compass,0.0,5.0,5.0,25.0,1.0,SoundStimuli/Respect_ArethaFranklin_Cover5S.wav,,,,,,,,,,,,,,,,,,,,,,,,,,,,,,,,,,,,,,,,,,,,,,,,,,,,
,,,,,216748,1,2024-07-12_18h19.15.979,experiment,2024.1.5,Win32,60.24096386,6691931c2c63981b064e1f0c,6691abc41aa2fa0d090c3e2c,,,,,,,,,,,,,,,,,,,,,,,,,,,,,,,,,,,,,,,,,,,,,,,,,,,,,,,,,,,,426.8359,435.8625,-0.187777778,0.155555556,1.0,0.0,0.0,3.0132,compass,0.0,6.0,6.0,0.0,1.0,SoundStimuli/StayinAlive_BeeGees_Cover5S.wav,,,,,,,,,,,,,,,,,,,,,,,,,,,,,,,,,,,,,,,,,,,,,,,,,,,,
,,,,,216748,1,2024-07-12_18h19.15.979,experiment,2024.1.5,Win32,60.24096386,6691931c2c63981b064e1f0c,6691abc41aa2fa0d090c3e2c,,,,,,,,,,,,,,,,,,,,,,,,,,,,,,,,,,,,,,,,,,,,,,,,,,,,,,,,,,,,435.8721,444.053,0.144444444,0.158888889,1.0,0.0,0.0,2.1643,compass,0.0,7.0,7.0,30.0,1.0,SoundStimuli/PokerFace_LadyGaga_Cover5S.wav,,,,,,,,,,,,,,,,,,,,,,,,,,,,,,,,,,,,,,,,,,,,,,,,,,,,
,,,,,216748,1,2024-07-12_18h19.15.979,experiment,2024.1.5,Win32,60.24096386,6691931c2c63981b064e1f0c,6691abc41aa2fa0d090c3e2c,,,,,,,,,,,,,,,,,,,,,,,,,,,,,,,,,,,,,,,,,,,,,,,,,,,,,,,,,,,,444.0642,458.5699,0.248888889,0.297777778,1.0,0.0,0.0,8.4901,compass,0.0,8.0,8.0,21.0,1.0,SoundStimuli/GoodGollyMissMolly_LittleRichard_Original5S.wav,,,,,,,,,,,,,,,,,,,,,,,,,,,,,,,,,,,,,,,,,,,,,,,,,,,,
,,,,,216748,1,2024-07-12_18h19.15.979,experiment,2024.1.5,Win32,60.24096386,6691931c2c63981b064e1f0c,6691abc41aa2fa0d090c3e2c,,,,,,,,,,,,,,,,,,,,,,,,,,,,,,,,,,,,,,,,,,,,,,,,,,,,,,,,,,,,458.5793,465.145,0.273333333,0.281111111,1.0,0.0,0.0,0.5493,compass,0.0,9.0,9.0,14.0,1.0,SoundStimuli/BlindingLights_TheWeeknd_Cover5S.wav,,,,,,,,,,,,,,,,,,,,,,,,,,,,,,,,,,,,,,,,,,,,,,,,,,,,
,,,,,216748,1,2024-07-12_18h19.15.979,experiment,2024.1.5,Win32,60.24096386,6691931c2c63981b064e1f0c,6691abc41aa2fa0d090c3e2c,,,,,,,,,,,,,,,,,,,,,,,,,,,,,,,,,,,,,,,,,,,,,,,,,,,,,,,,,,,,465.1541,471.5544,-0.207777778,-0.228888889,1.0,0.0,0.0,0.3983,compass,0.0,10.0,10.0,3.0,1.0,SoundStimuli/NoScrubs_TLC_Cover5S.wav,,,,,,,,,,,,,,,,,,,,,,,,,,,,,,,,,,,,,,,,,,,,,,,,,,,,
,,,,,216748,1,2024-07-12_18h19.15.979,experiment,2024.1.5,Win32,60.24096386,6691931c2c63981b064e1f0c,6691abc41aa2fa0d090c3e2c,,,,,,,,,,,,,,,,,,,,,,,,,,,,,,,,,,,,,,,,,,,,,,,,,,,,,,,,,,,,471.5626,478.6797,0.167777778,-0.184444444,1.0,0.0,0.0,1.1152,compass,0.0,11.0,11.0,17.0,1.0,SoundStimuli/Fallin_AliciaKeys_Cover5S.wav,,,,,,,,,,,,,,,,,,,,,,,,,,,,,,,,,,,,,,,,,,,,,,,,,,,,
,,,,,216748,1,2024-07-12_18h19.15.979,experiment,2024.1.5,Win32,60.24096386,6691931c2c63981b064e1f0c,6691abc41aa2fa0d090c3e2c,,,,,,,,,,,,,,,,,,,,,,,,,,,,,,,,,,,,,,,,,,,,,,,,,,,,,,,,,,,,478.6888,494.5779,0.191111111,-0.215555556,1.0,0.0,0.0,9.8886,compass,0.0,12.0,12.0,27.0,1.0,SoundStimuli/ShapeofYou_EdSheeran_Cover5S.wav,,,,,,,,,,,,,,,,,,,,,,,,,,,,,,,,,,,,,,,,,,,,,,,,,,,,
,,,,,216748,1,2024-07-12_18h19.15.979,experiment,2024.1.5,Win32,60.24096386,6691931c2c63981b064e1f0c,6691abc41aa2fa0d090c3e2c,,,,,,,,,,,,,,,,,,,,,,,,,,,,,,,,,,,,,,,,,,,,,,,,,,,,,,,,,,,,494.5883,504.65,-0.217777778,-0.206666667,1.0,0.0,0.0,4.0454,compass,0.0,13.0,13.0,10.0,1.0,SoundStimuli/BadDay_DanielPowter_Original5S.wav,,,,,,,,,,,,,,,,,,,,,,,,,,,,,,,,,,,,,,,,,,,,,,,,,,,,
,,,,,216748,1,2024-07-12_18h19.15.979,experiment,2024.1.5,Win32,60.24096386,6691931c2c63981b064e1f0c,6691abc41aa2fa0d090c3e2c,,,,,,,,,,,,,,,,,,,,,,,,,,,,,,,,,,,,,,,,,,,,,,,,,,,,,,,,,,,,504.6688,510.8256,0.278888889,-0.275555556,1.0,0.0,0.0,0.1494,compass,0.0,14.0,14.0,22.0,1.0,SoundStimuli/RockWithYou_MichaelJackson_Cover5S.wav,,,,,,,,,,,,,,,,,,,,,,,,,,,,,,,,,,,,,,,,,,,,,,,,,,,,
,,,,,216748,1,2024-07-12_18h19.15.979,experiment,2024.1.5,Win32,60.24096386,6691931c2c63981b064e1f0c,6691abc41aa2fa0d090c3e2c,,,,,,,,,,,,,,,,,,,,,,,,,,,,,,,,,,,,,,,,,,,,,,,,,,,,,,,,,,,,510.8353,517.2558,-0.171111111,0.135555556,1.0,0.0,0.0,0.4201,compass,0.0,15.0,15.0,1.0,1.0,SoundStimuli/Stronger_KanyeWest_Cover5S.wav,,,,,,,,,,,,,,,,,,,,,,,,,,,,,,,,,,,,,,,,,,,,,,,,,,,,
,,,,,216748,1,2024-07-12_18h19.15.979,experiment,2024.1.5,Win32,60.24096386,6691931c2c63981b064e1f0c,6691abc41aa2fa0d090c3e2c,,,,,,,,,,,,,,,,,,,,,,,,,,,,,,,,,,,,,,,,,,,,,,,,,,,,,,,,,,,,517.2719,528.0894,0.211111111,0.243333333,1.0,0.0,0.0,4.811,compass,0.0,16.0,16.0,15.0,1.0,SoundStimuli/TikTok_Kesha_Original5S.wav,,,,,,,,,,,,,,,,,,,,,,,,,,,,,,,,,,,,,,,,,,,,,,,,,,,,
,,,,,216748,1,2024-07-12_18h19.15.979,experiment,2024.1.5,Win32,60.24096386,6691931c2c63981b064e1f0c,6691abc41aa2fa0d090c3e2c,,,,,,,,,,,,,,,,,,,,,,,,,,,,,,,,,,,,,,,,,,,,,,,,,,,,,,,,,,,,528.1006,536.4632,-0.2,-0.204444444,1.0,0.0,0.0,2.347,compass,0.0,17.0,17.0,2.0,1.0,SoundStimuli/Mood_24kGoldnianndior_Original5S.wav,,,,,,,,,,,,,,,,,,,,,,,,,,,,,,,,,,,,,,,,,,,,,,,,,,,,
,,,,,216748,1,2024-07-12_18h19.15.979,experiment,2024.1.5,Win32,60.24096386,6691931c2c63981b064e1f0c,6691abc41aa2fa0d090c3e2c,,,,,,,,,,,,,,,,,,,,,,,,,,,,,,,,,,,,,,,,,,,,,,,,,,,,,,,,,,,,536.4745,542.6893,0.227777778,0.245555556,1.0,0.0,0.0,0.1999,compass,0.0,18.0,18.0,26.0,1.0,SoundStimuli/LivinOnAPrayer_BonJovi_Original5S.wav,,,,,,,,,,,,,,,,,,,,,,,,,,,,,,,,,,,,,,,,,,,,,,,,,,,,
,,,,,216748,1,2024-07-12_18h19.15.979,experiment,2024.1.5,Win32,60.24096386,6691931c2c63981b064e1f0c,6691abc41aa2fa0d090c3e2c,,,,,,,,,,,,,,,,,,,,,,,,,,,,,,,,,,,,,,,,,,,,,,,,,,,,,,,,,,,,542.7025,558.5102,0.251111111,-0.19,1.0,0.0,0.0,9.795,compass,0.0,19.0,19.0,33.0,1.0,SoundStimuli/StandByMe_BenEKing_Original5S.wav,,,,,,,,,,,,,,,,,,,,,,,,,,,,,,,,,,,,,,,,,,,,,,,,,,,,
,,,,,216748,1,2024-07-12_18h19.15.979,experiment,2024.1.5,Win32,60.24096386,6691931c2c63981b064e1f0c,6691abc41aa2fa0d090c3e2c,,,,,,,,,,,,,,,,,,,,,,,,,,,,,,,,,,,,,,,,,,,,,,,,,,,,,,,,,,,,558.518,570.2073,0.208888889,-0.198888889,1.0,0.0,0.0,5.6888,compass,0.0,20.0,20.0,5.0,1.0,SoundStimuli/MyGirl_TheTemptations_Cover5S.wav,,,,,,,,,,,,,,,,,,,,,,,,,,,,,,,,,,,,,,,,,,,,,,,,,,,,
,,,,,216748,1,2024-07-12_18h19.15.979,experiment,2024.1.5,Win32,60.24096386,6691931c2c63981b064e1f0c,6691abc41aa2fa0d090c3e2c,,,,,,,,,,,,,,,,,,,,,,,,,,,,,,,,,,,,,,,,,,,,,,,,,,,,,,,,,,,,570.2157,577.5999,0.208888889,-0.201111111,1.0,0.0,0.0,1.3822,compass,0.0,21.0,21.0,31.0,1.0,SoundStimuli/TheBattleOfNewOrleans_JohnnyHorton_Original5S.wav,,,,,,,,,,,,,,,,,,,,,,,,,,,,,,,,,,,,,,,,,,,,,,,,,,,,
,,,,,216748,1,2024-07-12_18h19.15.979,experiment,2024.1.5,Win32,60.24096386,6691931c2c63981b064e1f0c,6691abc41aa2fa0d090c3e2c,,,,,,,,,,,,,,,,,,,,,,,,,,,,,,,,,,,,,,,,,,,,,,,,,,,,,,,,,,,,577.6102,587.427,0.157777778,0.181111111,1.0,0.0,0.0,3.7962,compass,0.0,22.0,22.0,23.0,1.0,SoundStimuli/StrawberryFieldsForever_TheBeatles_Cover5S.wav,,,,,,,,,,,,,,,,,,,,,,,,,,,,,,,,,,,,,,,,,,,,,,,,,,,,
,,,,,216748,1,2024-07-12_18h19.15.979,experiment,2024.1.5,Win32,60.24096386,6691931c2c63981b064e1f0c,6691abc41aa2fa0d090c3e2c,,,,,,,,,,,,,,,,,,,,,,,,,,,,,,,,,,,,,,,,,,,,,,,,,,,,,,,,,,,,587.4347,599.6075,0.165555556,0.192222222,1.0,0.0,0.0,6.1544,compass,0.0,23.0,23.0,8.0,1.0,SoundStimuli/LikeAPrayer_Madonna_Cover5S.wav,,,,,,,,,,,,,,,,,,,,,,,,,,,,,,,,,,,,,,,,,,,,,,,,,,,,
,,,,,216748,1,2024-07-12_18h19.15.979,experiment,2024.1.5,Win32,60.24096386,6691931c2c63981b064e1f0c,6691abc41aa2fa0d090c3e2c,,,,,,,,,,,,,,,,,,,,,,,,,,,,,,,,,,,,,,,,,,,,,,,,,,,,,,,,,,,,599.6257,608.4142,-0.17,-0.172222222,1.0,0.0,0.0,2.7808,compass,0.0,24.0,24.0,12.0,1.0,SoundStimuli/IWillAlwaysLoveYou_WhitneyHouston_Original5S.wav,,,,,,,,,,,,,,,,,,,,,,,,,,,,,,,,,,,,,,,,,,,,,,,,,,,,
,,,,,216748,1,2024-07-12_18h19.15.979,experiment,2024.1.5,Win32,60.24096386,6691931c2c63981b064e1f0c,6691abc41aa2fa0d090c3e2c,,,,,,,,,,,,,,,,,,,,,,,,,,,,,,,,,,,,,,,,,,,,,,,,,,,,,,,,,,,,608.4247,616.01,0.196666667,0.203333333,1.0,0.0,0.0,1.5649,compass,0.0,25.0,25.0,32.0,1.0,SoundStimuli/HeatWaves_GlassAnimals_Cover5S.wav,,,,,,,,,,,,,,,,,,,,,,,,,,,,,,,,,,,,,,,,,,,,,,,,,,,,
,,,,,216748,1,2024-07-12_18h19.15.979,experiment,2024.1.5,Win32,60.24096386,6691931c2c63981b064e1f0c,6691abc41aa2fa0d090c3e2c,,,,,,,,,,,,,,,,,,,,,,,,,,,,,,,,,,,,,,,,,,,,,,,,,,,,,,,,,,,,616.0176,622.7032,-0.234444444,0.23,1.0,0.0,0.0,0.6721,compass,0.0,26.0,26.0,11.0,1.0,SoundStimuli/Superstition_StevieWonder_Original5S.wav,,,,,,,,,,,,,,,,,,,,,,,,,,,,,,,,,,,,,,,,,,,,,,,,,,,,
,,,,,216748,1,2024-07-12_18h19.15.979,experiment,2024.1.5,Win32,60.24096386,6691931c2c63981b064e1f0c,6691abc41aa2fa0d090c3e2c,,,,,,,,,,,,,,,,,,,,,,,,,,,,,,,,,,,,,,,,,,,,,,,,,,,,,,,,,,,,622.7163,631.3413,-0.195555556,0.248888889,1.0,0.0,0.0,2.6126,compass,0.0,27.0,27.0,16.0,1.0,SoundStimuli/BohemianRhapsody_Queen_Cover5S.wav,,,,,,,,,,,,,,,,,,,,,,,,,,,,,,,,,,,,,,,,,,,,,,,,,,,,
,,,,,216748,1,2024-07-12_18h19.15.979,experiment,2024.1.5,Win32,60.24096386,6691931c2c63981b064e1f0c,6691abc41aa2fa0d090c3e2c,,,,,,,,,,,,,,,,,,,,,,,,,,,,,,,,,,,,,,,,,,,,,,,,,,,,,,,,,,,,631.3486,638.0458,0.19,0.187777778,1.0,0.0,0.0,0.6776,compass,0.0,28.0,28.0,4.0,1.0,SoundStimuli/GetUrFreakOn_MissyElliot_Cover5S.wav,,,,,,,,,,,,,,,,,,,,,,,,,,,,,,,,,,,,,,,,,,,,,,,,,,,,
,,,,,216748,1,2024-07-12_18h19.15.979,experiment,2024.1.5,Win32,60.24096386,6691931c2c63981b064e1f0c,6691abc41aa2fa0d090c3e2c,,,,,,,,,,,,,,,,,,,,,,,,,,,,,,,,,,,,,,,,,,,,,,,,,,,,,,,,,,,,638.0558,650.1321,0.24,0.257777778,1.0,0.0,0.0,6.054,compass,0.0,29.0,29.0,24.0,1.0,SoundStimuli/UptownFunk_MarkRonson_Cover5S.wav,,,,,,,,,,,,,,,,,,,,,,,,,,,,,,,,,,,,,,,,,,,,,,,,,,,,
,,,,,216748,1,2024-07-12_18h19.15.979,experiment,2024.1.5,Win32,60.24096386,6691931c2c63981b064e1f0c,6691abc41aa2fa0d090c3e2c,,,,,,,,,,,,,,,,,,,,,,,,,,,,,,,,,,,,,,,,,,,,,,,,,,,,,,,,,,,,650.1506,656.3473,0.117777778,0.088888889,1.0,0.0,0.0,0.1833,compass,0.0,30.0,30.0,20.0,1.0,SoundStimuli/HeyYa_Outkast_Original5S.wav,,,,,,,,,,,,,,,,,,,,,,,,,,,,,,,,,,,,,,,,,,,,,,,,,,,,
,,,,,216748,1,2024-07-12_18h19.15.979,experiment,2024.1.5,Win32,60.24096386,6691931c2c63981b064e1f0c,6691abc41aa2fa0d090c3e2c,,,,,,,,,,,,,,,,,,,,,,,,,,,,,,,,,,,,,,,,,,,,,,,,,,,,,,,,,,,,656.3546,662.6342,-0.284444444,-0.285555556,1.0,0.0,0.0,0.2777,compass,0.0,31.0,31.0,13.0,1.0,SoundStimuli/GodOnlyKnows_TheBeachBoys_Original5S.wav,,,,,,,,,,,,,,,,,,,,,,,,,,,,,,,,,,,,,,,,,,,,,,,,,,,,
,,,,,216748,1,2024-07-12_18h19.15.979,experiment,2024.1.5,Win32,60.24096386,6691931c2c63981b064e1f0c,6691abc41aa2fa0d090c3e2c,,,,,,,,,,,,,,,,,,,,,,,,,,,,,,,,,,,,,,,,,,,,,,,,,,,,,,,,,,,,662.6448,669.6978,0.263333333,-0.276666667,1.0,0.0,0.0,1.037,compass,0.0,32.0,32.0,19.0,1.0,SoundStimuli/LetsGetItOn_MarvinGaye_Original5S.wav,,,,,,,,,,,,,,,,,,,,,,,,,,,,,,,,,,,,,,,,,,,,,,,,,,,,
,,,,,216748,1,2024-07-12_18h19.15.979,experiment,2024.1.5,Win32,60.24096386,6691931c2c63981b064e1f0c,6691abc41aa2fa0d090c3e2c,,,,,,,,,,,,,,,,,,,,,,,,,,,,,,,,,,,,,,,,,,,,,,,,,,,,,,,,,,,,669.7048,675.7363,-0.004444444,0.005555556,1.0,0.0,0.0,0.0284,compass,0.0,33.0,33.0,9.0,1.0,SoundStimuli/Despacito_LuisFonsiDaddyYankee_Original5S.wav,,,,,,,,,,,,,,,,,,,,,,,,,,,,,,,,,,,,,,,,,,,,,,,,,,,,
,,,,,216748,1,2024-07-12_18h19.15.979,experiment,2024.1.5,Win32,60.24096386,6691931c2c63981b064e1f0c,6691abc41aa2fa0d090c3e2c,,,,,,,,,,,,,,,,,,,,,,,,,,,,,,,,,,,,,,,,,,,,,,,,,,,,,,,,,,,,675.7552,682.1618,-0.225555556,-0.251111111,1.0,0.0,0.0,0.3944,compass,0.0,34.0,34.0,29.0,1.0,SoundStimuli/OldTownRoad_LilNasX_Cover5S.wav,,,,,,,,,,,,,,,,,,,,,,,,,,,,,,,,,,,,,,,,,,,,,,,,,,,,
,,,,,216748,1,2024-07-12_18h19.15.979,experiment,2024.1.5,Win32,60.24096386,6691931c2c63981b064e1f0c,6691abc41aa2fa0d090c3e2c,,,,,,,,,,,,,,,,,,,,,,,,,,,,,,,,,,,,,,,,,,,,,,,,,,,,,,,,,,,,,,,,,,,,,,,,,,,682.1702,684.4791,space,2.2808,,684.4794,689.4381,right,4.9276,,0.0,0.0,0.0,0.0,1.0,block_order/blockC.xlsx,,,,,,,,,,,,,,,,,,,,,,,,,,,,,,,,,,,,
,,,,,216748,1,2024-07-12_18h19.15.979,experiment,2024.1.5,Win32,60.24096386,6691931c2c63981b064e1f0c,6691abc41aa2fa0d090c3e2c,,,,,,,,,,,,,,,,,,,,,,,,,,,,,,,,,,,,,,,,,,,,,,,,,,,,,,,,,,,,689.4526,699.4639,0.296666667,0.288888889,1.0,0.0,0.0,4.001,compass,0.0,0.0,0.0,15.0,1.0,SoundStimuli/CrazyInLove_BeyonceFtJayZ_Original5S.wav,,,,,,,,,,,,,,,,,,,,,,,,,,,,,,,,,,,,,,,,,,,,,,,,,,,,
,,,,,216748,1,2024-07-12_18h19.15.979,experiment,2024.1.5,Win32,60.24096386,6691931c2c63981b064e1f0c,6691abc41aa2fa0d090c3e2c,,,,,,,,,,,,,,,,,,,,,,,,,,,,,,,,,,,,,,,,,,,,,,,,,,,,,,,,,,,,699.4758,715.1626,0.276666667,0.268888889,1.0,0.0,0.0,9.6723,compass,0.0,1.0,1.0,10.0,1.0,SoundStimuli/LeFreak_Chic_Original5S.wav,,,,,,,,,,,,,,,,,,,,,,,,,,,,,,,,,,,,,,,,,,,,,,,,,,,,
,,,,,216748,1,2024-07-12_18h19.15.979,experiment,2024.1.5,Win32,60.24096386,6691931c2c63981b064e1f0c,6691abc41aa2fa0d090c3e2c,,,,,,,,,,,,,,,,,,,,,,,,,,,,,,,,,,,,,,,,,,,,,,,,,,,,,,,,,,,,715.1738,723.9863,-0.258888889,-0.214444444,1.0,0.0,0.0,2.8035,compass,0.0,2.0,2.0,23.0,1.0,SoundStimuli/IWalkTheLine_JohnnyCash_Cover5S.wav,,,,,,,,,,,,,,,,,,,,,,,,,,,,,,,,,,,,,,,,,,,,,,,,,,,,
,,,,,216748,1,2024-07-12_18h19.15.979,experiment,2024.1.5,Win32,60.24096386,6691931c2c63981b064e1f0c,6691abc41aa2fa0d090c3e2c,,,,,,,,,,,,,,,,,,,,,,,,,,,,,,,,,,,,,,,,,,,,,,,,,,,,,,,,,,,,723.9939,733.4688,0.125555556,-0.243333333,1.0,0.0,0.0,3.4734,compass,0.0,3.0,3.0,4.0,1.0,SoundStimuli/Dreams_FleetwoodMac_Cover5S.wav,,,,,,,,,,,,,,,,,,,,,,,,,,,,,,,,,,,,,,,,,,,,,,,,,,,,
,,,,,216748,1,2024-07-12_18h19.15.979,experiment,2024.1.5,Win32,60.24096386,6691931c2c63981b064e1f0c,6691abc41aa2fa0d090c3e2c,,,,,,,,,,,,,,,,,,,,,,,,,,,,,,,,,,,,,,,,,,,,,,,,,,,,,,,,,,,,733.4775,740.9657,0.226666667,0.241111111,1.0,0.0,0.0,1.4868,compass,0.0,4.0,4.0,11.0,1.0,SoundStimuli/BlurredLines_RobinThicke_Original5S.wav,,,,,,,,,,,,,,,,,,,,,,,,,,,,,,,,,,,,,,,,,,,,,,,,,,,,
,,,,,216748,1,2024-07-12_18h19.15.979,experiment,2024.1.5,Win32,60.24096386,6691931c2c63981b064e1f0c,6691abc41aa2fa0d090c3e2c,,,,,,,,,,,,,,,,,,,,,,,,,,,,,,,,,,,,,,,,,,,,,,,,,,,,,,,,,,,,740.9789,752.3806,0.295555556,-0.303333333,1.0,0.0,0.0,5.3883,compass,0.0,5.0,5.0,32.0,1.0,SoundStimuli/Dilemma_NellyKellyRowland_Original5S.wav,,,,,,,,,,,,,,,,,,,,,,,,,,,,,,,,,,,,,,,,,,,,,,,,,,,,
,,,,,216748,1,2024-07-12_18h19.15.979,experiment,2024.1.5,Win32,60.24096386,6691931c2c63981b064e1f0c,6691abc41aa2fa0d090c3e2c,,,,,,,,,,,,,,,,,,,,,,,,,,,,,,,,,,,,,,,,,,,,,,,,,,,,,,,,,,,,752.3915,758.4738,-0.301111111,-0.305555556,1.0,0.0,0.0,0.0781,compass,0.0,6.0,6.0,30.0,1.0,SoundStimuli/SomebodyThatIUsedtoKnow_Gotye_Cover5S.wav,,,,,,,,,,,,,,,,,,,,,,,,,,,,,,,,,,,,,,,,,,,,,,,,,,,,
,,,,,216748,1,2024-07-12_18h19.15.979,experiment,2024.1.5,Win32,60.24096386,6691931c2c63981b064e1f0c,6691abc41aa2fa0d090c3e2c,,,,,,,,,,,,,,,,,,,,,,,,,,,,,,,,,,,,,,,,,,,,,,,,,,,,,,,,,,,,758.4843,770.8593,0.296666667,-0.274444444,1.0,0.0,0.0,6.3595,compass,0.0,7.0,7.0,13.0,1.0,SoundStimuli/Perfect_EdSheeran_Original5S.wav,,,,,,,,,,,,,,,,,,,,,,,,,,,,,,,,,,,,,,,,,,,,,,,,,,,,
,,,,,216748,1,2024-07-12_18h19.15.979,experiment,2024.1.5,Win32,60.24096386,6691931c2c63981b064e1f0c,6691abc41aa2fa0d090c3e2c,,,,,,,,,,,,,,,,,,,,,,,,,,,,,,,,,,,,,,,,,,,,,,,,,,,,,,,,,,,,770.8775,777.9228,-0.25,-0.238888889,1.0,0.0,0.0,1.0376,compass,0.0,8.0,8.0,21.0,1.0,SoundStimuli/BridgeOverTroubledWater_SimonAndGarfunkel_Cover5S.wav,,,,,,,,,,,,,,,,,,,,,,,,,,,,,,,,,,,,,,,,,,,,,,,,,,,,
,,,,,216748,1,2024-07-12_18h19.15.979,experiment,2024.1.5,Win32,60.24096386,6691931c2c63981b064e1f0c,6691abc41aa2fa0d090c3e2c,,,,,,,,,,,,,,,,,,,,,,,,,,,,,,,,,,,,,,,,,,,,,,,,,,,,,,,,,,,,777.9296,784.0278,-0.062222222,-0.162222222,1.0,0.0,0.0,0.0944,compass,0.0,9.0,9.0,34.0,1.0,SoundStimuli/Irreplaceable_Beyonce_Original5S.wav,,,,,,,,,,,,,,,,,,,,,,,,,,,,,,,,,,,,,,,,,,,,,,,,,,,,
,,,,,216748,1,2024-07-12_18h19.15.979,experiment,2024.1.5,Win32,60.24096386,6691931c2c63981b064e1f0c,6691abc41aa2fa0d090c3e2c,,,,,,,,,,,,,,,,,,,,,,,,,,,,,,,,,,,,,,,,,,,,,,,,,,,,,,,,,,,,784.0452,796.6014,-0.194444444,-0.192222222,1.0,0.0,0.0,6.5476,compass,0.0,10.0,10.0,26.0,1.0,SoundStimuli/TheSign_AceOfBase_Original5S.wav,,,,,,,,,,,,,,,,,,,,,,,,,,,,,,,,,,,,,,,,,,,,,,,,,,,,
,,,,,216748,1,2024-07-12_18h19.15.979,experiment,2024.1.5,Win32,60.24096386,6691931c2c63981b064e1f0c,6691abc41aa2fa0d090c3e2c,,,,,,,,,,,,,,,,,,,,,,,,,,,,,,,,,,,,,,,,,,,,,,,,,,,,,,,,,,,,796.6129,803.9548,0.176666667,-0.182222222,1.0,0.0,0.0,1.3269,compass,0.0,11.0,11.0,17.0,1.0,SoundStimuli/IWannaDanceWithSomebody_WhitneyHouston_Cover5S.wav,,,,,,,,,,,,,,,,,,,,,,,,,,,,,,,,,,,,,,,,,,,,,,,,,,,,
,,,,,216748,1,2024-07-12_18h19.15.979,experiment,2024.1.5,Win32,60.24096386,6691931c2c63981b064e1f0c,6691abc41aa2fa0d090c3e2c,,,,,,,,,,,,,,,,,,,,,,,,,,,,,,,,,,,,,,,,,,,,,,,,,,,,,,,,,,,,803.965,813.5488,0.202222222,-0.244444444,1.0,0.0,0.0,3.5595,compass,0.0,12.0,12.0,8.0,1.0,SoundStimuli/EndlessLove_DianaRossLionelRichie_Original5S.wav,,,,,,,,,,,,,,,,,,,,,,,,,,,,,,,,,,,,,,,,,,,,,,,,,,,,
,,,,,216748,1,2024-07-12_18h19.15.979,experiment,2024.1.5,Win32,60.24096386,6691931c2c63981b064e1f0c,6691abc41aa2fa0d090c3e2c,,,,,,,,,,,,,,,,,,,,,,,,,,,,,,,,,,,,,,,,,,,,,,,,,,,,,,,,,,,,813.5565,826.0846,0.284444444,-0.247777778,1.0,0.0,0.0,6.5262,compass,0.0,13.0,13.0,19.0,1.0,SoundStimuli/YouLightUpMyLife_DebbyBoone_Cover5S.wav,,,,,,,,,,,,,,,,,,,,,,,,,,,,,,,,,,,,,,,,,,,,,,,,,,,,
,,,,,216748,1,2024-07-12_18h19.15.979,experiment,2024.1.5,Win32,60.24096386,6691931c2c63981b064e1f0c,6691abc41aa2fa0d090c3e2c,,,,,,,,,,,,,,,,,,,,,,,,,,,,,,,,,,,,,,,,,,,,,,,,,,,,,,,,,,,,826.0941,833.7376,-0.233333333,-0.172222222,1.0,0.0,0.0,1.6271,compass,0.0,14.0,14.0,14.0,1.0,SoundStimuli/LikeARollingStone_BobDylan_Cover5S.wav,,,,,,,,,,,,,,,,,,,,,,,,,,,,,,,,,,,,,,,,,,,,,,,,,,,,
,,,,,216748,1,2024-07-12_18h19.15.979,experiment,2024.1.5,Win32,60.24096386,6691931c2c63981b064e1f0c,6691abc41aa2fa0d090c3e2c,,,,,,,,,,,,,,,,,,,,,,,,,,,,,,,,,,,,,,,,,,,,,,,,,,,,,,,,,,,,833.7556,843.7249,0.285555556,-0.285555556,1.0,0.0,0.0,3.9569,compass,0.0,15.0,15.0,9.0,1.0,SoundStimuli/HowDoILive_LeAnnRimes_Original5S.wav,,,,,,,,,,,,,,,,,,,,,,,,,,,,,,,,,,,,,,,,,,,,,,,,,,,,
,,,,,216748,1,2024-07-12_18h19.15.979,experiment,2024.1.5,Win32,60.24096386,6691931c2c63981b064e1f0c,6691abc41aa2fa0d090c3e2c,,,,,,,,,,,,,,,,,,,,,,,,,,,,,,,,,,,,,,,,,,,,,,,,,,,,,,,,,,,,843.7353,849.8385,0.312222222,-0.241111111,1.0,0.0,0.0,0.0985,compass,0.0,16.0,16.0,18.0,1.0,SoundStimuli/Weak_SWV_Original5S.wav,,,,,,,,,,,,,,,,,,,,,,,,,,,,,,,,,,,,,,,,,,,,,,,,,,,,
,,,,,216748,1,2024-07-12_18h19.15.979,experiment,2024.1.5,Win32,60.24096386,6691931c2c63981b064e1f0c,6691abc41aa2fa0d090c3e2c,,,,,,,,,,,,,,,,,,,,,,,,,,,,,,,,,,,,,,,,,,,,,,,,,,,,,,,,,,,,849.8543,861.6762,0.301111111,-0.307777778,1.0,0.0,0.0,5.8095,compass,0.0,17.0,17.0,25.0,1.0,SoundStimuli/IllMakeLoveToYou_BoyzIIMen_Original5S.wav,,,,,,,,,,,,,,,,,,,,,,,,,,,,,,,,,,,,,,,,,,,,,,,,,,,,
,,,,,216748,1,2024-07-12_18h19.15.979,experiment,2024.1.5,Win32,60.24096386,6691931c2c63981b064e1f0c,6691abc41aa2fa0d090c3e2c,,,,,,,,,,,,,,,,,,,,,,,,,,,,,,,,,,,,,,,,,,,,,,,,,,,,,,,,,,,,861.6897,867.7649,0.268888889,0.303333333,1.0,0.0,0.0,0.0674,compass,0.0,18.0,18.0,24.0,1.0,SoundStimuli/Kiss_Prince_Original5S.wav,,,,,,,,,,,,,,,,,,,,,,,,,,,,,,,,,,,,,,,,,,,,,,,,,,,,
,,,,,216748,1,2024-07-12_18h19.15.979,experiment,2024.1.5,Win32,60.24096386,6691931c2c63981b064e1f0c,6691abc41aa2fa0d090c3e2c,,,,,,,,,,,,,,,,,,,,,,,,,,,,,,,,,,,,,,,,,,,,,,,,,,,,,,,,,,,,867.7771,874.1448,0.28,0.283333333,1.0,0.0,0.0,0.3548,compass,0.0,19.0,19.0,3.0,1.0,SoundStimuli/PartyRockAnthem_LMFAO_Cover5S.wav,,,,,,,,,,,,,,,,,,,,,,,,,,,,,,,,,,,,,,,,,,,,,,,,,,,,
,,,,,216748,1,2024-07-12_18h19.15.979,experiment,2024.1.5,Win32,60.24096386,6691931c2c63981b064e1f0c,6691abc41aa2fa0d090c3e2c,,,,,,,,,,,,,,,,,,,,,,,,,,,,,,,,,,,,,,,,,,,,,,,,,,,,,,,,,,,,874.1519,880.3492,-0.205555556,-0.18,1.0,0.0,0.0,0.1943,compass,0.0,20.0,20.0,12.0,1.0,SoundStimuli/UnbreakMyHeart_ToniBraxton_Cover5S.wav,,,,,,,,,,,,,,,,,,,,,,,,,,,,,,,,,,,,,,,,,,,,,,,,,,,,
,,,,,216748,1,2024-07-12_18h19.15.979,experiment,2024.1.5,Win32,60.24096386,6691931c2c63981b064e1f0c,6691abc41aa2fa0d090c3e2c,,,,,,,,,,,,,,,,,,,,,,,,,,,,,,,,,,,,,,,,,,,,,,,,,,,,,,,,,,,,880.3568,891.0092,-0.14,-0.105555556,1.0,0.0,0.0,4.6499,compass,0.0,21.0,21.0,0.0,1.0,SoundStimuli/GimmeShelter_RollingStones_Cover5S.wav,,,,,,,,,,,,,,,,,,,,,,,,,,,,,,,,,,,,,,,,,,,,,,,,,,,,
,,,,,216748,1,2024-07-12_18h19.15.979,experiment,2024.1.5,Win32,60.24096386,6691931c2c63981b064e1f0c,6691abc41aa2fa0d090c3e2c,,,,,,,,,,,,,,,,,,,,,,,,,,,,,,,,,,,,,,,,,,,,,,,,,,,,,,,,,,,,891.0167,899.1496,0.197777778,-0.198888889,1.0,0.0,0.0,2.1194,compass,0.0,22.0,22.0,7.0,1.0,SoundStimuli/MackTheKnife_BobbyDarin_Original5S.wav,,,,,,,,,,,,,,,,,,,,,,,,,,,,,,,,,,,,,,,,,,,,,,,,,,,,
,,,,,216748,1,2024-07-12_18h19.15.979,experiment,2024.1.5,Win32,60.24096386,6691931c2c63981b064e1f0c,6691abc41aa2fa0d090c3e2c,,,,,,,,,,,,,,,,,,,,,,,,,,,,,,,,,,,,,,,,,,,,,,,,,,,,,,,,,,,,899.1667,912.1627,0.252222222,-0.242222222,1.0,0.0,0.0,6.9918,compass,0.0,23.0,23.0,28.0,1.0,SoundStimuli/IWantToHoldYourHand_TheBeatles_Cover5S.wav,,,,,,,,,,,,,,,,,,,,,,,,,,,,,,,,,,,,,,,,,,,,,,,,,,,,
,,,,,216748,1,2024-07-12_18h19.15.979,experiment,2024.1.5,Win32,60.24096386,6691931c2c63981b064e1f0c,6691abc41aa2fa0d090c3e2c,,,,,,,,,,,,,,,,,,,,,,,,,,,,,,,,,,,,,,,,,,,,,,,,,,,,,,,,,,,,912.1734,930.1421,0.207777778,0.265555556,1.0,0.0,0.0,11.9641,compass,0.0,24.0,24.0,22.0,1.0,SoundStimuli/Happy_PharellWilliams_Cover5S.wav,,,,,,,,,,,,,,,,,,,,,,,,,,,,,,,,,,,,,,,,,,,,,,,,,,,,
,,,,,216748,1,2024-07-12_18h19.15.979,experiment,2024.1.5,Win32,60.24096386,6691931c2c63981b064e1f0c,6691abc41aa2fa0d090c3e2c,,,,,,,,,,,,,,,,,,,,,,,,,,,,,,,,,,,,,,,,,,,,,,,,,,,,,,,,,,,,930.1631,942.9942,-0.151111111,0.172222222,1.0,0.0,0.0,6.8207,compass,0.0,25.0,25.0,2.0,1.0,SoundStimuli/SmellsLikeTeenSpirit_Nirvana_Cover5S.wav,,,,,,,,,,,,,,,,,,,,,,,,,,,,,,,,,,,,,,,,,,,,,,,,,,,,
,,,,,216748,1,2024-07-12_18h19.15.979,experiment,2024.1.5,Win32,60.24096386,6691931c2c63981b064e1f0c,6691abc41aa2fa0d090c3e2c,,,,,,,,,,,,,,,,,,,,,,,,,,,,,,,,,,,,,,,,,,,,,,,,,,,,,,,,,,,,943.0124,949.043,-0.27,-0.246666667,1.0,0.0,0.0,0.0231,compass,0.0,26.0,26.0,33.0,1.0,SoundStimuli/TheBoyIsMine_BrandyMonica_Cover5S.wav,,,,,,,,,,,,,,,,,,,,,,,,,,,,,,,,,,,,,,,,,,,,,,,,,,,,
,,,,,216748,1,2024-07-12_18h19.15.979,experiment,2024.1.5,Win32,60.24096386,6691931c2c63981b064e1f0c,6691abc41aa2fa0d090c3e2c,,,,,,,,,,,,,,,,,,,,,,,,,,,,,,,,,,,,,,,,,,,,,,,,,,,,,,,,,,,,949.0502,956.2835,-0.078888889,-0.133333333,1.0,0.0,0.0,1.2307,compass,0.0,27.0,27.0,5.0,1.0,SoundStimuli/JoyToTheWorld_ThreeDogNight_Cover5S.wav,,,,,,,,,,,,,,,,,,,,,,,,,,,,,,,,,,,,,,,,,,,,,,,,,,,,
,,,,,216748,1,2024-07-12_18h19.15.979,experiment,2024.1.5,Win32,60.24096386,6691931c2c63981b064e1f0c,6691abc41aa2fa0d090c3e2c,,,,,,,,,,,,,,,,,,,,,,,,,,,,,,,,,,,,,,,,,,,,,,,,,,,,,,,,,,,,956.2911,963.1754,-0.1,-0.071111111,1.0,0.0,0.0,0.8706,compass,0.0,28.0,28.0,29.0,1.0,SoundStimuli/BetteDavisEyes_KimCarnes_Cover5S.wav,,,,,,,,,,,,,,,,,,,,,,,,,,,,,,,,,,,,,,,,,,,,,,,,,,,,
,,,,,216748,1,2024-07-12_18h19.15.979,experiment,2024.1.5,Win32,60.24096386,6691931c2c63981b064e1f0c,6691abc41aa2fa0d090c3e2c,,,,,,,,,,,,,,,,,,,,,,,,,,,,,,,,,,,,,,,,,,,,,,,,,,,,,,,,,,,,963.1923,971.7109,-0.104444444,-0.076666667,1.0,0.0,0.0,2.5097,compass,0.0,29.0,29.0,16.0,1.0,SoundStimuli/ItsAllInTheGame_TommyEdwards_Original5S.wav,,,,,,,,,,,,,,,,,,,,,,,,,,,,,,,,,,,,,,,,,,,,,,,,,,,,
,,,,,216748,1,2024-07-12_18h19.15.979,experiment,2024.1.5,Win32,60.24096386,6691931c2c63981b064e1f0c,6691abc41aa2fa0d090c3e2c,,,,,,,,,,,,,,,,,,,,,,,,,,,,,,,,,,,,,,,,,,,,,,,,,,,,,,,,,,,,971.7217,978.4917,0.261111111,0.27,1.0,0.0,0.0,0.7661,compass,0.0,30.0,30.0,27.0,1.0,SoundStimuli/EyeOfTheTiger_Survivor_Original5S.wav,,,,,,,,,,,,,,,,,,,,,,,,,,,,,,,,,,,,,,,,,,,,,,,,,,,,
,,,,,216748,1,2024-07-12_18h19.15.979,experiment,2024.1.5,Win32,60.24096386,6691931c2c63981b064e1f0c,6691abc41aa2fa0d090c3e2c,,,,,,,,,,,,,,,,,,,,,,,,,,,,,,,,,,,,,,,,,,,,,,,,,,,,,,,,,,,,978.5026,985.4112,0.247777778,0.241111111,1.0,0.0,0.0,0.899,compass,0.0,31.0,31.0,31.0,1.0,SoundStimuli/TossinAndTurnin_BobbyLewis_Cover5S.wav,,,,,,,,,,,,,,,,,,,,,,,,,,,,,,,,,,,,,,,,,,,,,,,,,,,,
,,,,,216748,1,2024-07-12_18h19.15.979,experiment,2024.1.5,Win32,60.24096386,6691931c2c63981b064e1f0c,6691abc41aa2fa0d090c3e2c,,,,,,,,,,,,,,,,,,,,,,,,,,,,,,,,,,,,,,,,,,,,,,,,,,,,,,,,,,,,985.4204,992.4257,-0.146666667,-0.094444444,1.0,0.0,0.0,1.005,compass,0.0,32.0,32.0,20.0,1.0,SoundStimuli/FlashdanceWhatAFeeling_IreneCara_Cover5S.wav,,,,,,,,,,,,,,,,,,,,,,,,,,,,,,,,,,,,,,,,,,,,,,,,,,,,
,,,,,216748,1,2024-07-12_18h19.15.979,experiment,2024.1.5,Win32,60.24096386,6691931c2c63981b064e1f0c,6691abc41aa2fa0d090c3e2c,,,,,,,,,,,,,,,,,,,,,,,,,,,,,,,,,,,,,,,,,,,,,,,,,,,,,,,,,,,,992.4332,1003.4964,0.296666667,0.204444444,1.0,0.0,0.0,5.0613,compass,0.0,33.0,33.0,1.0,1.0,SoundStimuli/Smooth_SantanaRobThomas_Cover5S.wav,,,,,,,,,,,,,,,,,,,,,,,,,,,,,,,,,,,,,,,,,,,,,,,,,,,,
,,,,,216748,1,2024-07-12_18h19.15.979,experiment,2024.1.5,Win32,60.24096386,6691931c2c63981b064e1f0c,6691abc41aa2fa0d090c3e2c,,,,,,,,,,,,,,,,,,,,,,,,,,,,,,,,,,,,,,,,,,,,,,,,,,,,,,,,,,,,1003.513,1011.132,0.204444444,-0.202222222,1.0,0.0,0.0,1.6149,compass,0.0,34.0,34.0,6.0,1.0,SoundStimuli/SaveYourTears_TheWeekndArianaGrande_Original5S.wav,,,,,,,,,,,,,,,,,,,,,,,,,,,,,,,,,,,,,,,,,,,,,,,,,,,,
,,,,,216748,1,2024-07-12_18h19.15.979,experiment,2024.1.5,Win32,60.24096386,6691931c2c63981b064e1f0c,6691abc41aa2fa0d090c3e2c,,,,,,,,,,,,,,,,,,,,,,,,,,,,,,,,,,,,,,,,,,,,,,,,,,,,,,,,,,,,,,,,,,,,,,,,,,,1011.1514,1012.9465,space,1.7816,,1012.9465,1018.3899,right,5.4117,,0.0,1.0,1.0,1.0,1.0,block_order/blockB.xlsx,,,,,,,,,,,,,,,,,,,,,,,,,,,,,,,,,,,,
,,,,,216748,1,2024-07-12_18h19.15.979,experiment,2024.1.5,Win32,60.24096386,6691931c2c63981b064e1f0c,6691abc41aa2fa0d090c3e2c,,,,,,,,,,,,,,,,,,,,,,,,,,,,,,,,,,,,,,,,,,,,,,,,,,,,,,,,,,,,1018.4107,1029.6434,0.11,-0.075555556,1.0,0.0,0.0,5.2269,compass,0.0,0.0,0.0,9.0,1.0,SoundStimuli/Despacito_LuisFonsiDaddyYankee_Cover5S.wav,,,,,,,,,,,,,,,,,,,,,,,,,,,,,,,,,,,,,,,,,,,,,,,,,,,,
,,,,,216748,1,2024-07-12_18h19.15.979,experiment,2024.1.5,Win32,60.24096386,6691931c2c63981b064e1f0c,6691abc41aa2fa0d090c3e2c,,,,,,,,,,,,,,,,,,,,,,,,,,,,,,,,,,,,,,,,,,,,,,,,,,,,,,,,,,,,1029.6621,1035.9033,0.315555556,0.285555556,1.0,0.0,0.0,0.2328,compass,0.0,1.0,1.0,7.0,1.0,SoundStimuli/NoOne_AliciaKeys_Cover5S.wav,,,,,,,,,,,,,,,,,,,,,,,,,,,,,,,,,,,,,,,,,,,,,,,,,,,,
,,,,,216748,1,2024-07-12_18h19.15.979,experiment,2024.1.5,Win32,60.24096386,6691931c2c63981b064e1f0c,6691abc41aa2fa0d090c3e2c,,,,,,,,,,,,,,,,,,,,,,,,,,,,,,,,,,,,,,,,,,,,,,,,,,,,,,,,,,,,1035.9142,1049.0743,-0.136666667,-0.103333333,1.0,0.0,0.0,7.1448,compass,0.0,2.0,2.0,2.0,1.0,SoundStimuli/Mood_24kGoldnianndior_Cover5S.wav,,,,,,,,,,,,,,,,,,,,,,,,,,,,,,,,,,,,,,,,,,,,,,,,,,,,
,,,,,216748,1,2024-07-12_18h19.15.979,experiment,2024.1.5,Win32,60.24096386,6691931c2c63981b064e1f0c,6691abc41aa2fa0d090c3e2c,,,,,,,,,,,,,,,,,,,,,,,,,,,,,,,,,,,,,,,,,,,,,,,,,,,,,,,,,,,,1049.0821,1063.0255,-0.25,-0.144444444,1.0,0.0,0.0,7.9392,compass,0.0,3.0,3.0,29.0,1.0,SoundStimuli/OldTownRoad_LilNasX_Original5S.wav,,,,,,,,,,,,,,,,,,,,,,,,,,,,,,,,,,,,,,,,,,,,,,,,,,,,
,,,,,216748,1,2024-07-12_18h19.15.979,experiment,2024.1.5,Win32,60.24096386,6691931c2c63981b064e1f0c,6691abc41aa2fa0d090c3e2c,,,,,,,,,,,,,,,,,,,,,,,,,,,,,,,,,,,,,,,,,,,,,,,,,,,,,,,,,,,,1063.035,1078.021,-0.171111111,0.216666667,1.0,0.0,0.0,8.9673,compass,0.0,4.0,4.0,25.0,1.0,SoundStimuli/Respect_ArethaFranklin_Original5S.wav,,,,,,,,,,,,,,,,,,,,,,,,,,,,,,,,,,,,,,,,,,,,,,,,,,,,
,,,,,216748,1,2024-07-12_18h19.15.979,experiment,2024.1.5,Win32,60.24096386,6691931c2c63981b064e1f0c,6691abc41aa2fa0d090c3e2c,,,,,,,,,,,,,,,,,,,,,,,,,,,,,,,,,,,,,,,,,,,,,,,,,,,,,,,,,,,,1078.0316,1093.3535,-0.223333333,-0.136666667,1.0,0.0,0.0,9.3057,compass,0.0,5.0,5.0,18.0,1.0,SoundStimuli/AnotherOneBitesTheDust_Queen_Original5S.wav,,,,,,,,,,,,,,,,,,,,,,,,,,,,,,,,,,,,,,,,,,,,,,,,,,,,
,,,,,216748,1,2024-07-12_18h19.15.979,experiment,2024.1.5,Win32,60.24096386,6691931c2c63981b064e1f0c,6691abc41aa2fa0d090c3e2c,,,,,,,,,,,,,,,,,,,,,,,,,,,,,,,,,,,,,,,,,,,,,,,,,,,,,,,,,,,,1093.3647,1104.7072,-0.223333333,-0.136666667,1.0,0.0,0.0,5.3274,compass,0.0,6.0,6.0,31.0,1.0,SoundStimuli/TheBattleOfNewOrleans_JohnnyHorton_Cover5S.wav,,,,,,,,,,,,,,,,,,,,,,,,,,,,,,,,,,,,,,,,,,,,,,,,,,,,
,,,,,216748,1,2024-07-12_18h19.15.979,experiment,2024.1.5,Win32,60.24096386,6691931c2c63981b064e1f0c,6691abc41aa2fa0d090c3e2c,,,,,,,,,,,,,,,,,,,,,,,,,,,,,,,,,,,,,,,,,,,,,,,,,,,,,,,,,,,,1104.7158,1111.1169,0.205555556,0.224444444,1.0,0.0,0.0,0.4,compass,0.0,7.0,7.0,28.0,1.0,SoundStimuli/ComeAndGetYourLove_Redbone_Original5S.wav,,,,,,,,,,,,,,,,,,,,,,,,,,,,,,,,,,,,,,,,,,,,,,,,,,,,
,,,,,216748,1,2024-07-12_18h19.15.979,experiment,2024.1.5,Win32,60.24096386,6691931c2c63981b064e1f0c,6691abc41aa2fa0d090c3e2c,,,,,,,,,,,,,,,,,,,,,,,,,,,,,,,,,,,,,,,,,,,,,,,,,,,,,,,,,,,,1111.1347,1119.2233,0.17,-0.127777778,1.0,0.0,0.0,2.0807,compass,0.0,8.0,8.0,21.0,1.0,SoundStimuli/GoodGollyMissMolly_LittleRichard_Cover5S.wav,,,,,,,,,,,,,,,,,,,,,,,,,,,,,,,,,,,,,,,,,,,,,,,,,,,,
,,,,,216748,1,2024-07-12_18h19.15.979,experiment,2024.1.5,Win32,60.24096386,6691931c2c63981b064e1f0c,6691abc41aa2fa0d090c3e2c,,,,,,,,,,,,,,,,,,,,,,,,,,,,,,,,,,,,,,,,,,,,,,,,,,,,,,,,,,,,1119.2359,1126.2819,0.203333333,-0.193333333,1.0,0.0,0.0,1.027,compass,0.0,9.0,9.0,5.0,1.0,SoundStimuli/MyGirl_TheTemptations_Original5S.wav,,,,,,,,,,,,,,,,,,,,,,,,,,,,,,,,,,,,,,,,,,,,,,,,,,,,
,,,,,216748,1,2024-07-12_18h19.15.979,experiment,2024.1.5,Win32,60.24096386,6691931c2c63981b064e1f0c,6691abc41aa2fa0d090c3e2c,,,,,,,,,,,,,,,,,,,,,,,,,,,,,,,,,,,,,,,,,,,,,,,,,,,,,,,,,,,,1126.2978,1132.9611,0.203333333,-0.193333333,1.0,0.0,0.0,0.6469,compass,0.0,10.0,10.0,4.0,1.0,SoundStimuli/GetUrFreakOn_MissyElliot_Original5S.wav,,,,,,,,,,,,,,,,,,,,,,,,,,,,,,,,,,,,,,,,,,,,,,,,,,,,
,,,,,216748,1,2024-07-12_18h19.15.979,experiment,2024.1.5,Win32,60.24096386,6691931c2c63981b064e1f0c,6691abc41aa2fa0d090c3e2c,,,,,,,,,,,,,,,,,,,,,,,,,,,,,,,,,,,,,,,,,,,,,,,,,,,,,,,,,,,,1132.977,1146.0929,0.132222222,-0.156666667,1.0,0.0,0.0,7.1042,compass,0.0,11.0,11.0,23.0,1.0,SoundStimuli/StrawberryFieldsForever_TheBeatles_Original5S.wav,,,,,,,,,,,,,,,,,,,,,,,,,,,,,,,,,,,,,,,,,,,,,,,,,,,,
,,,,,216748,1,2024-07-12_18h19.15.979,experiment,2024.1.5,Win32,60.24096386,6691931c2c63981b064e1f0c,6691abc41aa2fa0d090c3e2c,,,,,,,,,,,,,,,,,,,,,,,,,,,,,,,,,,,,,,,,,,,,,,,,,,,,,,,,,,,,1146.1107,1152.8848,0.174444444,-0.175555556,1.0,0.0,0.0,0.7583,compass,0.0,12.0,12.0,26.0,1.0,SoundStimuli/LivinOnAPrayer_BonJovi_Cover5S.wav,,,,,,,,,,,,,,,,,,,,,,,,,,,,,,,,,,,,,,,,,,,,,,,,,,,,
,,,,,216748,1,2024-07-12_18h19.15.979,experiment,2024.1.5,Win32,60.24096386,6691931c2c63981b064e1f0c,6691abc41aa2fa0d090c3e2c,,,,,,,,,,,,,,,,,,,,,,,,,,,,,,,,,,,,,,,,,,,,,,,,,,,,,,,,,,,,1152.9006,1159.0331,0.322222222,0.282222222,1.0,0.0,0.0,0.1161,compass,0.0,13.0,13.0,14.0,1.0,SoundStimuli/BlindingLights_TheWeeknd_Original5S.wav,,,,,,,,,,,,,,,,,,,,,,,,,,,,,,,,,,,,,,,,,,,,,,,,,,,,
,,,,,216748,1,2024-07-12_18h19.15.979,experiment,2024.1.5,Win32,60.24096386,6691931c2c63981b064e1f0c,6691abc41aa2fa0d090c3e2c,,,,,,,,,,,,,,,,,,,,,,,,,,,,,,,,,,,,,,,,,,,,,,,,,,,,,,,,,,,,1159.0403,1168.492,0.211111111,0.241111111,1.0,0.0,0.0,3.435,compass,0.0,14.0,14.0,1.0,1.0,SoundStimuli/Stronger_KanyeWest_Original5S.wav,,,,,,,,,,,,,,,,,,,,,,,,,,,,,,,,,,,,,,,,,,,,,,,,,,,,
,,,,,216748,1,2024-07-12_18h19.15.979,experiment,2024.1.5,Win32,60.24096386,6691931c2c63981b064e1f0c,6691abc41aa2fa0d090c3e2c,,,,,,,,,,,,,,,,,,,,,,,,,,,,,,,,,,,,,,,,,,,,,,,,,,,,,,,,,,,,1168.5077,1175.2923,0.234444444,0.277777778,1.0,0.0,0.0,0.7771,compass,0.0,15.0,15.0,30.0,1.0,SoundStimuli/PokerFace_LadyGaga_Original5S.wav,,,,,,,,,,,,,,,,,,,,,,,,,,,,,,,,,,,,,,,,,,,,,,,,,,,,
,,,,,216748,1,2024-07-12_18h19.15.979,experiment,2024.1.5,Win32,60.24096386,6691931c2c63981b064e1f0c,6691abc41aa2fa0d090c3e2c,,,,,,,,,,,,,,,,,,,,,,,,,,,,,,,,,,,,,,,,,,,,,,,,,,,,,,,,,,,,1175.3088,1188.7824,-0.052222222,0.215555556,1.0,0.0,0.0,7.464,compass,0.0,16.0,16.0,0.0,1.0,SoundStimuli/StayinAlive_BeeGees_Original5S.wav,,,,,,,,,,,,,,,,,,,,,,,,,,,,,,,,,,,,,,,,,,,,,,,,,,,,
,,,,,216748,1,2024-07-12_18h19.15.979,experiment,2024.1.5,Win32,60.24096386,6691931c2c63981b064e1f0c,6691abc41aa2fa0d090c3e2c,,,,,,,,,,,,,,,,,,,,,,,,,,,,,,,,,,,,,,,,,,,,,,,,,,,,,,,,,,,,1188.7937,1195.5022,0.188888889,-0.191111111,1.0,0.0,0.0,0.6992,compass,0.0,17.0,17.0,11.0,1.0,SoundStimuli/Superstition_StevieWonder_Cover5S.wav,,,,,,,,,,,,,,,,,,,,,,,,,,,,,,,,,,,,,,,,,,,,,,,,,,,,
,,,,,216748,1,2024-07-12_18h19.15.979,experiment,2024.1.5,Win32,60.24096386,6691931c2c63981b064e1f0c,6691abc41aa2fa0d090c3e2c,,,,,,,,,,,,,,,,,,,,,,,,,,,,,,,,,,,,,,,,,,,,,,,,,,,,,,,,,,,,1195.5106,1201.7171,0.211111111,-0.156666667,1.0,0.0,0.0,0.2002,compass,0.0,18.0,18.0,17.0,1.0,SoundStimuli/Fallin_AliciaKeys_Original5S.wav,,,,,,,,,,,,,,,,,,,,,,,,,,,,,,,,,,,,,,,,,,,,,,,,,,,,
,,,,,216748,1,2024-07-12_18h19.15.979,experiment,2024.1.5,Win32,60.24096386,6691931c2c63981b064e1f0c,6691abc41aa2fa0d090c3e2c,,,,,,,,,,,,,,,,,,,,,,,,,,,,,,,,,,,,,,,,,,,,,,,,,,,,,,,,,,,,1201.7268,1214.3806,0.211111111,-0.156666667,1.0,0.0,0.0,6.6426,compass,0.0,19.0,19.0,19.0,1.0,SoundStimuli/LetsGetItOn_MarvinGaye_Cover5S.wav,,,,,,,,,,,,,,,,,,,,,,,,,,,,,,,,,,,,,,,,,,,,,,,,,,,,
,,,,,216748,1,2024-07-12_18h19.15.979,experiment,2024.1.5,Win32,60.24096386,6691931c2c63981b064e1f0c,6691abc41aa2fa0d090c3e2c,,,,,,,,,,,,,,,,,,,,,,,,,,,,,,,,,,,,,,,,,,,,,,,,,,,,,,,,,,,,1214.3972,1222.6044,0.234444444,-0.248888889,1.0,0.0,0.0,2.1926,compass,0.0,20.0,20.0,10.0,1.0,SoundStimuli/BadDay_DanielPowter_Cover5S.wav,,,,,,,,,,,,,,,,,,,,,,,,,,,,,,,,,,,,,,,,,,,,,,,,,,,,
,,,,,216748,1,2024-07-12_18h19.15.979,experiment,2024.1.5,Win32,60.24096386,6691931c2c63981b064e1f0c,6691abc41aa2fa0d090c3e2c,,,,,,,,,,,,,,,,,,,,,,,,,,,,,,,,,,,,,,,,,,,,,,,,,,,,,,,,,,,,1222.6129,1229.1355,0.262222222,-0.333333333,1.0,0.0,0.0,0.5212,compass,0.0,21.0,21.0,12.0,1.0,SoundStimuli/IWillAlwaysLoveYou_WhitneyHouston_Cover5S.wav,,,,,,,,,,,,,,,,,,,,,,,,,,,,,,,,,,,,,,,,,,,,,,,,,,,,
,,,,,216748,1,2024-07-12_18h19.15.979,experiment,2024.1.5,Win32,60.24096386,6691931c2c63981b064e1f0c,6691abc41aa2fa0d090c3e2c,,,,,,,,,,,,,,,,,,,,,,,,,,,,,,,,,,,,,,,,,,,,,,,,,,,,,,,,,,,,1229.1465,1243.1634,0.315555556,-0.228888889,1.0,0.0,0.0,8.0022,compass,0.0,22.0,22.0,22.0,1.0,SoundStimuli/RockWithYou_MichaelJackson_Original5S.wav,,,,,,,,,,,,,,,,,,,,,,,,,,,,,,,,,,,,,,,,,,,,,,,,,,,,
,,,,,216748,1,2024-07-12_18h19.15.979,experiment,2024.1.5,Win32,60.24096386,6691931c2c63981b064e1f0c,6691abc41aa2fa0d090c3e2c,,,,,,,,,,,,,,,,,,,,,,,,,,,,,,,,,,,,,,,,,,,,,,,,,,,,,,,,,,,,1243.1722,1257.6467,0.301111111,0.244444444,1.0,0.0,0.0,8.4728,compass,0.0,23.0,23.0,8.0,1.0,SoundStimuli/LikeAPrayer_Madonna_Original5S.wav,,,,,,,,,,,,,,,,,,,,,,,,,,,,,,,,,,,,,,,,,,,,,,,,,,,,
,,,,,216748,1,2024-07-12_18h19.15.979,experiment,2024.1.5,Win32,60.24096386,6691931c2c63981b064e1f0c,6691abc41aa2fa0d090c3e2c,,,,,,,,,,,,,,,,,,,,,,,,,,,,,,,,,,,,,,,,,,,,,,,,,,,,,,,,,,,,1257.6553,1269.3836,0.25,-0.282222222,1.0,0.0,0.0,5.7266,compass,0.0,24.0,24.0,32.0,1.0,SoundStimuli/HeatWaves_GlassAnimals_Original5S.wav,,,,,,,,,,,,,,,,,,,,,,,,,,,,,,,,,,,,,,,,,,,,,,,,,,,,
,,,,,216748,1,2024-07-12_18h19.15.979,experiment,2024.1.5,Win32,60.24096386,6691931c2c63981b064e1f0c,6691abc41aa2fa0d090c3e2c,,,,,,,,,,,,,,,,,,,,,,,,,,,,,,,,,,,,,,,,,,,,,,,,,,,,,,,,,,,,1269.402,1275.6098,0.267777778,-0.248888889,1.0,0.0,0.0,0.1945,compass,0.0,25.0,25.0,33.0,1.0,SoundStimuli/StandByMe_BenEKing_Cover5S.wav,,,,,,,,,,,,,,,,,,,,,,,,,,,,,,,,,,,,,,,,,,,,,,,,,,,,
,,,,,216748,1,2024-07-12_18h19.15.979,experiment,2024.1.5,Win32,60.24096386,6691931c2c63981b064e1f0c,6691abc41aa2fa0d090c3e2c,,,,,,,,,,,,,,,,,,,,,,,,,,,,,,,,,,,,,,,,,,,,,,,,,,,,,,,,,,,,1275.6204,1288.0784,-0.283333333,-0.211111111,1.0,0.0,0.0,6.4422,compass,0.0,26.0,26.0,16.0,1.0,SoundStimuli/BohemianRhapsody_Queen_Original5S.wav,,,,,,,,,,,,,,,,,,,,,,,,,,,,,,,,,,,,,,,,,,,,,,,,,,,,
,,,,,216748,1,2024-07-12_18h19.15.979,experiment,2024.1.5,Win32,60.24096386,6691931c2c63981b064e1f0c,6691abc41aa2fa0d090c3e2c,,,,,,,,,,,,,,,,,,,,,,,,,,,,,,,,,,,,,,,,,,,,,,,,,,,,,,,,,,,,1288.0869,1300.7521,0.294444444,0.303333333,1.0,0.0,0.0,6.6636,compass,0.0,27.0,27.0,6.0,1.0,SoundStimuli/Levitating_DuaLipa_Cover5S.wav,,,,,,,,,,,,,,,,,,,,,,,,,,,,,,,,,,,,,,,,,,,,,,,,,,,,
,,,,,216748,1,2024-07-12_18h19.15.979,experiment,2024.1.5,Win32,60.24096386,6691931c2c63981b064e1f0c,6691abc41aa2fa0d090c3e2c,,,,,,,,,,,,,,,,,,,,,,,,,,,,,,,,,,,,,,,,,,,,,,,,,,,,,,,,,,,,1300.7687,1311.5186,0.208888889,-0.274444444,1.0,0.0,0.0,4.7448,compass,0.0,28.0,28.0,13.0,1.0,SoundStimuli/GodOnlyKnows_TheBeachBoys_Cover5S.wav,,,,,,,,,,,,,,,,,,,,,,,,,,,,,,,,,,,,,,,,,,,,,,,,,,,,
,,,,,216748,1,2024-07-12_18h19.15.979,experiment,2024.1.5,Win32,60.24096386,6691931c2c63981b064e1f0c,6691abc41aa2fa0d090c3e2c,,,,,,,,,,,,,,,,,,,,,,,,,,,,,,,,,,,,,,,,,,,,,,,,,,,,,,,,,,,,1311.534,1337.5375,,,,,,,,0.0,29.0,29.0,15.0,1.0,SoundStimuli/TikTok_Kesha_Cover5S.wav,,,,,,,,,,,,,,,,,,,,,,,,,,,,,,,,,,,,,,,,,,,,,,,,,,,,
,,,,,216748,1,2024-07-12_18h19.15.979,experiment,2024.1.5,Win32,60.24096386,6691931c2c63981b064e1f0c,6691abc41aa2fa0d090c3e2c,,,,,,,,,,,,,,,,,,,,,,,,,,,,,,,,,,,,,,,,,,,,,,,,,,,,,,,,,,,,1337.538,1345.7117,-0.27,-0.225555556,1.0,0.0,0.0,2.1641,compass,0.0,30.0,30.0,3.0,1.0,SoundStimuli/NoScrubs_TLC_Original5S.wav,,,,,,,,,,,,,,,,,,,,,,,,,,,,,,,,,,,,,,,,,,,,,,,,,,,,
,,,,,216748,1,2024-07-12_18h19.15.979,experiment,2024.1.5,Win32,60.24096386,6691931c2c63981b064e1f0c,6691abc41aa2fa0d090c3e2c,,,,,,,,,,,,,,,,,,,,,,,,,,,,,,,,,,,,,,,,,,,,,,,,,,,,,,,,,,,,1345.7276,1356.6326,0.266666667,0.235555556,1.0,0.0,0.0,4.8948,compass,0.0,31.0,31.0,24.0,1.0,SoundStimuli/UptownFunk_MarkRonson_Original5S.wav,,,,,,,,,,,,,,,,,,,,,,,,,,,,,,,,,,,,,,,,,,,,,,,,,,,,
,,,,,216748,1,2024-07-12_18h19.15.979,experiment,2024.1.5,Win32,60.24096386,6691931c2c63981b064e1f0c,6691abc41aa2fa0d090c3e2c,,,,,,,,,,,,,,,,,,,,,,,,,,,,,,,,,,,,,,,,,,,,,,,,,,,,,,,,,,,,1356.6489,1364.1736,0.266666667,0.297777778,1.0,0.0,0.0,1.5143,compass,0.0,32.0,32.0,27.0,1.0,SoundStimuli/ShapeofYou_EdSheeran_Original5S.wav,,,,,,,,,,,,,,,,,,,,,,,,,,,,,,,,,,,,,,,,,,,,,,,,,,,,
,,,,,216748,1,2024-07-12_18h19.15.979,experiment,2024.1.5,Win32,60.24096386,6691931c2c63981b064e1f0c,6691abc41aa2fa0d090c3e2c,,,,,,,,,,,,,,,,,,,,,,,,,,,,,,,,,,,,,,,,,,,,,,,,,,,,,,,,,,,,1364.1885,1371.0991,0.272222222,-0.135555556,1.0,0.0,0.0,0.8993,compass,0.0,33.0,33.0,20.0,1.0,SoundStimuli/HeyYa_Outkast_Cover5S.wav,,,,,,,,,,,,,,,,,,,,,,,,,,,,,,,,,,,,,,,,,,,,,,,,,,,,
,,,,,216748,1,2024-07-12_18h19.15.979,experiment,2024.1.5,Win32,60.24096386,6691931c2c63981b064e1f0c,6691abc41aa2fa0d090c3e2c,,,,,,,,,,,,,,,,,,,,,,,,,,,,,,,,,,,,,,,,,,,,,,,,,,,,,,,,,,,,1371.1083,1384.3336,0.241111111,-0.28,1.0,0.0,0.0,7.2251,compass,0.0,34.0,34.0,34.0,1.0,SoundStimuli/AChangeIsGonnaCome_SamCooke_Cover5S.wav,,,,,,,,,,,,,,,,,,,,,,,,,,,,,,,,,,,,,,,,,,,,,,,,,,,,
,,,,,216748,1,2024-07-12_18h19.15.979,experiment,2024.1.5,Win32,60.24096386,6691931c2c63981b064e1f0c,6691abc41aa2fa0d090c3e2c,,,,,,,,,,,,,,,,,,,,,,,,,,,,,,,,,,,,,,,,,,,,,,,,,,,,,,,,,,,,,,,,,,,,,,,,,,,1384.3337,1421.7902,space,37.4399,,1421.7903,1423.2222,right,1.4252,,0.0,2.0,2.0,2.0,1.0,block_order/blockA.xlsx,,,,,,,,,,,,,,,,,,,,,,,,,,,,,,,,,,,,
,,,,,216748,1,2024-07-12_18h19.15.979,experiment,2024.1.5,Win32,60.24096386,6691931c2c63981b064e1f0c,6691abc41aa2fa0d090c3e2c,,,,,,,,,,,,,,,,,,,,,,,,,,,,,,,,,,,,,,,,,,,,,,,,,,,,,,,,,,,,1423.24,1429.7148,-0.301111111,0.285555556,1.0,0.0,0.0,0.4664,compass,0.0,0.0,0.0,26.0,1.0,SoundStimuli/TheSign_AceOfBase_Cover5S.wav,,,,,,,,,,,,,,,,,,,,,,,,,,,,,,,,,,,,,,,,,,,,,,,,,,,,
,,,,,216748,1,2024-07-12_18h19.15.979,experiment,2024.1.5,Win32,60.24096386,6691931c2c63981b064e1f0c,6691abc41aa2fa0d090c3e2c,,,,,,,,,,,,,,,,,,,,,,,,,,,,,,,,,,,,,,,,,,,,,,,,,,,,,,,,,,,,1429.7257,1436.34,0.22,0.29,1.0,0.0,0.0,0.5989,compass,0.0,1.0,1.0,27.0,1.0,SoundStimuli/EyeOfTheTiger_Survivor_Cover5S.wav,,,,,,,,,,,,,,,,,,,,,,,,,,,,,,,,,,,,,,,,,,,,,,,,,,,,
,,,,,216748,1,2024-07-12_18h19.15.979,experiment,2024.1.5,Win32,60.24096386,6691931c2c63981b064e1f0c,6691abc41aa2fa0d090c3e2c,,,,,,,,,,,,,,,,,,,,,,,,,,,,,,,,,,,,,,,,,,,,,,,,,,,,,,,,,,,,1436.3488,1444.0983,-0.222222222,-0.22,1.0,0.0,0.0,1.7478,compass,0.0,2.0,2.0,5.0,1.0,SoundStimuli/JoyToTheWorld_ThreeDogNight_Original5S.wav,,,,,,,,,,,,,,,,,,,,,,,,,,,,,,,,,,,,,,,,,,,,,,,,,,,,
,,,,,216748,1,2024-07-12_18h19.15.979,experiment,2024.1.5,Win32,60.24096386,6691931c2c63981b064e1f0c,6691abc41aa2fa0d090c3e2c,,,,,,,,,,,,,,,,,,,,,,,,,,,,,,,,,,,,,,,,,,,,,,,,,,,,,,,,,,,,1444.1066,1462.3107,0.232222222,0.245555556,1.0,0.0,0.0,12.2025,compass,0.0,3.0,3.0,22.0,1.0,SoundStimuli/Happy_PharellWilliams_Original5S.wav,,,,,,,,,,,,,,,,,,,,,,,,,,,,,,,,,,,,,,,,,,,,,,,,,,,,
,,,,,216748,1,2024-07-12_18h19.15.979,experiment,2024.1.5,Win32,60.24096386,6691931c2c63981b064e1f0c,6691abc41aa2fa0d090c3e2c,,,,,,,,,,,,,,,,,,,,,,,,,,,,,,,,,,,,,,,,,,,,,,,,,,,,,,,,,,,,1462.3216,1476.9766,0.162222222,0.196666667,1.0,0.0,0.0,8.6402,compass,0.0,4.0,4.0,20.0,1.0,SoundStimuli/FlashdanceWhatAFeeling_IreneCara_Original5S.wav,,,,,,,,,,,,,,,,,,,,,,,,,,,,,,,,,,,,,,,,,,,,,,,,,,,,
,,,,,216748,1,2024-07-12_18h19.15.979,experiment,2024.1.5,Win32,60.24096386,6691931c2c63981b064e1f0c,6691abc41aa2fa0d090c3e2c,,,,,,,,,,,,,,,,,,,,,,,,,,,,,,,,,,,,,,,,,,,,,,,,,,,,,,,,,,,,1476.9852,1495.2726,-0.19,-0.202222222,1.0,0.0,0.0,12.2853,compass,0.0,5.0,5.0,34.0,1.0,SoundStimuli/Irreplaceable_Beyonce_Cover5S.wav,,,,,,,,,,,,,,,,,,,,,,,,,,,,,,,,,,,,,,,,,,,,,,,,,,,,
,,,,,216748,1,2024-07-12_18h19.15.979,experiment,2024.1.5,Win32,60.24096386,6691931c2c63981b064e1f0c,6691abc41aa2fa0d090c3e2c,,,,,,,,,,,,,,,,,,,,,,,,,,,,,,,,,,,,,,,,,,,,,,,,,,,,,,,,,,,,1495.2841,1501.3816,-0.185555556,-0.167777778,1.0,0.0,0.0,0.0831,compass,0.0,6.0,6.0,14.0,1.0,SoundStimuli/LikeARollingStone_BobDylan_Original5S.wav,,,,,,,,,,,,,,,,,,,,,,,,,,,,,,,,,,,,,,,,,,,,,,,,,,,,
,,,,,216748,1,2024-07-12_18h19.15.979,experiment,2024.1.5,Win32,60.24096386,6691931c2c63981b064e1f0c,6691abc41aa2fa0d090c3e2c,,,,,,,,,,,,,,,,,,,,,,,,,,,,,,,,,,,,,,,,,,,,,,,,,,,,,,,,,,,,1501.3904,1526.3533,-0.185555556,-0.167777778,1.0,0.0,0.0,18.9617,compass,0.0,7.0,7.0,7.0,1.0,SoundStimuli/MackTheKnife_BobbyDarin_Cover5S.wav,,,,,,,,,,,,,,,,,,,,,,,,,,,,,,,,,,,,,,,,,,,,,,,,,,,,
,,,,,216748,1,2024-07-12_18h19.15.979,experiment,2024.1.5,Win32,60.24096386,6691931c2c63981b064e1f0c,6691abc41aa2fa0d090c3e2c,,,,,,,,,,,,,,,,,,,,,,,,,,,,,,,,,,,,,,,,,,,,,,,,,,,,,,,,,,,,1526.3699,1532.8288,0.216666667,-0.242222222,1.0,0.0,0.0,0.4493,compass,0.0,8.0,8.0,23.0,1.0,SoundStimuli/IWalkTheLine_JohnnyCash_Original5S.wav,,,,,,,,,,,,,,,,,,,,,,,,,,,,,,,,,,,,,,,,,,,,,,,,,,,,
,,,,,216748,1,2024-07-12_18h19.15.979,experiment,2024.1.5,Win32,60.24096386,6691931c2c63981b064e1f0c,6691abc41aa2fa0d090c3e2c,,,,,,,,,,,,,,,,,,,,,,,,,,,,,,,,,,,,,,,,,,,,,,,,,,,,,,,,,,,,1532.8371,1539.2715,0.222222222,0.265555556,1.0,0.0,0.0,0.4325,compass,0.0,9.0,9.0,17.0,1.0,SoundStimuli/IWannaDanceWithSomebody_WhitneyHouston_Original5S.wav,,,,,,,,,,,,,,,,,,,,,,,,,,,,,,,,,,,,,,,,,,,,,,,,,,,,
,,,,,216748,1,2024-07-12_18h19.15.979,experiment,2024.1.5,Win32,60.24096386,6691931c2c63981b064e1f0c,6691abc41aa2fa0d090c3e2c,,,,,,,,,,,,,,,,,,,,,,,,,,,,,,,,,,,,,,,,,,,,,,,,,,,,,,,,,,,,1539.2857,1545.9308,-0.23,-0.22,1.0,0.0,0.0,0.6326,compass,0.0,10.0,10.0,4.0,1.0,SoundStimuli/Dreams_FleetwoodMac_Original5S.wav,,,,,,,,,,,,,,,,,,,,,,,,,,,,,,,,,,,,,,,,,,,,,,,,,,,,
,,,,,216748,1,2024-07-12_18h19.15.979,experiment,2024.1.5,Win32,60.24096386,6691931c2c63981b064e1f0c,6691abc41aa2fa0d090c3e2c,,,,,,,,,,,,,,,,,,,,,,,,,,,,,,,,,,,,,,,,,,,,,,,,,,,,,,,,,,,,1545.9469,1558.2664,0.172222222,-0.22,1.0,0.0,0.0,6.3099,compass,0.0,11.0,11.0,28.0,1.0,SoundStimuli/IWantToHoldYourHand_TheBeatles_Original5S.wav,,,,,,,,,,,,,,,,,,,,,,,,,,,,,,,,,,,,,,,,,,,,,,,,,,,,
,,,,,216748,1,2024-07-12_18h19.15.979,experiment,2024.1.5,Win32,60.24096386,6691931c2c63981b064e1f0c,6691abc41aa2fa0d090c3e2c,,,,,,,,,,,,,,,,,,,,,,,,,,,,,,,,,,,,,,,,,,,,,,,,,,,,,,,,,,,,1558.2772,1567.1729,0.228888889,-0.214444444,1.0,0.0,0.0,2.8804,compass,0.0,12.0,12.0,19.0,1.0,SoundStimuli/YouLightUpMyLife_DebbyBoone_Original5S.wav,,,,,,,,,,,,,,,,,,,,,,,,,,,,,,,,,,,,,,,,,,,,,,,,,,,,
,,,,,216748,1,2024-07-12_18h19.15.979,experiment,2024.1.5,Win32,60.24096386,6691931c2c63981b064e1f0c,6691abc41aa2fa0d090c3e2c,,,,,,,,,,,,,,,,,,,,,,,,,,,,,,,,,,,,,,,,,,,,,,,,,,,,,,,,,,,,1567.1845,1573.3984,0.235555556,-0.248888889,1.0,0.0,0.0,0.1997,compass,0.0,13.0,13.0,9.0,1.0,SoundStimuli/HowDoILive_LeAnnRimes_Cover5S.wav,,,,,,,,,,,,,,,,,,,,,,,,,,,,,,,,,,,,,,,,,,,,,,,,,,,,
,,,,,216748,1,2024-07-12_18h19.15.979,experiment,2024.1.5,Win32,60.24096386,6691931c2c63981b064e1f0c,6691abc41aa2fa0d090c3e2c,,,,,,,,,,,,,,,,,,,,,,,,,,,,,,,,,,,,,,,,,,,,,,,,,,,,,,,,,,,,1573.4062,1580.3071,-0.103333333,-0.156666667,1.0,0.0,0.0,0.8984,compass,0.0,14.0,14.0,30.0,1.0,SoundStimuli/SomebodyThatIUsedtoKnow_Gotye_Original5S.wav,,,,,,,,,,,,,,,,,,,,,,,,,,,,,,,,,,,,,,,,,,,,,,,,,,,,
,,,,,216748,1,2024-07-12_18h19.15.979,experiment,2024.1.5,Win32,60.24096386,6691931c2c63981b064e1f0c,6691abc41aa2fa0d090c3e2c,,,,,,,,,,,,,,,,,,,,,,,,,,,,,,,,,,,,,,,,,,,,,,,,,,,,,,,,,,,,1580.3165,1589.68,-0.105555556,-0.158888889,1.0,0.0,0.0,3.3624,compass,0.0,15.0,15.0,18.0,1.0,SoundStimuli/Weak_SWV_Cover5S.wav,,,,,,,,,,,,,,,,,,,,,,,,,,,,,,,,,,,,,,,,,,,,,,,,,,,,
,,,,,216748,1,2024-07-12_18h19.15.979,experiment,2024.1.5,Win32,60.24096386,6691931c2c63981b064e1f0c,6691abc41aa2fa0d090c3e2c,,,,,,,,,,,,,,,,,,,,,,,,,,,,,,,,,,,,,,,,,,,,,,,,,,,,,,,,,,,,1589.6878,1596.4726,0.208888889,-0.151111111,1.0,0.0,0.0,0.783,compass,0.0,16.0,16.0,15.0,1.0,SoundStimuli/CrazyInLove_BeyonceFtJayZ_Cover5S.wav,,,,,,,,,,,,,,,,,,,,,,,,,,,,,,,,,,,,,,,,,,,,,,,,,,,,
,,,,,216748,1,2024-07-12_18h19.15.979,experiment,2024.1.5,Win32,60.24096386,6691931c2c63981b064e1f0c,6691abc41aa2fa0d090c3e2c,,,,,,,,,,,,,,,,,,,,,,,,,,,,,,,,,,,,,,,,,,,,,,,,,,,,,,,,,,,,1596.482,1602.8145,0.222222222,0.266666667,1.0,0.0,0.0,0.3161,compass,0.0,17.0,17.0,32.0,1.0,SoundStimuli/Dilemma_NellyKellyRowland_Cover5S.wav,,,,,,,,,,,,,,,,,,,,,,,,,,,,,,,,,,,,,,,,,,,,,,,,,,,,
,,,,,216748,1,2024-07-12_18h19.15.979,experiment,2024.1.5,Win32,60.24096386,6691931c2c63981b064e1f0c,6691abc41aa2fa0d090c3e2c,,,,,,,,,,,,,,,,,,,,,,,,,,,,,,,,,,,,,,,,,,,,,,,,,,,,,,,,,,,,1602.8228,1609.2408,0.222222222,0.22,1.0,0.0,0.0,0.4161,compass,0.0,18.0,18.0,31.0,1.0,SoundStimuli/TossinAndTurnin_BobbyLewis_Original5S.wav,,,,,,,,,,,,,,,,,,,,,,,,,,,,,,,,,,,,,,,,,,,,,,,,,,,,
,,,,,216748,1,2024-07-12_18h19.15.979,experiment,2024.1.5,Win32,60.24096386,6691931c2c63981b064e1f0c,6691abc41aa2fa0d090c3e2c,,,,,,,,,,,,,,,,,,,,,,,,,,,,,,,,,,,,,,,,,,,,,,,,,,,,,,,,,,,,1609.2519,1617.498,0.161111111,-0.198888889,1.0,0.0,0.0,2.2311,compass,0.0,19.0,19.0,11.0,1.0,SoundStimuli/BlurredLines_RobinThicke_Cover5S.wav,,,,,,,,,,,,,,,,,,,,,,,,,,,,,,,,,,,,,,,,,,,,,,,,,,,,
,,,,,216748,1,2024-07-12_18h19.15.979,experiment,2024.1.5,Win32,60.24096386,6691931c2c63981b064e1f0c,6691abc41aa2fa0d090c3e2c,,,,,,,,,,,,,,,,,,,,,,,,,,,,,,,,,,,,,,,,,,,,,,,,,,,,,,,,,,,,1617.5092,1624.8395,0.235555556,-0.171111111,1.0,0.0,0.0,1.3152,compass,0.0,20.0,20.0,6.0,1.0,SoundStimuli/SaveYourTears_TheWeekndArianaGrande_Cover5S.wav,,,,,,,,,,,,,,,,,,,,,,,,,,,,,,,,,,,,,,,,,,,,,,,,,,,,
,,,,,216748,1,2024-07-12_18h19.15.979,experiment,2024.1.5,Win32,60.24096386,6691931c2c63981b064e1f0c,6691abc41aa2fa0d090c3e2c,,,,,,,,,,,,,,,,,,,,,,,,,,,,,,,,,,,,,,,,,,,,,,,,,,,,,,,,,,,,1624.851,1633.9289,-0.177777778,0.083333333,1.0,0.0,0.0,3.0634,compass,0.0,21.0,21.0,2.0,1.0,SoundStimuli/SmellsLikeTeenSpirit_Nirvana_Original5S.wav,,,,,,,,,,,,,,,,,,,,,,,,,,,,,,,,,,,,,,,,,,,,,,,,,,,,
,,,,,216748,1,2024-07-12_18h19.15.979,experiment,2024.1.5,Win32,60.24096386,6691931c2c63981b064e1f0c,6691abc41aa2fa0d090c3e2c,,,,,,,,,,,,,,,,,,,,,,,,,,,,,,,,,,,,,,,,,,,,,,,,,,,,,,,,,,,,1633.9402,1648.0455,-0.146666667,-0.107777778,1.0,0.0,0.0,8.09,compass,0.0,22.0,22.0,33.0,1.0,SoundStimuli/TheBoyIsMine_BrandyMonica_Original5S.wav,,,,,,,,,,,,,,,,,,,,,,,,,,,,,,,,,,,,,,,,,,,,,,,,,,,,
,,,,,216748,1,2024-07-12_18h19.15.979,experiment,2024.1.5,Win32,60.24096386,6691931c2c63981b064e1f0c,6691abc41aa2fa0d090c3e2c,,,,,,,,,,,,,,,,,,,,,,,,,,,,,,,,,,,,,,,,,,,,,,,,,,,,,,,,,,,,1648.0546,1655.2373,0.223333333,0.204444444,1.0,0.0,0.0,1.1819,compass,0.0,23.0,23.0,1.0,1.0,SoundStimuli/Smooth_SantanaRobThomas_Original5S.wav,,,,,,,,,,,,,,,,,,,,,,,,,,,,,,,,,,,,,,,,,,,,,,,,,,,,
,,,,,216748,1,2024-07-12_18h19.15.979,experiment,2024.1.5,Win32,60.24096386,6691931c2c63981b064e1f0c,6691abc41aa2fa0d090c3e2c,,,,,,,,,,,,,,,,,,,,,,,,,,,,,,,,,,,,,,,,,,,,,,,,,,,,,,,,,,,,1655.2528,1663.0785,0.101111111,-0.183333333,1.0,0.0,0.0,1.8146,compass,0.0,24.0,24.0,24.0,1.0,SoundStimuli/Kiss_Prince_Cover5S.wav,,,,,,,,,,,,,,,,,,,,,,,,,,,,,,,,,,,,,,,,,,,,,,,,,,,,
,,,,,216748,1,2024-07-12_18h19.15.979,experiment,2024.1.5,Win32,60.24096386,6691931c2c63981b064e1f0c,6691abc41aa2fa0d090c3e2c,,,,,,,,,,,,,,,,,,,,,,,,,,,,,,,,,,,,,,,,,,,,,,,,,,,,,,,,,,,,1663.0885,1670.3373,0.262222222,0.205555556,1.0,0.0,0.0,1.2321,compass,0.0,25.0,25.0,10.0,1.0,SoundStimuli/LeFreak_Chic_Cover5S.wav,,,,,,,,,,,,,,,,,,,,,,,,,,,,,,,,,,,,,,,,,,,,,,,,,,,,
,,,,,216748,1,2024-07-12_18h19.15.979,experiment,2024.1.5,Win32,60.24096386,6691931c2c63981b064e1f0c,6691abc41aa2fa0d090c3e2c,,,,,,,,,,,,,,,,,,,,,,,,,,,,,,,,,,,,,,,,,,,,,,,,,,,,,,,,,,,,1670.354,1680.8927,0.225555556,0.248888889,1.0,0.0,0.0,4.5293,compass,0.0,26.0,26.0,29.0,1.0,SoundStimuli/BetteDavisEyes_KimCarnes_Original5S.wav,,,,,,,,,,,,,,,,,,,,,,,,,,,,,,,,,,,,,,,,,,,,,,,,,,,,
,,,,,216748,1,2024-07-12_18h19.15.979,experiment,2024.1.5,Win32,60.24096386,6691931c2c63981b064e1f0c,6691abc41aa2fa0d090c3e2c,,,,,,,,,,,,,,,,,,,,,,,,,,,,,,,,,,,,,,,,,,,,,,,,,,,,,,,,,,,,1680.8931,1689.5147,0.186666667,-0.168888889,1.0,0.0,0.0,2.6138,compass,0.0,27.0,27.0,16.0,1.0,SoundStimuli/ItsAllInTheGame_TommyEdwards_Cover5S.wav,,,,,,,,,,,,,,,,,,,,,,,,,,,,,,,,,,,,,,,,,,,,,,,,,,,,
,,,,,216748,1,2024-07-12_18h19.15.979,experiment,2024.1.5,Win32,60.24096386,6691931c2c63981b064e1f0c,6691abc41aa2fa0d090c3e2c,,,,,,,,,,,,,,,,,,,,,,,,,,,,,,,,,,,,,,,,,,,,,,,,,,,,,,,,,,,,1689.5254,1697.1222,0.271111111,-0.264444444,1.0,0.0,0.0,1.5812,compass,0.0,28.0,28.0,13.0,1.0,SoundStimuli/Perfect_EdSheeran_Cover5S.wav,,,,,,,,,,,,,,,,,,,,,,,,,,,,,,,,,,,,,,,,,,,,,,,,,,,,
,,,,,216748,1,2024-07-12_18h19.15.979,experiment,2024.1.5,Win32,60.24096386,6691931c2c63981b064e1f0c,6691abc41aa2fa0d090c3e2c,,,,,,,,,,,,,,,,,,,,,,,,,,,,,,,,,,,,,,,,,,,,,,,,,,,,,,,,,,,,1697.1322,1708.343,0.18,-0.27,1.0,0.0,0.0,5.1939,compass,0.0,29.0,29.0,12.0,1.0,SoundStimuli/UnbreakMyHeart_ToniBraxton_Original5S.wav,,,,,,,,,,,,,,,,,,,,,,,,,,,,,,,,,,,,,,,,,,,,,,,,,,,,
,,,,,216748,1,2024-07-12_18h19.15.979,experiment,2024.1.5,Win32,60.24096386,6691931c2c63981b064e1f0c,6691abc41aa2fa0d090c3e2c,,,,,,,,,,,,,,,,,,,,,,,,,,,,,,,,,,,,,,,,,,,,,,,,,,,,,,,,,,,,1708.3524,1716.5336,0.262222222,0.263333333,1.0,0.0,0.0,2.1809,compass,0.0,30.0,30.0,3.0,1.0,SoundStimuli/PartyRockAnthem_LMFAO_Original5S.wav,,,,,,,,,,,,,,,,,,,,,,,,,,,,,,,,,,,,,,,,,,,,,,,,,,,,
,,,,,216748,1,2024-07-12_18h19.15.979,experiment,2024.1.5,Win32,60.24096386,6691931c2c63981b064e1f0c,6691abc41aa2fa0d090c3e2c,,,,,,,,,,,,,,,,,,,,,,,,,,,,,,,,,,,,,,,,,,,,,,,,,,,,,,,,,,,,1716.5512,1725.5395,0.255555556,-0.148888889,1.0,0.0,0.0,2.9799,compass,0.0,31.0,31.0,0.0,1.0,SoundStimuli/GimmeShelter_RollingStones_Original5S.wav,,,,,,,,,,,,,,,,,,,,,,,,,,,,,,,,,,,,,,,,,,,,,,,,,,,,
,,,,,216748,1,2024-07-12_18h19.15.979,experiment,2024.1.5,Win32,60.24096386,6691931c2c63981b064e1f0c,6691abc41aa2fa0d090c3e2c,,,,,,,,,,,,,,,,,,,,,,,,,,,,,,,,,,,,,,,,,,,,,,,,,,,,,,,,,,,,1725.5549,1733.3641,0.216666667,-0.206666667,1.0,0.0,0.0,1.7977,compass,0.0,32.0,32.0,25.0,1.0,SoundStimuli/IllMakeLoveToYou_BoyzIIMen_Cover5S.wav,,,,,,,,,,,,,,,,,,,,,,,,,,,,,,,,,,,,,,,,,,,,,,,,,,,,
,,,,,216748,1,2024-07-12_18h19.15.979,experiment,2024.1.5,Win32,60.24096386,6691931c2c63981b064e1f0c,6691abc41aa2fa0d090c3e2c,,,,,,,,,,,,,,,,,,,,,,,,,,,,,,,,,,,,,,,,,,,,,,,,,,,,,,,,,,,,1733.3734,1743.1193,-0.132222222,-0.185555556,1.0,0.0,0.0,3.7454,compass,0.0,33.0,33.0,21.0,1.0,SoundStimuli/BridgeOverTroubledWater_SimonAndGarfunkel_Original5S.wav,,,,,,,,,,,,,,,,,,,,,,,,,,,,,,,,,,,,,,,,,,,,,,,,,,,,
,,,,,216748,1,2024-07-12_18h19.15.979,experiment,2024.1.5,Win32,60.24096386,6691931c2c63981b064e1f0c,6691abc41aa2fa0d090c3e2c,,,,,,,,,,,,,,,,,,,,,,,,,,,,,,,,,,,,,,,,,,,,,,,,,,,,,,,,,,,,1743.1292,1750.7437,0.217777778,-0.19,1.0,0.0,0.0,1.6142,compass,0.0,34.0,34.0,8.0,1.0,SoundStimuli/EndlessLove_DianaRossLionelRichie_Cover5S.wav,,,,,,,,,,,,,,,,,,,,,,,,,,,,,,,,,,,,,,,,,,,,,,,,,,,,
,,,,,216748,1,2024-07-12_18h19.15.979,experiment,2024.1.5,Win32,60.24096386,6691931c2c63981b064e1f0c,6691abc41aa2fa0d090c3e2c,,,,,,,,,,,,,,,,,,,,,,,,,,,,,,,,,,,,,,,,,,,,,,,,,,,,,,,,,,,,,,,,,,,,,,,,,,,1750.7439,1750.744,,,,1750.744,1750.7441,,,,0.0,3.0,3.0,3.0,1.0,block_order/blockD.xlsx,,,,,,,,,,,,,,,,,,,,,,,,,,,,,,,,,,,,
,,,,,216748,1,2024-07-12_18h19.15.979,experiment,2024.1.5,Win32,60.24096386,6691931c2c63981b064e1f0c,6691abc41aa2fa0d090c3e2c,,,,,,,,,,,,,,,,,,,,,,,,,,,,,,,,,,,,,,,,,,,,,,,,,,,,,,,,,,,,,,,,,,,,,,,,,,,,,,,,,,,,,,,,,,,43.0,Item 2,not a musician,Item 6,spotify,3.0,7.0,"driving, working, cleaning mostly",Sometimes,Often,Sometimes,Often,Never,Often,Often,Often,Sometimes,Never,Rarely,Often,Rarely,Often,Often,Never,None i can think of off the top of my head,alternative,country,indie,they haven't really,0.0,0.0,0.0,0.0,1.0,,
,,,,,216748,1,2024-07-12_18h19.15.979,experiment,2024.1.5,Win32,60.24096386,6691931c2c63981b064e1f0c,6691abc41aa2fa0d090c3e2c,,,,,,,,,,,,,,,,,,,,,,,,,,,,,,,,,,,,,,,,,,,,,,,,,,,,,,,,,,,,,,,,,,,,,,,,,,,,,,,,,,,,,,,,,,,,,,,,,,,,,,,,,,,,,,,,,,,,,,,,,,,,,1877.4008,1879.8454
