welcome.started,welcome.stopped,space_to_continue.keys,space_to_continue.rt,space_to_continue.duration,participant,session,date,expName,psychopyVersion,OS,frameRate,STUDY_ID,SESSION_ID,consent.consent,consent.consent_recontact,consent_check.started,consent_check.stopped,calibration_ready.started,calibration_ready.stopped,cal_ready.keys,cal_ready.rt,cal_ready.duration,calibration.started,calibration.stopped,mouse.x,mouse.y,mouse.leftButton,mouse.midButton,mouse.rightButton,mouse.time,mouse.clicked_name,move_on.keys,move_on.rt,move_on.duration,run_cal.thisRepN,run_cal.thisTrialN,run_cal.thisN,run_cal.thisIndex,run_cal.ran,emotion_training_ready.started,emotion_training_ready.stopped,training_move_on.keys,training_move_on.rt,training_move_on.duration,examples.started,examples.stopped,emotion_scale.started,emotion_scale.stopped,scale_next.keys,scale_next.rt,scale_next.duration,instructions.started,instructions.stopped,next.keys,next.rt,next.duration,practice_task.started,practice_task.stopped,mouse_rating_2.x,mouse_rating_2.y,mouse_rating_2.leftButton,mouse_rating_2.midButton,mouse_rating_2.rightButton,mouse_rating_2.time,mouse_rating_2.clicked_name,ready.started,ready.stopped,key_resp.keys,key_resp.rt,key_resp.duration,set_group.started,set_group.stopped,task.started,task.stopped,mouse_rating.x,mouse_rating.y,mouse_rating.leftButton,mouse_rating.midButton,mouse_rating.rightButton,mouse_rating.time,mouse_rating.clicked_name,trials.thisRepN,trials.thisTrialN,trials.thisN,trials.thisIndex,trials.ran,clip,short_break.started,short_break.stopped,space_to_move_on.keys,space_to_move_on.rt,space_to_move_on.duration,instruction_reminder.started,instruction_reminder.stopped,reminder_move_on.keys,reminder_move_on.rt,reminder_move_on.duration,blocks.thisRepN,blocks.thisTrialN,blocks.thisN,blocks.thisIndex,blocks.ran,block,post_survey.age,post_survey.musician,post_survey.music_making,post_survey.listen_time,post_survey.medium,post_survey.music_seeking,post_survey.music_choice,post_survey.activities,post_survey.question1.Reggae,post_survey.question1.Alternative rock,post_survey.question1.Ambient,post_survey.question1.Jazz,post_survey.question1.Folk/indie,post_survey.question1.Electronic (EDM),post_survey.question1.Country,post_survey.question1.Metal,post_survey.question1.Hip hop,post_survey.question1.Classical,post_survey.question1.Latin,post_survey.question1.Classic rock,post_survey.question1.R&B,post_survey.question1.Pop,post_survey.question1.Disco,post_survey.question1.A cappella,post_survey.other_genres,post_survey.genres_ranked.text1,post_survey.genres_ranked.text2,post_survey.genres_ranked.text3,post_survey.habit_change,post_survey.habits,show_exp.thisRepN,show_exp.thisTrialN,show_exp.thisN,show_exp.thisIndex,show_exp.ran,goodbye.started,goodbye.stopped
9.99999e-05,2.3187,space,2.3092,,259755,1,2024-07-12_15h40.39.205,experiment,2024.1.5,Win32,120.4819277,6691931c2c63981b064e1f0c,6691b0ba12e7047883534720,,,,,,,,,,,,,,,,,,,,,,,,,,,,,,,,,,,,,,,,,,,,,,,,,,,,,,,,,,,,,,,,,,,,,,,,,,,,,,,,,,,,,,,,,,,,,,,,,,,,,,,,,,,,,,,,,,,,,,,,,,,,,,,
,,,,,259755,1,2024-07-12_15h40.39.205,experiment,2024.1.5,Win32,120.4819277,6691931c2c63981b064e1f0c,6691b0ba12e7047883534720,yes,yes,,,,,,,,,,,,,,,,,,,,,,,,,,,,,,,,,,,,,,,,,,,,,,,,,,,,,,,,,,,,,,,,,,,,,,,,,,,,,,,,,,,,,,,,,,,,,,,,,,,,,,,,,,,,,,,,,,,,,,,,,,,,,
,,,,,259755,1,2024-07-12_15h40.39.205,experiment,2024.1.5,Win32,120.4819277,6691931c2c63981b064e1f0c,6691b0ba12e7047883534720,,,18.7165,18.7166,,,,,,,,,,,,,,,,,,,,,,,,,,,,,,,,,,,,,,,,,,,,,,,,,,,,,,,,,,,,,,,,,,,,,,,,,,,,,,,,,,,,,,,,,,,,,,,,,,,,,,,,,,,,,,,,,,,,,,,,,,,
,,,,,259755,1,2024-07-12_15h40.39.205,experiment,2024.1.5,Win32,120.4819277,6691931c2c63981b064e1f0c,6691b0ba12e7047883534720,,,,,18.7175,50.5601,space,31.8312,,50.5607,67.3515,[],[],[],[],[],[],[],n,15.7767,,0.0,0.0,0.0,0.0,1.0,,,,,,,,,,,,,,,,,,,,,,,,,,,,,,,,,,,,,,,,,,,,,,,,,,,,,,,,,,,,,,,,,,,,,,,,,,,,,,,,,,,,,,,,,,,,,,,,,,,,,
,,,,,259755,1,2024-07-12_15h40.39.205,experiment,2024.1.5,Win32,120.4819277,6691931c2c63981b064e1f0c,6691b0ba12e7047883534720,,,,,,,,,,67.3564,70.3096,[],[],[],[],[],[],[],n,1.9458,,1.0,0.0,1.0,0.0,1.0,,,,,,,,,,,,,,,,,,,,,,,,,,,,,,,,,,,,,,,,,,,,,,,,,,,,,,,,,,,,,,,,,,,,,,,,,,,,,,,,,,,,,,,,,,,,,,,,,,,,,
,,,,,259755,1,2024-07-12_15h40.39.205,experiment,2024.1.5,Win32,120.4819277,6691931c2c63981b064e1f0c,6691b0ba12e7047883534720,,,,,,,,,,70.3097,83.1676,[-0.01574074074074074],[-0.42314814814814816],[1],[0],[0],[4.908500000000004],"[""play_button""]",n,11.8449,,2.0,0.0,2.0,0.0,1.0,,,,,,,,,,,,,,,,,,,,,,,,,,,,,,,,,,,,,,,,,,,,,,,,,,,,,,,,,,,,,,,,,,,,,,,,,,,,,,,,,,,,,,,,,,,,,,,,,,,,,
,,,,,259755,1,2024-07-12_15h40.39.205,experiment,2024.1.5,Win32,120.4819277,6691931c2c63981b064e1f0c,6691b0ba12e7047883534720,,,,,,,,,,83.1721,101.8009,[0.19907407407407407],[-0.3476851851851852],[1],[0],[0],[16.283099999904636],[],n,17.6185,,3.0,0.0,3.0,0.0,1.0,,,,,,,,,,,,,,,,,,,,,,,,,,,,,,,,,,,,,,,,,,,,,,,,,,,,,,,,,,,,,,,,,,,,,,,,,,,,,,,,,,,,,,,,,,,,,,,,,,,,,
,,,,,259755,1,2024-07-12_15h40.39.205,experiment,2024.1.5,Win32,120.4819277,6691931c2c63981b064e1f0c,6691b0ba12e7047883534720,,,,,,,,,,101.8055,107.8878,[-0.01712962962962963],[-0.40324074074074073],[1],[0],[0],[3.4331999998092613],[],n,5.0681,,4.0,0.0,4.0,0.0,1.0,,,,,,,,,,,,,,,,,,,,,,,,,,,,,,,,,,,,,,,,,,,,,,,,,,,,,,,,,,,,,,,,,,,,,,,,,,,,,,,,,,,,,,,,,,,,,,,,,,,,,
,,,,,259755,1,2024-07-12_15h40.39.205,experiment,2024.1.5,Win32,120.4819277,6691931c2c63981b064e1f0c,6691b0ba12e7047883534720,,,,,,,,,,,,,,,,,,,,,,,,,,,107.8925,231.6873,space,123.7814,,231.6873,351.6902,351.6903,367.3525,right,12.1415,,367.3525,385.6898,space,18.3091,,385.6899,392.5144,0.179166667,-0.137962963,1.0,0.0,0.0,0.8164,compass_2,392.5145,396.7979,space,4.2768,,396.7979,396.8024,396.8166,405.9478,0.091203704,-0.248611111,1.0,0.0,0.0,3.1212,compass,0.0,0.0,0.0,24.0,1.0,SoundStimuli/Kiss_Prince_Cover5S.wav,,,,,,,,,,,,,,,,,,,,,,,,,,,,,,,,,,,,,,,,,,,,,,,,,,,,,
,,,,,259755,1,2024-07-12_15h40.39.205,experiment,2024.1.5,Win32,120.4819277,6691931c2c63981b064e1f0c,6691b0ba12e7047883534720,,,,,,,,,,,,,,,,,,,,,,,,,,,,,,,,,,,,,,,,,,,,,,,,,,,,,,,,,,,,405.9523,413.5642,-0.124074074,-0.120833333,1.0,0.0,0.0,1.6045,compass,0.0,1.0,1.0,12.0,1.0,SoundStimuli/UnbreakMyHeart_ToniBraxton_Original5S.wav,,,,,,,,,,,,,,,,,,,,,,,,,,,,,,,,,,,,,,,,,,,,,,,,,,,,,
,,,,,259755,1,2024-07-12_15h40.39.205,experiment,2024.1.5,Win32,120.4819277,6691931c2c63981b064e1f0c,6691b0ba12e7047883534720,,,,,,,,,,,,,,,,,,,,,,,,,,,,,,,,,,,,,,,,,,,,,,,,,,,,,,,,,,,,413.5688,420.1263,0.191666667,0.225925926,1.0,0.0,0.0,0.5502,compass,0.0,2.0,2.0,1.0,1.0,SoundStimuli/Smooth_SantanaRobThomas_Original5S.wav,,,,,,,,,,,,,,,,,,,,,,,,,,,,,,,,,,,,,,,,,,,,,,,,,,,,,
,,,,,259755,1,2024-07-12_15h40.39.205,experiment,2024.1.5,Win32,120.4819277,6691931c2c63981b064e1f0c,6691b0ba12e7047883534720,,,,,,,,,,,,,,,,,,,,,,,,,,,,,,,,,,,,,,,,,,,,,,,,,,,,,,,,,,,,420.1308,430.208,0.056944444,-0.301388889,1.0,0.0,0.0,4.0652,compass,0.0,3.0,3.0,25.0,1.0,SoundStimuli/IllMakeLoveToYou_BoyzIIMen_Cover5S.wav,,,,,,,,,,,,,,,,,,,,,,,,,,,,,,,,,,,,,,,,,,,,,,,,,,,,,
,,,,,259755,1,2024-07-12_15h40.39.205,experiment,2024.1.5,Win32,120.4819277,6691931c2c63981b064e1f0c,6691b0ba12e7047883534720,,,,,,,,,,,,,,,,,,,,,,,,,,,,,,,,,,,,,,,,,,,,,,,,,,,,,,,,,,,,430.2127,436.6594,0.272685185,0.312037037,1.0,0.0,0.0,0.4455,compass,0.0,4.0,4.0,3.0,1.0,SoundStimuli/PartyRockAnthem_LMFAO_Original5S.wav,,,,,,,,,,,,,,,,,,,,,,,,,,,,,,,,,,,,,,,,,,,,,,,,,,,,,
,,,,,259755,1,2024-07-12_15h40.39.205,experiment,2024.1.5,Win32,120.4819277,6691931c2c63981b064e1f0c,6691b0ba12e7047883534720,,,,,,,,,,,,,,,,,,,,,,,,,,,,,,,,,,,,,,,,,,,,,,,,,,,,,,,,,,,,436.6638,446.4259,0.095833333,0.0875,1.0,0.0,0.0,3.7582,compass,0.0,5.0,5.0,10.0,1.0,SoundStimuli/LeFreak_Chic_Cover5S.wav,,,,,,,,,,,,,,,,,,,,,,,,,,,,,,,,,,,,,,,,,,,,,,,,,,,,,
,,,,,259755,1,2024-07-12_15h40.39.205,experiment,2024.1.5,Win32,120.4819277,6691931c2c63981b064e1f0c,6691b0ba12e7047883534720,,,,,,,,,,,,,,,,,,,,,,,,,,,,,,,,,,,,,,,,,,,,,,,,,,,,,,,,,,,,446.4305,453.9842,-0.225462963,-0.22962963,1.0,0.0,0.0,1.5453,compass,0.0,6.0,6.0,8.0,1.0,SoundStimuli/EndlessLove_DianaRossLionelRichie_Cover5S.wav,,,,,,,,,,,,,,,,,,,,,,,,,,,,,,,,,,,,,,,,,,,,,,,,,,,,,
,,,,,259755,1,2024-07-12_15h40.39.205,experiment,2024.1.5,Win32,120.4819277,6691931c2c63981b064e1f0c,6691b0ba12e7047883534720,,,,,,,,,,,,,,,,,,,,,,,,,,,,,,,,,,,,,,,,,,,,,,,,,,,,,,,,,,,,453.9888,463.9886,-0.028703704,0.033333333,1.0,0.0,0.0,3.9916,compass,0.0,7.0,7.0,0.0,1.0,SoundStimuli/GimmeShelter_RollingStones_Original5S.wav,,,,,,,,,,,,,,,,,,,,,,,,,,,,,,,,,,,,,,,,,,,,,,,,,,,,,
,,,,,259755,1,2024-07-12_15h40.39.205,experiment,2024.1.5,Win32,120.4819277,6691931c2c63981b064e1f0c,6691b0ba12e7047883534720,,,,,,,,,,,,,,,,,,,,,,,,,,,,,,,,,,,,,,,,,,,,,,,,,,,,,,,,,,,,463.9931,471.5802,0.328703704,0.325925926,1.0,0.0,0.0,1.5833,compass,0.0,8.0,8.0,28.0,1.0,SoundStimuli/IWantToHoldYourHand_TheBeatles_Original5S.wav,,,,,,,,,,,,,,,,,,,,,,,,,,,,,,,,,,,,,,,,,,,,,,,,,,,,,
,,,,,259755,1,2024-07-12_15h40.39.205,experiment,2024.1.5,Win32,120.4819277,6691931c2c63981b064e1f0c,6691b0ba12e7047883534720,,,,,,,,,,,,,,,,,,,,,,,,,,,,,,,,,,,,,,,,,,,,,,,,,,,,,,,,,,,,471.5847,480.7173,-0.322685185,-0.308796296,1.0,0.0,0.0,3.1249,compass,0.0,9.0,9.0,6.0,1.0,SoundStimuli/SaveYourTears_TheWeekndArianaGrande_Cover5S.wav,,,,,,,,,,,,,,,,,,,,,,,,,,,,,,,,,,,,,,,,,,,,,,,,,,,,,
,,,,,259755,1,2024-07-12_15h40.39.205,experiment,2024.1.5,Win32,120.4819277,6691931c2c63981b064e1f0c,6691b0ba12e7047883534720,,,,,,,,,,,,,,,,,,,,,,,,,,,,,,,,,,,,,,,,,,,,,,,,,,,,,,,,,,,,480.7219,488.7715,0.165740741,0.173611111,1.0,0.0,0.0,2.0462,compass,0.0,10.0,10.0,20.0,1.0,SoundStimuli/FlashdanceWhatAFeeling_IreneCara_Original5S.wav,,,,,,,,,,,,,,,,,,,,,,,,,,,,,,,,,,,,,,,,,,,,,,,,,,,,,
,,,,,259755,1,2024-07-12_15h40.39.205,experiment,2024.1.5,Win32,120.4819277,6691931c2c63981b064e1f0c,6691b0ba12e7047883534720,,,,,,,,,,,,,,,,,,,,,,,,,,,,,,,,,,,,,,,,,,,,,,,,,,,,,,,,,,,,488.7761,497.2504,-0.294907407,0.041203704,1.0,0.0,0.0,2.4703,compass,0.0,11.0,11.0,5.0,1.0,SoundStimuli/JoyToTheWorld_ThreeDogNight_Original5S.wav,,,,,,,,,,,,,,,,,,,,,,,,,,,,,,,,,,,,,,,,,,,,,,,,,,,,,
,,,,,259755,1,2024-07-12_15h40.39.205,experiment,2024.1.5,Win32,120.4819277,6691931c2c63981b064e1f0c,6691b0ba12e7047883534720,,,,,,,,,,,,,,,,,,,,,,,,,,,,,,,,,,,,,,,,,,,,,,,,,,,,,,,,,,,,497.2549,504.1882,0.169444444,0.181018519,1.0,0.0,0.0,0.9296,compass,0.0,12.0,12.0,31.0,1.0,SoundStimuli/TossinAndTurnin_BobbyLewis_Original5S.wav,,,,,,,,,,,,,,,,,,,,,,,,,,,,,,,,,,,,,,,,,,,,,,,,,,,,,
,,,,,259755,1,2024-07-12_15h40.39.205,experiment,2024.1.5,Win32,120.4819277,6691931c2c63981b064e1f0c,6691b0ba12e7047883534720,,,,,,,,,,,,,,,,,,,,,,,,,,,,,,,,,,,,,,,,,,,,,,,,,,,,,,,,,,,,504.1927,510.2214,0.295833333,0.275,1.0,0.0,0.0,0.0251,compass,0.0,13.0,13.0,17.0,1.0,SoundStimuli/IWannaDanceWithSomebody_WhitneyHouston_Original5S.wav,,,,,,,,,,,,,,,,,,,,,,,,,,,,,,,,,,,,,,,,,,,,,,,,,,,,,
,,,,,259755,1,2024-07-12_15h40.39.205,experiment,2024.1.5,Win32,120.4819277,6691931c2c63981b064e1f0c,6691b0ba12e7047883534720,,,,,,,,,,,,,,,,,,,,,,,,,,,,,,,,,,,,,,,,,,,,,,,,,,,,,,,,,,,,510.2259,519.3797,-0.297222222,0.316666667,1.0,0.0,0.0,3.15,compass,0.0,14.0,14.0,33.0,1.0,SoundStimuli/TheBoyIsMine_BrandyMonica_Original5S.wav,,,,,,,,,,,,,,,,,,,,,,,,,,,,,,,,,,,,,,,,,,,,,,,,,,,,,
,,,,,259755,1,2024-07-12_15h40.39.205,experiment,2024.1.5,Win32,120.4819277,6691931c2c63981b064e1f0c,6691b0ba12e7047883534720,,,,,,,,,,,,,,,,,,,,,,,,,,,,,,,,,,,,,,,,,,,,,,,,,,,,,,,,,,,,519.3843,525.8918,0.339351852,0.335648148,1.0,0.0,0.0,0.5036,compass,0.0,15.0,15.0,22.0,1.0,SoundStimuli/Happy_PharellWilliams_Original5S.wav,,,,,,,,,,,,,,,,,,,,,,,,,,,,,,,,,,,,,,,,,,,,,,,,,,,,,
,,,,,259755,1,2024-07-12_15h40.39.205,experiment,2024.1.5,Win32,120.4819277,6691931c2c63981b064e1f0c,6691b0ba12e7047883534720,,,,,,,,,,,,,,,,,,,,,,,,,,,,,,,,,,,,,,,,,,,,,,,,,,,,,,,,,,,,525.8962,532.5667,0.087037037,-0.277777778,1.0,0.0,0.0,0.6623,compass,0.0,16.0,16.0,11.0,1.0,SoundStimuli/BlurredLines_RobinThicke_Cover5S.wav,,,,,,,,,,,,,,,,,,,,,,,,,,,,,,,,,,,,,,,,,,,,,,,,,,,,,
,,,,,259755,1,2024-07-12_15h40.39.205,experiment,2024.1.5,Win32,120.4819277,6691931c2c63981b064e1f0c,6691b0ba12e7047883534720,,,,,,,,,,,,,,,,,,,,,,,,,,,,,,,,,,,,,,,,,,,,,,,,,,,,,,,,,,,,532.5711,541.846,0.290740741,-0.035648148,1.0,0.0,0.0,3.2748,compass,0.0,17.0,17.0,14.0,1.0,SoundStimuli/LikeARollingStone_BobDylan_Original5S.wav,,,,,,,,,,,,,,,,,,,,,,,,,,,,,,,,,,,,,,,,,,,,,,,,,,,,,
,,,,,259755,1,2024-07-12_15h40.39.205,experiment,2024.1.5,Win32,120.4819277,6691931c2c63981b064e1f0c,6691b0ba12e7047883534720,,,,,,,,,,,,,,,,,,,,,,,,,,,,,,,,,,,,,,,,,,,,,,,,,,,,,,,,,,,,541.8505,552.0081,-0.019444444,0.022222222,1.0,0.0,0.0,4.15,compass,0.0,18.0,18.0,13.0,1.0,SoundStimuli/Perfect_EdSheeran_Cover5S.wav,,,,,,,,,,,,,,,,,,,,,,,,,,,,,,,,,,,,,,,,,,,,,,,,,,,,,
,,,,,259755,1,2024-07-12_15h40.39.205,experiment,2024.1.5,Win32,120.4819277,6691931c2c63981b064e1f0c,6691b0ba12e7047883534720,,,,,,,,,,,,,,,,,,,,,,,,,,,,,,,,,,,,,,,,,,,,,,,,,,,,,,,,,,,,552.0128,559.358,0.127314815,-0.089814815,1.0,0.0,0.0,1.3371,compass,0.0,19.0,19.0,21.0,1.0,SoundStimuli/BridgeOverTroubledWater_SimonAndGarfunkel_Original5S.wav,,,,,,,,,,,,,,,,,,,,,,,,,,,,,,,,,,,,,,,,,,,,,,,,,,,,,
,,,,,259755,1,2024-07-12_15h40.39.205,experiment,2024.1.5,Win32,120.4819277,6691931c2c63981b064e1f0c,6691b0ba12e7047883534720,,,,,,,,,,,,,,,,,,,,,,,,,,,,,,,,,,,,,,,,,,,,,,,,,,,,,,,,,,,,559.3624,566.1664,-0.206018519,0.174537037,1.0,0.0,0.0,0.8001,compass,0.0,20.0,20.0,2.0,1.0,SoundStimuli/SmellsLikeTeenSpirit_Nirvana_Original5S.wav,,,,,,,,,,,,,,,,,,,,,,,,,,,,,,,,,,,,,,,,,,,,,,,,,,,,,
,,,,,259755,1,2024-07-12_15h40.39.205,experiment,2024.1.5,Win32,120.4819277,6691931c2c63981b064e1f0c,6691b0ba12e7047883534720,,,,,,,,,,,,,,,,,,,,,,,,,,,,,,,,,,,,,,,,,,,,,,,,,,,,,,,,,,,,566.1709,578.4624,0.061111111,-0.3,1.0,0.0,0.0,6.2831,compass,0.0,21.0,21.0,15.0,1.0,SoundStimuli/CrazyInLove_BeyonceFtJayZ_Cover5S.wav,,,,,,,,,,,,,,,,,,,,,,,,,,,,,,,,,,,,,,,,,,,,,,,,,,,,,
,,,,,259755,1,2024-07-12_15h40.39.205,experiment,2024.1.5,Win32,120.4819277,6691931c2c63981b064e1f0c,6691b0ba12e7047883534720,,,,,,,,,,,,,,,,,,,,,,,,,,,,,,,,,,,,,,,,,,,,,,,,,,,,,,,,,,,,578.467,587.479,0.010648148,0.012037037,1.0,0.0,0.0,3.0082,compass,0.0,22.0,22.0,27.0,1.0,SoundStimuli/EyeOfTheTiger_Survivor_Cover5S.wav,,,,,,,,,,,,,,,,,,,,,,,,,,,,,,,,,,,,,,,,,,,,,,,,,,,,,
,,,,,259755,1,2024-07-12_15h40.39.205,experiment,2024.1.5,Win32,120.4819277,6691931c2c63981b064e1f0c,6691b0ba12e7047883534720,,,,,,,,,,,,,,,,,,,,,,,,,,,,,,,,,,,,,,,,,,,,,,,,,,,,,,,,,,,,587.4835,595.4993,0.136111111,-0.156018519,1.0,0.0,0.0,2.0083,compass,0.0,23.0,23.0,23.0,1.0,SoundStimuli/IWalkTheLine_JohnnyCash_Original5S.wav,,,,,,,,,,,,,,,,,,,,,,,,,,,,,,,,,,,,,,,,,,,,,,,,,,,,,
,,,,,259755,1,2024-07-12_15h40.39.205,experiment,2024.1.5,Win32,120.4819277,6691931c2c63981b064e1f0c,6691b0ba12e7047883534720,,,,,,,,,,,,,,,,,,,,,,,,,,,,,,,,,,,,,,,,,,,,,,,,,,,,,,,,,,,,595.5038,606.8038,0.030555556,-0.018518519,1.0,0.0,0.0,5.2917,compass,0.0,24.0,24.0,32.0,1.0,SoundStimuli/Dilemma_NellyKellyRowland_Cover5S.wav,,,,,,,,,,,,,,,,,,,,,,,,,,,,,,,,,,,,,,,,,,,,,,,,,,,,,
,,,,,259755,1,2024-07-12_15h40.39.205,experiment,2024.1.5,Win32,120.4819277,6691931c2c63981b064e1f0c,6691b0ba12e7047883534720,,,,,,,,,,,,,,,,,,,,,,,,,,,,,,,,,,,,,,,,,,,,,,,,,,,,,,,,,,,,606.8085,613.037,-0.019444444,-0.024537037,1.0,0.0,0.0,0.225,compass,0.0,25.0,25.0,9.0,1.0,SoundStimuli/HowDoILive_LeAnnRimes_Cover5S.wav,,,,,,,,,,,,,,,,,,,,,,,,,,,,,,,,,,,,,,,,,,,,,,,,,,,,,
,,,,,259755,1,2024-07-12_15h40.39.205,experiment,2024.1.5,Win32,120.4819277,6691931c2c63981b064e1f0c,6691b0ba12e7047883534720,,,,,,,,,,,,,,,,,,,,,,,,,,,,,,,,,,,,,,,,,,,,,,,,,,,,,,,,,,,,613.0415,620.4204,0.060185185,-0.051851852,1.0,0.0,0.0,1.3715,compass,0.0,26.0,26.0,34.0,1.0,SoundStimuli/Irreplaceable_Beyonce_Cover5S.wav,,,,,,,,,,,,,,,,,,,,,,,,,,,,,,,,,,,,,,,,,,,,,,,,,,,,,
,,,,,259755,1,2024-07-12_15h40.39.205,experiment,2024.1.5,Win32,120.4819277,6691931c2c63981b064e1f0c,6691b0ba12e7047883534720,,,,,,,,,,,,,,,,,,,,,,,,,,,,,,,,,,,,,,,,,,,,,,,,,,,,,,,,,,,,620.4249,626.8824,-0.022222222,-0.021296296,1.0,0.0,0.0,0.4501,compass,0.0,27.0,27.0,30.0,1.0,SoundStimuli/SomebodyThatIUsedtoKnow_Gotye_Original5S.wav,,,,,,,,,,,,,,,,,,,,,,,,,,,,,,,,,,,,,,,,,,,,,,,,,,,,,
,,,,,259755,1,2024-07-12_15h40.39.205,experiment,2024.1.5,Win32,120.4819277,6691931c2c63981b064e1f0c,6691b0ba12e7047883534720,,,,,,,,,,,,,,,,,,,,,,,,,,,,,,,,,,,,,,,,,,,,,,,,,,,,,,,,,,,,626.8868,636.2117,-0.333796296,-0.318981481,1.0,0.0,0.0,3.3248,compass,0.0,28.0,28.0,29.0,1.0,SoundStimuli/BetteDavisEyes_KimCarnes_Original5S.wav,,,,,,,,,,,,,,,,,,,,,,,,,,,,,,,,,,,,,,,,,,,,,,,,,,,,,
,,,,,259755,1,2024-07-12_15h40.39.205,experiment,2024.1.5,Win32,120.4819277,6691931c2c63981b064e1f0c,6691b0ba12e7047883534720,,,,,,,,,,,,,,,,,,,,,,,,,,,,,,,,,,,,,,,,,,,,,,,,,,,,,,,,,,,,636.2162,644.7699,-0.020833333,-0.030555556,1.0,0.0,0.0,2.5499,compass,0.0,29.0,29.0,19.0,1.0,SoundStimuli/YouLightUpMyLife_DebbyBoone_Original5S.wav,,,,,,,,,,,,,,,,,,,,,,,,,,,,,,,,,,,,,,,,,,,,,,,,,,,,,
,,,,,259755,1,2024-07-12_15h40.39.205,experiment,2024.1.5,Win32,120.4819277,6691931c2c63981b064e1f0c,6691b0ba12e7047883534720,,,,,,,,,,,,,,,,,,,,,,,,,,,,,,,,,,,,,,,,,,,,,,,,,,,,,,,,,,,,644.7744,651.8116,0.023611111,-0.018518519,1.0,0.0,0.0,1.0332,compass,0.0,30.0,30.0,16.0,1.0,SoundStimuli/ItsAllInTheGame_TommyEdwards_Cover5S.wav,,,,,,,,,,,,,,,,,,,,,,,,,,,,,,,,,,,,,,,,,,,,,,,,,,,,,
,,,,,259755,1,2024-07-12_15h40.39.205,experiment,2024.1.5,Win32,120.4819277,6691931c2c63981b064e1f0c,6691b0ba12e7047883534720,,,,,,,,,,,,,,,,,,,,,,,,,,,,,,,,,,,,,,,,,,,,,,,,,,,,,,,,,,,,651.8161,658.9615,0.281944444,0.265740741,1.0,0.0,0.0,1.1377,compass,0.0,31.0,31.0,26.0,1.0,SoundStimuli/TheSign_AceOfBase_Cover5S.wav,,,,,,,,,,,,,,,,,,,,,,,,,,,,,,,,,,,,,,,,,,,,,,,,,,,,,
,,,,,259755,1,2024-07-12_15h40.39.205,experiment,2024.1.5,Win32,120.4819277,6691931c2c63981b064e1f0c,6691b0ba12e7047883534720,,,,,,,,,,,,,,,,,,,,,,,,,,,,,,,,,,,,,,,,,,,,,,,,,,,,,,,,,,,,658.9661,665.3532,0.014351852,-0.013425926,1.0,0.0,0.0,0.3834,compass,0.0,32.0,32.0,4.0,1.0,SoundStimuli/Dreams_FleetwoodMac_Original5S.wav,,,,,,,,,,,,,,,,,,,,,,,,,,,,,,,,,,,,,,,,,,,,,,,,,,,,,
,,,,,259755,1,2024-07-12_15h40.39.205,experiment,2024.1.5,Win32,120.4819277,6691931c2c63981b064e1f0c,6691b0ba12e7047883534720,,,,,,,,,,,,,,,,,,,,,,,,,,,,,,,,,,,,,,,,,,,,,,,,,,,,,,,,,,,,665.3576,677.7447,-0.033333333,0.060648148,1.0,0.0,0.0,6.3832,compass,0.0,33.0,33.0,18.0,1.0,SoundStimuli/Weak_SWV_Cover5S.wav,,,,,,,,,,,,,,,,,,,,,,,,,,,,,,,,,,,,,,,,,,,,,,,,,,,,,
,,,,,259755,1,2024-07-12_15h40.39.205,experiment,2024.1.5,Win32,120.4819277,6691931c2c63981b064e1f0c,6691b0ba12e7047883534720,,,,,,,,,,,,,,,,,,,,,,,,,,,,,,,,,,,,,,,,,,,,,,,,,,,,,,,,,,,,677.7494,684.2361,-0.126388889,0.163425926,1.0,0.0,0.0,0.4793,compass,0.0,34.0,34.0,7.0,1.0,SoundStimuli/MackTheKnife_BobbyDarin_Cover5S.wav,,,,,,,,,,,,,,,,,,,,,,,,,,,,,,,,,,,,,,,,,,,,,,,,,,,,,
,,,,,259755,1,2024-07-12_15h40.39.205,experiment,2024.1.5,Win32,120.4819277,6691931c2c63981b064e1f0c,6691b0ba12e7047883534720,,,,,,,,,,,,,,,,,,,,,,,,,,,,,,,,,,,,,,,,,,,,,,,,,,,,,,,,,,,,,,,,,,,,,,,,,,,684.2408,686.7114,space,2.4593,,686.7114,695.9533,right,9.2245,,0.0,0.0,0.0,0.0,1.0,block_order/blockD.xlsx,,,,,,,,,,,,,,,,,,,,,,,,,,,,,,,,,,,,,
,,,,,259755,1,2024-07-12_15h40.39.205,experiment,2024.1.5,Win32,120.4819277,6691931c2c63981b064e1f0c,6691b0ba12e7047883534720,,,,,,,,,,,,,,,,,,,,,,,,,,,,,,,,,,,,,,,,,,,,,,,,,,,,,,,,,,,,695.963,709.8401,0.086111111,0.269907407,1.0,0.0,0.0,7.8705,compass,0.0,0.0,0.0,7.0,1.0,SoundStimuli/NoOne_AliciaKeys_Cover5S.wav,,,,,,,,,,,,,,,,,,,,,,,,,,,,,,,,,,,,,,,,,,,,,,,,,,,,,
,,,,,259755,1,2024-07-12_15h40.39.205,experiment,2024.1.5,Win32,120.4819277,6691931c2c63981b064e1f0c,6691b0ba12e7047883534720,,,,,,,,,,,,,,,,,,,,,,,,,,,,,,,,,,,,,,,,,,,,,,,,,,,,,,,,,,,,709.8449,724.7109,0.016203704,0.17962963,1.0,0.0,0.0,8.8584,compass,0.0,1.0,1.0,1.0,1.0,SoundStimuli/Stronger_KanyeWest_Original5S.wav,,,,,,,,,,,,,,,,,,,,,,,,,,,,,,,,,,,,,,,,,,,,,,,,,,,,,
,,,,,259755,1,2024-07-12_15h40.39.205,experiment,2024.1.5,Win32,120.4819277,6691931c2c63981b064e1f0c,6691b0ba12e7047883534720,,,,,,,,,,,,,,,,,,,,,,,,,,,,,,,,,,,,,,,,,,,,,,,,,,,,,,,,,,,,724.7156,737.0356,0.011111111,0.249074074,1.0,0.0,0.0,6.3164,compass,0.0,2.0,2.0,0.0,1.0,SoundStimuli/StayinAlive_BeeGees_Original5S.wav,,,,,,,,,,,,,,,,,,,,,,,,,,,,,,,,,,,,,,,,,,,,,,,,,,,,,
,,,,,259755,1,2024-07-12_15h40.39.205,experiment,2024.1.5,Win32,120.4819277,6691931c2c63981b064e1f0c,6691b0ba12e7047883534720,,,,,,,,,,,,,,,,,,,,,,,,,,,,,,,,,,,,,,,,,,,,,,,,,,,,,,,,,,,,737.0403,744.8022,-0.01712963,-0.01712963,1.0,0.0,0.0,1.7582,compass,0.0,3.0,3.0,3.0,1.0,SoundStimuli/NoScrubs_TLC_Original5S.wav,,,,,,,,,,,,,,,,,,,,,,,,,,,,,,,,,,,,,,,,,,,,,,,,,,,,,
,,,,,259755,1,2024-07-12_15h40.39.205,experiment,2024.1.5,Win32,120.4819277,6691931c2c63981b064e1f0c,6691b0ba12e7047883534720,,,,,,,,,,,,,,,,,,,,,,,,,,,,,,,,,,,,,,,,,,,,,,,,,,,,,,,,,,,,744.8067,756.8061,0.143518519,-0.231018519,1.0,0.0,0.0,5.9956,compass,0.0,4.0,4.0,20.0,1.0,SoundStimuli/HeyYa_Outkast_Cover5S.wav,,,,,,,,,,,,,,,,,,,,,,,,,,,,,,,,,,,,,,,,,,,,,,,,,,,,,
,,,,,259755,1,2024-07-12_15h40.39.205,experiment,2024.1.5,Win32,120.4819277,6691931c2c63981b064e1f0c,6691b0ba12e7047883534720,,,,,,,,,,,,,,,,,,,,,,,,,,,,,,,,,,,,,,,,,,,,,,,,,,,,,,,,,,,,756.8107,767.2936,-0.038425926,-0.330555556,1.0,0.0,0.0,4.4748,compass,0.0,5.0,5.0,11.0,1.0,SoundStimuli/Superstition_StevieWonder_Cover5S.wav,,,,,,,,,,,,,,,,,,,,,,,,,,,,,,,,,,,,,,,,,,,,,,,,,,,,,
,,,,,259755,1,2024-07-12_15h40.39.205,experiment,2024.1.5,Win32,120.4819277,6691931c2c63981b064e1f0c,6691b0ba12e7047883534720,,,,,,,,,,,,,,,,,,,,,,,,,,,,,,,,,,,,,,,,,,,,,,,,,,,,,,,,,,,,767.2982,780.9186,0.030092593,0.323148148,1.0,0.0,0.0,7.6128,compass,0.0,6.0,6.0,30.0,1.0,SoundStimuli/PokerFace_LadyGaga_Original5S.wav,,,,,,,,,,,,,,,,,,,,,,,,,,,,,,,,,,,,,,,,,,,,,,,,,,,,,
,,,,,259755,1,2024-07-12_15h40.39.205,experiment,2024.1.5,Win32,120.4819277,6691931c2c63981b064e1f0c,6691b0ba12e7047883534720,,,,,,,,,,,,,,,,,,,,,,,,,,,,,,,,,,,,,,,,,,,,,,,,,,,,,,,,,,,,780.9232,787.8768,-0.031018519,0.274537037,1.0,0.0,0.0,0.9463,compass,0.0,7.0,7.0,6.0,1.0,SoundStimuli/Levitating_DuaLipa_Cover5S.wav,,,,,,,,,,,,,,,,,,,,,,,,,,,,,,,,,,,,,,,,,,,,,,,,,,,,,
,,,,,259755,1,2024-07-12_15h40.39.205,experiment,2024.1.5,Win32,120.4819277,6691931c2c63981b064e1f0c,6691b0ba12e7047883534720,,,,,,,,,,,,,,,,,,,,,,,,,,,,,,,,,,,,,,,,,,,,,,,,,,,,,,,,,,,,787.8812,800.3057,-0.185648148,-0.134722222,1.0,0.0,0.0,6.4167,compass,0.0,8.0,8.0,18.0,1.0,SoundStimuli/AnotherOneBitesTheDust_Queen_Original5S.wav,,,,,,,,,,,,,,,,,,,,,,,,,,,,,,,,,,,,,,,,,,,,,,,,,,,,,
,,,,,259755,1,2024-07-12_15h40.39.205,experiment,2024.1.5,Win32,120.4819277,6691931c2c63981b064e1f0c,6691b0ba12e7047883534720,,,,,,,,,,,,,,,,,,,,,,,,,,,,,,,,,,,,,,,,,,,,,,,,,,,,,,,,,,,,800.3104,809.8222,0.144907407,-0.015740741,1.0,0.0,0.0,3.5081,compass,0.0,9.0,9.0,33.0,1.0,SoundStimuli/StandByMe_BenEKing_Cover5S.wav,,,,,,,,,,,,,,,,,,,,,,,,,,,,,,,,,,,,,,,,,,,,,,,,,,,,,
,,,,,259755,1,2024-07-12_15h40.39.205,experiment,2024.1.5,Win32,120.4819277,6691931c2c63981b064e1f0c,6691b0ba12e7047883534720,,,,,,,,,,,,,,,,,,,,,,,,,,,,,,,,,,,,,,,,,,,,,,,,,,,,,,,,,,,,809.8267,819.1515,0.233796296,0.060185185,1.0,0.0,0.0,3.3166,compass,0.0,10.0,10.0,9.0,1.0,SoundStimuli/Despacito_LuisFonsiDaddyYankee_Cover5S.wav,,,,,,,,,,,,,,,,,,,,,,,,,,,,,,,,,,,,,,,,,,,,,,,,,,,,,
,,,,,259755,1,2024-07-12_15h40.39.205,experiment,2024.1.5,Win32,120.4819277,6691931c2c63981b064e1f0c,6691b0ba12e7047883534720,,,,,,,,,,,,,,,,,,,,,,,,,,,,,,,,,,,,,,,,,,,,,,,,,,,,,,,,,,,,819.156,827.9639,-0.085648148,-0.056018519,1.0,0.0,0.0,2.8003,compass,0.0,11.0,11.0,8.0,1.0,SoundStimuli/LikeAPrayer_Madonna_Original5S.wav,,,,,,,,,,,,,,,,,,,,,,,,,,,,,,,,,,,,,,,,,,,,,,,,,,,,,
,,,,,259755,1,2024-07-12_15h40.39.205,experiment,2024.1.5,Win32,120.4819277,6691931c2c63981b064e1f0c,6691b0ba12e7047883534720,,,,,,,,,,,,,,,,,,,,,,,,,,,,,,,,,,,,,,,,,,,,,,,,,,,,,,,,,,,,827.9685,837.9552,0.194907407,-0.144907407,1.0,0.0,0.0,3.9789,compass,0.0,12.0,12.0,5.0,1.0,SoundStimuli/MyGirl_TheTemptations_Original5S.wav,,,,,,,,,,,,,,,,,,,,,,,,,,,,,,,,,,,,,,,,,,,,,,,,,,,,,
,,,,,259755,1,2024-07-12_15h40.39.205,experiment,2024.1.5,Win32,120.4819277,6691931c2c63981b064e1f0c,6691b0ba12e7047883534720,,,,,,,,,,,,,,,,,,,,,,,,,,,,,,,,,,,,,,,,,,,,,,,,,,,,,,,,,,,,837.9598,845.6218,0.137037037,-0.268518519,1.0,0.0,0.0,1.6539,compass,0.0,13.0,13.0,21.0,1.0,SoundStimuli/GoodGollyMissMolly_LittleRichard_Cover5S.wav,,,,,,,,,,,,,,,,,,,,,,,,,,,,,,,,,,,,,,,,,,,,,,,,,,,,,
,,,,,259755,1,2024-07-12_15h40.39.205,experiment,2024.1.5,Win32,120.4819277,6691931c2c63981b064e1f0c,6691b0ba12e7047883534720,,,,,,,,,,,,,,,,,,,,,,,,,,,,,,,,,,,,,,,,,,,,,,,,,,,,,,,,,,,,845.6262,855.1596,-0.018981481,-0.331481481,1.0,0.0,0.0,3.5212,compass,0.0,14.0,14.0,17.0,1.0,SoundStimuli/Fallin_AliciaKeys_Original5S.wav,,,,,,,,,,,,,,,,,,,,,,,,,,,,,,,,,,,,,,,,,,,,,,,,,,,,,
,,,,,259755,1,2024-07-12_15h40.39.205,experiment,2024.1.5,Win32,120.4819277,6691931c2c63981b064e1f0c,6691b0ba12e7047883534720,,,,,,,,,,,,,,,,,,,,,,,,,,,,,,,,,,,,,,,,,,,,,,,,,,,,,,,,,,,,855.1642,863.1052,0.024537037,-0.335185185,1.0,0.0,0.0,1.9335,compass,0.0,15.0,15.0,19.0,1.0,SoundStimuli/LetsGetItOn_MarvinGaye_Cover5S.wav,,,,,,,,,,,,,,,,,,,,,,,,,,,,,,,,,,,,,,,,,,,,,,,,,,,,,
,,,,,259755,1,2024-07-12_15h40.39.205,experiment,2024.1.5,Win32,120.4819277,6691931c2c63981b064e1f0c,6691b0ba12e7047883534720,,,,,,,,,,,,,,,,,,,,,,,,,,,,,,,,,,,,,,,,,,,,,,,,,,,,,,,,,,,,863.1099,869.4343,0.338425926,-0.011574074,1.0,0.0,0.0,0.3165,compass,0.0,16.0,16.0,22.0,1.0,SoundStimuli/RockWithYou_MichaelJackson_Original5S.wav,,,,,,,,,,,,,,,,,,,,,,,,,,,,,,,,,,,,,,,,,,,,,,,,,,,,,
,,,,,259755,1,2024-07-12_15h40.39.205,experiment,2024.1.5,Win32,120.4819277,6691931c2c63981b064e1f0c,6691b0ba12e7047883534720,,,,,,,,,,,,,,,,,,,,,,,,,,,,,,,,,,,,,,,,,,,,,,,,,,,,,,,,,,,,869.4391,878.9548,0.014814815,0.331481481,1.0,0.0,0.0,3.512,compass,0.0,17.0,17.0,29.0,1.0,SoundStimuli/OldTownRoad_LilNasX_Original5S.wav,,,,,,,,,,,,,,,,,,,,,,,,,,,,,,,,,,,,,,,,,,,,,,,,,,,,,
,,,,,259755,1,2024-07-12_15h40.39.205,experiment,2024.1.5,Win32,120.4819277,6691931c2c63981b064e1f0c,6691b0ba12e7047883534720,,,,,,,,,,,,,,,,,,,,,,,,,,,,,,,,,,,,,,,,,,,,,,,,,,,,,,,,,,,,878.9592,886.8009,0.022685185,-0.331481481,1.0,0.0,0.0,1.8416,compass,0.0,18.0,18.0,23.0,1.0,SoundStimuli/StrawberryFieldsForever_TheBeatles_Original5S.wav,,,,,,,,,,,,,,,,,,,,,,,,,,,,,,,,,,,,,,,,,,,,,,,,,,,,,
,,,,,259755,1,2024-07-12_15h40.39.205,experiment,2024.1.5,Win32,120.4819277,6691931c2c63981b064e1f0c,6691b0ba12e7047883534720,,,,,,,,,,,,,,,,,,,,,,,,,,,,,,,,,,,,,,,,,,,,,,,,,,,,,,,,,,,,886.8055,893.1426,0.335185185,-0.019907407,1.0,0.0,0.0,0.3333,compass,0.0,19.0,19.0,32.0,1.0,SoundStimuli/HeatWaves_GlassAnimals_Original5S.wav,,,,,,,,,,,,,,,,,,,,,,,,,,,,,,,,,,,,,,,,,,,,,,,,,,,,,
,,,,,259755,1,2024-07-12_15h40.39.205,experiment,2024.1.5,Win32,120.4819277,6691931c2c63981b064e1f0c,6691b0ba12e7047883534720,,,,,,,,,,,,,,,,,,,,,,,,,,,,,,,,,,,,,,,,,,,,,,,,,,,,,,,,,,,,893.147,899.2423,-0.023148148,-0.017592593,1.0,0.0,0.0,0.0878,compass,0.0,20.0,20.0,34.0,1.0,SoundStimuli/AChangeIsGonnaCome_SamCooke_Cover5S.wav,,,,,,,,,,,,,,,,,,,,,,,,,,,,,,,,,,,,,,,,,,,,,,,,,,,,,
,,,,,259755,1,2024-07-12_15h40.39.205,experiment,2024.1.5,Win32,120.4819277,6691931c2c63981b064e1f0c,6691b0ba12e7047883534720,,,,,,,,,,,,,,,,,,,,,,,,,,,,,,,,,,,,,,,,,,,,,,,,,,,,,,,,,,,,899.2468,908.2544,0.013425926,-0.013888889,1.0,0.0,0.0,3.0038,compass,0.0,21.0,21.0,25.0,1.0,SoundStimuli/Respect_ArethaFranklin_Original5S.wav,,,,,,,,,,,,,,,,,,,,,,,,,,,,,,,,,,,,,,,,,,,,,,,,,,,,,
,,,,,259755,1,2024-07-12_15h40.39.205,experiment,2024.1.5,Win32,120.4819277,6691931c2c63981b064e1f0c,6691b0ba12e7047883534720,,,,,,,,,,,,,,,,,,,,,,,,,,,,,,,,,,,,,,,,,,,,,,,,,,,,,,,,,,,,908.259,914.5378,0.075925926,0.08287037,1.0,0.0,0.0,0.2751,compass,0.0,22.0,22.0,28.0,1.0,SoundStimuli/ComeAndGetYourLove_Redbone_Original5S.wav,,,,,,,,,,,,,,,,,,,,,,,,,,,,,,,,,,,,,,,,,,,,,,,,,,,,,
,,,,,259755,1,2024-07-12_15h40.39.205,experiment,2024.1.5,Win32,120.4819277,6691931c2c63981b064e1f0c,6691b0ba12e7047883534720,,,,,,,,,,,,,,,,,,,,,,,,,,,,,,,,,,,,,,,,,,,,,,,,,,,,,,,,,,,,914.5421,920.9005,0.165277778,0.17037037,1.0,0.0,0.0,0.3583,compass,0.0,23.0,23.0,27.0,1.0,SoundStimuli/ShapeofYou_EdSheeran_Original5S.wav,,,,,,,,,,,,,,,,,,,,,,,,,,,,,,,,,,,,,,,,,,,,,,,,,,,,,
,,,,,259755,1,2024-07-12_15h40.39.205,experiment,2024.1.5,Win32,120.4819277,6691931c2c63981b064e1f0c,6691b0ba12e7047883534720,,,,,,,,,,,,,,,,,,,,,,,,,,,,,,,,,,,,,,,,,,,,,,,,,,,,,,,,,,,,920.9049,932.6671,-0.171759259,-0.157407407,1.0,0.0,0.0,5.7583,compass,0.0,24.0,24.0,2.0,1.0,SoundStimuli/Mood_24kGoldnianndior_Cover5S.wav,,,,,,,,,,,,,,,,,,,,,,,,,,,,,,,,,,,,,,,,,,,,,,,,,,,,,
,,,,,259755,1,2024-07-12_15h40.39.205,experiment,2024.1.5,Win32,120.4819277,6691931c2c63981b064e1f0c,6691b0ba12e7047883534720,,,,,,,,,,,,,,,,,,,,,,,,,,,,,,,,,,,,,,,,,,,,,,,,,,,,,,,,,,,,932.6717,943.1625,-0.212962963,-0.250462963,1.0,0.0,0.0,4.4871,compass,0.0,25.0,25.0,4.0,1.0,SoundStimuli/GetUrFreakOn_MissyElliot_Original5S.wav,,,,,,,,,,,,,,,,,,,,,,,,,,,,,,,,,,,,,,,,,,,,,,,,,,,,,
,,,,,259755,1,2024-07-12_15h40.39.205,experiment,2024.1.5,Win32,120.4819277,6691931c2c63981b064e1f0c,6691b0ba12e7047883534720,,,,,,,,,,,,,,,,,,,,,,,,,,,,,,,,,,,,,,,,,,,,,,,,,,,,,,,,,,,,943.167,949.6835,-0.025,-0.330092593,1.0,0.0,0.0,0.5128,compass,0.0,26.0,26.0,13.0,1.0,SoundStimuli/GodOnlyKnows_TheBeachBoys_Cover5S.wav,,,,,,,,,,,,,,,,,,,,,,,,,,,,,,,,,,,,,,,,,,,,,,,,,,,,,
,,,,,259755,1,2024-07-12_15h40.39.205,experiment,2024.1.5,Win32,120.4819277,6691931c2c63981b064e1f0c,6691b0ba12e7047883534720,,,,,,,,,,,,,,,,,,,,,,,,,,,,,,,,,,,,,,,,,,,,,,,,,,,,,,,,,,,,949.6879,957.825,-0.015277778,-0.021296296,1.0,0.0,0.0,2.1331,compass,0.0,27.0,27.0,12.0,1.0,SoundStimuli/IWillAlwaysLoveYou_WhitneyHouston_Cover5S.wav,,,,,,,,,,,,,,,,,,,,,,,,,,,,,,,,,,,,,,,,,,,,,,,,,,,,,
,,,,,259755,1,2024-07-12_15h40.39.205,experiment,2024.1.5,Win32,120.4819277,6691931c2c63981b064e1f0c,6691b0ba12e7047883534720,,,,,,,,,,,,,,,,,,,,,,,,,,,,,,,,,,,,,,,,,,,,,,,,,,,,,,,,,,,,957.8295,967.8251,-0.180092593,0.011574074,1.0,0.0,0.0,3.9916,compass,0.0,28.0,28.0,16.0,1.0,SoundStimuli/BohemianRhapsody_Queen_Original5S.wav,,,,,,,,,,,,,,,,,,,,,,,,,,,,,,,,,,,,,,,,,,,,,,,,,,,,,
,,,,,259755,1,2024-07-12_15h40.39.205,experiment,2024.1.5,Win32,120.4819277,6691931c2c63981b064e1f0c,6691b0ba12e7047883534720,,,,,,,,,,,,,,,,,,,,,,,,,,,,,,,,,,,,,,,,,,,,,,,,,,,,,,,,,,,,967.8298,977.0999,0.178240741,0.063888889,1.0,0.0,0.0,3.2627,compass,0.0,29.0,29.0,24.0,1.0,SoundStimuli/UptownFunk_MarkRonson_Original5S.wav,,,,,,,,,,,,,,,,,,,,,,,,,,,,,,,,,,,,,,,,,,,,,,,,,,,,,
,,,,,259755,1,2024-07-12_15h40.39.205,experiment,2024.1.5,Win32,120.4819277,6691931c2c63981b064e1f0c,6691b0ba12e7047883534720,,,,,,,,,,,,,,,,,,,,,,,,,,,,,,,,,,,,,,,,,,,,,,,,,,,,,,,,,,,,977.1044,984.7414,0.140740741,0.051388889,1.0,0.0,0.0,1.6294,compass,0.0,30.0,30.0,14.0,1.0,SoundStimuli/BlindingLights_TheWeeknd_Original5S.wav,,,,,,,,,,,,,,,,,,,,,,,,,,,,,,,,,,,,,,,,,,,,,,,,,,,,,
,,,,,259755,1,2024-07-12_15h40.39.205,experiment,2024.1.5,Win32,120.4819277,6691931c2c63981b064e1f0c,6691b0ba12e7047883534720,,,,,,,,,,,,,,,,,,,,,,,,,,,,,,,,,,,,,,,,,,,,,,,,,,,,,,,,,,,,984.7459,992.0415,0.340277778,-0.339351852,1.0,0.0,0.0,1.2879,compass,0.0,31.0,31.0,31.0,1.0,SoundStimuli/TheBattleOfNewOrleans_JohnnyHorton_Cover5S.wav,,,,,,,,,,,,,,,,,,,,,,,,,,,,,,,,,,,,,,,,,,,,,,,,,,,,,
,,,,,259755,1,2024-07-12_15h40.39.205,experiment,2024.1.5,Win32,120.4819277,6691931c2c63981b064e1f0c,6691b0ba12e7047883534720,,,,,,,,,,,,,,,,,,,,,,,,,,,,,,,,,,,,,,,,,,,,,,,,,,,,,,,,,,,,992.046,999.4702,-0.012037037,-0.090740741,1.0,0.0,0.0,1.4165,compass,0.0,32.0,32.0,26.0,1.0,SoundStimuli/LivinOnAPrayer_BonJovi_Cover5S.wav,,,,,,,,,,,,,,,,,,,,,,,,,,,,,,,,,,,,,,,,,,,,,,,,,,,,,
,,,,,259755,1,2024-07-12_15h40.39.205,experiment,2024.1.5,Win32,120.4819277,6691931c2c63981b064e1f0c,6691b0ba12e7047883534720,,,,,,,,,,,,,,,,,,,,,,,,,,,,,,,,,,,,,,,,,,,,,,,,,,,,,,,,,,,,999.4746,1010.895,0.153240741,-0.02037037,1.0,0.0,0.0,5.4166,compass,0.0,33.0,33.0,15.0,1.0,SoundStimuli/TikTok_Kesha_Cover5S.wav,,,,,,,,,,,,,,,,,,,,,,,,,,,,,,,,,,,,,,,,,,,,,,,,,,,,,
,,,,,259755,1,2024-07-12_15h40.39.205,experiment,2024.1.5,Win32,120.4819277,6691931c2c63981b064e1f0c,6691b0ba12e7047883534720,,,,,,,,,,,,,,,,,,,,,,,,,,,,,,,,,,,,,,,,,,,,,,,,,,,,,,,,,,,,1010.8997,1018.3534,-0.162962963,-0.33287037,1.0,0.0,0.0,1.4455,compass,0.0,34.0,34.0,10.0,1.0,SoundStimuli/BadDay_DanielPowter_Cover5S.wav,,,,,,,,,,,,,,,,,,,,,,,,,,,,,,,,,,,,,,,,,,,,,,,,,,,,,
,,,,,259755,1,2024-07-12_15h40.39.205,experiment,2024.1.5,Win32,120.4819277,6691931c2c63981b064e1f0c,6691b0ba12e7047883534720,,,,,,,,,,,,,,,,,,,,,,,,,,,,,,,,,,,,,,,,,,,,,,,,,,,,,,,,,,,,,,,,,,,,,,,,,,,1018.3578,1020.3995,space,2.0338,,1020.3995,1023.9329,right,3.5198,,0.0,1.0,1.0,1.0,1.0,block_order/blockA.xlsx,,,,,,,,,,,,,,,,,,,,,,,,,,,,,,,,,,,,,
,,,,,259755,1,2024-07-12_15h40.39.205,experiment,2024.1.5,Win32,120.4819277,6691931c2c63981b064e1f0c,6691b0ba12e7047883534720,,,,,,,,,,,,,,,,,,,,,,,,,,,,,,,,,,,,,,,,,,,,,,,,,,,,,,,,,,,,1023.9424,1030.2493,0.182407407,0.071296296,1.0,0.0,0.0,0.3043,compass,0.0,0.0,0.0,20.0,1.0,SoundStimuli/FlashdanceWhatAFeeling_IreneCara_Cover5S.wav,,,,,,,,,,,,,,,,,,,,,,,,,,,,,,,,,,,,,,,,,,,,,,,,,,,,,
,,,,,259755,1,2024-07-12_15h40.39.205,experiment,2024.1.5,Win32,120.4819277,6691931c2c63981b064e1f0c,6691b0ba12e7047883534720,,,,,,,,,,,,,,,,,,,,,,,,,,,,,,,,,,,,,,,,,,,,,,,,,,,,,,,,,,,,1030.2537,1036.4243,-0.175462963,0.022222222,1.0,0.0,0.0,0.1666,compass,0.0,1.0,1.0,31.0,1.0,SoundStimuli/TossinAndTurnin_BobbyLewis_Cover5S.wav,,,,,,,,,,,,,,,,,,,,,,,,,,,,,,,,,,,,,,,,,,,,,,,,,,,,,
,,,,,259755,1,2024-07-12_15h40.39.205,experiment,2024.1.5,Win32,120.4819277,6691931c2c63981b064e1f0c,6691b0ba12e7047883534720,,,,,,,,,,,,,,,,,,,,,,,,,,,,,,,,,,,,,,,,,,,,,,,,,,,,,,,,,,,,1036.4287,1042.6243,0.221296296,0.249074074,1.0,0.0,0.0,0.1879,compass,0.0,2.0,2.0,34.0,1.0,SoundStimuli/Irreplaceable_Beyonce_Original5S.wav,,,,,,,,,,,,,,,,,,,,,,,,,,,,,,,,,,,,,,,,,,,,,,,,,,,,,
,,,,,259755,1,2024-07-12_15h40.39.205,experiment,2024.1.5,Win32,120.4819277,6691931c2c63981b064e1f0c,6691b0ba12e7047883534720,,,,,,,,,,,,,,,,,,,,,,,,,,,,,,,,,,,,,,,,,,,,,,,,,,,,,,,,,,,,1042.6286,1048.8158,-0.173611111,-0.300925926,1.0,0.0,0.0,0.1795,compass,0.0,3.0,3.0,14.0,1.0,SoundStimuli/LikeARollingStone_BobDylan_Cover5S.wav,,,,,,,,,,,,,,,,,,,,,,,,,,,,,,,,,,,,,,,,,,,,,,,,,,,,,
,,,,,259755,1,2024-07-12_15h40.39.205,experiment,2024.1.5,Win32,120.4819277,6691931c2c63981b064e1f0c,6691b0ba12e7047883534720,,,,,,,,,,,,,,,,,,,,,,,,,,,,,,,,,,,,,,,,,,,,,,,,,,,,,,,,,,,,1048.8202,1055.1658,0.201388889,0.044444444,1.0,0.0,0.0,0.3414,compass,0.0,4.0,4.0,11.0,1.0,SoundStimuli/BlurredLines_RobinThicke_Original5S.wav,,,,,,,,,,,,,,,,,,,,,,,,,,,,,,,,,,,,,,,,,,,,,,,,,,,,,
,,,,,259755,1,2024-07-12_15h40.39.205,experiment,2024.1.5,Win32,120.4819277,6691931c2c63981b064e1f0c,6691b0ba12e7047883534720,,,,,,,,,,,,,,,,,,,,,,,,,,,,,,,,,,,,,,,,,,,,,,,,,,,,,,,,,,,,1055.1702,1061.5074,-0.158796296,0.021759259,1.0,0.0,0.0,0.3296,compass,0.0,5.0,5.0,30.0,1.0,SoundStimuli/SomebodyThatIUsedtoKnow_Gotye_Cover5S.wav,,,,,,,,,,,,,,,,,,,,,,,,,,,,,,,,,,,,,,,,,,,,,,,,,,,,,
,,,,,259755,1,2024-07-12_15h40.39.205,experiment,2024.1.5,Win32,120.4819277,6691931c2c63981b064e1f0c,6691b0ba12e7047883534720,,,,,,,,,,,,,,,,,,,,,,,,,,,,,,,,,,,,,,,,,,,,,,,,,,,,,,,,,,,,1061.512,1067.7445,-0.168055556,-0.080555556,1.0,0.0,0.0,0.225,compass,0.0,6.0,6.0,18.0,1.0,SoundStimuli/Weak_SWV_Original5S.wav,,,,,,,,,,,,,,,,,,,,,,,,,,,,,,,,,,,,,,,,,,,,,,,,,,,,,
,,,,,259755,1,2024-07-12_15h40.39.205,experiment,2024.1.5,Win32,120.4819277,6691931c2c63981b064e1f0c,6691b0ba12e7047883534720,,,,,,,,,,,,,,,,,,,,,,,,,,,,,,,,,,,,,,,,,,,,,,,,,,,,,,,,,,,,1067.7488,1074.0779,0.174074074,-0.083333333,1.0,0.0,0.0,0.3288,compass,0.0,7.0,7.0,24.0,1.0,SoundStimuli/Kiss_Prince_Original5S.wav,,,,,,,,,,,,,,,,,,,,,,,,,,,,,,,,,,,,,,,,,,,,,,,,,,,,,
,,,,,259755,1,2024-07-12_15h40.39.205,experiment,2024.1.5,Win32,120.4819277,6691931c2c63981b064e1f0c,6691b0ba12e7047883534720,,,,,,,,,,,,,,,,,,,,,,,,,,,,,,,,,,,,,,,,,,,,,,,,,,,,,,,,,,,,1074.0822,1080.4156,-0.17037037,0.121296296,1.0,0.0,0.0,0.3211,compass,0.0,8.0,8.0,5.0,1.0,SoundStimuli/JoyToTheWorld_ThreeDogNight_Cover5S.wav,,,,,,,,,,,,,,,,,,,,,,,,,,,,,,,,,,,,,,,,,,,,,,,,,,,,,
,,,,,259755,1,2024-07-12_15h40.39.205,experiment,2024.1.5,Win32,120.4819277,6691931c2c63981b064e1f0c,6691b0ba12e7047883534720,,,,,,,,,,,,,,,,,,,,,,,,,,,,,,,,,,,,,,,,,,,,,,,,,,,,,,,,,,,,1080.4199,1086.924,0.183333333,-0.027314815,1.0,0.0,0.0,0.4963,compass,0.0,9.0,9.0,10.0,1.0,SoundStimuli/LeFreak_Chic_Original5S.wav,,,,,,,,,,,,,,,,,,,,,,,,,,,,,,,,,,,,,,,,,,,,,,,,,,,,,
,,,,,259755,1,2024-07-12_15h40.39.205,experiment,2024.1.5,Win32,120.4819277,6691931c2c63981b064e1f0c,6691b0ba12e7047883534720,,,,,,,,,,,,,,,,,,,,,,,,,,,,,,,,,,,,,,,,,,,,,,,,,,,,,,,,,,,,1086.9284,1095.2071,-0.175925926,-0.017592593,1.0,0.0,0.0,2.275,compass,0.0,10.0,10.0,1.0,1.0,SoundStimuli/Smooth_SantanaRobThomas_Cover5S.wav,,,,,,,,,,,,,,,,,,,,,,,,,,,,,,,,,,,,,,,,,,,,,,,,,,,,,
,,,,,259755,1,2024-07-12_15h40.39.205,experiment,2024.1.5,Win32,120.4819277,6691931c2c63981b064e1f0c,6691b0ba12e7047883534720,,,,,,,,,,,,,,,,,,,,,,,,,,,,,,,,,,,,,,,,,,,,,,,,,,,,,,,,,,,,1095.2116,1101.3693,-0.060648148,0.334259259,1.0,0.0,0.0,0.1501,compass,0.0,11.0,11.0,2.0,1.0,SoundStimuli/SmellsLikeTeenSpirit_Nirvana_Cover5S.wav,,,,,,,,,,,,,,,,,,,,,,,,,,,,,,,,,,,,,,,,,,,,,,,,,,,,,
,,,,,259755,1,2024-07-12_15h40.39.205,experiment,2024.1.5,Win32,120.4819277,6691931c2c63981b064e1f0c,6691b0ba12e7047883534720,,,,,,,,,,,,,,,,,,,,,,,,,,,,,,,,,,,,,,,,,,,,,,,,,,,,,,,,,,,,1101.3737,1108.5403,0.16712963,-0.018518519,1.0,0.0,0.0,1.1583,compass,0.0,12.0,12.0,15.0,1.0,SoundStimuli/CrazyInLove_BeyonceFtJayZ_Original5S.wav,,,,,,,,,,,,,,,,,,,,,,,,,,,,,,,,,,,,,,,,,,,,,,,,,,,,,
,,,,,259755,1,2024-07-12_15h40.39.205,experiment,2024.1.5,Win32,120.4819277,6691931c2c63981b064e1f0c,6691b0ba12e7047883534720,,,,,,,,,,,,,,,,,,,,,,,,,,,,,,,,,,,,,,,,,,,,,,,,,,,,,,,,,,,,1108.5448,1116.5609,-0.095833333,-0.015277778,1.0,0.0,0.0,2.0122,compass,0.0,13.0,13.0,23.0,1.0,SoundStimuli/IWalkTheLine_JohnnyCash_Cover5S.wav,,,,,,,,,,,,,,,,,,,,,,,,,,,,,,,,,,,,,,,,,,,,,,,,,,,,,
,,,,,259755,1,2024-07-12_15h40.39.205,experiment,2024.1.5,Win32,120.4819277,6691931c2c63981b064e1f0c,6691b0ba12e7047883534720,,,,,,,,,,,,,,,,,,,,,,,,,,,,,,,,,,,,,,,,,,,,,,,,,,,,,,,,,,,,1116.5655,1123.2069,-0.093981481,-0.329166667,1.0,0.0,0.0,0.6329,compass,0.0,14.0,14.0,8.0,1.0,SoundStimuli/EndlessLove_DianaRossLionelRichie_Original5S.wav,,,,,,,,,,,,,,,,,,,,,,,,,,,,,,,,,,,,,,,,,,,,,,,,,,,,,
,,,,,259755,1,2024-07-12_15h40.39.205,experiment,2024.1.5,Win32,120.4819277,6691931c2c63981b064e1f0c,6691b0ba12e7047883534720,,,,,,,,,,,,,,,,,,,,,,,,,,,,,,,,,,,,,,,,,,,,,,,,,,,,,,,,,,,,1123.2113,1129.5317,0.230092593,0.088888889,1.0,0.0,0.0,0.3167,compass,0.0,15.0,15.0,6.0,1.0,SoundStimuli/SaveYourTears_TheWeekndArianaGrande_Original5S.wav,,,,,,,,,,,,,,,,,,,,,,,,,,,,,,,,,,,,,,,,,,,,,,,,,,,,,
,,,,,259755,1,2024-07-12_15h40.39.205,experiment,2024.1.5,Win32,120.4819277,6691931c2c63981b064e1f0c,6691b0ba12e7047883534720,,,,,,,,,,,,,,,,,,,,,,,,,,,,,,,,,,,,,,,,,,,,,,,,,,,,,,,,,,,,1129.5363,1136.0605,0.341666667,0.343518519,1.0,0.0,0.0,0.5167,compass,0.0,16.0,16.0,22.0,1.0,SoundStimuli/Happy_PharellWilliams_Cover5S.wav,,,,,,,,,,,,,,,,,,,,,,,,,,,,,,,,,,,,,,,,,,,,,,,,,,,,,
,,,,,259755,1,2024-07-12_15h40.39.205,experiment,2024.1.5,Win32,120.4819277,6691931c2c63981b064e1f0c,6691b0ba12e7047883534720,,,,,,,,,,,,,,,,,,,,,,,,,,,,,,,,,,,,,,,,,,,,,,,,,,,,,,,,,,,,1136.065,1147.2982,0.281018519,-0.116203704,1.0,0.0,0.0,5.2249,compass,0.0,17.0,17.0,16.0,1.0,SoundStimuli/ItsAllInTheGame_TommyEdwards_Original5S.wav,,,,,,,,,,,,,,,,,,,,,,,,,,,,,,,,,,,,,,,,,,,,,,,,,,,,,
,,,,,259755,1,2024-07-12_15h40.39.205,experiment,2024.1.5,Win32,120.4819277,6691931c2c63981b064e1f0c,6691b0ba12e7047883534720,,,,,,,,,,,,,,,,,,,,,,,,,,,,,,,,,,,,,,,,,,,,,,,,,,,,,,,,,,,,1147.3028,1153.7649,-0.122222222,0.106018519,1.0,0.0,0.0,0.4585,compass,0.0,18.0,18.0,13.0,1.0,SoundStimuli/Perfect_EdSheeran_Original5S.wav,,,,,,,,,,,,,,,,,,,,,,,,,,,,,,,,,,,,,,,,,,,,,,,,,,,,,
,,,,,259755,1,2024-07-12_15h40.39.205,experiment,2024.1.5,Win32,120.4819277,6691931c2c63981b064e1f0c,6691b0ba12e7047883534720,,,,,,,,,,,,,,,,,,,,,,,,,,,,,,,,,,,,,,,,,,,,,,,,,,,,,,,,,,,,1153.7693,1159.9936,-0.176388889,-0.039814815,1.0,0.0,0.0,0.2166,compass,0.0,19.0,19.0,33.0,1.0,SoundStimuli/TheBoyIsMine_BrandyMonica_Cover5S.wav,,,,,,,,,,,,,,,,,,,,,,,,,,,,,,,,,,,,,,,,,,,,,,,,,,,,,
,,,,,259755,1,2024-07-12_15h40.39.205,experiment,2024.1.5,Win32,120.4819277,6691931c2c63981b064e1f0c,6691b0ba12e7047883534720,,,,,,,,,,,,,,,,,,,,,,,,,,,,,,,,,,,,,,,,,,,,,,,,,,,,,,,,,,,,1159.9981,1168.2685,0.20462963,0.036574074,1.0,0.0,0.0,2.2583,compass,0.0,20.0,20.0,4.0,1.0,SoundStimuli/Dreams_FleetwoodMac_Cover5S.wav,,,,,,,,,,,,,,,,,,,,,,,,,,,,,,,,,,,,,,,,,,,,,,,,,,,,,
,,,,,259755,1,2024-07-12_15h40.39.205,experiment,2024.1.5,Win32,120.4819277,6691931c2c63981b064e1f0c,6691b0ba12e7047883534720,,,,,,,,,,,,,,,,,,,,,,,,,,,,,,,,,,,,,,,,,,,,,,,,,,,,,,,,,,,,1168.2731,1174.6313,-0.163888889,-0.190740741,1.0,0.0,0.0,0.3544,compass,0.0,21.0,21.0,28.0,1.0,SoundStimuli/IWantToHoldYourHand_TheBeatles_Cover5S.wav,,,,,,,,,,,,,,,,,,,,,,,,,,,,,,,,,,,,,,,,,,,,,,,,,,,,,
,,,,,259755,1,2024-07-12_15h40.39.205,experiment,2024.1.5,Win32,120.4819277,6691931c2c63981b064e1f0c,6691b0ba12e7047883534720,,,,,,,,,,,,,,,,,,,,,,,,,,,,,,,,,,,,,,,,,,,,,,,,,,,,,,,,,,,,1174.6357,1183.8812,-0.136111111,-0.125925926,1.0,0.0,0.0,3.2377,compass,0.0,22.0,22.0,19.0,1.0,SoundStimuli/YouLightUpMyLife_DebbyBoone_Cover5S.wav,,,,,,,,,,,,,,,,,,,,,,,,,,,,,,,,,,,,,,,,,,,,,,,,,,,,,
,,,,,259755,1,2024-07-12_15h40.39.205,experiment,2024.1.5,Win32,120.4819277,6691931c2c63981b064e1f0c,6691b0ba12e7047883534720,,,,,,,,,,,,,,,,,,,,,,,,,,,,,,,,,,,,,,,,,,,,,,,,,,,,,,,,,,,,1183.8857,1190.9265,-0.140740741,-0.019907407,1.0,0.0,0.0,1.0371,compass,0.0,23.0,23.0,29.0,1.0,SoundStimuli/BetteDavisEyes_KimCarnes_Cover5S.wav,,,,,,,,,,,,,,,,,,,,,,,,,,,,,,,,,,,,,,,,,,,,,,,,,,,,,
,,,,,259755,1,2024-07-12_15h40.39.205,experiment,2024.1.5,Win32,120.4819277,6691931c2c63981b064e1f0c,6691b0ba12e7047883534720,,,,,,,,,,,,,,,,,,,,,,,,,,,,,,,,,,,,,,,,,,,,,,,,,,,,,,,,,,,,1190.931,1198.5644,-0.005092593,-0.010185185,1.0,0.0,0.0,1.6333,compass,0.0,24.0,24.0,21.0,1.0,SoundStimuli/BridgeOverTroubledWater_SimonAndGarfunkel_Cover5S.wav,,,,,,,,,,,,,,,,,,,,,,,,,,,,,,,,,,,,,,,,,,,,,,,,,,,,,
,,,,,259755,1,2024-07-12_15h40.39.205,experiment,2024.1.5,Win32,120.4819277,6691931c2c63981b064e1f0c,6691b0ba12e7047883534720,,,,,,,,,,,,,,,,,,,,,,,,,,,,,,,,,,,,,,,,,,,,,,,,,,,,,,,,,,,,1198.5689,1206.5311,0.127314815,0.068981481,1.0,0.0,0.0,1.9586,compass,0.0,25.0,25.0,26.0,1.0,SoundStimuli/TheSign_AceOfBase_Original5S.wav,,,,,,,,,,,,,,,,,,,,,,,,,,,,,,,,,,,,,,,,,,,,,,,,,,,,,
,,,,,259755,1,2024-07-12_15h40.39.205,experiment,2024.1.5,Win32,120.4819277,6691931c2c63981b064e1f0c,6691b0ba12e7047883534720,,,,,,,,,,,,,,,,,,,,,,,,,,,,,,,,,,,,,,,,,,,,,,,,,,,,,,,,,,,,1206.5356,1213.3392,-0.110648148,0.206944444,1.0,0.0,0.0,0.7999,compass,0.0,26.0,26.0,12.0,1.0,SoundStimuli/UnbreakMyHeart_ToniBraxton_Cover5S.wav,,,,,,,,,,,,,,,,,,,,,,,,,,,,,,,,,,,,,,,,,,,,,,,,,,,,,
,,,,,259755,1,2024-07-12_15h40.39.205,experiment,2024.1.5,Win32,120.4819277,6691931c2c63981b064e1f0c,6691b0ba12e7047883534720,,,,,,,,,,,,,,,,,,,,,,,,,,,,,,,,,,,,,,,,,,,,,,,,,,,,,,,,,,,,1213.3437,1222.4725,-0.152314815,-0.024537037,1.0,0.0,0.0,3.121,compass,0.0,27.0,27.0,17.0,1.0,SoundStimuli/IWannaDanceWithSomebody_WhitneyHouston_Cover5S.wav,,,,,,,,,,,,,,,,,,,,,,,,,,,,,,,,,,,,,,,,,,,,,,,,,,,,,
,,,,,259755,1,2024-07-12_15h40.39.205,experiment,2024.1.5,Win32,120.4819277,6691931c2c63981b064e1f0c,6691b0ba12e7047883534720,,,,,,,,,,,,,,,,,,,,,,,,,,,,,,,,,,,,,,,,,,,,,,,,,,,,,,,,,,,,1222.477,1230.4429,-0.090277778,0.027314815,1.0,0.0,0.0,1.9619,compass,0.0,28.0,28.0,0.0,1.0,SoundStimuli/GimmeShelter_RollingStones_Cover5S.wav,,,,,,,,,,,,,,,,,,,,,,,,,,,,,,,,,,,,,,,,,,,,,,,,,,,,,
,,,,,259755,1,2024-07-12_15h40.39.205,experiment,2024.1.5,Win32,120.4819277,6691931c2c63981b064e1f0c,6691b0ba12e7047883534720,,,,,,,,,,,,,,,,,,,,,,,,,,,,,,,,,,,,,,,,,,,,,,,,,,,,,,,,,,,,1230.4474,1236.5889,0.186111111,0.065740741,1.0,0.0,0.0,0.1377,compass,0.0,29.0,29.0,27.0,1.0,SoundStimuli/EyeOfTheTiger_Survivor_Original5S.wav,,,,,,,,,,,,,,,,,,,,,,,,,,,,,,,,,,,,,,,,,,,,,,,,,,,,,
,,,,,259755,1,2024-07-12_15h40.39.205,experiment,2024.1.5,Win32,120.4819277,6691931c2c63981b064e1f0c,6691b0ba12e7047883534720,,,,,,,,,,,,,,,,,,,,,,,,,,,,,,,,,,,,,,,,,,,,,,,,,,,,,,,,,,,,1236.5934,1245.0307,-0.088888889,-0.024074074,1.0,0.0,0.0,2.4297,compass,0.0,30.0,30.0,9.0,1.0,SoundStimuli/HowDoILive_LeAnnRimes_Original5S.wav,,,,,,,,,,,,,,,,,,,,,,,,,,,,,,,,,,,,,,,,,,,,,,,,,,,,,
,,,,,259755,1,2024-07-12_15h40.39.205,experiment,2024.1.5,Win32,120.4819277,6691931c2c63981b064e1f0c,6691b0ba12e7047883534720,,,,,,,,,,,,,,,,,,,,,,,,,,,,,,,,,,,,,,,,,,,,,,,,,,,,,,,,,,,,1245.0354,1255.464,0.174074074,-0.03287037,1.0,0.0,0.0,4.4213,compass,0.0,31.0,31.0,25.0,1.0,SoundStimuli/IllMakeLoveToYou_BoyzIIMen_Original5S.wav,,,,,,,,,,,,,,,,,,,,,,,,,,,,,,,,,,,,,,,,,,,,,,,,,,,,,
,,,,,259755,1,2024-07-12_15h40.39.205,experiment,2024.1.5,Win32,120.4819277,6691931c2c63981b064e1f0c,6691b0ba12e7047883534720,,,,,,,,,,,,,,,,,,,,,,,,,,,,,,,,,,,,,,,,,,,,,,,,,,,,,,,,,,,,1255.4688,1261.8426,0.223148148,0.093981481,1.0,0.0,0.0,0.3703,compass,0.0,32.0,32.0,32.0,1.0,SoundStimuli/Dilemma_NellyKellyRowland_Original5S.wav,,,,,,,,,,,,,,,,,,,,,,,,,,,,,,,,,,,,,,,,,,,,,,,,,,,,,
,,,,,259755,1,2024-07-12_15h40.39.205,experiment,2024.1.5,Win32,120.4819277,6691931c2c63981b064e1f0c,6691b0ba12e7047883534720,,,,,,,,,,,,,,,,,,,,,,,,,,,,,,,,,,,,,,,,,,,,,,,,,,,,,,,,,,,,1261.847,1268.3553,-0.2125,-0.022222222,1.0,0.0,0.0,0.5082,compass,0.0,33.0,33.0,7.0,1.0,SoundStimuli/MackTheKnife_BobbyDarin_Original5S.wav,,,,,,,,,,,,,,,,,,,,,,,,,,,,,,,,,,,,,,,,,,,,,,,,,,,,,
,,,,,259755,1,2024-07-12_15h40.39.205,experiment,2024.1.5,Win32,120.4819277,6691931c2c63981b064e1f0c,6691b0ba12e7047883534720,,,,,,,,,,,,,,,,,,,,,,,,,,,,,,,,,,,,,,,,,,,,,,,,,,,,,,,,,,,,1268.3597,1274.7721,0.316203704,0.316203704,1.0,0.0,0.0,0.4046,compass,0.0,34.0,34.0,3.0,1.0,SoundStimuli/PartyRockAnthem_LMFAO_Cover5S.wav,,,,,,,,,,,,,,,,,,,,,,,,,,,,,,,,,,,,,,,,,,,,,,,,,,,,,
,,,,,259755,1,2024-07-12_15h40.39.205,experiment,2024.1.5,Win32,120.4819277,6691931c2c63981b064e1f0c,6691b0ba12e7047883534720,,,,,,,,,,,,,,,,,,,,,,,,,,,,,,,,,,,,,,,,,,,,,,,,,,,,,,,,,,,,,,,,,,,,,,,,,,,1274.7765,1276.9471,space,2.1583,,1276.9471,1279.1258,right,2.1754,,0.0,2.0,2.0,2.0,1.0,block_order/blockB.xlsx,,,,,,,,,,,,,,,,,,,,,,,,,,,,,,,,,,,,,
,,,,,259755,1,2024-07-12_15h40.39.205,experiment,2024.1.5,Win32,120.4819277,6691931c2c63981b064e1f0c,6691b0ba12e7047883534720,,,,,,,,,,,,,,,,,,,,,,,,,,,,,,,,,,,,,,,,,,,,,,,,,,,,,,,,,,,,1279.1352,1293.384,0.173148148,0.089351852,1.0,0.0,0.0,8.2417,compass,0.0,0.0,0.0,27.0,1.0,SoundStimuli/ShapeofYou_EdSheeran_Cover5S.wav,,,,,,,,,,,,,,,,,,,,,,,,,,,,,,,,,,,,,,,,,,,,,,,,,,,,,
,,,,,259755,1,2024-07-12_15h40.39.205,experiment,2024.1.5,Win32,120.4819277,6691931c2c63981b064e1f0c,6691b0ba12e7047883534720,,,,,,,,,,,,,,,,,,,,,,,,,,,,,,,,,,,,,,,,,,,,,,,,,,,,,,,,,,,,1293.3886,1299.7757,0.219444444,0.148148148,1.0,0.0,0.0,0.3789,compass,0.0,1.0,1.0,32.0,1.0,SoundStimuli/HeatWaves_GlassAnimals_Cover5S.wav,,,,,,,,,,,,,,,,,,,,,,,,,,,,,,,,,,,,,,,,,,,,,,,,,,,,,
,,,,,259755,1,2024-07-12_15h40.39.205,experiment,2024.1.5,Win32,120.4819277,6691931c2c63981b064e1f0c,6691b0ba12e7047883534720,,,,,,,,,,,,,,,,,,,,,,,,,,,,,,,,,,,,,,,,,,,,,,,,,,,,,,,,,,,,1299.7801,1306.0506,0.33287037,0.328240741,1.0,0.0,0.0,0.2668,compass,0.0,2.0,2.0,15.0,1.0,SoundStimuli/TikTok_Kesha_Original5S.wav,,,,,,,,,,,,,,,,,,,,,,,,,,,,,,,,,,,,,,,,,,,,,,,,,,,,,
,,,,,259755,1,2024-07-12_15h40.39.205,experiment,2024.1.5,Win32,120.4819277,6691931c2c63981b064e1f0c,6691b0ba12e7047883534720,,,,,,,,,,,,,,,,,,,,,,,,,,,,,,,,,,,,,,,,,,,,,,,,,,,,,,,,,,,,1306.0551,1312.3171,-0.132407407,0.32962963,1.0,0.0,0.0,0.262,compass,0.0,3.0,3.0,1.0,1.0,SoundStimuli/Stronger_KanyeWest_Cover5S.wav,,,,,,,,,,,,,,,,,,,,,,,,,,,,,,,,,,,,,,,,,,,,,,,,,,,,,
,,,,,259755,1,2024-07-12_15h40.39.205,experiment,2024.1.5,Win32,120.4819277,6691931c2c63981b064e1f0c,6691b0ba12e7047883534720,,,,,,,,,,,,,,,,,,,,,,,,,,,,,,,,,,,,,,,,,,,,,,,,,,,,,,,,,,,,1312.3216,1318.7588,-0.141666667,0.034259259,1.0,0.0,0.0,0.4335,compass,0.0,4.0,4.0,12.0,1.0,SoundStimuli/IWillAlwaysLoveYou_WhitneyHouston_Original5S.wav,,,,,,,,,,,,,,,,,,,,,,,,,,,,,,,,,,,,,,,,,,,,,,,,,,,,,
,,,,,259755,1,2024-07-12_15h40.39.205,experiment,2024.1.5,Win32,120.4819277,6691931c2c63981b064e1f0c,6691b0ba12e7047883534720,,,,,,,,,,,,,,,,,,,,,,,,,,,,,,,,,,,,,,,,,,,,,,,,,,,,,,,,,,,,1318.7633,1325.2214,0.193518519,-0.022222222,1.0,0.0,0.0,0.4544,compass,0.0,5.0,5.0,14.0,1.0,SoundStimuli/BlindingLights_TheWeeknd_Cover5S.wav,,,,,,,,,,,,,,,,,,,,,,,,,,,,,,,,,,,,,,,,,,,,,,,,,,,,,
,,,,,259755,1,2024-07-12_15h40.39.205,experiment,2024.1.5,Win32,120.4819277,6691931c2c63981b064e1f0c,6691b0ba12e7047883534720,,,,,,,,,,,,,,,,,,,,,,,,,,,,,,,,,,,,,,,,,,,,,,,,,,,,,,,,,,,,1325.2261,1331.538,-0.094907407,0.192592593,1.0,0.0,0.0,0.3083,compass,0.0,6.0,6.0,17.0,1.0,SoundStimuli/Fallin_AliciaKeys_Cover5S.wav,,,,,,,,,,,,,,,,,,,,,,,,,,,,,,,,,,,,,,,,,,,,,,,,,,,,,
,,,,,259755,1,2024-07-12_15h40.39.205,experiment,2024.1.5,Win32,120.4819277,6691931c2c63981b064e1f0c,6691b0ba12e7047883534720,,,,,,,,,,,,,,,,,,,,,,,,,,,,,,,,,,,,,,,,,,,,,,,,,,,,,,,,,,,,1331.5425,1340.2545,-0.147222222,-0.01712963,1.0,0.0,0.0,2.7044,compass,0.0,7.0,7.0,34.0,1.0,SoundStimuli/AChangeIsGonnaCome_SamCooke_Original5S.wav,,,,,,,,,,,,,,,,,,,,,,,,,,,,,,,,,,,,,,,,,,,,,,,,,,,,,
,,,,,259755,1,2024-07-12_15h40.39.205,experiment,2024.1.5,Win32,120.4819277,6691931c2c63981b064e1f0c,6691b0ba12e7047883534720,,,,,,,,,,,,,,,,,,,,,,,,,,,,,,,,,,,,,,,,,,,,,,,,,,,,,,,,,,,,1340.2593,1346.5667,0.170833333,0.043055556,1.0,0.0,0.0,0.3038,compass,0.0,8.0,8.0,11.0,1.0,SoundStimuli/Superstition_StevieWonder_Original5S.wav,,,,,,,,,,,,,,,,,,,,,,,,,,,,,,,,,,,,,,,,,,,,,,,,,,,,,
,,,,,259755,1,2024-07-12_15h40.39.205,experiment,2024.1.5,Win32,120.4819277,6691931c2c63981b064e1f0c,6691b0ba12e7047883534720,,,,,,,,,,,,,,,,,,,,,,,,,,,,,,,,,,,,,,,,,,,,,,,,,,,,,,,,,,,,1346.5711,1356.7833,-0.150925926,-0.02037037,1.0,0.0,0.0,4.212,compass,0.0,9.0,9.0,5.0,1.0,SoundStimuli/MyGirl_TheTemptations_Cover5S.wav,,,,,,,,,,,,,,,,,,,,,,,,,,,,,,,,,,,,,,,,,,,,,,,,,,,,,
,,,,,259755,1,2024-07-12_15h40.39.205,experiment,2024.1.5,Win32,120.4819277,6691931c2c63981b064e1f0c,6691b0ba12e7047883534720,,,,,,,,,,,,,,,,,,,,,,,,,,,,,,,,,,,,,,,,,,,,,,,,,,,,,,,,,,,,1356.7878,1363.2044,-0.065740741,0.2,1.0,0.0,0.0,0.4129,compass,0.0,10.0,10.0,16.0,1.0,SoundStimuli/BohemianRhapsody_Queen_Cover5S.wav,,,,,,,,,,,,,,,,,,,,,,,,,,,,,,,,,,,,,,,,,,,,,,,,,,,,,
,,,,,259755,1,2024-07-12_15h40.39.205,experiment,2024.1.5,Win32,120.4819277,6691931c2c63981b064e1f0c,6691b0ba12e7047883534720,,,,,,,,,,,,,,,,,,,,,,,,,,,,,,,,,,,,,,,,,,,,,,,,,,,,,,,,,,,,1363.2088,1370.7832,-0.12037037,0.330555556,1.0,0.0,0.0,1.5705,compass,0.0,11.0,11.0,23.0,1.0,SoundStimuli/StrawberryFieldsForever_TheBeatles_Cover5S.wav,,,,,,,,,,,,,,,,,,,,,,,,,,,,,,,,,,,,,,,,,,,,,,,,,,,,,
,,,,,259755,1,2024-07-12_15h40.39.205,experiment,2024.1.5,Win32,120.4819277,6691931c2c63981b064e1f0c,6691b0ba12e7047883534720,,,,,,,,,,,,,,,,,,,,,,,,,,,,,,,,,,,,,,,,,,,,,,,,,,,,,,,,,,,,1370.7876,1377.6458,-0.085185185,-0.010648148,1.0,0.0,0.0,0.8544,compass,0.0,12.0,12.0,3.0,1.0,SoundStimuli/NoScrubs_TLC_Cover5S.wav,,,,,,,,,,,,,,,,,,,,,,,,,,,,,,,,,,,,,,,,,,,,,,,,,,,,,
,,,,,259755,1,2024-07-12_15h40.39.205,experiment,2024.1.5,Win32,120.4819277,6691931c2c63981b064e1f0c,6691b0ba12e7047883534720,,,,,,,,,,,,,,,,,,,,,,,,,,,,,,,,,,,,,,,,,,,,,,,,,,,,,,,,,,,,1377.6505,1383.7415,0.055092593,0.338888889,1.0,0.0,0.0,0.0834,compass,0.0,13.0,13.0,20.0,1.0,SoundStimuli/HeyYa_Outkast_Original5S.wav,,,,,,,,,,,,,,,,,,,,,,,,,,,,,,,,,,,,,,,,,,,,,,,,,,,,,
,,,,,259755,1,2024-07-12_15h40.39.205,experiment,2024.1.5,Win32,120.4819277,6691931c2c63981b064e1f0c,6691b0ba12e7047883534720,,,,,,,,,,,,,,,,,,,,,,,,,,,,,,,,,,,,,,,,,,,,,,,,,,,,,,,,,,,,1383.746,1392.8707,-0.046296296,0.093981481,1.0,0.0,0.0,3.1166,compass,0.0,14.0,14.0,26.0,1.0,SoundStimuli/LivinOnAPrayer_BonJovi_Original5S.wav,,,,,,,,,,,,,,,,,,,,,,,,,,,,,,,,,,,,,,,,,,,,,,,,,,,,,
,,,,,259755,1,2024-07-12_15h40.39.205,experiment,2024.1.5,Win32,120.4819277,6691931c2c63981b064e1f0c,6691b0ba12e7047883534720,,,,,,,,,,,,,,,,,,,,,,,,,,,,,,,,,,,,,,,,,,,,,,,,,,,,,,,,,,,,1392.8752,1399.2626,-0.339351852,0.338425926,1.0,0.0,0.0,0.3836,compass,0.0,15.0,15.0,25.0,1.0,SoundStimuli/Respect_ArethaFranklin_Cover5S.wav,,,,,,,,,,,,,,,,,,,,,,,,,,,,,,,,,,,,,,,,,,,,,,,,,,,,,
,,,,,259755,1,2024-07-12_15h40.39.205,experiment,2024.1.5,Win32,120.4819277,6691931c2c63981b064e1f0c,6691b0ba12e7047883534720,,,,,,,,,,,,,,,,,,,,,,,,,,,,,,,,,,,,,,,,,,,,,,,,,,,,,,,,,,,,1399.2669,1407.029,-0.009259259,0.34212963,1.0,0.0,0.0,1.7583,compass,0.0,16.0,16.0,30.0,1.0,SoundStimuli/PokerFace_LadyGaga_Cover5S.wav,,,,,,,,,,,,,,,,,,,,,,,,,,,,,,,,,,,,,,,,,,,,,,,,,,,,,
,,,,,259755,1,2024-07-12_15h40.39.205,experiment,2024.1.5,Win32,120.4819277,6691931c2c63981b064e1f0c,6691b0ba12e7047883534720,,,,,,,,,,,,,,,,,,,,,,,,,,,,,,,,,,,,,,,,,,,,,,,,,,,,,,,,,,,,1407.0335,1413.3288,0.169444444,0.204166667,1.0,0.0,0.0,0.2878,compass,0.0,17.0,17.0,2.0,1.0,SoundStimuli/Mood_24kGoldnianndior_Original5S.wav,,,,,,,,,,,,,,,,,,,,,,,,,,,,,,,,,,,,,,,,,,,,,,,,,,,,,
,,,,,259755,1,2024-07-12_15h40.39.205,experiment,2024.1.5,Win32,120.4819277,6691931c2c63981b064e1f0c,6691b0ba12e7047883534720,,,,,,,,,,,,,,,,,,,,,,,,,,,,,,,,,,,,,,,,,,,,,,,,,,,,,,,,,,,,1413.3333,1419.587,0.215740741,0.284722222,1.0,0.0,0.0,0.2461,compass,0.0,18.0,18.0,6.0,1.0,SoundStimuli/Levitating_DuaLipa_Original5S.wav,,,,,,,,,,,,,,,,,,,,,,,,,,,,,,,,,,,,,,,,,,,,,,,,,,,,,
,,,,,259755,1,2024-07-12_15h40.39.205,experiment,2024.1.5,Win32,120.4819277,6691931c2c63981b064e1f0c,6691b0ba12e7047883534720,,,,,,,,,,,,,,,,,,,,,,,,,,,,,,,,,,,,,,,,,,,,,,,,,,,,,,,,,,,,1419.5915,1426.7243,0.172222222,0.168981481,1.0,0.0,0.0,1.125,compass,0.0,19.0,19.0,29.0,1.0,SoundStimuli/OldTownRoad_LilNasX_Cover5S.wav,,,,,,,,,,,,,,,,,,,,,,,,,,,,,,,,,,,,,,,,,,,,,,,,,,,,,
,,,,,259755,1,2024-07-12_15h40.39.205,experiment,2024.1.5,Win32,120.4819277,6691931c2c63981b064e1f0c,6691b0ba12e7047883534720,,,,,,,,,,,,,,,,,,,,,,,,,,,,,,,,,,,,,,,,,,,,,,,,,,,,,,,,,,,,1426.7287,1436.3992,0.01712963,-0.032407407,1.0,0.0,0.0,3.6704,compass,0.0,20.0,20.0,28.0,1.0,SoundStimuli/ComeAndGetYourLove_Redbone_Cover5S.wav,,,,,,,,,,,,,,,,,,,,,,,,,,,,,,,,,,,,,,,,,,,,,,,,,,,,,
,,,,,259755,1,2024-07-12_15h40.39.205,experiment,2024.1.5,Win32,120.4819277,6691931c2c63981b064e1f0c,6691b0ba12e7047883534720,,,,,,,,,,,,,,,,,,,,,,,,,,,,,,,,,,,,,,,,,,,,,,,,,,,,,,,,,,,,1436.4037,1444.1452,0.009259259,-0.016666667,1.0,0.0,0.0,1.7331,compass,0.0,21.0,21.0,0.0,1.0,SoundStimuli/StayinAlive_BeeGees_Cover5S.wav,,,,,,,,,,,,,,,,,,,,,,,,,,,,,,,,,,,,,,,,,,,,,,,,,,,,,
,,,,,259755,1,2024-07-12_15h40.39.205,experiment,2024.1.5,Win32,120.4819277,6691931c2c63981b064e1f0c,6691b0ba12e7047883534720,,,,,,,,,,,,,,,,,,,,,,,,,,,,,,,,,,,,,,,,,,,,,,,,,,,,,,,,,,,,1444.1496,1452.8984,-0.09537037,0.096759259,1.0,0.0,0.0,2.7448,compass,0.0,22.0,22.0,18.0,1.0,SoundStimuli/AnotherOneBitesTheDust_Queen_Cover5S.wav,,,,,,,,,,,,,,,,,,,,,,,,,,,,,,,,,,,,,,,,,,,,,,,,,,,,,
,,,,,259755,1,2024-07-12_15h40.39.205,experiment,2024.1.5,Win32,120.4819277,6691931c2c63981b064e1f0c,6691b0ba12e7047883534720,,,,,,,,,,,,,,,,,,,,,,,,,,,,,,,,,,,,,,,,,,,,,,,,,,,,,,,,,,,,1452.9029,1459.4741,0.050925926,-0.024074074,1.0,0.0,0.0,0.5666,compass,0.0,23.0,23.0,22.0,1.0,SoundStimuli/RockWithYou_MichaelJackson_Cover5S.wav,,,,,,,,,,,,,,,,,,,,,,,,,,,,,,,,,,,,,,,,,,,,,,,,,,,,,
,,,,,259755,1,2024-07-12_15h40.39.205,experiment,2024.1.5,Win32,120.4819277,6691931c2c63981b064e1f0c,6691b0ba12e7047883534720,,,,,,,,,,,,,,,,,,,,,,,,,,,,,,,,,,,,,,,,,,,,,,,,,,,,,,,,,,,,1459.4786,1465.8815,-0.105555556,-0.021296296,1.0,0.0,0.0,0.3994,compass,0.0,24.0,24.0,8.0,1.0,SoundStimuli/LikeAPrayer_Madonna_Cover5S.wav,,,,,,,,,,,,,,,,,,,,,,,,,,,,,,,,,,,,,,,,,,,,,,,,,,,,,
,,,,,259755,1,2024-07-12_15h40.39.205,experiment,2024.1.5,Win32,120.4819277,6691931c2c63981b064e1f0c,6691b0ba12e7047883534720,,,,,,,,,,,,,,,,,,,,,,,,,,,,,,,,,,,,,,,,,,,,,,,,,,,,,,,,,,,,1465.8859,1472.22,0.17037037,0.171759259,1.0,0.0,0.0,0.3333,compass,0.0,25.0,25.0,24.0,1.0,SoundStimuli/UptownFunk_MarkRonson_Cover5S.wav,,,,,,,,,,,,,,,,,,,,,,,,,,,,,,,,,,,,,,,,,,,,,,,,,,,,,
,,,,,259755,1,2024-07-12_15h40.39.205,experiment,2024.1.5,Win32,120.4819277,6691931c2c63981b064e1f0c,6691b0ba12e7047883534720,,,,,,,,,,,,,,,,,,,,,,,,,,,,,,,,,,,,,,,,,,,,,,,,,,,,,,,,,,,,1472.2243,1479.1154,0.025,0.051851852,1.0,0.0,0.0,0.8834,compass,0.0,26.0,26.0,4.0,1.0,SoundStimuli/GetUrFreakOn_MissyElliot_Cover5S.wav,,,,,,,,,,,,,,,,,,,,,,,,,,,,,,,,,,,,,,,,,,,,,,,,,,,,,
,,,,,259755,1,2024-07-12_15h40.39.205,experiment,2024.1.5,Win32,120.4819277,6691931c2c63981b064e1f0c,6691b0ba12e7047883534720,,,,,,,,,,,,,,,,,,,,,,,,,,,,,,,,,,,,,,,,,,,,,,,,,,,,,,,,,,,,1479.1198,1486.0865,0.178240741,0.207407407,1.0,0.0,0.0,0.9664,compass,0.0,27.0,27.0,31.0,1.0,SoundStimuli/TheBattleOfNewOrleans_JohnnyHorton_Original5S.wav,,,,,,,,,,,,,,,,,,,,,,,,,,,,,,,,,,,,,,,,,,,,,,,,,,,,,
,,,,,259755,1,2024-07-12_15h40.39.205,experiment,2024.1.5,Win32,120.4819277,6691931c2c63981b064e1f0c,6691b0ba12e7047883534720,,,,,,,,,,,,,,,,,,,,,,,,,,,,,,,,,,,,,,,,,,,,,,,,,,,,,,,,,,,,1486.0908,1492.4485,-0.176851852,0.158333333,1.0,0.0,0.0,0.3501,compass,0.0,28.0,28.0,7.0,1.0,SoundStimuli/NoOne_AliciaKeys_Original5S.wav,,,,,,,,,,,,,,,,,,,,,,,,,,,,,,,,,,,,,,,,,,,,,,,,,,,,,
,,,,,259755,1,2024-07-12_15h40.39.205,experiment,2024.1.5,Win32,120.4819277,6691931c2c63981b064e1f0c,6691b0ba12e7047883534720,,,,,,,,,,,,,,,,,,,,,,,,,,,,,,,,,,,,,,,,,,,,,,,,,,,,,,,,,,,,1492.4529,1498.9734,-0.077777778,-0.024537037,1.0,0.0,0.0,0.5167,compass,0.0,29.0,29.0,13.0,1.0,SoundStimuli/GodOnlyKnows_TheBeachBoys_Original5S.wav,,,,,,,,,,,,,,,,,,,,,,,,,,,,,,,,,,,,,,,,,,,,,,,,,,,,,
,,,,,259755,1,2024-07-12_15h40.39.205,experiment,2024.1.5,Win32,120.4819277,6691931c2c63981b064e1f0c,6691b0ba12e7047883534720,,,,,,,,,,,,,,,,,,,,,,,,,,,,,,,,,,,,,,,,,,,,,,,,,,,,,,,,,,,,1498.9779,1505.6819,0.215740741,0.258796296,1.0,0.0,0.0,0.7001,compass,0.0,30.0,30.0,9.0,1.0,SoundStimuli/Despacito_LuisFonsiDaddyYankee_Original5S.wav,,,,,,,,,,,,,,,,,,,,,,,,,,,,,,,,,,,,,,,,,,,,,,,,,,,,,
,,,,,259755,1,2024-07-12_15h40.39.205,experiment,2024.1.5,Win32,120.4819277,6691931c2c63981b064e1f0c,6691b0ba12e7047883534720,,,,,,,,,,,,,,,,,,,,,,,,,,,,,,,,,,,,,,,,,,,,,,,,,,,,,,,,,,,,1505.6867,1512.6281,0.156481481,-0.027314815,1.0,0.0,0.0,0.9334,compass,0.0,31.0,31.0,19.0,1.0,SoundStimuli/LetsGetItOn_MarvinGaye_Original5S.wav,,,,,,,,,,,,,,,,,,,,,,,,,,,,,,,,,,,,,,,,,,,,,,,,,,,,,
,,,,,259755,1,2024-07-12_15h40.39.205,experiment,2024.1.5,Win32,120.4819277,6691931c2c63981b064e1f0c,6691b0ba12e7047883534720,,,,,,,,,,,,,,,,,,,,,,,,,,,,,,,,,,,,,,,,,,,,,,,,,,,,,,,,,,,,1512.6324,1518.9612,-0.031944444,-0.013425926,1.0,0.0,0.0,0.325,compass,0.0,32.0,32.0,33.0,1.0,SoundStimuli/StandByMe_BenEKing_Original5S.wav,,,,,,,,,,,,,,,,,,,,,,,,,,,,,,,,,,,,,,,,,,,,,,,,,,,,,
,,,,,259755,1,2024-07-12_15h40.39.205,experiment,2024.1.5,Win32,120.4819277,6691931c2c63981b064e1f0c,6691b0ba12e7047883534720,,,,,,,,,,,,,,,,,,,,,,,,,,,,,,,,,,,,,,,,,,,,,,,,,,,,,,,,,,,,1518.9656,1527.49,-0.171296296,-0.01712963,1.0,0.0,0.0,2.5166,compass,0.0,33.0,33.0,10.0,1.0,SoundStimuli/BadDay_DanielPowter_Original5S.wav,,,,,,,,,,,,,,,,,,,,,,,,,,,,,,,,,,,,,,,,,,,,,,,,,,,,,
,,,,,259755,1,2024-07-12_15h40.39.205,experiment,2024.1.5,Win32,120.4819277,6691931c2c63981b064e1f0c,6691b0ba12e7047883534720,,,,,,,,,,,,,,,,,,,,,,,,,,,,,,,,,,,,,,,,,,,,,,,,,,,,,,,,,,,,1527.4946,1534.9776,0.169444444,0.115740741,1.0,0.0,0.0,1.4749,compass,0.0,34.0,34.0,21.0,1.0,SoundStimuli/GoodGollyMissMolly_LittleRichard_Original5S.wav,,,,,,,,,,,,,,,,,,,,,,,,,,,,,,,,,,,,,,,,,,,,,,,,,,,,,
,,,,,259755,1,2024-07-12_15h40.39.205,experiment,2024.1.5,Win32,120.4819277,6691931c2c63981b064e1f0c,6691b0ba12e7047883534720,,,,,,,,,,,,,,,,,,,,,,,,,,,,,,,,,,,,,,,,,,,,,,,,,,,,,,,,,,,,,,,,,,,,,,,,,,,1534.9819,1534.9819,,,,1534.982,1534.982,,,,0.0,3.0,3.0,3.0,1.0,block_order/blockC.xlsx,,,,,,,,,,,,,,,,,,,,,,,,,,,,,,,,,,,,,
,,,,,259755,1,2024-07-12_15h40.39.205,experiment,2024.1.5,Win32,120.4819277,6691931c2c63981b064e1f0c,6691b0ba12e7047883534720,,,,,,,,,,,,,,,,,,,,,,,,,,,,,,,,,,,,,,,,,,,,,,,,,,,,,,,,,,,,,,,,,,,,,,,,,,,,,,,,,,,,,,,,,,,31.0,Item 3,I used to play in a garage band with my brother back in high school 15-18. I can play a cupule songs on guitar15-18. What I'm really good at is baking beats on the computer 18-31. ,Item 4,Spotify and YouTube,4.0,7.0,"driving, exercising, working around the house, when I'm in the shower",Never,Always,Rarely,Never,Never,Rarely,Rarely,Often,Often,Never,Never,Often,Rarely,Sometimes,Never,Never,none,Alternative rock,Classic rock,R&B,I used to only listen to hip hop and rap when I was younger. Now I listen to strictly Alternative rock.,I listen to music to feel. It gives me the strength to push on when I'm feeling down. I cant explain it but I have to band I listen to every day and they are all I need the rest of my life. The message they bring gives me hope and power to push forward. ,0.0,0.0,0.0,0.0,1.0,,
,,,,,259755,1,2024-07-12_15h40.39.205,experiment,2024.1.5,Win32,120.4819277,6691931c2c63981b064e1f0c,6691b0ba12e7047883534720,,,,,,,,,,,,,,,,,,,,,,,,,,,,,,,,,,,,,,,,,,,,,,,,,,,,,,,,,,,,,,,,,,,,,,,,,,,,,,,,,,,,,,,,,,,,,,,,,,,,,,,,,,,,,,,,,,,,,,,,,,,,,,2134.9549,2137.1803
