welcome.started,welcome.stopped,space_to_continue.keys,space_to_continue.rt,space_to_continue.duration,participant,session,date,expName,psychopyVersion,OS,frameRate,STUDY_ID,SESSION_ID,consent.consent,consent.consent_recontact,consent_check.started,consent_check.stopped,calibration_ready.started,calibration_ready.stopped,cal_ready.keys,cal_ready.rt,cal_ready.duration,calibration.started,calibration.stopped,mouse.x,mouse.y,mouse.leftButton,mouse.midButton,mouse.rightButton,mouse.time,mouse.clicked_name,move_on.keys,move_on.rt,move_on.duration,run_cal.thisRepN,run_cal.thisTrialN,run_cal.thisN,run_cal.thisIndex,run_cal.ran,emotion_training_ready.started,emotion_training_ready.stopped,training_move_on.keys,training_move_on.rt,training_move_on.duration,examples.started,examples.stopped,emotion_scale.started,emotion_scale.stopped,scale_next.keys,scale_next.rt,scale_next.duration,instructions.started,instructions.stopped,next.keys,next.rt,next.duration,practice_task.started,practice_task.stopped,mouse_rating_2.x,mouse_rating_2.y,mouse_rating_2.leftButton,mouse_rating_2.midButton,mouse_rating_2.rightButton,mouse_rating_2.time,mouse_rating_2.clicked_name,ready.started,ready.stopped,key_resp.keys,key_resp.rt,key_resp.duration,set_group.started,set_group.stopped,task.started,task.stopped,mouse_rating.x,mouse_rating.y,mouse_rating.leftButton,mouse_rating.midButton,mouse_rating.rightButton,mouse_rating.time,mouse_rating.clicked_name,trials.thisRepN,trials.thisTrialN,trials.thisN,trials.thisIndex,trials.ran,clip,short_break.started,short_break.stopped,space_to_move_on.keys,space_to_move_on.rt,space_to_move_on.duration,instruction_reminder.started,instruction_reminder.stopped,reminder_move_on.keys,reminder_move_on.rt,reminder_move_on.duration,blocks.thisRepN,blocks.thisTrialN,blocks.thisN,blocks.thisIndex,blocks.ran,block,post_survey.age,post_survey.musician,post_survey.music_making,post_survey.listen_time,post_survey.medium,post_survey.music_seeking,post_survey.music_choice,post_survey.activities,post_survey.question1.Reggae,post_survey.question1.Latin,post_survey.question1.Folk/indie,post_survey.question1.Metal,post_survey.question1.R&B,post_survey.question1.A cappella,post_survey.question1.Country,post_survey.question1.Pop,post_survey.question1.Classical,post_survey.question1.Classic rock,post_survey.question1.Hip hop,post_survey.question1.Ambient,post_survey.question1.Electronic (EDM),post_survey.question1.Alternative rock,post_survey.question1.Disco,post_survey.question1.Jazz,post_survey.other_genres,post_survey.genres_ranked.text1,post_survey.genres_ranked.text2,post_survey.genres_ranked.text3,post_survey.habit_change,show_exp.thisRepN,show_exp.thisTrialN,show_exp.thisN,show_exp.thisIndex,show_exp.ran,goodbye.started,goodbye.stopped
0.0,1.885,space,1.865,,298291,1,2024-07-12_17h55.55.347,experiment,2024.1.5,MacIntel,58.82352941,6691931c2c63981b064e1f0c,6691b4497139d7c78eb0fe0a,,,,,,,,,,,,,,,,,,,,,,,,,,,,,,,,,,,,,,,,,,,,,,,,,,,,,,,,,,,,,,,,,,,,,,,,,,,,,,,,,,,,,,,,,,,,,,,,,,,,,,,,,,,,,,,,,,,,,,,,,,,,,,
,,,,,298291,1,2024-07-12_17h55.55.347,experiment,2024.1.5,MacIntel,58.82352941,6691931c2c63981b064e1f0c,6691b4497139d7c78eb0fe0a,yes,no,,,,,,,,,,,,,,,,,,,,,,,,,,,,,,,,,,,,,,,,,,,,,,,,,,,,,,,,,,,,,,,,,,,,,,,,,,,,,,,,,,,,,,,,,,,,,,,,,,,,,,,,,,,,,,,,,,,,,,,,,,,,
,,,,,298291,1,2024-07-12_17h55.55.347,experiment,2024.1.5,MacIntel,58.82352941,6691931c2c63981b064e1f0c,6691b4497139d7c78eb0fe0a,,,93.644,93.644,,,,,,,,,,,,,,,,,,,,,,,,,,,,,,,,,,,,,,,,,,,,,,,,,,,,,,,,,,,,,,,,,,,,,,,,,,,,,,,,,,,,,,,,,,,,,,,,,,,,,,,,,,,,,,,,,,,,,,,,,,
,,,,,298291,1,2024-07-12_17h55.55.347,experiment,2024.1.5,MacIntel,58.82352941,6691931c2c63981b064e1f0c,6691b4497139d7c78eb0fe0a,,,,,93.65,99.445,space,5.778,,99.447,123.378,[-0.006666666666666667],[-0.4211111111111111],[1],[0],[0],[5.516999999999996],"[""play_button""]",y,22.896,,0.0,0.0,0.0,0.0,1.0,,,,,,,,,,,,,,,,,,,,,,,,,,,,,,,,,,,,,,,,,,,,,,,,,,,,,,,,,,,,,,,,,,,,,,,,,,,,,,,,,,,,,,,,,,,,,,,,,,,,
,,,,,298291,1,2024-07-12_17h55.55.347,experiment,2024.1.5,MacIntel,58.82352941,6691931c2c63981b064e1f0c,6691b4497139d7c78eb0fe0a,,,,,,,,,,,,,,,,,,,,,,,,,,,123.378,215.431,space,92.018,,215.432,335.448,335.449,407.897,right,68.918,,407.898,427.38,space,19.457,,427.38,438.146,0.195555556,-0.227777778,1.0,0.0,0.0,4.751,compass_2,438.147,440.747,space,2.583,,440.748,440.748,440.769,447.113,0.082222222,0.115555556,1.0,0.0,0.0,0.334,compass,0.0,0.0,0.0,0.0,1.0,SoundStimuli/GimmeShelter_RollingStones_Cover5S.wav,,,,,,,,,,,,,,,,,,,,,,,,,,,,,,,,,,,,,,,,,,,,,,,,,,,,
,,,,,298291,1,2024-07-12_17h55.55.347,experiment,2024.1.5,MacIntel,58.82352941,6691931c2c63981b064e1f0c,6691b4497139d7c78eb0fe0a,,,,,,,,,,,,,,,,,,,,,,,,,,,,,,,,,,,,,,,,,,,,,,,,,,,,,,,,,,,,447.113,453.464,0.121111111,-0.128888889,1.0,0.0,0.0,0.349,compass,0.0,1.0,1.0,28.0,1.0,SoundStimuli/IWantToHoldYourHand_TheBeatles_Cover5S.wav,,,,,,,,,,,,,,,,,,,,,,,,,,,,,,,,,,,,,,,,,,,,,,,,,,,,
,,,,,298291,1,2024-07-12_17h55.55.347,experiment,2024.1.5,MacIntel,58.82352941,6691931c2c63981b064e1f0c,6691b4497139d7c78eb0fe0a,,,,,,,,,,,,,,,,,,,,,,,,,,,,,,,,,,,,,,,,,,,,,,,,,,,,,,,,,,,,453.464,459.597,0.147777778,0.13,1.0,0.0,0.0,0.117,compass,0.0,2.0,2.0,24.0,1.0,SoundStimuli/Kiss_Prince_Original5S.wav,,,,,,,,,,,,,,,,,,,,,,,,,,,,,,,,,,,,,,,,,,,,,,,,,,,,
,,,,,298291,1,2024-07-12_17h55.55.347,experiment,2024.1.5,MacIntel,58.82352941,6691931c2c63981b064e1f0c,6691b4497139d7c78eb0fe0a,,,,,,,,,,,,,,,,,,,,,,,,,,,,,,,,,,,,,,,,,,,,,,,,,,,,,,,,,,,,459.597,465.78,0.147777778,0.13,1.0,0.0,0.0,0.168,compass,0.0,3.0,3.0,20.0,1.0,SoundStimuli/FlashdanceWhatAFeeling_IreneCara_Cover5S.wav,,,,,,,,,,,,,,,,,,,,,,,,,,,,,,,,,,,,,,,,,,,,,,,,,,,,
,,,,,298291,1,2024-07-12_17h55.55.347,experiment,2024.1.5,MacIntel,58.82352941,6691931c2c63981b064e1f0c,6691b4497139d7c78eb0fe0a,,,,,,,,,,,,,,,,,,,,,,,,,,,,,,,,,,,,,,,,,,,,,,,,,,,,,,,,,,,,465.781,482.347,-0.122222222,-0.133333333,1.0,0.0,0.0,10.551,compass,0.0,4.0,4.0,17.0,1.0,SoundStimuli/IWannaDanceWithSomebody_WhitneyHouston_Cover5S.wav,,,,,,,,,,,,,,,,,,,,,,,,,,,,,,,,,,,,,,,,,,,,,,,,,,,,
,,,,,298291,1,2024-07-12_17h55.55.347,experiment,2024.1.5,MacIntel,58.82352941,6691931c2c63981b064e1f0c,6691b4497139d7c78eb0fe0a,,,,,,,,,,,,,,,,,,,,,,,,,,,,,,,,,,,,,,,,,,,,,,,,,,,,,,,,,,,,482.348,494.365,-0.123333333,-0.16,1.0,0.0,0.0,6.001,compass,0.0,5.0,5.0,9.0,1.0,SoundStimuli/HowDoILive_LeAnnRimes_Original5S.wav,,,,,,,,,,,,,,,,,,,,,,,,,,,,,,,,,,,,,,,,,,,,,,,,,,,,
,,,,,298291,1,2024-07-12_17h55.55.347,experiment,2024.1.5,MacIntel,58.82352941,6691931c2c63981b064e1f0c,6691b4497139d7c78eb0fe0a,,,,,,,,,,,,,,,,,,,,,,,,,,,,,,,,,,,,,,,,,,,,,,,,,,,,,,,,,,,,494.365,505.098,-0.122222222,-0.281111111,1.0,0.0,0.0,4.717,compass,0.0,6.0,6.0,19.0,1.0,SoundStimuli/YouLightUpMyLife_DebbyBoone_Cover5S.wav,,,,,,,,,,,,,,,,,,,,,,,,,,,,,,,,,,,,,,,,,,,,,,,,,,,,
,,,,,298291,1,2024-07-12_17h55.55.347,experiment,2024.1.5,MacIntel,58.82352941,6691931c2c63981b064e1f0c,6691b4497139d7c78eb0fe0a,,,,,,,,,,,,,,,,,,,,,,,,,,,,,,,,,,,,,,,,,,,,,,,,,,,,,,,,,,,,505.099,519.748,0.207777778,0.103333333,1.0,0.0,0.0,8.634,compass,0.0,7.0,7.0,33.0,1.0,SoundStimuli/TheBoyIsMine_BrandyMonica_Cover5S.wav,,,,,,,,,,,,,,,,,,,,,,,,,,,,,,,,,,,,,,,,,,,,,,,,,,,,
,,,,,298291,1,2024-07-12_17h55.55.347,experiment,2024.1.5,MacIntel,58.82352941,6691931c2c63981b064e1f0c,6691b4497139d7c78eb0fe0a,,,,,,,,,,,,,,,,,,,,,,,,,,,,,,,,,,,,,,,,,,,,,,,,,,,,,,,,,,,,519.748,528.948,-0.116666667,0.092222222,1.0,0.0,0.0,3.184,compass,0.0,8.0,8.0,6.0,1.0,SoundStimuli/SaveYourTears_TheWeekndArianaGrande_Original5S.wav,,,,,,,,,,,,,,,,,,,,,,,,,,,,,,,,,,,,,,,,,,,,,,,,,,,,
,,,,,298291,1,2024-07-12_17h55.55.347,experiment,2024.1.5,MacIntel,58.82352941,6691931c2c63981b064e1f0c,6691b4497139d7c78eb0fe0a,,,,,,,,,,,,,,,,,,,,,,,,,,,,,,,,,,,,,,,,,,,,,,,,,,,,,,,,,,,,528.949,534.997,0.19,0.194444444,1.0,0.0,0.0,0.034,compass,0.0,9.0,9.0,15.0,1.0,SoundStimuli/CrazyInLove_BeyonceFtJayZ_Original5S.wav,,,,,,,,,,,,,,,,,,,,,,,,,,,,,,,,,,,,,,,,,,,,,,,,,,,,
,,,,,298291,1,2024-07-12_17h55.55.347,experiment,2024.1.5,MacIntel,58.82352941,6691931c2c63981b064e1f0c,6691b4497139d7c78eb0fe0a,,,,,,,,,,,,,,,,,,,,,,,,,,,,,,,,,,,,,,,,,,,,,,,,,,,,,,,,,,,,534.997,541.098,-0.16,-0.156666667,1.0,0.0,0.0,0.084,compass,0.0,10.0,10.0,7.0,1.0,SoundStimuli/MackTheKnife_BobbyDarin_Original5S.wav,,,,,,,,,,,,,,,,,,,,,,,,,,,,,,,,,,,,,,,,,,,,,,,,,,,,
,,,,,298291,1,2024-07-12_17h55.55.347,experiment,2024.1.5,MacIntel,58.82352941,6691931c2c63981b064e1f0c,6691b4497139d7c78eb0fe0a,,,,,,,,,,,,,,,,,,,,,,,,,,,,,,,,,,,,,,,,,,,,,,,,,,,,,,,,,,,,541.098,548.331,0.093333333,-0.2,1.0,0.0,0.0,1.217,compass,0.0,11.0,11.0,18.0,1.0,SoundStimuli/Weak_SWV_Original5S.wav,,,,,,,,,,,,,,,,,,,,,,,,,,,,,,,,,,,,,,,,,,,,,,,,,,,,
,,,,,298291,1,2024-07-12_17h55.55.347,experiment,2024.1.5,MacIntel,58.82352941,6691931c2c63981b064e1f0c,6691b4497139d7c78eb0fe0a,,,,,,,,,,,,,,,,,,,,,,,,,,,,,,,,,,,,,,,,,,,,,,,,,,,,,,,,,,,,548.331,557.614,-0.081111111,0.024444444,1.0,0.0,0.0,3.267,compass,0.0,12.0,12.0,5.0,1.0,SoundStimuli/JoyToTheWorld_ThreeDogNight_Cover5S.wav,,,,,,,,,,,,,,,,,,,,,,,,,,,,,,,,,,,,,,,,,,,,,,,,,,,,
,,,,,298291,1,2024-07-12_17h55.55.347,experiment,2024.1.5,MacIntel,58.82352941,6691931c2c63981b064e1f0c,6691b4497139d7c78eb0fe0a,,,,,,,,,,,,,,,,,,,,,,,,,,,,,,,,,,,,,,,,,,,,,,,,,,,,,,,,,,,,557.615,570.682,-0.158888889,-0.148888889,1.0,0.0,0.0,7.052,compass,0.0,13.0,13.0,30.0,1.0,SoundStimuli/SomebodyThatIUsedtoKnow_Gotye_Cover5S.wav,,,,,,,,,,,,,,,,,,,,,,,,,,,,,,,,,,,,,,,,,,,,,,,,,,,,
,,,,,298291,1,2024-07-12_17h55.55.347,experiment,2024.1.5,MacIntel,58.82352941,6691931c2c63981b064e1f0c,6691b4497139d7c78eb0fe0a,,,,,,,,,,,,,,,,,,,,,,,,,,,,,,,,,,,,,,,,,,,,,,,,,,,,,,,,,,,,570.682,581.013,0.123333333,-0.071111111,1.0,0.0,0.0,4.317,compass,0.0,14.0,14.0,23.0,1.0,SoundStimuli/IWalkTheLine_JohnnyCash_Cover5S.wav,,,,,,,,,,,,,,,,,,,,,,,,,,,,,,,,,,,,,,,,,,,,,,,,,,,,
,,,,,298291,1,2024-07-12_17h55.55.347,experiment,2024.1.5,MacIntel,58.82352941,6691931c2c63981b064e1f0c,6691b4497139d7c78eb0fe0a,,,,,,,,,,,,,,,,,,,,,,,,,,,,,,,,,,,,,,,,,,,,,,,,,,,,,,,,,,,,581.014,596.148,0.073333333,0.084444444,1.0,0.0,0.0,9.117,compass,0.0,15.0,15.0,3.0,1.0,SoundStimuli/PartyRockAnthem_LMFAO_Cover5S.wav,,,,,,,,,,,,,,,,,,,,,,,,,,,,,,,,,,,,,,,,,,,,,,,,,,,,
,,,,,298291,1,2024-07-12_17h55.55.347,experiment,2024.1.5,MacIntel,58.82352941,6691931c2c63981b064e1f0c,6691b4497139d7c78eb0fe0a,,,,,,,,,,,,,,,,,,,,,,,,,,,,,,,,,,,,,,,,,,,,,,,,,,,,,,,,,,,,596.149,602.432,-0.161111111,0.028888889,1.0,0.0,0.0,0.268,compass,0.0,16.0,16.0,12.0,1.0,SoundStimuli/UnbreakMyHeart_ToniBraxton_Cover5S.wav,,,,,,,,,,,,,,,,,,,,,,,,,,,,,,,,,,,,,,,,,,,,,,,,,,,,
,,,,,298291,1,2024-07-12_17h55.55.347,experiment,2024.1.5,MacIntel,58.82352941,6691931c2c63981b064e1f0c,6691b4497139d7c78eb0fe0a,,,,,,,,,,,,,,,,,,,,,,,,,,,,,,,,,,,,,,,,,,,,,,,,,,,,,,,,,,,,602.433,610.764,-0.153333333,0.046666667,1.0,0.0,0.0,2.317,compass,0.0,17.0,17.0,4.0,1.0,SoundStimuli/Dreams_FleetwoodMac_Cover5S.wav,,,,,,,,,,,,,,,,,,,,,,,,,,,,,,,,,,,,,,,,,,,,,,,,,,,,
,,,,,298291,1,2024-07-12_17h55.55.347,experiment,2024.1.5,MacIntel,58.82352941,6691931c2c63981b064e1f0c,6691b4497139d7c78eb0fe0a,,,,,,,,,,,,,,,,,,,,,,,,,,,,,,,,,,,,,,,,,,,,,,,,,,,,,,,,,,,,610.764,617.248,0.191111111,0.138888889,1.0,0.0,0.0,0.484,compass,0.0,18.0,18.0,11.0,1.0,SoundStimuli/BlurredLines_RobinThicke_Original5S.wav,,,,,,,,,,,,,,,,,,,,,,,,,,,,,,,,,,,,,,,,,,,,,,,,,,,,
,,,,,298291,1,2024-07-12_17h55.55.347,experiment,2024.1.5,MacIntel,58.82352941,6691931c2c63981b064e1f0c,6691b4497139d7c78eb0fe0a,,,,,,,,,,,,,,,,,,,,,,,,,,,,,,,,,,,,,,,,,,,,,,,,,,,,,,,,,,,,617.249,630.998,-0.064444444,-0.188888889,1.0,0.0,0.0,7.733,compass,0.0,19.0,19.0,8.0,1.0,SoundStimuli/EndlessLove_DianaRossLionelRichie_Original5S.wav,,,,,,,,,,,,,,,,,,,,,,,,,,,,,,,,,,,,,,,,,,,,,,,,,,,,
,,,,,298291,1,2024-07-12_17h55.55.347,experiment,2024.1.5,MacIntel,58.82352941,6691931c2c63981b064e1f0c,6691b4497139d7c78eb0fe0a,,,,,,,,,,,,,,,,,,,,,,,,,,,,,,,,,,,,,,,,,,,,,,,,,,,,,,,,,,,,630.998,637.947,-0.135555556,-0.177777778,1.0,0.0,0.0,0.933,compass,0.0,20.0,20.0,29.0,1.0,SoundStimuli/BetteDavisEyes_KimCarnes_Cover5S.wav,,,,,,,,,,,,,,,,,,,,,,,,,,,,,,,,,,,,,,,,,,,,,,,,,,,,
,,,,,298291,1,2024-07-12_17h55.55.347,experiment,2024.1.5,MacIntel,58.82352941,6691931c2c63981b064e1f0c,6691b4497139d7c78eb0fe0a,,,,,,,,,,,,,,,,,,,,,,,,,,,,,,,,,,,,,,,,,,,,,,,,,,,,,,,,,,,,637.947,654.897,0.1,-0.175555556,1.0,0.0,0.0,10.949,compass,0.0,21.0,21.0,22.0,1.0,SoundStimuli/Happy_PharellWilliams_Cover5S.wav,,,,,,,,,,,,,,,,,,,,,,,,,,,,,,,,,,,,,,,,,,,,,,,,,,,,
,,,,,298291,1,2024-07-12_17h55.55.347,experiment,2024.1.5,MacIntel,58.82352941,6691931c2c63981b064e1f0c,6691b4497139d7c78eb0fe0a,,,,,,,,,,,,,,,,,,,,,,,,,,,,,,,,,,,,,,,,,,,,,,,,,,,,,,,,,,,,654.897,662.064,-0.2,-0.22,1.0,0.0,0.0,1.166,compass,0.0,22.0,22.0,16.0,1.0,SoundStimuli/ItsAllInTheGame_TommyEdwards_Original5S.wav,,,,,,,,,,,,,,,,,,,,,,,,,,,,,,,,,,,,,,,,,,,,,,,,,,,,
,,,,,298291,1,2024-07-12_17h55.55.347,experiment,2024.1.5,MacIntel,58.82352941,6691931c2c63981b064e1f0c,6691b4497139d7c78eb0fe0a,,,,,,,,,,,,,,,,,,,,,,,,,,,,,,,,,,,,,,,,,,,,,,,,,,,,,,,,,,,,662.064,671.332,0.192222222,-0.145555556,1.0,0.0,0.0,3.266,compass,0.0,23.0,23.0,21.0,1.0,SoundStimuli/BridgeOverTroubledWater_SimonAndGarfunkel_Cover5S.wav,,,,,,,,,,,,,,,,,,,,,,,,,,,,,,,,,,,,,,,,,,,,,,,,,,,,
,,,,,298291,1,2024-07-12_17h55.55.347,experiment,2024.1.5,MacIntel,58.82352941,6691931c2c63981b064e1f0c,6691b4497139d7c78eb0fe0a,,,,,,,,,,,,,,,,,,,,,,,,,,,,,,,,,,,,,,,,,,,,,,,,,,,,,,,,,,,,671.332,685.131,0.132222222,-0.108888889,1.0,0.0,0.0,7.783,compass,0.0,24.0,24.0,13.0,1.0,SoundStimuli/Perfect_EdSheeran_Original5S.wav,,,,,,,,,,,,,,,,,,,,,,,,,,,,,,,,,,,,,,,,,,,,,,,,,,,,
,,,,,298291,1,2024-07-12_17h55.55.347,experiment,2024.1.5,MacIntel,58.82352941,6691931c2c63981b064e1f0c,6691b4497139d7c78eb0fe0a,,,,,,,,,,,,,,,,,,,,,,,,,,,,,,,,,,,,,,,,,,,,,,,,,,,,,,,,,,,,685.132,708.681,0.132222222,-0.108888889,1.0,0.0,0.0,17.533,compass,0.0,25.0,25.0,14.0,1.0,SoundStimuli/LikeARollingStone_BobDylan_Cover5S.wav,,,,,,,,,,,,,,,,,,,,,,,,,,,,,,,,,,,,,,,,,,,,,,,,,,,,
,,,,,298291,1,2024-07-12_17h55.55.347,experiment,2024.1.5,MacIntel,58.82352941,6691931c2c63981b064e1f0c,6691b4497139d7c78eb0fe0a,,,,,,,,,,,,,,,,,,,,,,,,,,,,,,,,,,,,,,,,,,,,,,,,,,,,,,,,,,,,708.681,714.981,-0.236666667,-0.087777778,1.0,0.0,0.0,0.299,compass,0.0,26.0,26.0,34.0,1.0,SoundStimuli/Irreplaceable_Beyonce_Original5S.wav,,,,,,,,,,,,,,,,,,,,,,,,,,,,,,,,,,,,,,,,,,,,,,,,,,,,
,,,,,298291,1,2024-07-12_17h55.55.347,experiment,2024.1.5,MacIntel,58.82352941,6691931c2c63981b064e1f0c,6691b4497139d7c78eb0fe0a,,,,,,,,,,,,,,,,,,,,,,,,,,,,,,,,,,,,,,,,,,,,,,,,,,,,,,,,,,,,714.981,738.698,-0.270731707,-0.020731707,1.0,0.0,0.0,17.716,compass,0.0,27.0,27.0,31.0,1.0,SoundStimuli/TossinAndTurnin_BobbyLewis_Cover5S.wav,,,,,,,,,,,,,,,,,,,,,,,,,,,,,,,,,,,,,,,,,,,,,,,,,,,,
,,,,,298291,1,2024-07-12_17h55.55.347,experiment,2024.1.5,MacIntel,58.82352941,6691931c2c63981b064e1f0c,6691b4497139d7c78eb0fe0a,,,,,,,,,,,,,,,,,,,,,,,,,,,,,,,,,,,,,,,,,,,,,,,,,,,,,,,,,,,,738.699,752.948,-0.220731707,0.131707317,1.0,0.0,0.0,8.233,compass,0.0,28.0,28.0,2.0,1.0,SoundStimuli/SmellsLikeTeenSpirit_Nirvana_Cover5S.wav,,,,,,,,,,,,,,,,,,,,,,,,,,,,,,,,,,,,,,,,,,,,,,,,,,,,
,,,,,298291,1,2024-07-12_17h55.55.347,experiment,2024.1.5,MacIntel,58.82352941,6691931c2c63981b064e1f0c,6691b4497139d7c78eb0fe0a,,,,,,,,,,,,,,,,,,,,,,,,,,,,,,,,,,,,,,,,,,,,,,,,,,,,,,,,,,,,752.949,759.715,0.268292683,0.104878049,1.0,0.0,0.0,0.746,compass,0.0,29.0,29.0,10.0,1.0,SoundStimuli/LeFreak_Chic_Original5S.wav,,,,,,,,,,,,,,,,,,,,,,,,,,,,,,,,,,,,,,,,,,,,,,,,,,,,
,,,,,298291,1,2024-07-12_17h55.55.347,experiment,2024.1.5,MacIntel,58.82352941,6691931c2c63981b064e1f0c,6691b4497139d7c78eb0fe0a,,,,,,,,,,,,,,,,,,,,,,,,,,,,,,,,,,,,,,,,,,,,,,,,,,,,,,,,,,,,759.715,765.749,0.08902439,0.146341463,1.0,0.0,0.0,0.034,compass,0.0,30.0,30.0,27.0,1.0,SoundStimuli/EyeOfTheTiger_Survivor_Original5S.wav,,,,,,,,,,,,,,,,,,,,,,,,,,,,,,,,,,,,,,,,,,,,,,,,,,,,
,,,,,298291,1,2024-07-12_17h55.55.347,experiment,2024.1.5,MacIntel,58.82352941,6691931c2c63981b064e1f0c,6691b4497139d7c78eb0fe0a,,,,,,,,,,,,,,,,,,,,,,,,,,,,,,,,,,,,,,,,,,,,,,,,,,,,,,,,,,,,765.75,773.266,0.268292683,0.320731707,1.0,0.0,0.0,1.5,compass,0.0,31.0,31.0,26.0,1.0,SoundStimuli/TheSign_AceOfBase_Original5S.wav,,,,,,,,,,,,,,,,,,,,,,,,,,,,,,,,,,,,,,,,,,,,,,,,,,,,
,,,,,298291,1,2024-07-12_17h55.55.347,experiment,2024.1.5,MacIntel,58.82352941,6691931c2c63981b064e1f0c,6691b4497139d7c78eb0fe0a,,,,,,,,,,,,,,,,,,,,,,,,,,,,,,,,,,,,,,,,,,,,,,,,,,,,,,,,,,,,773.267,779.649,-0.226829268,0.264634146,1.0,0.0,0.0,0.367,compass,0.0,32.0,32.0,1.0,1.0,SoundStimuli/Smooth_SantanaRobThomas_Cover5S.wav,,,,,,,,,,,,,,,,,,,,,,,,,,,,,,,,,,,,,,,,,,,,,,,,,,,,
,,,,,298291,1,2024-07-12_17h55.55.347,experiment,2024.1.5,MacIntel,58.82352941,6691931c2c63981b064e1f0c,6691b4497139d7c78eb0fe0a,,,,,,,,,,,,,,,,,,,,,,,,,,,,,,,,,,,,,,,,,,,,,,,,,,,,,,,,,,,,779.65,790.849,0.12195122,-0.114634146,1.0,0.0,0.0,5.184,compass,0.0,33.0,33.0,32.0,1.0,SoundStimuli/Dilemma_NellyKellyRowland_Original5S.wav,,,,,,,,,,,,,,,,,,,,,,,,,,,,,,,,,,,,,,,,,,,,,,,,,,,,
,,,,,298291,1,2024-07-12_17h55.55.347,experiment,2024.1.5,MacIntel,58.82352941,6691931c2c63981b064e1f0c,6691b4497139d7c78eb0fe0a,,,,,,,,,,,,,,,,,,,,,,,,,,,,,,,,,,,,,,,,,,,,,,,,,,,,,,,,,,,,790.85,797.331,0.124390244,-0.112195122,1.0,0.0,0.0,0.466,compass,0.0,34.0,34.0,25.0,1.0,SoundStimuli/IllMakeLoveToYou_BoyzIIMen_Original5S.wav,,,,,,,,,,,,,,,,,,,,,,,,,,,,,,,,,,,,,,,,,,,,,,,,,,,,
,,,,,298291,1,2024-07-12_17h55.55.347,experiment,2024.1.5,MacIntel,58.82352941,6691931c2c63981b064e1f0c,6691b4497139d7c78eb0fe0a,,,,,,,,,,,,,,,,,,,,,,,,,,,,,,,,,,,,,,,,,,,,,,,,,,,,,,,,,,,,,,,,,,,,,,,,,,,797.335,974.967,space,177.61,,974.967,982.484,right,7.497,,0.0,0.0,0.0,0.0,1.0,block_order/blockB.xlsx,,,,,,,,,,,,,,,,,,,,,,,,,,,,,,,,,,,,
,,,,,298291,1,2024-07-12_17h55.55.347,experiment,2024.1.5,MacIntel,58.82352941,6691931c2c63981b064e1f0c,6691b4497139d7c78eb0fe0a,,,,,,,,,,,,,,,,,,,,,,,,,,,,,,,,,,,,,,,,,,,,,,,,,,,,,,,,,,,,982.492,996.867,0.219512195,0.182926829,1.0,0.0,0.0,8.366,compass,0.0,0.0,0.0,6.0,1.0,SoundStimuli/Levitating_DuaLipa_Cover5S.wav,,,,,,,,,,,,,,,,,,,,,,,,,,,,,,,,,,,,,,,,,,,,,,,,,,,,
,,,,,298291,1,2024-07-12_17h55.55.347,experiment,2024.1.5,MacIntel,58.82352941,6691931c2c63981b064e1f0c,6691b4497139d7c78eb0fe0a,,,,,,,,,,,,,,,,,,,,,,,,,,,,,,,,,,,,,,,,,,,,,,,,,,,,,,,,,,,,996.867,1003.384,0.142682927,-0.137804878,1.0,0.0,0.0,0.517,compass,0.0,1.0,1.0,26.0,1.0,SoundStimuli/LivinOnAPrayer_BonJovi_Cover5S.wav,,,,,,,,,,,,,,,,,,,,,,,,,,,,,,,,,,,,,,,,,,,,,,,,,,,,
,,,,,298291,1,2024-07-12_17h55.55.347,experiment,2024.1.5,MacIntel,58.82352941,6691931c2c63981b064e1f0c,6691b4497139d7c78eb0fe0a,,,,,,,,,,,,,,,,,,,,,,,,,,,,,,,,,,,,,,,,,,,,,,,,,,,,,,,,,,,,1003.384,1017.334,0.146341463,-0.141463415,1.0,0.0,0.0,7.949,compass,0.0,2.0,2.0,32.0,1.0,SoundStimuli/HeatWaves_GlassAnimals_Original5S.wav,,,,,,,,,,,,,,,,,,,,,,,,,,,,,,,,,,,,,,,,,,,,,,,,,,,,
,,,,,298291,1,2024-07-12_17h55.55.347,experiment,2024.1.5,MacIntel,58.82352941,6691931c2c63981b064e1f0c,6691b4497139d7c78eb0fe0a,,,,,,,,,,,,,,,,,,,,,,,,,,,,,,,,,,,,,,,,,,,,,,,,,,,,,,,,,,,,1017.334,1023.601,-0.141463415,-0.206097561,1.0,0.0,0.0,0.267,compass,0.0,3.0,3.0,10.0,1.0,SoundStimuli/BadDay_DanielPowter_Cover5S.wav,,,,,,,,,,,,,,,,,,,,,,,,,,,,,,,,,,,,,,,,,,,,,,,,,,,,
,,,,,298291,1,2024-07-12_17h55.55.347,experiment,2024.1.5,MacIntel,58.82352941,6691931c2c63981b064e1f0c,6691b4497139d7c78eb0fe0a,,,,,,,,,,,,,,,,,,,,,,,,,,,,,,,,,,,,,,,,,,,,,,,,,,,,,,,,,,,,1023.602,1035.136,-0.109756098,0.040243902,1.0,0.0,0.0,5.518,compass,0.0,4.0,4.0,18.0,1.0,SoundStimuli/AnotherOneBitesTheDust_Queen_Original5S.wav,,,,,,,,,,,,,,,,,,,,,,,,,,,,,,,,,,,,,,,,,,,,,,,,,,,,
,,,,,298291,1,2024-07-12_17h55.55.347,experiment,2024.1.5,MacIntel,58.82352941,6691931c2c63981b064e1f0c,6691b4497139d7c78eb0fe0a,,,,,,,,,,,,,,,,,,,,,,,,,,,,,,,,,,,,,,,,,,,,,,,,,,,,,,,,,,,,1035.137,1051.151,0.159756098,0.148780488,1.0,0.0,0.0,10.0,compass,0.0,5.0,5.0,22.0,1.0,SoundStimuli/RockWithYou_MichaelJackson_Original5S.wav,,,,,,,,,,,,,,,,,,,,,,,,,,,,,,,,,,,,,,,,,,,,,,,,,,,,
,,,,,298291,1,2024-07-12_17h55.55.347,experiment,2024.1.5,MacIntel,58.82352941,6691931c2c63981b064e1f0c,6691b4497139d7c78eb0fe0a,,,,,,,,,,,,,,,,,,,,,,,,,,,,,,,,,,,,,,,,,,,,,,,,,,,,,,,,,,,,1051.152,1062.251,0.213414634,0.263414634,1.0,0.0,0.0,5.082,compass,0.0,6.0,6.0,25.0,1.0,SoundStimuli/Respect_ArethaFranklin_Original5S.wav,,,,,,,,,,,,,,,,,,,,,,,,,,,,,,,,,,,,,,,,,,,,,,,,,,,,
,,,,,298291,1,2024-07-12_17h55.55.347,experiment,2024.1.5,MacIntel,58.82352941,6691931c2c63981b064e1f0c,6691b4497139d7c78eb0fe0a,,,,,,,,,,,,,,,,,,,,,,,,,,,,,,,,,,,,,,,,,,,,,,,,,,,,,,,,,,,,1062.251,1072.019,0.214634146,0.262195122,1.0,0.0,0.0,3.767,compass,0.0,7.0,7.0,5.0,1.0,SoundStimuli/MyGirl_TheTemptations_Original5S.wav,,,,,,,,,,,,,,,,,,,,,,,,,,,,,,,,,,,,,,,,,,,,,,,,,,,,
,,,,,298291,1,2024-07-12_17h55.55.347,experiment,2024.1.5,MacIntel,58.82352941,6691931c2c63981b064e1f0c,6691b4497139d7c78eb0fe0a,,,,,,,,,,,,,,,,,,,,,,,,,,,,,,,,,,,,,,,,,,,,,,,,,,,,,,,,,,,,1072.02,1098.035,,,,,,,,0.0,8.0,8.0,14.0,1.0,SoundStimuli/BlindingLights_TheWeeknd_Original5S.wav,,,,,,,,,,,,,,,,,,,,,,,,,,,,,,,,,,,,,,,,,,,,,,,,,,,,
,,,,,298291,1,2024-07-12_17h55.55.347,experiment,2024.1.5,MacIntel,58.82352941,6691931c2c63981b064e1f0c,6691b4497139d7c78eb0fe0a,,,,,,,,,,,,,,,,,,,,,,,,,,,,,,,,,,,,,,,,,,,,,,,,,,,,,,,,,,,,1098.036,1105.952,-0.107317073,0.248780488,1.0,0.0,0.0,1.899,compass,0.0,9.0,9.0,29.0,1.0,SoundStimuli/OldTownRoad_LilNasX_Original5S.wav,,,,,,,,,,,,,,,,,,,,,,,,,,,,,,,,,,,,,,,,,,,,,,,,,,,,
,,,,,298291,1,2024-07-12_17h55.55.347,experiment,2024.1.5,MacIntel,58.82352941,6691931c2c63981b064e1f0c,6691b4497139d7c78eb0fe0a,,,,,,,,,,,,,,,,,,,,,,,,,,,,,,,,,,,,,,,,,,,,,,,,,,,,,,,,,,,,1105.952,1112.718,-0.15,-0.23902439,1.0,0.0,0.0,0.766,compass,0.0,10.0,10.0,17.0,1.0,SoundStimuli/Fallin_AliciaKeys_Original5S.wav,,,,,,,,,,,,,,,,,,,,,,,,,,,,,,,,,,,,,,,,,,,,,,,,,,,,
,,,,,298291,1,2024-07-12_17h55.55.347,experiment,2024.1.5,MacIntel,58.82352941,6691931c2c63981b064e1f0c,6691b4497139d7c78eb0fe0a,,,,,,,,,,,,,,,,,,,,,,,,,,,,,,,,,,,,,,,,,,,,,,,,,,,,,,,,,,,,1112.718,1125.052,0.174390244,0.117073171,1.0,0.0,0.0,6.332,compass,0.0,11.0,11.0,30.0,1.0,SoundStimuli/PokerFace_LadyGaga_Original5S.wav,,,,,,,,,,,,,,,,,,,,,,,,,,,,,,,,,,,,,,,,,,,,,,,,,,,,
,,,,,298291,1,2024-07-12_17h55.55.347,experiment,2024.1.5,MacIntel,58.82352941,6691931c2c63981b064e1f0c,6691b4497139d7c78eb0fe0a,,,,,,,,,,,,,,,,,,,,,,,,,,,,,,,,,,,,,,,,,,,,,,,,,,,,,,,,,,,,1125.052,1131.336,0.193902439,-0.213414634,1.0,0.0,0.0,0.284,compass,0.0,12.0,12.0,24.0,1.0,SoundStimuli/UptownFunk_MarkRonson_Original5S.wav,,,,,,,,,,,,,,,,,,,,,,,,,,,,,,,,,,,,,,,,,,,,,,,,,,,,
,,,,,298291,1,2024-07-12_17h55.55.347,experiment,2024.1.5,MacIntel,58.82352941,6691931c2c63981b064e1f0c,6691b4497139d7c78eb0fe0a,,,,,,,,,,,,,,,,,,,,,,,,,,,,,,,,,,,,,,,,,,,,,,,,,,,,,,,,,,,,1131.336,1137.402,-0.104878049,-0.2,1.0,0.0,0.0,0.05,compass,0.0,13.0,13.0,2.0,1.0,SoundStimuli/Mood_24kGoldnianndior_Cover5S.wav,,,,,,,,,,,,,,,,,,,,,,,,,,,,,,,,,,,,,,,,,,,,,,,,,,,,
,,,,,298291,1,2024-07-12_17h55.55.347,experiment,2024.1.5,MacIntel,58.82352941,6691931c2c63981b064e1f0c,6691b4497139d7c78eb0fe0a,,,,,,,,,,,,,,,,,,,,,,,,,,,,,,,,,,,,,,,,,,,,,,,,,,,,,,,,,,,,1137.402,1145.619,-0.145121951,0.069512195,1.0,0.0,0.0,2.217,compass,0.0,14.0,14.0,16.0,1.0,SoundStimuli/BohemianRhapsody_Queen_Original5S.wav,,,,,,,,,,,,,,,,,,,,,,,,,,,,,,,,,,,,,,,,,,,,,,,,,,,,
,,,,,298291,1,2024-07-12_17h55.55.347,experiment,2024.1.5,MacIntel,58.82352941,6691931c2c63981b064e1f0c,6691b4497139d7c78eb0fe0a,,,,,,,,,,,,,,,,,,,,,,,,,,,,,,,,,,,,,,,,,,,,,,,,,,,,,,,,,,,,1145.619,1154.535,-0.218292683,0.218292683,1.0,0.0,0.0,2.916,compass,0.0,15.0,15.0,3.0,1.0,SoundStimuli/NoScrubs_TLC_Original5S.wav,,,,,,,,,,,,,,,,,,,,,,,,,,,,,,,,,,,,,,,,,,,,,,,,,,,,
,,,,,298291,1,2024-07-12_17h55.55.347,experiment,2024.1.5,MacIntel,58.82352941,6691931c2c63981b064e1f0c,6691b4497139d7c78eb0fe0a,,,,,,,,,,,,,,,,,,,,,,,,,,,,,,,,,,,,,,,,,,,,,,,,,,,,,,,,,,,,1154.536,1161.935,-0.302439024,-0.067073171,1.0,0.0,0.0,1.383,compass,0.0,16.0,16.0,33.0,1.0,SoundStimuli/StandByMe_BenEKing_Cover5S.wav,,,,,,,,,,,,,,,,,,,,,,,,,,,,,,,,,,,,,,,,,,,,,,,,,,,,
,,,,,298291,1,2024-07-12_17h55.55.347,experiment,2024.1.5,MacIntel,58.82352941,6691931c2c63981b064e1f0c,6691b4497139d7c78eb0fe0a,,,,,,,,,,,,,,,,,,,,,,,,,,,,,,,,,,,,,,,,,,,,,,,,,,,,,,,,,,,,1161.936,1168.719,0.182926829,-0.214634146,1.0,0.0,0.0,0.768,compass,0.0,17.0,17.0,15.0,1.0,SoundStimuli/TikTok_Kesha_Cover5S.wav,,,,,,,,,,,,,,,,,,,,,,,,,,,,,,,,,,,,,,,,,,,,,,,,,,,,
,,,,,298291,1,2024-07-12_17h55.55.347,experiment,2024.1.5,MacIntel,58.82352941,6691931c2c63981b064e1f0c,6691b4497139d7c78eb0fe0a,,,,,,,,,,,,,,,,,,,,,,,,,,,,,,,,,,,,,,,,,,,,,,,,,,,,,,,,,,,,1168.719,1192.752,0.182926829,-0.214634146,1.0,0.0,0.0,18.033,compass,0.0,18.0,18.0,0.0,1.0,SoundStimuli/StayinAlive_BeeGees_Original5S.wav,,,,,,,,,,,,,,,,,,,,,,,,,,,,,,,,,,,,,,,,,,,,,,,,,,,,
,,,,,298291,1,2024-07-12_17h55.55.347,experiment,2024.1.5,MacIntel,58.82352941,6691931c2c63981b064e1f0c,6691b4497139d7c78eb0fe0a,,,,,,,,,,,,,,,,,,,,,,,,,,,,,,,,,,,,,,,,,,,,,,,,,,,,,,,,,,,,1192.753,1198.836,0.132926829,0.218292683,1.0,0.0,0.0,0.066,compass,0.0,19.0,19.0,1.0,1.0,SoundStimuli/Stronger_KanyeWest_Original5S.wav,,,,,,,,,,,,,,,,,,,,,,,,,,,,,,,,,,,,,,,,,,,,,,,,,,,,
,,,,,298291,1,2024-07-12_17h55.55.347,experiment,2024.1.5,MacIntel,58.82352941,6691931c2c63981b064e1f0c,6691b4497139d7c78eb0fe0a,,,,,,,,,,,,,,,,,,,,,,,,,,,,,,,,,,,,,,,,,,,,,,,,,,,,,,,,,,,,1198.836,1219.853,-0.165853659,0.097560976,1.0,0.0,0.0,15.016,compass,0.0,20.0,20.0,11.0,1.0,SoundStimuli/Superstition_StevieWonder_Cover5S.wav,,,,,,,,,,,,,,,,,,,,,,,,,,,,,,,,,,,,,,,,,,,,,,,,,,,,
,,,,,298291,1,2024-07-12_17h55.55.347,experiment,2024.1.5,MacIntel,58.82352941,6691931c2c63981b064e1f0c,6691b4497139d7c78eb0fe0a,,,,,,,,,,,,,,,,,,,,,,,,,,,,,,,,,,,,,,,,,,,,,,,,,,,,,,,,,,,,1219.853,1225.986,0.073170732,0.12804878,1.0,0.0,0.0,0.116,compass,0.0,21.0,21.0,28.0,1.0,SoundStimuli/ComeAndGetYourLove_Redbone_Original5S.wav,,,,,,,,,,,,,,,,,,,,,,,,,,,,,,,,,,,,,,,,,,,,,,,,,,,,
,,,,,298291,1,2024-07-12_17h55.55.347,experiment,2024.1.5,MacIntel,58.82352941,6691931c2c63981b064e1f0c,6691b4497139d7c78eb0fe0a,,,,,,,,,,,,,,,,,,,,,,,,,,,,,,,,,,,,,,,,,,,,,,,,,,,,,,,,,,,,1225.986,1252.003,,,,,,,,0.0,22.0,22.0,27.0,1.0,SoundStimuli/ShapeofYou_EdSheeran_Original5S.wav,,,,,,,,,,,,,,,,,,,,,,,,,,,,,,,,,,,,,,,,,,,,,,,,,,,,
,,,,,298291,1,2024-07-12_17h55.55.347,experiment,2024.1.5,MacIntel,58.82352941,6691931c2c63981b064e1f0c,6691b4497139d7c78eb0fe0a,,,,,,,,,,,,,,,,,,,,,,,,,,,,,,,,,,,,,,,,,,,,,,,,,,,,,,,,,,,,1252.003,1278.02,,,,,,,,0.0,23.0,23.0,31.0,1.0,SoundStimuli/TheBattleOfNewOrleans_JohnnyHorton_Cover5S.wav,,,,,,,,,,,,,,,,,,,,,,,,,,,,,,,,,,,,,,,,,,,,,,,,,,,,
,,,,,298291,1,2024-07-12_17h55.55.347,experiment,2024.1.5,MacIntel,58.82352941,6691931c2c63981b064e1f0c,6691b4497139d7c78eb0fe0a,,,,,,,,,,,,,,,,,,,,,,,,,,,,,,,,,,,,,,,,,,,,,,,,,,,,,,,,,,,,1278.021,1286.369,0.135365854,0.151219512,1.0,0.0,0.0,2.333,compass,0.0,24.0,24.0,34.0,1.0,SoundStimuli/AChangeIsGonnaCome_SamCooke_Cover5S.wav,,,,,,,,,,,,,,,,,,,,,,,,,,,,,,,,,,,,,,,,,,,,,,,,,,,,
,,,,,298291,1,2024-07-12_17h55.55.347,experiment,2024.1.5,MacIntel,58.82352941,6691931c2c63981b064e1f0c,6691b4497139d7c78eb0fe0a,,,,,,,,,,,,,,,,,,,,,,,,,,,,,,,,,,,,,,,,,,,,,,,,,,,,,,,,,,,,1286.369,1312.371,,,,,,,,0.0,25.0,25.0,4.0,1.0,SoundStimuli/GetUrFreakOn_MissyElliot_Original5S.wav,,,,,,,,,,,,,,,,,,,,,,,,,,,,,,,,,,,,,,,,,,,,,,,,,,,,
,,,,,298291,1,2024-07-12_17h55.55.347,experiment,2024.1.5,MacIntel,58.82352941,6691931c2c63981b064e1f0c,6691b4497139d7c78eb0fe0a,,,,,,,,,,,,,,,,,,,,,,,,,,,,,,,,,,,,,,,,,,,,,,,,,,,,,,,,,,,,1312.372,1338.388,,,,,,,,0.0,26.0,26.0,19.0,1.0,SoundStimuli/LetsGetItOn_MarvinGaye_Cover5S.wav,,,,,,,,,,,,,,,,,,,,,,,,,,,,,,,,,,,,,,,,,,,,,,,,,,,,
,,,,,298291,1,2024-07-12_17h55.55.347,experiment,2024.1.5,MacIntel,58.82352941,6691931c2c63981b064e1f0c,6691b4497139d7c78eb0fe0a,,,,,,,,,,,,,,,,,,,,,,,,,,,,,,,,,,,,,,,,,,,,,,,,,,,,,,,,,,,,1338.388,1347.604,0.17195122,0.225609756,1.0,0.0,0.0,3.2,compass,0.0,27.0,27.0,12.0,1.0,SoundStimuli/IWillAlwaysLoveYou_WhitneyHouston_Cover5S.wav,,,,,,,,,,,,,,,,,,,,,,,,,,,,,,,,,,,,,,,,,,,,,,,,,,,,
,,,,,298291,1,2024-07-12_17h55.55.347,experiment,2024.1.5,MacIntel,58.82352941,6691931c2c63981b064e1f0c,6691b4497139d7c78eb0fe0a,,,,,,,,,,,,,,,,,,,,,,,,,,,,,,,,,,,,,,,,,,,,,,,,,,,,,,,,,,,,1347.605,1373.622,,,,,,,,0.0,28.0,28.0,7.0,1.0,SoundStimuli/NoOne_AliciaKeys_Cover5S.wav,,,,,,,,,,,,,,,,,,,,,,,,,,,,,,,,,,,,,,,,,,,,,,,,,,,,
,,,,,298291,1,2024-07-12_17h55.55.347,experiment,2024.1.5,MacIntel,58.82352941,6691931c2c63981b064e1f0c,6691b4497139d7c78eb0fe0a,,,,,,,,,,,,,,,,,,,,,,,,,,,,,,,,,,,,,,,,,,,,,,,,,,,,,,,,,,,,1373.622,1399.638,,,,,,,,0.0,29.0,29.0,21.0,1.0,SoundStimuli/GoodGollyMissMolly_LittleRichard_Cover5S.wav,,,,,,,,,,,,,,,,,,,,,,,,,,,,,,,,,,,,,,,,,,,,,,,,,,,,
,,,,,298291,1,2024-07-12_17h55.55.347,experiment,2024.1.5,MacIntel,58.82352941,6691931c2c63981b064e1f0c,6691b4497139d7c78eb0fe0a,,,,,,,,,,,,,,,,,,,,,,,,,,,,,,,,,,,,,,,,,,,,,,,,,,,,,,,,,,,,1399.639,1425.655,,,,,,,,0.0,30.0,30.0,23.0,1.0,SoundStimuli/StrawberryFieldsForever_TheBeatles_Original5S.wav,,,,,,,,,,,,,,,,,,,,,,,,,,,,,,,,,,,,,,,,,,,,,,,,,,,,
,,,,,298291,1,2024-07-12_17h55.55.347,experiment,2024.1.5,MacIntel,58.82352941,6691931c2c63981b064e1f0c,6691b4497139d7c78eb0fe0a,,,,,,,,,,,,,,,,,,,,,,,,,,,,,,,,,,,,,,,,,,,,,,,,,,,,,,,,,,,,1425.656,1440.288,0.17195122,0.225609756,1.0,0.0,0.0,8.616,compass,0.0,31.0,31.0,8.0,1.0,SoundStimuli/LikeAPrayer_Madonna_Original5S.wav,,,,,,,,,,,,,,,,,,,,,,,,,,,,,,,,,,,,,,,,,,,,,,,,,,,,
,,,,,298291,1,2024-07-12_17h55.55.347,experiment,2024.1.5,MacIntel,58.82352941,6691931c2c63981b064e1f0c,6691b4497139d7c78eb0fe0a,,,,,,,,,,,,,,,,,,,,,,,,,,,,,,,,,,,,,,,,,,,,,,,,,,,,,,,,,,,,1440.288,1465.372,0.103658537,0.037804878,1.0,0.0,0.0,19.083,compass,0.0,32.0,32.0,9.0,1.0,SoundStimuli/Despacito_LuisFonsiDaddyYankee_Cover5S.wav,,,,,,,,,,,,,,,,,,,,,,,,,,,,,,,,,,,,,,,,,,,,,,,,,,,,
,,,,,298291,1,2024-07-12_17h55.55.347,experiment,2024.1.5,MacIntel,58.82352941,6691931c2c63981b064e1f0c,6691b4497139d7c78eb0fe0a,,,,,,,,,,,,,,,,,,,,,,,,,,,,,,,,,,,,,,,,,,,,,,,,,,,,,,,,,,,,1465.372,1471.772,0.080487805,-0.014634146,1.0,0.0,0.0,0.4,compass,0.0,33.0,33.0,20.0,1.0,SoundStimuli/HeyYa_Outkast_Cover5S.wav,,,,,,,,,,,,,,,,,,,,,,,,,,,,,,,,,,,,,,,,,,,,,,,,,,,,
,,,,,298291,1,2024-07-12_17h55.55.347,experiment,2024.1.5,MacIntel,58.82352941,6691931c2c63981b064e1f0c,6691b4497139d7c78eb0fe0a,,,,,,,,,,,,,,,,,,,,,,,,,,,,,,,,,,,,,,,,,,,,,,,,,,,,,,,,,,,,1471.773,1477.955,-0.157317073,-0.065853659,1.0,0.0,0.0,0.166,compass,0.0,34.0,34.0,13.0,1.0,SoundStimuli/GodOnlyKnows_TheBeachBoys_Cover5S.wav,,,,,,,,,,,,,,,,,,,,,,,,,,,,,,,,,,,,,,,,,,,,,,,,,,,,
,,,,,298291,1,2024-07-12_17h55.55.347,experiment,2024.1.5,MacIntel,58.82352941,6691931c2c63981b064e1f0c,6691b4497139d7c78eb0fe0a,,,,,,,,,,,,,,,,,,,,,,,,,,,,,,,,,,,,,,,,,,,,,,,,,,,,,,,,,,,,,,,,,,,,,,,,,,,1477.955,1509.108,space,31.143,,1509.108,1515.077,right,5.955,,0.0,1.0,1.0,1.0,1.0,block_order/blockA.xlsx,,,,,,,,,,,,,,,,,,,,,,,,,,,,,,,,,,,,
,,,,,298291,1,2024-07-12_17h55.55.347,experiment,2024.1.5,MacIntel,58.82352941,6691931c2c63981b064e1f0c,6691b4497139d7c78eb0fe0a,,,,,,,,,,,,,,,,,,,,,,,,,,,,,,,,,,,,,,,,,,,,,,,,,,,,,,,,,,,,1515.084,1527.973,0.208536585,0.134146341,1.0,0.0,0.0,6.884,compass,0.0,0.0,0.0,17.0,1.0,SoundStimuli/IWannaDanceWithSomebody_WhitneyHouston_Original5S.wav,,,,,,,,,,,,,,,,,,,,,,,,,,,,,,,,,,,,,,,,,,,,,,,,,,,,
,,,,,298291,1,2024-07-12_17h55.55.347,experiment,2024.1.5,MacIntel,58.82352941,6691931c2c63981b064e1f0c,6691b4497139d7c78eb0fe0a,,,,,,,,,,,,,,,,,,,,,,,,,,,,,,,,,,,,,,,,,,,,,,,,,,,,,,,,,,,,1527.974,1546.706,0.156097561,0.204878049,1.0,0.0,0.0,12.716,compass,0.0,1.0,1.0,0.0,1.0,SoundStimuli/GimmeShelter_RollingStones_Original5S.wav,,,,,,,,,,,,,,,,,,,,,,,,,,,,,,,,,,,,,,,,,,,,,,,,,,,,
,,,,,298291,1,2024-07-12_17h55.55.347,experiment,2024.1.5,MacIntel,58.82352941,6691931c2c63981b064e1f0c,6691b4497139d7c78eb0fe0a,,,,,,,,,,,,,,,,,,,,,,,,,,,,,,,,,,,,,,,,,,,,,,,,,,,,,,,,,,,,1546.706,1554.789,0.151219512,0.204878049,1.0,0.0,0.0,2.083,compass,0.0,2.0,2.0,2.0,1.0,SoundStimuli/SmellsLikeTeenSpirit_Nirvana_Original5S.wav,,,,,,,,,,,,,,,,,,,,,,,,,,,,,,,,,,,,,,,,,,,,,,,,,,,,
,,,,,298291,1,2024-07-12_17h55.55.347,experiment,2024.1.5,MacIntel,58.82352941,6691931c2c63981b064e1f0c,6691b4497139d7c78eb0fe0a,,,,,,,,,,,,,,,,,,,,,,,,,,,,,,,,,,,,,,,,,,,,,,,,,,,,,,,,,,,,1554.79,1564.023,-0.214634146,0.286585366,1.0,0.0,0.0,3.216,compass,0.0,3.0,3.0,20.0,1.0,SoundStimuli/FlashdanceWhatAFeeling_IreneCara_Original5S.wav,,,,,,,,,,,,,,,,,,,,,,,,,,,,,,,,,,,,,,,,,,,,,,,,,,,,
,,,,,298291,1,2024-07-12_17h55.55.347,experiment,2024.1.5,MacIntel,58.82352941,6691931c2c63981b064e1f0c,6691b4497139d7c78eb0fe0a,,,,,,,,,,,,,,,,,,,,,,,,,,,,,,,,,,,,,,,,,,,,,,,,,,,,,,,,,,,,1564.023,1572.256,0.28902439,0.237804878,1.0,0.0,0.0,2.216,compass,0.0,4.0,4.0,3.0,1.0,SoundStimuli/PartyRockAnthem_LMFAO_Original5S.wav,,,,,,,,,,,,,,,,,,,,,,,,,,,,,,,,,,,,,,,,,,,,,,,,,,,,
,,,,,298291,1,2024-07-12_17h55.55.347,experiment,2024.1.5,MacIntel,58.82352941,6691931c2c63981b064e1f0c,6691b4497139d7c78eb0fe0a,,,,,,,,,,,,,,,,,,,,,,,,,,,,,,,,,,,,,,,,,,,,,,,,,,,,,,,,,,,,1572.256,1581.089,0.195121951,0.132926829,1.0,0.0,0.0,2.816,compass,0.0,5.0,5.0,22.0,1.0,SoundStimuli/Happy_PharellWilliams_Original5S.wav,,,,,,,,,,,,,,,,,,,,,,,,,,,,,,,,,,,,,,,,,,,,,,,,,,,,
,,,,,298291,1,2024-07-12_17h55.55.347,experiment,2024.1.5,MacIntel,58.82352941,6691931c2c63981b064e1f0c,6691b4497139d7c78eb0fe0a,,,,,,,,,,,,,,,,,,,,,,,,,,,,,,,,,,,,,,,,,,,,,,,,,,,,,,,,,,,,1581.09,1589.739,-0.25,-0.064634146,1.0,0.0,0.0,2.633,compass,0.0,6.0,6.0,15.0,1.0,SoundStimuli/CrazyInLove_BeyonceFtJayZ_Cover5S.wav,,,,,,,,,,,,,,,,,,,,,,,,,,,,,,,,,,,,,,,,,,,,,,,,,,,,
,,,,,298291,1,2024-07-12_17h55.55.347,experiment,2024.1.5,MacIntel,58.82352941,6691931c2c63981b064e1f0c,6691b4497139d7c78eb0fe0a,,,,,,,,,,,,,,,,,,,,,,,,,,,,,,,,,,,,,,,,,,,,,,,,,,,,,,,,,,,,1589.739,1597.89,-0.151219512,-0.07195122,1.0,0.0,0.0,2.15,compass,0.0,7.0,7.0,6.0,1.0,SoundStimuli/SaveYourTears_TheWeekndArianaGrande_Cover5S.wav,,,,,,,,,,,,,,,,,,,,,,,,,,,,,,,,,,,,,,,,,,,,,,,,,,,,
,,,,,298291,1,2024-07-12_17h55.55.347,experiment,2024.1.5,MacIntel,58.82352941,6691931c2c63981b064e1f0c,6691b4497139d7c78eb0fe0a,,,,,,,,,,,,,,,,,,,,,,,,,,,,,,,,,,,,,,,,,,,,,,,,,,,,,,,,,,,,1597.89,1611.974,-0.181707317,-0.114634146,1.0,0.0,0.0,8.067,compass,0.0,8.0,8.0,21.0,1.0,SoundStimuli/BridgeOverTroubledWater_SimonAndGarfunkel_Original5S.wav,,,,,,,,,,,,,,,,,,,,,,,,,,,,,,,,,,,,,,,,,,,,,,,,,,,,
,,,,,298291,1,2024-07-12_17h55.55.347,experiment,2024.1.5,MacIntel,58.82352941,6691931c2c63981b064e1f0c,6691b4497139d7c78eb0fe0a,,,,,,,,,,,,,,,,,,,,,,,,,,,,,,,,,,,,,,,,,,,,,,,,,,,,,,,,,,,,1611.974,1629.857,-0.190243902,-0.157317073,1.0,0.0,0.0,11.867,compass,0.0,9.0,9.0,9.0,1.0,SoundStimuli/HowDoILive_LeAnnRimes_Cover5S.wav,,,,,,,,,,,,,,,,,,,,,,,,,,,,,,,,,,,,,,,,,,,,,,,,,,,,
,,,,,298291,1,2024-07-12_17h55.55.347,experiment,2024.1.5,MacIntel,58.82352941,6691931c2c63981b064e1f0c,6691b4497139d7c78eb0fe0a,,,,,,,,,,,,,,,,,,,,,,,,,,,,,,,,,,,,,,,,,,,,,,,,,,,,,,,,,,,,1629.857,1637.873,-0.187804878,-0.168292683,1.0,0.0,0.0,1.999,compass,0.0,10.0,10.0,30.0,1.0,SoundStimuli/SomebodyThatIUsedtoKnow_Gotye_Original5S.wav,,,,,,,,,,,,,,,,,,,,,,,,,,,,,,,,,,,,,,,,,,,,,,,,,,,,
,,,,,298291,1,2024-07-12_17h55.55.347,experiment,2024.1.5,MacIntel,58.82352941,6691931c2c63981b064e1f0c,6691b4497139d7c78eb0fe0a,,,,,,,,,,,,,,,,,,,,,,,,,,,,,,,,,,,,,,,,,,,,,,,,,,,,,,,,,,,,1637.873,1644.857,0.090243902,-0.157317073,1.0,0.0,0.0,0.983,compass,0.0,11.0,11.0,4.0,1.0,SoundStimuli/Dreams_FleetwoodMac_Original5S.wav,,,,,,,,,,,,,,,,,,,,,,,,,,,,,,,,,,,,,,,,,,,,,,,,,,,,
,,,,,298291,1,2024-07-12_17h55.55.347,experiment,2024.1.5,MacIntel,58.82352941,6691931c2c63981b064e1f0c,6691b4497139d7c78eb0fe0a,,,,,,,,,,,,,,,,,,,,,,,,,,,,,,,,,,,,,,,,,,,,,,,,,,,,,,,,,,,,1644.858,1657.457,-0.207317073,-0.159756098,1.0,0.0,0.0,6.584,compass,0.0,12.0,12.0,34.0,1.0,SoundStimuli/Irreplaceable_Beyonce_Cover5S.wav,,,,,,,,,,,,,,,,,,,,,,,,,,,,,,,,,,,,,,,,,,,,,,,,,,,,
,,,,,298291,1,2024-07-12_17h55.55.347,experiment,2024.1.5,MacIntel,58.82352941,6691931c2c63981b064e1f0c,6691b4497139d7c78eb0fe0a,,,,,,,,,,,,,,,,,,,,,,,,,,,,,,,,,,,,,,,,,,,,,,,,,,,,,,,,,,,,1657.457,1669.074,0.326829268,-0.101219512,1.0,0.0,0.0,5.616,compass,0.0,13.0,13.0,32.0,1.0,SoundStimuli/Dilemma_NellyKellyRowland_Cover5S.wav,,,,,,,,,,,,,,,,,,,,,,,,,,,,,,,,,,,,,,,,,,,,,,,,,,,,
,,,,,298291,1,2024-07-12_17h55.55.347,experiment,2024.1.5,MacIntel,58.82352941,6691931c2c63981b064e1f0c,6691b4497139d7c78eb0fe0a,,,,,,,,,,,,,,,,,,,,,,,,,,,,,,,,,,,,,,,,,,,,,,,,,,,,,,,,,,,,1669.074,1695.091,,,,,,,,0.0,14.0,14.0,26.0,1.0,SoundStimuli/TheSign_AceOfBase_Cover5S.wav,,,,,,,,,,,,,,,,,,,,,,,,,,,,,,,,,,,,,,,,,,,,,,,,,,,,
,,,,,298291,1,2024-07-12_17h55.55.347,experiment,2024.1.5,MacIntel,58.82352941,6691931c2c63981b064e1f0c,6691b4497139d7c78eb0fe0a,,,,,,,,,,,,,,,,,,,,,,,,,,,,,,,,,,,,,,,,,,,,,,,,,,,,,,,,,,,,1695.092,1703.49,0.176829268,0.117073171,1.0,0.0,0.0,2.383,compass,0.0,15.0,15.0,27.0,1.0,SoundStimuli/EyeOfTheTiger_Survivor_Cover5S.wav,,,,,,,,,,,,,,,,,,,,,,,,,,,,,,,,,,,,,,,,,,,,,,,,,,,,
,,,,,298291,1,2024-07-12_17h55.55.347,experiment,2024.1.5,MacIntel,58.82352941,6691931c2c63981b064e1f0c,6691b4497139d7c78eb0fe0a,,,,,,,,,,,,,,,,,,,,,,,,,,,,,,,,,,,,,,,,,,,,,,,,,,,,,,,,,,,,1703.491,1715.141,0.169512195,0.104878049,1.0,0.0,0.0,5.632,compass,0.0,16.0,16.0,31.0,1.0,SoundStimuli/TossinAndTurnin_BobbyLewis_Original5S.wav,,,,,,,,,,,,,,,,,,,,,,,,,,,,,,,,,,,,,,,,,,,,,,,,,,,,
,,,,,298291,1,2024-07-12_17h55.55.347,experiment,2024.1.5,MacIntel,58.82352941,6691931c2c63981b064e1f0c,6691b4497139d7c78eb0fe0a,,,,,,,,,,,,,,,,,,,,,,,,,,,,,,,,,,,,,,,,,,,,,,,,,,,,,,,,,,,,1715.141,1725.191,0.141463415,-0.087804878,1.0,0.0,0.0,4.034,compass,0.0,17.0,17.0,16.0,1.0,SoundStimuli/ItsAllInTheGame_TommyEdwards_Cover5S.wav,,,,,,,,,,,,,,,,,,,,,,,,,,,,,,,,,,,,,,,,,,,,,,,,,,,,
,,,,,298291,1,2024-07-12_17h55.55.347,experiment,2024.1.5,MacIntel,58.82352941,6691931c2c63981b064e1f0c,6691b4497139d7c78eb0fe0a,,,,,,,,,,,,,,,,,,,,,,,,,,,,,,,,,,,,,,,,,,,,,,,,,,,,,,,,,,,,1725.191,1735.957,-0.058536585,-0.123170732,1.0,0.0,0.0,4.765,compass,0.0,18.0,18.0,33.0,1.0,SoundStimuli/TheBoyIsMine_BrandyMonica_Original5S.wav,,,,,,,,,,,,,,,,,,,,,,,,,,,,,,,,,,,,,,,,,,,,,,,,,,,,
,,,,,298291,1,2024-07-12_17h55.55.347,experiment,2024.1.5,MacIntel,58.82352941,6691931c2c63981b064e1f0c,6691b4497139d7c78eb0fe0a,,,,,,,,,,,,,,,,,,,,,,,,,,,,,,,,,,,,,,,,,,,,,,,,,,,,,,,,,,,,1735.957,1745.558,0.174390244,-0.212195122,1.0,0.0,0.0,3.6,compass,0.0,19.0,19.0,13.0,1.0,SoundStimuli/Perfect_EdSheeran_Cover5S.wav,,,,,,,,,,,,,,,,,,,,,,,,,,,,,,,,,,,,,,,,,,,,,,,,,,,,
,,,,,298291,1,2024-07-12_17h55.55.347,experiment,2024.1.5,MacIntel,58.82352941,6691931c2c63981b064e1f0c,6691b4497139d7c78eb0fe0a,,,,,,,,,,,,,,,,,,,,,,,,,,,,,,,,,,,,,,,,,,,,,,,,,,,,,,,,,,,,1745.558,1751.607,0.179268293,-0.141463415,1.0,0.0,0.0,0.049,compass,0.0,20.0,20.0,19.0,1.0,SoundStimuli/YouLightUpMyLife_DebbyBoone_Original5S.wav,,,,,,,,,,,,,,,,,,,,,,,,,,,,,,,,,,,,,,,,,,,,,,,,,,,,
,,,,,298291,1,2024-07-12_17h55.55.347,experiment,2024.1.5,MacIntel,58.82352941,6691931c2c63981b064e1f0c,6691b4497139d7c78eb0fe0a,,,,,,,,,,,,,,,,,,,,,,,,,,,,,,,,,,,,,,,,,,,,,,,,,,,,,,,,,,,,1751.607,1758.807,0.179268293,-0.136585366,1.0,0.0,0.0,1.199,compass,0.0,21.0,21.0,29.0,1.0,SoundStimuli/BetteDavisEyes_KimCarnes_Original5S.wav,,,,,,,,,,,,,,,,,,,,,,,,,,,,,,,,,,,,,,,,,,,,,,,,,,,,
,,,,,298291,1,2024-07-12_17h55.55.347,experiment,2024.1.5,MacIntel,58.82352941,6691931c2c63981b064e1f0c,6691b4497139d7c78eb0fe0a,,,,,,,,,,,,,,,,,,,,,,,,,,,,,,,,,,,,,,,,,,,,,,,,,,,,,,,,,,,,1758.808,1784.825,,,,,,,,0.0,22.0,22.0,5.0,1.0,SoundStimuli/JoyToTheWorld_ThreeDogNight_Original5S.wav,,,,,,,,,,,,,,,,,,,,,,,,,,,,,,,,,,,,,,,,,,,,,,,,,,,,
,,,,,298291,1,2024-07-12_17h55.55.347,experiment,2024.1.5,MacIntel,58.82352941,6691931c2c63981b064e1f0c,6691b4497139d7c78eb0fe0a,,,,,,,,,,,,,,,,,,,,,,,,,,,,,,,,,,,,,,,,,,,,,,,,,,,,,,,,,,,,1784.826,1790.958,-0.180487805,-0.26097561,1.0,0.0,0.0,0.117,compass,0.0,23.0,23.0,24.0,1.0,SoundStimuli/Kiss_Prince_Cover5S.wav,,,,,,,,,,,,,,,,,,,,,,,,,,,,,,,,,,,,,,,,,,,,,,,,,,,,
,,,,,298291,1,2024-07-12_17h55.55.347,experiment,2024.1.5,MacIntel,58.82352941,6691931c2c63981b064e1f0c,6691b4497139d7c78eb0fe0a,,,,,,,,,,,,,,,,,,,,,,,,,,,,,,,,,,,,,,,,,,,,,,,,,,,,,,,,,,,,1790.958,1797.042,-0.191463415,-0.26097561,1.0,0.0,0.0,0.083,compass,0.0,24.0,24.0,7.0,1.0,SoundStimuli/MackTheKnife_BobbyDarin_Cover5S.wav,,,,,,,,,,,,,,,,,,,,,,,,,,,,,,,,,,,,,,,,,,,,,,,,,,,,
,,,,,298291,1,2024-07-12_17h55.55.347,experiment,2024.1.5,MacIntel,58.82352941,6691931c2c63981b064e1f0c,6691b4497139d7c78eb0fe0a,,,,,,,,,,,,,,,,,,,,,,,,,,,,,,,,,,,,,,,,,,,,,,,,,,,,,,,,,,,,1797.043,1805.909,0.101219512,0.167073171,1.0,0.0,0.0,2.85,compass,0.0,25.0,25.0,10.0,1.0,SoundStimuli/LeFreak_Chic_Cover5S.wav,,,,,,,,,,,,,,,,,,,,,,,,,,,,,,,,,,,,,,,,,,,,,,,,,,,,
,,,,,298291,1,2024-07-12_17h55.55.347,experiment,2024.1.5,MacIntel,58.82352941,6691931c2c63981b064e1f0c,6691b4497139d7c78eb0fe0a,,,,,,,,,,,,,,,,,,,,,,,,,,,,,,,,,,,,,,,,,,,,,,,,,,,,,,,,,,,,1805.91,1814.809,0.101219512,0.167073171,1.0,0.0,0.0,2.884,compass,0.0,26.0,26.0,28.0,1.0,SoundStimuli/IWantToHoldYourHand_TheBeatles_Original5S.wav,,,,,,,,,,,,,,,,,,,,,,,,,,,,,,,,,,,,,,,,,,,,,,,,,,,,
,,,,,298291,1,2024-07-12_17h55.55.347,experiment,2024.1.5,MacIntel,58.82352941,6691931c2c63981b064e1f0c,6691b4497139d7c78eb0fe0a,,,,,,,,,,,,,,,,,,,,,,,,,,,,,,,,,,,,,,,,,,,,,,,,,,,,,,,,,,,,1814.81,1822.776,0.075609756,-0.08902439,1.0,0.0,0.0,1.951,compass,0.0,27.0,27.0,23.0,1.0,SoundStimuli/IWalkTheLine_JohnnyCash_Original5S.wav,,,,,,,,,,,,,,,,,,,,,,,,,,,,,,,,,,,,,,,,,,,,,,,,,,,,
,,,,,298291,1,2024-07-12_17h55.55.347,experiment,2024.1.5,MacIntel,58.82352941,6691931c2c63981b064e1f0c,6691b4497139d7c78eb0fe0a,,,,,,,,,,,,,,,,,,,,,,,,,,,,,,,,,,,,,,,,,,,,,,,,,,,,,,,,,,,,1822.776,1829.108,0.142682927,0.103658537,1.0,0.0,0.0,0.316,compass,0.0,28.0,28.0,1.0,1.0,SoundStimuli/Smooth_SantanaRobThomas_Original5S.wav,,,,,,,,,,,,,,,,,,,,,,,,,,,,,,,,,,,,,,,,,,,,,,,,,,,,
,,,,,298291,1,2024-07-12_17h55.55.347,experiment,2024.1.5,MacIntel,58.82352941,6691931c2c63981b064e1f0c,6691b4497139d7c78eb0fe0a,,,,,,,,,,,,,,,,,,,,,,,,,,,,,,,,,,,,,,,,,,,,,,,,,,,,,,,,,,,,1829.109,1836.959,0.185365854,-0.098780488,1.0,0.0,0.0,1.834,compass,0.0,29.0,29.0,18.0,1.0,SoundStimuli/Weak_SWV_Cover5S.wav,,,,,,,,,,,,,,,,,,,,,,,,,,,,,,,,,,,,,,,,,,,,,,,,,,,,
,,,,,298291,1,2024-07-12_17h55.55.347,experiment,2024.1.5,MacIntel,58.82352941,6691931c2c63981b064e1f0c,6691b4497139d7c78eb0fe0a,,,,,,,,,,,,,,,,,,,,,,,,,,,,,,,,,,,,,,,,,,,,,,,,,,,,,,,,,,,,1836.959,1849.576,-0.119512195,-0.223170732,1.0,0.0,0.0,6.6,compass,0.0,30.0,30.0,12.0,1.0,SoundStimuli/UnbreakMyHeart_ToniBraxton_Original5S.wav,,,,,,,,,,,,,,,,,,,,,,,,,,,,,,,,,,,,,,,,,,,,,,,,,,,,
,,,,,298291,1,2024-07-12_17h55.55.347,experiment,2024.1.5,MacIntel,58.82352941,6691931c2c63981b064e1f0c,6691b4497139d7c78eb0fe0a,,,,,,,,,,,,,,,,,,,,,,,,,,,,,,,,,,,,,,,,,,,,,,,,,,,,,,,,,,,,1849.576,1857.525,0.209756098,-0.102439024,1.0,0.0,0.0,1.933,compass,0.0,31.0,31.0,25.0,1.0,SoundStimuli/IllMakeLoveToYou_BoyzIIMen_Cover5S.wav,,,,,,,,,,,,,,,,,,,,,,,,,,,,,,,,,,,,,,,,,,,,,,,,,,,,
,,,,,298291,1,2024-07-12_17h55.55.347,experiment,2024.1.5,MacIntel,58.82352941,6691931c2c63981b064e1f0c,6691b4497139d7c78eb0fe0a,,,,,,,,,,,,,,,,,,,,,,,,,,,,,,,,,,,,,,,,,,,,,,,,,,,,,,,,,,,,1857.526,1867.442,-0.22804878,0.054878049,1.0,0.0,0.0,3.9,compass,0.0,32.0,32.0,8.0,1.0,SoundStimuli/EndlessLove_DianaRossLionelRichie_Cover5S.wav,,,,,,,,,,,,,,,,,,,,,,,,,,,,,,,,,,,,,,,,,,,,,,,,,,,,
,,,,,298291,1,2024-07-12_17h55.55.347,experiment,2024.1.5,MacIntel,58.82352941,6691931c2c63981b064e1f0c,6691b4497139d7c78eb0fe0a,,,,,,,,,,,,,,,,,,,,,,,,,,,,,,,,,,,,,,,,,,,,,,,,,,,,,,,,,,,,1867.442,1876.293,0.198780488,0.2,1.0,0.0,0.0,2.834,compass,0.0,33.0,33.0,14.0,1.0,SoundStimuli/LikeARollingStone_BobDylan_Original5S.wav,,,,,,,,,,,,,,,,,,,,,,,,,,,,,,,,,,,,,,,,,,,,,,,,,,,,
,,,,,298291,1,2024-07-12_17h55.55.347,experiment,2024.1.5,MacIntel,58.82352941,6691931c2c63981b064e1f0c,6691b4497139d7c78eb0fe0a,,,,,,,,,,,,,,,,,,,,,,,,,,,,,,,,,,,,,,,,,,,,,,,,,,,,,,,,,,,,1876.294,1882.526,0.186585366,0.193902439,1.0,0.0,0.0,0.216,compass,0.0,34.0,34.0,11.0,1.0,SoundStimuli/BlurredLines_RobinThicke_Cover5S.wav,,,,,,,,,,,,,,,,,,,,,,,,,,,,,,,,,,,,,,,,,,,,,,,,,,,,
,,,,,298291,1,2024-07-12_17h55.55.347,experiment,2024.1.5,MacIntel,58.82352941,6691931c2c63981b064e1f0c,6691b4497139d7c78eb0fe0a,,,,,,,,,,,,,,,,,,,,,,,,,,,,,,,,,,,,,,,,,,,,,,,,,,,,,,,,,,,,,,,,,,,,,,,,,,,1882.526,1941.827,space,59.288,,1941.827,2048.71,right,106.865,,0.0,2.0,2.0,2.0,1.0,block_order/blockD.xlsx,,,,,,,,,,,,,,,,,,,,,,,,,,,,,,,,,,,,
,,,,,298291,1,2024-07-12_17h55.55.347,experiment,2024.1.5,MacIntel,58.82352941,6691931c2c63981b064e1f0c,6691b4497139d7c78eb0fe0a,,,,,,,,,,,,,,,,,,,,,,,,,,,,,,,,,,,,,,,,,,,,,,,,,,,,,,,,,,,,2048.715,2059.777,0.08902439,-0.063414634,1.0,0.0,0.0,5.051,compass,0.0,0.0,0.0,19.0,1.0,SoundStimuli/LetsGetItOn_MarvinGaye_Original5S.wav,,,,,,,,,,,,,,,,,,,,,,,,,,,,,,,,,,,,,,,,,,,,,,,,,,,,
,,,,,298291,1,2024-07-12_17h55.55.347,experiment,2024.1.5,MacIntel,58.82352941,6691931c2c63981b064e1f0c,6691b4497139d7c78eb0fe0a,,,,,,,,,,,,,,,,,,,,,,,,,,,,,,,,,,,,,,,,,,,,,,,,,,,,,,,,,,,,2059.777,2069.278,0.163414634,0.041463415,1.0,0.0,0.0,3.498,compass,0.0,1.0,1.0,26.0,1.0,SoundStimuli/LivinOnAPrayer_BonJovi_Original5S.wav,,,,,,,,,,,,,,,,,,,,,,,,,,,,,,,,,,,,,,,,,,,,,,,,,,,,
,,,,,298291,1,2024-07-12_17h55.55.347,experiment,2024.1.5,MacIntel,58.82352941,6691931c2c63981b064e1f0c,6691b4497139d7c78eb0fe0a,,,,,,,,,,,,,,,,,,,,,,,,,,,,,,,,,,,,,,,,,,,,,,,,,,,,,,,,,,,,2069.278,2075.96,0.159756098,0.090243902,1.0,0.0,0.0,0.666,compass,0.0,2.0,2.0,11.0,1.0,SoundStimuli/Superstition_StevieWonder_Original5S.wav,,,,,,,,,,,,,,,,,,,,,,,,,,,,,,,,,,,,,,,,,,,,,,,,,,,,
,,,,,298291,1,2024-07-12_17h55.55.347,experiment,2024.1.5,MacIntel,58.82352941,6691931c2c63981b064e1f0c,6691b4497139d7c78eb0fe0a,,,,,,,,,,,,,,,,,,,,,,,,,,,,,,,,,,,,,,,,,,,,,,,,,,,,,,,,,,,,2075.96,2084.211,0.159756098,0.090243902,1.0,0.0,0.0,2.249,compass,0.0,3.0,3.0,1.0,1.0,SoundStimuli/Stronger_KanyeWest_Cover5S.wav,,,,,,,,,,,,,,,,,,,,,,,,,,,,,,,,,,,,,,,,,,,,,,,,,,,,
,,,,,298291,1,2024-07-12_17h55.55.347,experiment,2024.1.5,MacIntel,58.82352941,6691931c2c63981b064e1f0c,6691b4497139d7c78eb0fe0a,,,,,,,,,,,,,,,,,,,,,,,,,,,,,,,,,,,,,,,,,,,,,,,,,,,,,,,,,,,,2084.211,2110.228,,,,,,,,0.0,4.0,4.0,3.0,1.0,SoundStimuli/NoScrubs_TLC_Cover5S.wav,,,,,,,,,,,,,,,,,,,,,,,,,,,,,,,,,,,,,,,,,,,,,,,,,,,,
,,,,,298291,1,2024-07-12_17h55.55.347,experiment,2024.1.5,MacIntel,58.82352941,6691931c2c63981b064e1f0c,6691b4497139d7c78eb0fe0a,,,,,,,,,,,,,,,,,,,,,,,,,,,,,,,,,,,,,,,,,,,,,,,,,,,,,,,,,,,,2110.229,2116.544,0.18902439,0.247560976,1.0,0.0,0.0,0.3,compass,0.0,5.0,5.0,15.0,1.0,SoundStimuli/TikTok_Kesha_Original5S.wav,,,,,,,,,,,,,,,,,,,,,,,,,,,,,,,,,,,,,,,,,,,,,,,,,,,,
,,,,,298291,1,2024-07-12_17h55.55.347,experiment,2024.1.5,MacIntel,58.82352941,6691931c2c63981b064e1f0c,6691b4497139d7c78eb0fe0a,,,,,,,,,,,,,,,,,,,,,,,,,,,,,,,,,,,,,,,,,,,,,,,,,,,,,,,,,,,,2116.545,2122.628,-0.12195122,0.286585366,1.0,0.0,0.0,0.067,compass,0.0,6.0,6.0,2.0,1.0,SoundStimuli/Mood_24kGoldnianndior_Original5S.wav,,,,,,,,,,,,,,,,,,,,,,,,,,,,,,,,,,,,,,,,,,,,,,,,,,,,
,,,,,298291,1,2024-07-12_17h55.55.347,experiment,2024.1.5,MacIntel,58.82352941,6691931c2c63981b064e1f0c,6691b4497139d7c78eb0fe0a,,,,,,,,,,,,,,,,,,,,,,,,,,,,,,,,,,,,,,,,,,,,,,,,,,,,,,,,,,,,2122.628,2128.645,0.147560976,0.258536585,1.0,0.0,0.0,0.017,compass,0.0,7.0,7.0,21.0,1.0,SoundStimuli/GoodGollyMissMolly_LittleRichard_Original5S.wav,,,,,,,,,,,,,,,,,,,,,,,,,,,,,,,,,,,,,,,,,,,,,,,,,,,,
,,,,,298291,1,2024-07-12_17h55.55.347,experiment,2024.1.5,MacIntel,58.82352941,6691931c2c63981b064e1f0c,6691b4497139d7c78eb0fe0a,,,,,,,,,,,,,,,,,,,,,,,,,,,,,,,,,,,,,,,,,,,,,,,,,,,,,,,,,,,,2128.646,2137.711,0.147560976,0.259756098,1.0,0.0,0.0,3.05,compass,0.0,8.0,8.0,27.0,1.0,SoundStimuli/ShapeofYou_EdSheeran_Cover5S.wav,,,,,,,,,,,,,,,,,,,,,,,,,,,,,,,,,,,,,,,,,,,,,,,,,,,,
,,,,,298291,1,2024-07-12_17h55.55.347,experiment,2024.1.5,MacIntel,58.82352941,6691931c2c63981b064e1f0c,6691b4497139d7c78eb0fe0a,,,,,,,,,,,,,,,,,,,,,,,,,,,,,,,,,,,,,,,,,,,,,,,,,,,,,,,,,,,,2137.712,2143.928,0.147560976,0.259756098,1.0,0.0,0.0,0.2,compass,0.0,9.0,9.0,33.0,1.0,SoundStimuli/StandByMe_BenEKing_Original5S.wav,,,,,,,,,,,,,,,,,,,,,,,,,,,,,,,,,,,,,,,,,,,,,,,,,,,,
,,,,,298291,1,2024-07-12_17h55.55.347,experiment,2024.1.5,MacIntel,58.82352941,6691931c2c63981b064e1f0c,6691b4497139d7c78eb0fe0a,,,,,,,,,,,,,,,,,,,,,,,,,,,,,,,,,,,,,,,,,,,,,,,,,,,,,,,,,,,,2143.928,2150.028,-0.042682927,-0.035365854,1.0,0.0,0.0,0.1,compass,0.0,10.0,10.0,34.0,1.0,SoundStimuli/AChangeIsGonnaCome_SamCooke_Original5S.wav,,,,,,,,,,,,,,,,,,,,,,,,,,,,,,,,,,,,,,,,,,,,,,,,,,,,
,,,,,298291,1,2024-07-12_17h55.55.347,experiment,2024.1.5,MacIntel,58.82352941,6691931c2c63981b064e1f0c,6691b4497139d7c78eb0fe0a,,,,,,,,,,,,,,,,,,,,,,,,,,,,,,,,,,,,,,,,,,,,,,,,,,,,,,,,,,,,2150.029,2170.128,-0.042682927,-0.035365854,1.0,0.0,0.0,14.084,compass,0.0,11.0,11.0,18.0,1.0,SoundStimuli/AnotherOneBitesTheDust_Queen_Cover5S.wav,,,,,,,,,,,,,,,,,,,,,,,,,,,,,,,,,,,,,,,,,,,,,,,,,,,,
,,,,,298291,1,2024-07-12_17h55.55.347,experiment,2024.1.5,MacIntel,58.82352941,6691931c2c63981b064e1f0c,6691b4497139d7c78eb0fe0a,,,,,,,,,,,,,,,,,,,,,,,,,,,,,,,,,,,,,,,,,,,,,,,,,,,,,,,,,,,,2170.129,2176.261,0.174390244,0.009756098,1.0,0.0,0.0,0.116,compass,0.0,12.0,12.0,4.0,1.0,SoundStimuli/GetUrFreakOn_MissyElliot_Cover5S.wav,,,,,,,,,,,,,,,,,,,,,,,,,,,,,,,,,,,,,,,,,,,,,,,,,,,,
,,,,,298291,1,2024-07-12_17h55.55.347,experiment,2024.1.5,MacIntel,58.82352941,6691931c2c63981b064e1f0c,6691b4497139d7c78eb0fe0a,,,,,,,,,,,,,,,,,,,,,,,,,,,,,,,,,,,,,,,,,,,,,,,,,,,,,,,,,,,,2176.262,2184.547,0.16097561,0.046341463,1.0,0.0,0.0,2.268,compass,0.0,13.0,13.0,24.0,1.0,SoundStimuli/UptownFunk_MarkRonson_Cover5S.wav,,,,,,,,,,,,,,,,,,,,,,,,,,,,,,,,,,,,,,,,,,,,,,,,,,,,
,,,,,298291,1,2024-07-12_17h55.55.347,experiment,2024.1.5,MacIntel,58.82352941,6691931c2c63981b064e1f0c,6691b4497139d7c78eb0fe0a,,,,,,,,,,,,,,,,,,,,,,,,,,,,,,,,,,,,,,,,,,,,,,,,,,,,,,,,,,,,2184.547,2194.846,-0.057317073,0.054878049,1.0,0.0,0.0,4.285,compass,0.0,14.0,14.0,13.0,1.0,SoundStimuli/GodOnlyKnows_TheBeachBoys_Original5S.wav,,,,,,,,,,,,,,,,,,,,,,,,,,,,,,,,,,,,,,,,,,,,,,,,,,,,
,,,,,298291,1,2024-07-12_17h55.55.347,experiment,2024.1.5,MacIntel,58.82352941,6691931c2c63981b064e1f0c,6691b4497139d7c78eb0fe0a,,,,,,,,,,,,,,,,,,,,,,,,,,,,,,,,,,,,,,,,,,,,,,,,,,,,,,,,,,,,2194.847,2201.912,-0.057317073,0.054878049,1.0,0.0,0.0,1.05,compass,0.0,15.0,15.0,16.0,1.0,SoundStimuli/BohemianRhapsody_Queen_Cover5S.wav,,,,,,,,,,,,,,,,,,,,,,,,,,,,,,,,,,,,,,,,,,,,,,,,,,,,
,,,,,298291,1,2024-07-12_17h55.55.347,experiment,2024.1.5,MacIntel,58.82352941,6691931c2c63981b064e1f0c,6691b4497139d7c78eb0fe0a,,,,,,,,,,,,,,,,,,,,,,,,,,,,,,,,,,,,,,,,,,,,,,,,,,,,,,,,,,,,2201.913,2212.294,0.285365854,0.190243902,1.0,0.0,0.0,4.366,compass,0.0,16.0,16.0,7.0,1.0,SoundStimuli/NoOne_AliciaKeys_Original5S.wav,,,,,,,,,,,,,,,,,,,,,,,,,,,,,,,,,,,,,,,,,,,,,,,,,,,,
,,,,,298291,1,2024-07-12_17h55.55.347,experiment,2024.1.5,MacIntel,58.82352941,6691931c2c63981b064e1f0c,6691b4497139d7c78eb0fe0a,,,,,,,,,,,,,,,,,,,,,,,,,,,,,,,,,,,,,,,,,,,,,,,,,,,,,,,,,,,,2212.295,2223.679,0.276829268,0.197560976,1.0,0.0,0.0,5.383,compass,0.0,17.0,17.0,17.0,1.0,SoundStimuli/Fallin_AliciaKeys_Cover5S.wav,,,,,,,,,,,,,,,,,,,,,,,,,,,,,,,,,,,,,,,,,,,,,,,,,,,,
,,,,,298291,1,2024-07-12_17h55.55.347,experiment,2024.1.5,MacIntel,58.82352941,6691931c2c63981b064e1f0c,6691b4497139d7c78eb0fe0a,,,,,,,,,,,,,,,,,,,,,,,,,,,,,,,,,,,,,,,,,,,,,,,,,,,,,,,,,,,,2223.679,2233.545,0.153658537,0.190243902,1.0,0.0,0.0,3.85,compass,0.0,18.0,18.0,0.0,1.0,SoundStimuli/StayinAlive_BeeGees_Cover5S.wav,,,,,,,,,,,,,,,,,,,,,,,,,,,,,,,,,,,,,,,,,,,,,,,,,,,,
,,,,,298291,1,2024-07-12_17h55.55.347,experiment,2024.1.5,MacIntel,58.82352941,6691931c2c63981b064e1f0c,6691b4497139d7c78eb0fe0a,,,,,,,,,,,,,,,,,,,,,,,,,,,,,,,,,,,,,,,,,,,,,,,,,,,,,,,,,,,,2233.545,2241.779,0.212195122,0.185365854,1.0,0.0,0.0,2.232,compass,0.0,19.0,19.0,22.0,1.0,SoundStimuli/RockWithYou_MichaelJackson_Cover5S.wav,,,,,,,,,,,,,,,,,,,,,,,,,,,,,,,,,,,,,,,,,,,,,,,,,,,,
,,,,,298291,1,2024-07-12_17h55.55.347,experiment,2024.1.5,MacIntel,58.82352941,6691931c2c63981b064e1f0c,6691b4497139d7c78eb0fe0a,,,,,,,,,,,,,,,,,,,,,,,,,,,,,,,,,,,,,,,,,,,,,,,,,,,,,,,,,,,,2241.779,2251.012,0.109756098,-0.025609756,1.0,0.0,0.0,3.233,compass,0.0,20.0,20.0,5.0,1.0,SoundStimuli/MyGirl_TheTemptations_Cover5S.wav,,,,,,,,,,,,,,,,,,,,,,,,,,,,,,,,,,,,,,,,,,,,,,,,,,,,
,,,,,298291,1,2024-07-12_17h55.55.347,experiment,2024.1.5,MacIntel,58.82352941,6691931c2c63981b064e1f0c,6691b4497139d7c78eb0fe0a,,,,,,,,,,,,,,,,,,,,,,,,,,,,,,,,,,,,,,,,,,,,,,,,,,,,,,,,,,,,2251.012,2257.312,0.120731707,0.041463415,1.0,0.0,0.0,0.3,compass,0.0,21.0,21.0,23.0,1.0,SoundStimuli/StrawberryFieldsForever_TheBeatles_Cover5S.wav,,,,,,,,,,,,,,,,,,,,,,,,,,,,,,,,,,,,,,,,,,,,,,,,,,,,
,,,,,298291,1,2024-07-12_17h55.55.347,experiment,2024.1.5,MacIntel,58.82352941,6691931c2c63981b064e1f0c,6691b4497139d7c78eb0fe0a,,,,,,,,,,,,,,,,,,,,,,,,,,,,,,,,,,,,,,,,,,,,,,,,,,,,,,,,,,,,2257.312,2267.595,0.080487805,0.097560976,1.0,0.0,0.0,4.283,compass,0.0,22.0,22.0,31.0,1.0,SoundStimuli/TheBattleOfNewOrleans_JohnnyHorton_Original5S.wav,,,,,,,,,,,,,,,,,,,,,,,,,,,,,,,,,,,,,,,,,,,,,,,,,,,,
,,,,,298291,1,2024-07-12_17h55.55.347,experiment,2024.1.5,MacIntel,58.82352941,6691931c2c63981b064e1f0c,6691b4497139d7c78eb0fe0a,,,,,,,,,,,,,,,,,,,,,,,,,,,,,,,,,,,,,,,,,,,,,,,,,,,,,,,,,,,,2267.596,2276.162,-0.109756098,0.114634146,1.0,0.0,0.0,2.55,compass,0.0,23.0,23.0,25.0,1.0,SoundStimuli/Respect_ArethaFranklin_Cover5S.wav,,,,,,,,,,,,,,,,,,,,,,,,,,,,,,,,,,,,,,,,,,,,,,,,,,,,
,,,,,298291,1,2024-07-12_17h55.55.347,experiment,2024.1.5,MacIntel,58.82352941,6691931c2c63981b064e1f0c,6691b4497139d7c78eb0fe0a,,,,,,,,,,,,,,,,,,,,,,,,,,,,,,,,,,,,,,,,,,,,,,,,,,,,,,,,,,,,2276.163,2283.329,-0.109756098,0.114634146,1.0,0.0,0.0,1.15,compass,0.0,24.0,24.0,9.0,1.0,SoundStimuli/Despacito_LuisFonsiDaddyYankee_Original5S.wav,,,,,,,,,,,,,,,,,,,,,,,,,,,,,,,,,,,,,,,,,,,,,,,,,,,,
,,,,,298291,1,2024-07-12_17h55.55.347,experiment,2024.1.5,MacIntel,58.82352941,6691931c2c63981b064e1f0c,6691b4497139d7c78eb0fe0a,,,,,,,,,,,,,,,,,,,,,,,,,,,,,,,,,,,,,,,,,,,,,,,,,,,,,,,,,,,,2283.33,2290.113,-0.212195122,-0.084146341,1.0,0.0,0.0,0.767,compass,0.0,25.0,25.0,10.0,1.0,SoundStimuli/BadDay_DanielPowter_Original5S.wav,,,,,,,,,,,,,,,,,,,,,,,,,,,,,,,,,,,,,,,,,,,,,,,,,,,,
,,,,,298291,1,2024-07-12_17h55.55.347,experiment,2024.1.5,MacIntel,58.82352941,6691931c2c63981b064e1f0c,6691b4497139d7c78eb0fe0a,,,,,,,,,,,,,,,,,,,,,,,,,,,,,,,,,,,,,,,,,,,,,,,,,,,,,,,,,,,,2290.113,2296.162,0.164634146,0.046341463,1.0,0.0,0.0,0.033,compass,0.0,26.0,26.0,6.0,1.0,SoundStimuli/Levitating_DuaLipa_Original5S.wav,,,,,,,,,,,,,,,,,,,,,,,,,,,,,,,,,,,,,,,,,,,,,,,,,,,,
,,,,,298291,1,2024-07-12_17h55.55.347,experiment,2024.1.5,MacIntel,58.82352941,6691931c2c63981b064e1f0c,6691b4497139d7c78eb0fe0a,,,,,,,,,,,,,,,,,,,,,,,,,,,,,,,,,,,,,,,,,,,,,,,,,,,,,,,,,,,,2296.162,2303.146,0.164634146,0.046341463,1.0,0.0,0.0,0.967,compass,0.0,27.0,27.0,29.0,1.0,SoundStimuli/OldTownRoad_LilNasX_Cover5S.wav,,,,,,,,,,,,,,,,,,,,,,,,,,,,,,,,,,,,,,,,,,,,,,,,,,,,
,,,,,298291,1,2024-07-12_17h55.55.347,experiment,2024.1.5,MacIntel,58.82352941,6691931c2c63981b064e1f0c,6691b4497139d7c78eb0fe0a,,,,,,,,,,,,,,,,,,,,,,,,,,,,,,,,,,,,,,,,,,,,,,,,,,,,,,,,,,,,2303.147,2309.362,-0.245121951,-0.126829268,1.0,0.0,0.0,0.2,compass,0.0,28.0,28.0,14.0,1.0,SoundStimuli/BlindingLights_TheWeeknd_Cover5S.wav,,,,,,,,,,,,,,,,,,,,,,,,,,,,,,,,,,,,,,,,,,,,,,,,,,,,
,,,,,298291,1,2024-07-12_17h55.55.347,experiment,2024.1.5,MacIntel,58.82352941,6691931c2c63981b064e1f0c,6691b4497139d7c78eb0fe0a,,,,,,,,,,,,,,,,,,,,,,,,,,,,,,,,,,,,,,,,,,,,,,,,,,,,,,,,,,,,2309.363,2317.512,0.069512195,0.075609756,1.0,0.0,0.0,2.134,compass,0.0,29.0,29.0,20.0,1.0,SoundStimuli/HeyYa_Outkast_Original5S.wav,,,,,,,,,,,,,,,,,,,,,,,,,,,,,,,,,,,,,,,,,,,,,,,,,,,,
,,,,,298291,1,2024-07-12_17h55.55.347,experiment,2024.1.5,MacIntel,58.82352941,6691931c2c63981b064e1f0c,6691b4497139d7c78eb0fe0a,,,,,,,,,,,,,,,,,,,,,,,,,,,,,,,,,,,,,,,,,,,,,,,,,,,,,,,,,,,,2317.513,2323.896,-0.046341463,0.086585366,1.0,0.0,0.0,0.367,compass,0.0,30.0,30.0,30.0,1.0,SoundStimuli/PokerFace_LadyGaga_Cover5S.wav,,,,,,,,,,,,,,,,,,,,,,,,,,,,,,,,,,,,,,,,,,,,,,,,,,,,
,,,,,298291,1,2024-07-12_17h55.55.347,experiment,2024.1.5,MacIntel,58.82352941,6691931c2c63981b064e1f0c,6691b4497139d7c78eb0fe0a,,,,,,,,,,,,,,,,,,,,,,,,,,,,,,,,,,,,,,,,,,,,,,,,,,,,,,,,,,,,2323.896,2330.063,-0.063414634,0.065853659,1.0,0.0,0.0,0.166,compass,0.0,31.0,31.0,8.0,1.0,SoundStimuli/LikeAPrayer_Madonna_Cover5S.wav,,,,,,,,,,,,,,,,,,,,,,,,,,,,,,,,,,,,,,,,,,,,,,,,,,,,
,,,,,298291,1,2024-07-12_17h55.55.347,experiment,2024.1.5,MacIntel,58.82352941,6691931c2c63981b064e1f0c,6691b4497139d7c78eb0fe0a,,,,,,,,,,,,,,,,,,,,,,,,,,,,,,,,,,,,,,,,,,,,,,,,,,,,,,,,,,,,2330.063,2338.096,0.086585366,0.090243902,1.0,0.0,0.0,2.017,compass,0.0,32.0,32.0,12.0,1.0,SoundStimuli/IWillAlwaysLoveYou_WhitneyHouston_Original5S.wav,,,,,,,,,,,,,,,,,,,,,,,,,,,,,,,,,,,,,,,,,,,,,,,,,,,,
,,,,,298291,1,2024-07-12_17h55.55.347,experiment,2024.1.5,MacIntel,58.82352941,6691931c2c63981b064e1f0c,6691b4497139d7c78eb0fe0a,,,,,,,,,,,,,,,,,,,,,,,,,,,,,,,,,,,,,,,,,,,,,,,,,,,,,,,,,,,,2338.097,2360.046,0.084146341,0.090243902,1.0,0.0,0.0,15.934,compass,0.0,33.0,33.0,28.0,1.0,SoundStimuli/ComeAndGetYourLove_Redbone_Cover5S.wav,,,,,,,,,,,,,,,,,,,,,,,,,,,,,,,,,,,,,,,,,,,,,,,,,,,,
,,,,,298291,1,2024-07-12_17h55.55.347,experiment,2024.1.5,MacIntel,58.82352941,6691931c2c63981b064e1f0c,6691b4497139d7c78eb0fe0a,,,,,,,,,,,,,,,,,,,,,,,,,,,,,,,,,,,,,,,,,,,,,,,,,,,,,,,,,,,,2360.046,2367.513,0.081707317,0.125609756,1.0,0.0,0.0,1.466,compass,0.0,34.0,34.0,32.0,1.0,SoundStimuli/HeatWaves_GlassAnimals_Cover5S.wav,,,,,,,,,,,,,,,,,,,,,,,,,,,,,,,,,,,,,,,,,,,,,,,,,,,,
,,,,,298291,1,2024-07-12_17h55.55.347,experiment,2024.1.5,MacIntel,58.82352941,6691931c2c63981b064e1f0c,6691b4497139d7c78eb0fe0a,,,,,,,,,,,,,,,,,,,,,,,,,,,,,,,,,,,,,,,,,,,,,,,,,,,,,,,,,,,,,,,,,,,,,,,,,,,2367.513,2367.513,,,,2367.513,2367.513,,,,0.0,3.0,3.0,3.0,1.0,block_order/blockC.xlsx,,,,,,,,,,,,,,,,,,,,,,,,,,,,,,,,,,,,
,,,,,298291,1,2024-07-12_17h55.55.347,experiment,2024.1.5,MacIntel,58.82352941,6691931c2c63981b064e1f0c,6691b4497139d7c78eb0fe0a,,,,,,,,,,,,,,,,,,,,,,,,,,,,,,,,,,,,,,,,,,,,,,,,,,,,,,,,,,,,,,,,,,,,,,,,,,,,,,,,,,,,,,,,,,,34.0,Item 2,I am 34 and played the clarinet during ages 10-18.,Item 3,Youtube,6.0,7.0,House related activies and exercise,Rarely,Never,Never,Never,Always,Rarely,Unsure,Sometimes,Never,Never,Sometimes,Never,Never,Never,Never,Never,none,r&b,pop,hip hop,I sometimes run out of time to listen as much.,0.0,0.0,0.0,0.0,1.0,,
,,,,,298291,1,2024-07-12_17h55.55.347,experiment,2024.1.5,MacIntel,58.82352941,6691931c2c63981b064e1f0c,6691b4497139d7c78eb0fe0a,,,,,,,,,,,,,,,,,,,,,,,,,,,,,,,,,,,,,,,,,,,,,,,,,,,,,,,,,,,,,,,,,,,,,,,,,,,,,,,,,,,,,,,,,,,,,,,,,,,,,,,,,,,,,,,,,,,,,,,,,,,,,2518.173,2520.531
