welcome.started,welcome.stopped,space_to_continue.keys,space_to_continue.rt,space_to_continue.duration,participant,session,date,expName,psychopyVersion,OS,frameRate,STUDY_ID,SESSION_ID,consent.consent,consent.consent_recontact,consent_check.started,consent_check.stopped,calibration_ready.started,calibration_ready.stopped,cal_ready.keys,cal_ready.rt,cal_ready.duration,calibration.started,calibration.stopped,mouse.x,mouse.y,mouse.leftButton,mouse.midButton,mouse.rightButton,mouse.time,mouse.clicked_name,move_on.keys,move_on.rt,move_on.duration,run_cal.thisRepN,run_cal.thisTrialN,run_cal.thisN,run_cal.thisIndex,run_cal.ran,emotion_training_ready.started,emotion_training_ready.stopped,training_move_on.keys,training_move_on.rt,training_move_on.duration,examples.started,examples.stopped,emotion_scale.started,emotion_scale.stopped,scale_next.keys,scale_next.rt,scale_next.duration,instructions.started,instructions.stopped,next.keys,next.rt,next.duration,practice_task.started,practice_task.stopped,mouse_rating_2.x,mouse_rating_2.y,mouse_rating_2.leftButton,mouse_rating_2.midButton,mouse_rating_2.rightButton,mouse_rating_2.time,mouse_rating_2.clicked_name,ready.started,ready.stopped,key_resp.keys,key_resp.rt,key_resp.duration,set_group.started,set_group.stopped,task.started,task.stopped,mouse_rating.x,mouse_rating.y,mouse_rating.leftButton,mouse_rating.midButton,mouse_rating.rightButton,mouse_rating.time,mouse_rating.clicked_name,trials.thisRepN,trials.thisTrialN,trials.thisN,trials.thisIndex,trials.ran,clip,short_break.started,short_break.stopped,space_to_move_on.keys,space_to_move_on.rt,space_to_move_on.duration,instruction_reminder.started,instruction_reminder.stopped,reminder_move_on.keys,reminder_move_on.rt,reminder_move_on.duration,blocks.thisRepN,blocks.thisTrialN,blocks.thisN,blocks.thisIndex,blocks.ran,block,post_survey.age,post_survey.musician,post_survey.listen_time,post_survey.medium,post_survey.music_seeking,post_survey.music_choice,post_survey.activities,post_survey.music_making,post_survey.question1.A cappella,post_survey.question1.Classic rock,post_survey.question1.Disco,post_survey.question1.Latin,post_survey.question1.Electronic (EDM),post_survey.question1.R&B,post_survey.question1.Jazz,post_survey.question1.Classical,post_survey.question1.Country,post_survey.question1.Ambient,post_survey.question1.Reggae,post_survey.question1.Alternative rock,post_survey.question1.Metal,post_survey.question1.Folk/indie,post_survey.question1.Pop,post_survey.question1.Hip hop,post_survey.genres_ranked.text1,post_survey.genres_ranked.text2,post_survey.genres_ranked.text3,post_survey.habit_change,show_exp.thisRepN,show_exp.thisTrialN,show_exp.thisN,show_exp.thisIndex,show_exp.ran,goodbye.started,goodbye.stopped
0.0004,2.1778,space,2.1717,,331869,1,2024-07-12_17h33.44.983,experiment,2024.1.5,Win32,169.4915254,6691931c2c63981b064e1f0c,6691af1f250cdadffd5d9b79,,,,,,,,,,,,,,,,,,,,,,,,,,,,,,,,,,,,,,,,,,,,,,,,,,,,,,,,,,,,,,,,,,,,,,,,,,,,,,,,,,,,,,,,,,,,,,,,,,,,,,,,,,,,,,,,,,,,,,,,,,,,,
,,,,,331869,1,2024-07-12_17h33.44.983,experiment,2024.1.5,Win32,169.4915254,6691931c2c63981b064e1f0c,6691af1f250cdadffd5d9b79,yes,yes,,,,,,,,,,,,,,,,,,,,,,,,,,,,,,,,,,,,,,,,,,,,,,,,,,,,,,,,,,,,,,,,,,,,,,,,,,,,,,,,,,,,,,,,,,,,,,,,,,,,,,,,,,,,,,,,,,,,,,,,,,,
,,,,,331869,1,2024-07-12_17h33.44.983,experiment,2024.1.5,Win32,169.4915254,6691931c2c63981b064e1f0c,6691af1f250cdadffd5d9b79,,,70.4966,70.4967,,,,,,,,,,,,,,,,,,,,,,,,,,,,,,,,,,,,,,,,,,,,,,,,,,,,,,,,,,,,,,,,,,,,,,,,,,,,,,,,,,,,,,,,,,,,,,,,,,,,,,,,,,,,,,,,,,,,,,,,,
,,,,,331869,1,2024-07-12_17h33.44.983,experiment,2024.1.5,Win32,169.4915254,6691931c2c63981b064e1f0c,6691af1f250cdadffd5d9b79,,,,,70.4979,75.5302,space,5.0242,,75.5308,103.2222,[-0.017361111111111112],[-0.4152777777777778],[1],[0],[0],[19.590899999999962],"[""play_button""]",y,26.6791,,0.0,0.0,0.0,0.0,1.0,,,,,,,,,,,,,,,,,,,,,,,,,,,,,,,,,,,,,,,,,,,,,,,,,,,,,,,,,,,,,,,,,,,,,,,,,,,,,,,,,,,,,,,,,,,,,,,,,,,
,,,,,331869,1,2024-07-12_17h33.44.983,experiment,2024.1.5,Win32,169.4915254,6691931c2c63981b064e1f0c,6691af1f250cdadffd5d9b79,,,,,,,,,,,,,,,,,,,,,,,,,,,103.2225,145.122,space,41.8849,,145.1221,265.1241,265.1242,277.059,right,8.4212,,277.059,287.0823,space,10.0084,,287.0824,300.6995,0.159722222,-0.147222222,1.0,0.0,0.0,7.6154,compass_2,300.6995,303.2027,space,2.496,,303.2028,303.2064,303.2163,310.6636,0.259027778,0.263888889,1.0,0.0,0.0,1.447,compass,0.0,0.0,0.0,5.0,1.0,SoundStimuli/JoyToTheWorld_ThreeDogNight_Cover5S.wav,,,,,,,,,,,,,,,,,,,,,,,,,,,,,,,,,,,,,,,,,,,,,,,,,,,
,,,,,331869,1,2024-07-12_17h33.44.983,experiment,2024.1.5,Win32,169.4915254,6691931c2c63981b064e1f0c,6691af1f250cdadffd5d9b79,,,,,,,,,,,,,,,,,,,,,,,,,,,,,,,,,,,,,,,,,,,,,,,,,,,,,,,,,,,,310.668,324.6454,-0.13125,-0.1125,1.0,0.0,0.0,7.9748,compass,0.0,1.0,1.0,17.0,1.0,SoundStimuli/IWannaDanceWithSomebody_WhitneyHouston_Cover5S.wav,,,,,,,,,,,,,,,,,,,,,,,,,,,,,,,,,,,,,,,,,,,,,,,,,,,
,,,,,331869,1,2024-07-12_17h33.44.983,experiment,2024.1.5,Win32,169.4915254,6691931c2c63981b064e1f0c,6691af1f250cdadffd5d9b79,,,,,,,,,,,,,,,,,,,,,,,,,,,,,,,,,,,,,,,,,,,,,,,,,,,,,,,,,,,,324.649,335.3172,-0.088194444,-0.0625,1.0,0.0,0.0,4.6648,compass,0.0,2.0,2.0,23.0,1.0,SoundStimuli/IWalkTheLine_JohnnyCash_Cover5S.wav,,,,,,,,,,,,,,,,,,,,,,,,,,,,,,,,,,,,,,,,,,,,,,,,,,,
,,,,,331869,1,2024-07-12_17h33.44.983,experiment,2024.1.5,Win32,169.4915254,6691931c2c63981b064e1f0c,6691af1f250cdadffd5d9b79,,,,,,,,,,,,,,,,,,,,,,,,,,,,,,,,,,,,,,,,,,,,,,,,,,,,,,,,,,,,335.321,346.8592,0.172222222,-0.164583333,1.0,0.0,0.0,5.5347,compass,0.0,3.0,3.0,7.0,1.0,SoundStimuli/MackTheKnife_BobbyDarin_Original5S.wav,,,,,,,,,,,,,,,,,,,,,,,,,,,,,,,,,,,,,,,,,,,,,,,,,,,
,,,,,331869,1,2024-07-12_17h33.44.983,experiment,2024.1.5,Win32,169.4915254,6691931c2c63981b064e1f0c,6691af1f250cdadffd5d9b79,,,,,,,,,,,,,,,,,,,,,,,,,,,,,,,,,,,,,,,,,,,,,,,,,,,,,,,,,,,,346.8628,355.9208,0.276388889,0.245833333,1.0,0.0,0.0,3.0513,compass,0.0,4.0,4.0,22.0,1.0,SoundStimuli/Happy_PharellWilliams_Cover5S.wav,,,,,,,,,,,,,,,,,,,,,,,,,,,,,,,,,,,,,,,,,,,,,,,,,,,
,,,,,331869,1,2024-07-12_17h33.44.983,experiment,2024.1.5,Win32,169.4915254,6691931c2c63981b064e1f0c,6691af1f250cdadffd5d9b79,,,,,,,,,,,,,,,,,,,,,,,,,,,,,,,,,,,,,,,,,,,,,,,,,,,,,,,,,,,,355.9245,362.75,0.322222222,0.333333333,1.0,0.0,0.0,0.8198,compass,0.0,5.0,5.0,11.0,1.0,SoundStimuli/BlurredLines_RobinThicke_Original5S.wav,,,,,,,,,,,,,,,,,,,,,,,,,,,,,,,,,,,,,,,,,,,,,,,,,,,
,,,,,331869,1,2024-07-12_17h33.44.983,experiment,2024.1.5,Win32,169.4915254,6691931c2c63981b064e1f0c,6691af1f250cdadffd5d9b79,,,,,,,,,,,,,,,,,,,,,,,,,,,,,,,,,,,,,,,,,,,,,,,,,,,,,,,,,,,,362.7537,371.4514,0.238888889,-0.268055556,1.0,0.0,0.0,2.6942,compass,0.0,6.0,6.0,32.0,1.0,SoundStimuli/Dilemma_NellyKellyRowland_Original5S.wav,,,,,,,,,,,,,,,,,,,,,,,,,,,,,,,,,,,,,,,,,,,,,,,,,,,
,,,,,331869,1,2024-07-12_17h33.44.983,experiment,2024.1.5,Win32,169.4915254,6691931c2c63981b064e1f0c,6691af1f250cdadffd5d9b79,,,,,,,,,,,,,,,,,,,,,,,,,,,,,,,,,,,,,,,,,,,,,,,,,,,,,,,,,,,,371.455,381.2611,0.208333333,0.013194444,1.0,0.0,0.0,3.8042,compass,0.0,7.0,7.0,26.0,1.0,SoundStimuli/TheSign_AceOfBase_Original5S.wav,,,,,,,,,,,,,,,,,,,,,,,,,,,,,,,,,,,,,,,,,,,,,,,,,,,
,,,,,331869,1,2024-07-12_17h33.44.983,experiment,2024.1.5,Win32,169.4915254,6691931c2c63981b064e1f0c,6691af1f250cdadffd5d9b79,,,,,,,,,,,,,,,,,,,,,,,,,,,,,,,,,,,,,,,,,,,,,,,,,,,,,,,,,,,,381.2647,388.7998,-0.067361111,0.032638889,1.0,0.0,0.0,1.533,compass,0.0,8.0,8.0,12.0,1.0,SoundStimuli/UnbreakMyHeart_ToniBraxton_Cover5S.wav,,,,,,,,,,,,,,,,,,,,,,,,,,,,,,,,,,,,,,,,,,,,,,,,,,,
,,,,,331869,1,2024-07-12_17h33.44.983,experiment,2024.1.5,Win32,169.4915254,6691931c2c63981b064e1f0c,6691af1f250cdadffd5d9b79,,,,,,,,,,,,,,,,,,,,,,,,,,,,,,,,,,,,,,,,,,,,,,,,,,,,,,,,,,,,388.8033,401.9641,-0.554166667,0.397916667,1.0,0.0,0.0,2.2021,compass,0.0,9.0,9.0,18.0,1.0,SoundStimuli/Weak_SWV_Original5S.wav,,,,,,,,,,,,,,,,,,,,,,,,,,,,,,,,,,,,,,,,,,,,,,,,,,,
,,,,,331869,1,2024-07-12_17h33.44.983,experiment,2024.1.5,Win32,169.4915254,6691931c2c63981b064e1f0c,6691af1f250cdadffd5d9b79,,,,,,,,,,,,,,,,,,,,,,,,,,,,,,,,,,,,,,,,,,,,,,,,,,,,,,,,,,,,401.9678,408.4191,0.305555556,0.286111111,1.0,0.0,0.0,0.4457,compass,0.0,10.0,10.0,27.0,1.0,SoundStimuli/EyeOfTheTiger_Survivor_Original5S.wav,,,,,,,,,,,,,,,,,,,,,,,,,,,,,,,,,,,,,,,,,,,,,,,,,,,
,,,,,331869,1,2024-07-12_17h33.44.983,experiment,2024.1.5,Win32,169.4915254,6691931c2c63981b064e1f0c,6691af1f250cdadffd5d9b79,,,,,,,,,,,,,,,,,,,,,,,,,,,,,,,,,,,,,,,,,,,,,,,,,,,,,,,,,,,,408.4225,417.0129,0.275694444,-0.236111111,1.0,0.0,0.0,2.5847,compass,0.0,11.0,11.0,25.0,1.0,SoundStimuli/IllMakeLoveToYou_BoyzIIMen_Original5S.wav,,,,,,,,,,,,,,,,,,,,,,,,,,,,,,,,,,,,,,,,,,,,,,,,,,,
,,,,,331869,1,2024-07-12_17h33.44.983,experiment,2024.1.5,Win32,169.4915254,6691931c2c63981b064e1f0c,6691af1f250cdadffd5d9b79,,,,,,,,,,,,,,,,,,,,,,,,,,,,,,,,,,,,,,,,,,,,,,,,,,,,,,,,,,,,417.0165,430.3669,0.272916667,-0.096527778,1.0,0.0,0.0,7.344,compass,0.0,12.0,12.0,4.0,1.0,SoundStimuli/Dreams_FleetwoodMac_Cover5S.wav,,,,,,,,,,,,,,,,,,,,,,,,,,,,,,,,,,,,,,,,,,,,,,,,,,,
,,,,,331869,1,2024-07-12_17h33.44.983,experiment,2024.1.5,Win32,169.4915254,6691931c2c63981b064e1f0c,6691af1f250cdadffd5d9b79,,,,,,,,,,,,,,,,,,,,,,,,,,,,,,,,,,,,,,,,,,,,,,,,,,,,,,,,,,,,430.3708,444.6827,-0.165277778,0.158333333,1.0,0.0,0.0,8.3079,compass,0.0,13.0,13.0,1.0,1.0,SoundStimuli/Smooth_SantanaRobThomas_Cover5S.wav,,,,,,,,,,,,,,,,,,,,,,,,,,,,,,,,,,,,,,,,,,,,,,,,,,,
,,,,,331869,1,2024-07-12_17h33.44.983,experiment,2024.1.5,Win32,169.4915254,6691931c2c63981b064e1f0c,6691af1f250cdadffd5d9b79,,,,,,,,,,,,,,,,,,,,,,,,,,,,,,,,,,,,,,,,,,,,,,,,,,,,,,,,,,,,444.6865,455.7795,0.066666667,0.256944444,1.0,0.0,0.0,5.0898,compass,0.0,14.0,14.0,31.0,1.0,SoundStimuli/TossinAndTurnin_BobbyLewis_Cover5S.wav,,,,,,,,,,,,,,,,,,,,,,,,,,,,,,,,,,,,,,,,,,,,,,,,,,,
,,,,,331869,1,2024-07-12_17h33.44.983,experiment,2024.1.5,Win32,169.4915254,6691931c2c63981b064e1f0c,6691af1f250cdadffd5d9b79,,,,,,,,,,,,,,,,,,,,,,,,,,,,,,,,,,,,,,,,,,,,,,,,,,,,,,,,,,,,455.7831,467.6054,-0.136111111,0.073611111,1.0,0.0,0.0,5.8178,compass,0.0,15.0,15.0,20.0,1.0,SoundStimuli/FlashdanceWhatAFeeling_IreneCara_Cover5S.wav,,,,,,,,,,,,,,,,,,,,,,,,,,,,,,,,,,,,,,,,,,,,,,,,,,,
,,,,,331869,1,2024-07-12_17h33.44.983,experiment,2024.1.5,Win32,169.4915254,6691931c2c63981b064e1f0c,6691af1f250cdadffd5d9b79,,,,,,,,,,,,,,,,,,,,,,,,,,,,,,,,,,,,,,,,,,,,,,,,,,,,,,,,,,,,467.609,479.8996,-0.159027778,-0.21875,1.0,0.0,0.0,6.2885,compass,0.0,16.0,16.0,19.0,1.0,SoundStimuli/YouLightUpMyLife_DebbyBoone_Cover5S.wav,,,,,,,,,,,,,,,,,,,,,,,,,,,,,,,,,,,,,,,,,,,,,,,,,,,
,,,,,331869,1,2024-07-12_17h33.44.983,experiment,2024.1.5,Win32,169.4915254,6691931c2c63981b064e1f0c,6691af1f250cdadffd5d9b79,,,,,,,,,,,,,,,,,,,,,,,,,,,,,,,,,,,,,,,,,,,,,,,,,,,,,,,,,,,,479.9033,486.9993,0.165972222,-0.145138889,1.0,0.0,0.0,1.0925,compass,0.0,17.0,17.0,16.0,1.0,SoundStimuli/ItsAllInTheGame_TommyEdwards_Original5S.wav,,,,,,,,,,,,,,,,,,,,,,,,,,,,,,,,,,,,,,,,,,,,,,,,,,,
,,,,,331869,1,2024-07-12_17h33.44.983,experiment,2024.1.5,Win32,169.4915254,6691931c2c63981b064e1f0c,6691af1f250cdadffd5d9b79,,,,,,,,,,,,,,,,,,,,,,,,,,,,,,,,,,,,,,,,,,,,,,,,,,,,,,,,,,,,487.0027,496.4226,-0.305555556,-0.300694444,1.0,0.0,0.0,3.4176,compass,0.0,18.0,18.0,9.0,1.0,SoundStimuli/HowDoILive_LeAnnRimes_Original5S.wav,,,,,,,,,,,,,,,,,,,,,,,,,,,,,,,,,,,,,,,,,,,,,,,,,,,
,,,,,331869,1,2024-07-12_17h33.44.983,experiment,2024.1.5,Win32,169.4915254,6691931c2c63981b064e1f0c,6691af1f250cdadffd5d9b79,,,,,,,,,,,,,,,,,,,,,,,,,,,,,,,,,,,,,,,,,,,,,,,,,,,,,,,,,,,,496.4265,506.7237,-0.171527778,0.130555556,1.0,0.0,0.0,4.2942,compass,0.0,19.0,19.0,34.0,1.0,SoundStimuli/Irreplaceable_Beyonce_Original5S.wav,,,,,,,,,,,,,,,,,,,,,,,,,,,,,,,,,,,,,,,,,,,,,,,,,,,
,,,,,331869,1,2024-07-12_17h33.44.983,experiment,2024.1.5,Win32,169.4915254,6691931c2c63981b064e1f0c,6691af1f250cdadffd5d9b79,,,,,,,,,,,,,,,,,,,,,,,,,,,,,,,,,,,,,,,,,,,,,,,,,,,,,,,,,,,,506.7274,522.0042,0.211111111,-0.214583333,1.0,0.0,0.0,9.2763,compass,0.0,20.0,20.0,13.0,1.0,SoundStimuli/Perfect_EdSheeran_Original5S.wav,,,,,,,,,,,,,,,,,,,,,,,,,,,,,,,,,,,,,,,,,,,,,,,,,,,
,,,,,331869,1,2024-07-12_17h33.44.983,experiment,2024.1.5,Win32,169.4915254,6691931c2c63981b064e1f0c,6691af1f250cdadffd5d9b79,,,,,,,,,,,,,,,,,,,,,,,,,,,,,,,,,,,,,,,,,,,,,,,,,,,,,,,,,,,,522.0082,529.1191,0.185416667,-0.190972222,1.0,0.0,0.0,1.1051,compass,0.0,21.0,21.0,8.0,1.0,SoundStimuli/EndlessLove_DianaRossLionelRichie_Original5S.wav,,,,,,,,,,,,,,,,,,,,,,,,,,,,,,,,,,,,,,,,,,,,,,,,,,,
,,,,,331869,1,2024-07-12_17h33.44.983,experiment,2024.1.5,Win32,169.4915254,6691931c2c63981b064e1f0c,6691af1f250cdadffd5d9b79,,,,,,,,,,,,,,,,,,,,,,,,,,,,,,,,,,,,,,,,,,,,,,,,,,,,,,,,,,,,529.1228,538.4859,-0.091666667,0.058333333,1.0,0.0,0.0,3.363,compass,0.0,22.0,22.0,24.0,1.0,SoundStimuli/Kiss_Prince_Original5S.wav,,,,,,,,,,,,,,,,,,,,,,,,,,,,,,,,,,,,,,,,,,,,,,,,,,,
,,,,,331869,1,2024-07-12_17h33.44.983,experiment,2024.1.5,Win32,169.4915254,6691931c2c63981b064e1f0c,6691af1f250cdadffd5d9b79,,,,,,,,,,,,,,,,,,,,,,,,,,,,,,,,,,,,,,,,,,,,,,,,,,,,,,,,,,,,538.4899,545.111,-0.174305556,-0.147916667,1.0,0.0,0.0,0.618,compass,0.0,23.0,23.0,33.0,1.0,SoundStimuli/TheBoyIsMine_BrandyMonica_Cover5S.wav,,,,,,,,,,,,,,,,,,,,,,,,,,,,,,,,,,,,,,,,,,,,,,,,,,,
,,,,,331869,1,2024-07-12_17h33.44.983,experiment,2024.1.5,Win32,169.4915254,6691931c2c63981b064e1f0c,6691af1f250cdadffd5d9b79,,,,,,,,,,,,,,,,,,,,,,,,,,,,,,,,,,,,,,,,,,,,,,,,,,,,,,,,,,,,545.1145,551.64,-0.215277778,-0.209027778,1.0,0.0,0.0,0.525,compass,0.0,24.0,24.0,28.0,1.0,SoundStimuli/IWantToHoldYourHand_TheBeatles_Cover5S.wav,,,,,,,,,,,,,,,,,,,,,,,,,,,,,,,,,,,,,,,,,,,,,,,,,,,
,,,,,331869,1,2024-07-12_17h33.44.983,experiment,2024.1.5,Win32,169.4915254,6691931c2c63981b064e1f0c,6691af1f250cdadffd5d9b79,,,,,,,,,,,,,,,,,,,,,,,,,,,,,,,,,,,,,,,,,,,,,,,,,,,,,,,,,,,,551.6435,562.9205,0.158333333,0.060416667,1.0,0.0,0.0,5.2729,compass,0.0,25.0,25.0,3.0,1.0,SoundStimuli/PartyRockAnthem_LMFAO_Cover5S.wav,,,,,,,,,,,,,,,,,,,,,,,,,,,,,,,,,,,,,,,,,,,,,,,,,,,
,,,,,331869,1,2024-07-12_17h33.44.983,experiment,2024.1.5,Win32,169.4915254,6691931c2c63981b064e1f0c,6691af1f250cdadffd5d9b79,,,,,,,,,,,,,,,,,,,,,,,,,,,,,,,,,,,,,,,,,,,,,,,,,,,,,,,,,,,,562.9241,569.3848,-0.195138889,0.186111111,1.0,0.0,0.0,0.4588,compass,0.0,26.0,26.0,2.0,1.0,SoundStimuli/SmellsLikeTeenSpirit_Nirvana_Cover5S.wav,,,,,,,,,,,,,,,,,,,,,,,,,,,,,,,,,,,,,,,,,,,,,,,,,,,
,,,,,331869,1,2024-07-12_17h33.44.983,experiment,2024.1.5,Win32,169.4915254,6691931c2c63981b064e1f0c,6691af1f250cdadffd5d9b79,,,,,,,,,,,,,,,,,,,,,,,,,,,,,,,,,,,,,,,,,,,,,,,,,,,,,,,,,,,,569.3883,576.247,0.190277778,0.184027778,1.0,0.0,0.0,0.8547,compass,0.0,27.0,27.0,10.0,1.0,SoundStimuli/LeFreak_Chic_Original5S.wav,,,,,,,,,,,,,,,,,,,,,,,,,,,,,,,,,,,,,,,,,,,,,,,,,,,
,,,,,331869,1,2024-07-12_17h33.44.983,experiment,2024.1.5,Win32,169.4915254,6691931c2c63981b064e1f0c,6691af1f250cdadffd5d9b79,,,,,,,,,,,,,,,,,,,,,,,,,,,,,,,,,,,,,,,,,,,,,,,,,,,,,,,,,,,,576.2505,582.6668,-0.198611111,-0.195138889,1.0,0.0,0.0,0.4158,compass,0.0,28.0,28.0,0.0,1.0,SoundStimuli/GimmeShelter_RollingStones_Cover5S.wav,,,,,,,,,,,,,,,,,,,,,,,,,,,,,,,,,,,,,,,,,,,,,,,,,,,
,,,,,331869,1,2024-07-12_17h33.44.983,experiment,2024.1.5,Win32,169.4915254,6691931c2c63981b064e1f0c,6691af1f250cdadffd5d9b79,,,,,,,,,,,,,,,,,,,,,,,,,,,,,,,,,,,,,,,,,,,,,,,,,,,,,,,,,,,,582.6705,593.2724,-0.179861111,-0.177777778,1.0,0.0,0.0,4.5999,compass,0.0,29.0,29.0,21.0,1.0,SoundStimuli/BridgeOverTroubledWater_SimonAndGarfunkel_Cover5S.wav,,,,,,,,,,,,,,,,,,,,,,,,,,,,,,,,,,,,,,,,,,,,,,,,,,,
,,,,,331869,1,2024-07-12_17h33.44.983,experiment,2024.1.5,Win32,169.4915254,6691931c2c63981b064e1f0c,6691af1f250cdadffd5d9b79,,,,,,,,,,,,,,,,,,,,,,,,,,,,,,,,,,,,,,,,,,,,,,,,,,,,,,,,,,,,593.276,602.6839,-0.50625,0.390972222,1.0,0.0,0.0,0.6782,compass,0.0,30.0,30.0,29.0,1.0,SoundStimuli/BetteDavisEyes_KimCarnes_Cover5S.wav,,,,,,,,,,,,,,,,,,,,,,,,,,,,,,,,,,,,,,,,,,,,,,,,,,,
,,,,,331869,1,2024-07-12_17h33.44.983,experiment,2024.1.5,Win32,169.4915254,6691931c2c63981b064e1f0c,6691af1f250cdadffd5d9b79,,,,,,,,,,,,,,,,,,,,,,,,,,,,,,,,,,,,,,,,,,,,,,,,,,,,,,,,,,,,602.6874,610.6029,0.167361111,0.186805556,1.0,0.0,0.0,1.9117,compass,0.0,31.0,31.0,15.0,1.0,SoundStimuli/CrazyInLove_BeyonceFtJayZ_Original5S.wav,,,,,,,,,,,,,,,,,,,,,,,,,,,,,,,,,,,,,,,,,,,,,,,,,,,
,,,,,331869,1,2024-07-12_17h33.44.983,experiment,2024.1.5,Win32,169.4915254,6691931c2c63981b064e1f0c,6691af1f250cdadffd5d9b79,,,,,,,,,,,,,,,,,,,,,,,,,,,,,,,,,,,,,,,,,,,,,,,,,,,,,,,,,,,,610.6065,618.1026,-0.191666667,0.204861111,1.0,0.0,0.0,1.4958,compass,0.0,32.0,32.0,6.0,1.0,SoundStimuli/SaveYourTears_TheWeekndArianaGrande_Original5S.wav,,,,,,,,,,,,,,,,,,,,,,,,,,,,,,,,,,,,,,,,,,,,,,,,,,,
,,,,,331869,1,2024-07-12_17h33.44.983,experiment,2024.1.5,Win32,169.4915254,6691931c2c63981b064e1f0c,6691af1f250cdadffd5d9b79,,,,,,,,,,,,,,,,,,,,,,,,,,,,,,,,,,,,,,,,,,,,,,,,,,,,,,,,,,,,618.1075,625.1067,0.138194444,-0.139583333,1.0,0.0,0.0,0.9957,compass,0.0,33.0,33.0,30.0,1.0,SoundStimuli/SomebodyThatIUsedtoKnow_Gotye_Cover5S.wav,,,,,,,,,,,,,,,,,,,,,,,,,,,,,,,,,,,,,,,,,,,,,,,,,,,
,,,,,331869,1,2024-07-12_17h33.44.983,experiment,2024.1.5,Win32,169.4915254,6691931c2c63981b064e1f0c,6691af1f250cdadffd5d9b79,,,,,,,,,,,,,,,,,,,,,,,,,,,,,,,,,,,,,,,,,,,,,,,,,,,,,,,,,,,,625.1108,642.472,0.007638889,-0.006944444,0.0,0.0,1.0,11.3596,compass,0.0,34.0,34.0,14.0,1.0,SoundStimuli/LikeARollingStone_BobDylan_Cover5S.wav,,,,,,,,,,,,,,,,,,,,,,,,,,,,,,,,,,,,,,,,,,,,,,,,,,,
,,,,,331869,1,2024-07-12_17h33.44.983,experiment,2024.1.5,Win32,169.4915254,6691931c2c63981b064e1f0c,6691af1f250cdadffd5d9b79,,,,,,,,,,,,,,,,,,,,,,,,,,,,,,,,,,,,,,,,,,,,,,,,,,,,,,,,,,,,,,,,,,,,,,,,,,,642.4722,646.5998,space,4.1244,,646.5998,658.477,right,11.8677,,0.0,0.0,0.0,0.0,1.0,block_order/blockB.xlsx,,,,,,,,,,,,,,,,,,,,,,,,,,,,,,,,,,,
,,,,,331869,1,2024-07-12_17h33.44.983,experiment,2024.1.5,Win32,169.4915254,6691931c2c63981b064e1f0c,6691af1f250cdadffd5d9b79,,,,,,,,,,,,,,,,,,,,,,,,,,,,,,,,,,,,,,,,,,,,,,,,,,,,,,,,,,,,658.4841,665.9823,0.154166667,0.100694444,1.0,0.0,0.0,1.4941,compass,0.0,0.0,0.0,27.0,1.0,SoundStimuli/ShapeofYou_EdSheeran_Original5S.wav,,,,,,,,,,,,,,,,,,,,,,,,,,,,,,,,,,,,,,,,,,,,,,,,,,,
,,,,,331869,1,2024-07-12_17h33.44.983,experiment,2024.1.5,Win32,169.4915254,6691931c2c63981b064e1f0c,6691af1f250cdadffd5d9b79,,,,,,,,,,,,,,,,,,,,,,,,,,,,,,,,,,,,,,,,,,,,,,,,,,,,,,,,,,,,665.9859,680.638,0.184027778,-0.182638889,1.0,0.0,0.0,8.6486,compass,0.0,1.0,1.0,12.0,1.0,SoundStimuli/IWillAlwaysLoveYou_WhitneyHouston_Cover5S.wav,,,,,,,,,,,,,,,,,,,,,,,,,,,,,,,,,,,,,,,,,,,,,,,,,,,
,,,,,331869,1,2024-07-12_17h33.44.983,experiment,2024.1.5,Win32,169.4915254,6691931c2c63981b064e1f0c,6691af1f250cdadffd5d9b79,,,,,,,,,,,,,,,,,,,,,,,,,,,,,,,,,,,,,,,,,,,,,,,,,,,,,,,,,,,,680.6417,688.0463,0.273611111,-0.258333333,1.0,0.0,0.0,1.4022,compass,0.0,2.0,2.0,2.0,1.0,SoundStimuli/Mood_24kGoldnianndior_Cover5S.wav,,,,,,,,,,,,,,,,,,,,,,,,,,,,,,,,,,,,,,,,,,,,,,,,,,,
,,,,,331869,1,2024-07-12_17h33.44.983,experiment,2024.1.5,Win32,169.4915254,6691931c2c63981b064e1f0c,6691af1f250cdadffd5d9b79,,,,,,,,,,,,,,,,,,,,,,,,,,,,,,,,,,,,,,,,,,,,,,,,,,,,,,,,,,,,688.05,696.3871,0.123611111,0.242361111,1.0,0.0,0.0,2.3353,compass,0.0,3.0,3.0,34.0,1.0,SoundStimuli/AChangeIsGonnaCome_SamCooke_Cover5S.wav,,,,,,,,,,,,,,,,,,,,,,,,,,,,,,,,,,,,,,,,,,,,,,,,,,,
,,,,,331869,1,2024-07-12_17h33.44.983,experiment,2024.1.5,Win32,169.4915254,6691931c2c63981b064e1f0c,6691af1f250cdadffd5d9b79,,,,,,,,,,,,,,,,,,,,,,,,,,,,,,,,,,,,,,,,,,,,,,,,,,,,,,,,,,,,696.3907,707.9787,0.182638889,0.200694444,1.0,0.0,0.0,5.5847,compass,0.0,4.0,4.0,24.0,1.0,SoundStimuli/UptownFunk_MarkRonson_Original5S.wav,,,,,,,,,,,,,,,,,,,,,,,,,,,,,,,,,,,,,,,,,,,,,,,,,,,
,,,,,331869,1,2024-07-12_17h33.44.983,experiment,2024.1.5,Win32,169.4915254,6691931c2c63981b064e1f0c,6691af1f250cdadffd5d9b79,,,,,,,,,,,,,,,,,,,,,,,,,,,,,,,,,,,,,,,,,,,,,,,,,,,,,,,,,,,,707.9823,715.6076,-0.195833333,0.046527778,1.0,0.0,0.0,1.6195,compass,0.0,5.0,5.0,18.0,1.0,SoundStimuli/AnotherOneBitesTheDust_Queen_Original5S.wav,,,,,,,,,,,,,,,,,,,,,,,,,,,,,,,,,,,,,,,,,,,,,,,,,,,
,,,,,331869,1,2024-07-12_17h33.44.983,experiment,2024.1.5,Win32,169.4915254,6691931c2c63981b064e1f0c,6691af1f250cdadffd5d9b79,,,,,,,,,,,,,,,,,,,,,,,,,,,,,,,,,,,,,,,,,,,,,,,,,,,,,,,,,,,,715.6111,724.6569,-0.177777778,-0.16875,1.0,0.0,0.0,3.0397,compass,0.0,6.0,6.0,15.0,1.0,SoundStimuli/TikTok_Kesha_Cover5S.wav,,,,,,,,,,,,,,,,,,,,,,,,,,,,,,,,,,,,,,,,,,,,,,,,,,,
,,,,,331869,1,2024-07-12_17h33.44.983,experiment,2024.1.5,Win32,169.4915254,6691931c2c63981b064e1f0c,6691af1f250cdadffd5d9b79,,,,,,,,,,,,,,,,,,,,,,,,,,,,,,,,,,,,,,,,,,,,,,,,,,,,,,,,,,,,724.6607,731.139,0.122916667,-0.102777778,1.0,0.0,0.0,0.4764,compass,0.0,7.0,7.0,14.0,1.0,SoundStimuli/BlindingLights_TheWeeknd_Original5S.wav,,,,,,,,,,,,,,,,,,,,,,,,,,,,,,,,,,,,,,,,,,,,,,,,,,,
,,,,,331869,1,2024-07-12_17h33.44.983,experiment,2024.1.5,Win32,169.4915254,6691931c2c63981b064e1f0c,6691af1f250cdadffd5d9b79,,,,,,,,,,,,,,,,,,,,,,,,,,,,,,,,,,,,,,,,,,,,,,,,,,,,,,,,,,,,731.1438,743.0871,-0.155555556,-0.088194444,1.0,0.0,0.0,5.941,compass,0.0,8.0,8.0,28.0,1.0,SoundStimuli/ComeAndGetYourLove_Redbone_Original5S.wav,,,,,,,,,,,,,,,,,,,,,,,,,,,,,,,,,,,,,,,,,,,,,,,,,,,
,,,,,331869,1,2024-07-12_17h33.44.983,experiment,2024.1.5,Win32,169.4915254,6691931c2c63981b064e1f0c,6691af1f250cdadffd5d9b79,,,,,,,,,,,,,,,,,,,,,,,,,,,,,,,,,,,,,,,,,,,,,,,,,,,,,,,,,,,,743.0908,753.55,-0.254166667,-0.032638889,1.0,0.0,0.0,4.4571,compass,0.0,9.0,9.0,11.0,1.0,SoundStimuli/Superstition_StevieWonder_Cover5S.wav,,,,,,,,,,,,,,,,,,,,,,,,,,,,,,,,,,,,,,,,,,,,,,,,,,,
,,,,,331869,1,2024-07-12_17h33.44.983,experiment,2024.1.5,Win32,169.4915254,6691931c2c63981b064e1f0c,6691af1f250cdadffd5d9b79,,,,,,,,,,,,,,,,,,,,,,,,,,,,,,,,,,,,,,,,,,,,,,,,,,,,,,,,,,,,753.554,761.6027,-0.213888889,0.208333333,1.0,0.0,0.0,2.0469,compass,0.0,10.0,10.0,16.0,1.0,SoundStimuli/BohemianRhapsody_Queen_Original5S.wav,,,,,,,,,,,,,,,,,,,,,,,,,,,,,,,,,,,,,,,,,,,,,,,,,,,
,,,,,331869,1,2024-07-12_17h33.44.983,experiment,2024.1.5,Win32,169.4915254,6691931c2c63981b064e1f0c,6691af1f250cdadffd5d9b79,,,,,,,,,,,,,,,,,,,,,,,,,,,,,,,,,,,,,,,,,,,,,,,,,,,,,,,,,,,,761.6064,767.9201,-0.225,-0.208333333,1.0,0.0,0.0,0.3103,compass,0.0,11.0,11.0,17.0,1.0,SoundStimuli/Fallin_AliciaKeys_Original5S.wav,,,,,,,,,,,,,,,,,,,,,,,,,,,,,,,,,,,,,,,,,,,,,,,,,,,
,,,,,331869,1,2024-07-12_17h33.44.983,experiment,2024.1.5,Win32,169.4915254,6691931c2c63981b064e1f0c,6691af1f250cdadffd5d9b79,,,,,,,,,,,,,,,,,,,,,,,,,,,,,,,,,,,,,,,,,,,,,,,,,,,,,,,,,,,,767.9235,775.3672,0.2375,-0.243055556,1.0,0.0,0.0,1.4343,compass,0.0,12.0,12.0,22.0,1.0,SoundStimuli/RockWithYou_MichaelJackson_Original5S.wav,,,,,,,,,,,,,,,,,,,,,,,,,,,,,,,,,,,,,,,,,,,,,,,,,,,
,,,,,331869,1,2024-07-12_17h33.44.983,experiment,2024.1.5,Win32,169.4915254,6691931c2c63981b064e1f0c,6691af1f250cdadffd5d9b79,,,,,,,,,,,,,,,,,,,,,,,,,,,,,,,,,,,,,,,,,,,,,,,,,,,,,,,,,,,,775.3708,782.435,0.174305556,-0.170138889,1.0,0.0,0.0,1.0583,compass,0.0,13.0,13.0,9.0,1.0,SoundStimuli/Despacito_LuisFonsiDaddyYankee_Cover5S.wav,,,,,,,,,,,,,,,,,,,,,,,,,,,,,,,,,,,,,,,,,,,,,,,,,,,
,,,,,331869,1,2024-07-12_17h33.44.983,experiment,2024.1.5,Win32,169.4915254,6691931c2c63981b064e1f0c,6691af1f250cdadffd5d9b79,,,,,,,,,,,,,,,,,,,,,,,,,,,,,,,,,,,,,,,,,,,,,,,,,,,,,,,,,,,,782.4386,790.7257,0.179166667,-0.306944444,1.0,0.0,0.0,2.2807,compass,0.0,14.0,14.0,13.0,1.0,SoundStimuli/GodOnlyKnows_TheBeachBoys_Cover5S.wav,,,,,,,,,,,,,,,,,,,,,,,,,,,,,,,,,,,,,,,,,,,,,,,,,,,
,,,,,331869,1,2024-07-12_17h33.44.983,experiment,2024.1.5,Win32,169.4915254,6691931c2c63981b064e1f0c,6691af1f250cdadffd5d9b79,,,,,,,,,,,,,,,,,,,,,,,,,,,,,,,,,,,,,,,,,,,,,,,,,,,,,,,,,,,,790.7293,797.702,-0.234027778,0.174305556,1.0,0.0,0.0,0.9684,compass,0.0,15.0,15.0,1.0,1.0,SoundStimuli/Stronger_KanyeWest_Original5S.wav,,,,,,,,,,,,,,,,,,,,,,,,,,,,,,,,,,,,,,,,,,,,,,,,,,,
,,,,,331869,1,2024-07-12_17h33.44.983,experiment,2024.1.5,Win32,169.4915254,6691931c2c63981b064e1f0c,6691af1f250cdadffd5d9b79,,,,,,,,,,,,,,,,,,,,,,,,,,,,,,,,,,,,,,,,,,,,,,,,,,,,,,,,,,,,797.7058,803.9964,-0.270833333,-0.280555556,1.0,0.0,0.0,0.2858,compass,0.0,16.0,16.0,23.0,1.0,SoundStimuli/StrawberryFieldsForever_TheBeatles_Original5S.wav,,,,,,,,,,,,,,,,,,,,,,,,,,,,,,,,,,,,,,,,,,,,,,,,,,,
,,,,,331869,1,2024-07-12_17h33.44.983,experiment,2024.1.5,Win32,169.4915254,6691931c2c63981b064e1f0c,6691af1f250cdadffd5d9b79,,,,,,,,,,,,,,,,,,,,,,,,,,,,,,,,,,,,,,,,,,,,,,,,,,,,,,,,,,,,803.9999,811.5109,-0.154166667,-0.107638889,1.0,0.0,0.0,1.5062,compass,0.0,17.0,17.0,33.0,1.0,SoundStimuli/StandByMe_BenEKing_Cover5S.wav,,,,,,,,,,,,,,,,,,,,,,,,,,,,,,,,,,,,,,,,,,,,,,,,,,,
,,,,,331869,1,2024-07-12_17h33.44.983,experiment,2024.1.5,Win32,169.4915254,6691931c2c63981b064e1f0c,6691af1f250cdadffd5d9b79,,,,,,,,,,,,,,,,,,,,,,,,,,,,,,,,,,,,,,,,,,,,,,,,,,,,,,,,,,,,811.5144,819.69,0.025694444,-0.022916667,1.0,0.0,0.0,2.1711,compass,0.0,18.0,18.0,31.0,1.0,SoundStimuli/TheBattleOfNewOrleans_JohnnyHorton_Cover5S.wav,,,,,,,,,,,,,,,,,,,,,,,,,,,,,,,,,,,,,,,,,,,,,,,,,,,
,,,,,331869,1,2024-07-12_17h33.44.983,experiment,2024.1.5,Win32,169.4915254,6691931c2c63981b064e1f0c,6691af1f250cdadffd5d9b79,,,,,,,,,,,,,,,,,,,,,,,,,,,,,,,,,,,,,,,,,,,,,,,,,,,,,,,,,,,,819.6935,826.8251,-0.115972222,-0.076388889,1.0,0.0,0.0,1.1287,compass,0.0,19.0,19.0,3.0,1.0,SoundStimuli/NoScrubs_TLC_Original5S.wav,,,,,,,,,,,,,,,,,,,,,,,,,,,,,,,,,,,,,,,,,,,,,,,,,,,
,,,,,331869,1,2024-07-12_17h33.44.983,experiment,2024.1.5,Win32,169.4915254,6691931c2c63981b064e1f0c,6691af1f250cdadffd5d9b79,,,,,,,,,,,,,,,,,,,,,,,,,,,,,,,,,,,,,,,,,,,,,,,,,,,,,,,,,,,,826.8286,834.9753,-0.091666667,0.054861111,1.0,0.0,0.0,2.1434,compass,0.0,20.0,20.0,8.0,1.0,SoundStimuli/LikeAPrayer_Madonna_Original5S.wav,,,,,,,,,,,,,,,,,,,,,,,,,,,,,,,,,,,,,,,,,,,,,,,,,,,
,,,,,331869,1,2024-07-12_17h33.44.983,experiment,2024.1.5,Win32,169.4915254,6691931c2c63981b064e1f0c,6691af1f250cdadffd5d9b79,,,,,,,,,,,,,,,,,,,,,,,,,,,,,,,,,,,,,,,,,,,,,,,,,,,,,,,,,,,,834.9789,851.6493,0.103472222,0.118055556,1.0,0.0,0.0,10.6659,compass,0.0,21.0,21.0,6.0,1.0,SoundStimuli/Levitating_DuaLipa_Cover5S.wav,,,,,,,,,,,,,,,,,,,,,,,,,,,,,,,,,,,,,,,,,,,,,,,,,,,
,,,,,331869,1,2024-07-12_17h33.44.983,experiment,2024.1.5,Win32,169.4915254,6691931c2c63981b064e1f0c,6691af1f250cdadffd5d9b79,,,,,,,,,,,,,,,,,,,,,,,,,,,,,,,,,,,,,,,,,,,,,,,,,,,,,,,,,,,,851.653,862.9121,-0.179861111,-0.161805556,1.0,0.0,0.0,5.2587,compass,0.0,22.0,22.0,10.0,1.0,SoundStimuli/BadDay_DanielPowter_Cover5S.wav,,,,,,,,,,,,,,,,,,,,,,,,,,,,,,,,,,,,,,,,,,,,,,,,,,,
,,,,,331869,1,2024-07-12_17h33.44.983,experiment,2024.1.5,Win32,169.4915254,6691931c2c63981b064e1f0c,6691af1f250cdadffd5d9b79,,,,,,,,,,,,,,,,,,,,,,,,,,,,,,,,,,,,,,,,,,,,,,,,,,,,,,,,,,,,862.9157,872.3884,-0.176388889,-0.138888889,1.0,0.0,0.0,3.4691,compass,0.0,23.0,23.0,32.0,1.0,SoundStimuli/HeatWaves_GlassAnimals_Original5S.wav,,,,,,,,,,,,,,,,,,,,,,,,,,,,,,,,,,,,,,,,,,,,,,,,,,,
,,,,,331869,1,2024-07-12_17h33.44.983,experiment,2024.1.5,Win32,169.4915254,6691931c2c63981b064e1f0c,6691af1f250cdadffd5d9b79,,,,,,,,,,,,,,,,,,,,,,,,,,,,,,,,,,,,,,,,,,,,,,,,,,,,,,,,,,,,872.3921,879.4116,0.171527778,-0.148611111,1.0,0.0,0.0,1.0167,compass,0.0,24.0,24.0,25.0,1.0,SoundStimuli/Respect_ArethaFranklin_Original5S.wav,,,,,,,,,,,,,,,,,,,,,,,,,,,,,,,,,,,,,,,,,,,,,,,,,,,
,,,,,331869,1,2024-07-12_17h33.44.983,experiment,2024.1.5,Win32,169.4915254,6691931c2c63981b064e1f0c,6691af1f250cdadffd5d9b79,,,,,,,,,,,,,,,,,,,,,,,,,,,,,,,,,,,,,,,,,,,,,,,,,,,,,,,,,,,,879.4155,894.8229,-0.173611111,0.150694444,1.0,0.0,0.0,9.4056,compass,0.0,25.0,25.0,30.0,1.0,SoundStimuli/PokerFace_LadyGaga_Original5S.wav,,,,,,,,,,,,,,,,,,,,,,,,,,,,,,,,,,,,,,,,,,,,,,,,,,,
,,,,,331869,1,2024-07-12_17h33.44.983,experiment,2024.1.5,Win32,169.4915254,6691931c2c63981b064e1f0c,6691af1f250cdadffd5d9b79,,,,,,,,,,,,,,,,,,,,,,,,,,,,,,,,,,,,,,,,,,,,,,,,,,,,,,,,,,,,894.8267,903.6049,0.094444444,0.091666667,1.0,0.0,0.0,2.7729,compass,0.0,26.0,26.0,4.0,1.0,SoundStimuli/GetUrFreakOn_MissyElliot_Original5S.wav,,,,,,,,,,,,,,,,,,,,,,,,,,,,,,,,,,,,,,,,,,,,,,,,,,,
,,,,,331869,1,2024-07-12_17h33.44.983,experiment,2024.1.5,Win32,169.4915254,6691931c2c63981b064e1f0c,6691af1f250cdadffd5d9b79,,,,,,,,,,,,,,,,,,,,,,,,,,,,,,,,,,,,,,,,,,,,,,,,,,,,,,,,,,,,903.6087,916.1457,-0.086805556,0.182638889,1.0,0.0,0.0,6.5336,compass,0.0,27.0,27.0,21.0,1.0,SoundStimuli/GoodGollyMissMolly_LittleRichard_Cover5S.wav,,,,,,,,,,,,,,,,,,,,,,,,,,,,,,,,,,,,,,,,,,,,,,,,,,,
,,,,,331869,1,2024-07-12_17h33.44.983,experiment,2024.1.5,Win32,169.4915254,6691931c2c63981b064e1f0c,6691af1f250cdadffd5d9b79,,,,,,,,,,,,,,,,,,,,,,,,,,,,,,,,,,,,,,,,,,,,,,,,,,,,,,,,,,,,916.1494,925.2807,-0.222916667,-0.171527778,1.0,0.0,0.0,3.1278,compass,0.0,28.0,28.0,26.0,1.0,SoundStimuli/LivinOnAPrayer_BonJovi_Cover5S.wav,,,,,,,,,,,,,,,,,,,,,,,,,,,,,,,,,,,,,,,,,,,,,,,,,,,
,,,,,331869,1,2024-07-12_17h33.44.983,experiment,2024.1.5,Win32,169.4915254,6691931c2c63981b064e1f0c,6691af1f250cdadffd5d9b79,,,,,,,,,,,,,,,,,,,,,,,,,,,,,,,,,,,,,,,,,,,,,,,,,,,,,,,,,,,,925.2842,943.4271,-0.045833333,-0.036805556,1.0,0.0,0.0,12.1386,compass,0.0,29.0,29.0,29.0,1.0,SoundStimuli/OldTownRoad_LilNasX_Original5S.wav,,,,,,,,,,,,,,,,,,,,,,,,,,,,,,,,,,,,,,,,,,,,,,,,,,,
,,,,,331869,1,2024-07-12_17h33.44.983,experiment,2024.1.5,Win32,169.4915254,6691931c2c63981b064e1f0c,6691af1f250cdadffd5d9b79,,,,,,,,,,,,,,,,,,,,,,,,,,,,,,,,,,,,,,,,,,,,,,,,,,,,,,,,,,,,943.4308,951.1938,-0.185416667,0.283333333,1.0,0.0,0.0,1.7575,compass,0.0,30.0,30.0,7.0,1.0,SoundStimuli/NoOne_AliciaKeys_Cover5S.wav,,,,,,,,,,,,,,,,,,,,,,,,,,,,,,,,,,,,,,,,,,,,,,,,,,,
,,,,,331869,1,2024-07-12_17h33.44.983,experiment,2024.1.5,Win32,169.4915254,6691931c2c63981b064e1f0c,6691af1f250cdadffd5d9b79,,,,,,,,,,,,,,,,,,,,,,,,,,,,,,,,,,,,,,,,,,,,,,,,,,,,,,,,,,,,951.1974,960.6795,-0.229166667,-0.215972222,1.0,0.0,0.0,3.4787,compass,0.0,31.0,31.0,20.0,1.0,SoundStimuli/HeyYa_Outkast_Cover5S.wav,,,,,,,,,,,,,,,,,,,,,,,,,,,,,,,,,,,,,,,,,,,,,,,,,,,
,,,,,331869,1,2024-07-12_17h33.44.983,experiment,2024.1.5,Win32,169.4915254,6691931c2c63981b064e1f0c,6691af1f250cdadffd5d9b79,,,,,,,,,,,,,,,,,,,,,,,,,,,,,,,,,,,,,,,,,,,,,,,,,,,,,,,,,,,,960.6831,967.4911,0.238194444,0.249305556,1.0,0.0,0.0,0.8059,compass,0.0,32.0,32.0,0.0,1.0,SoundStimuli/StayinAlive_BeeGees_Original5S.wav,,,,,,,,,,,,,,,,,,,,,,,,,,,,,,,,,,,,,,,,,,,,,,,,,,,
,,,,,331869,1,2024-07-12_17h33.44.983,experiment,2024.1.5,Win32,169.4915254,6691931c2c63981b064e1f0c,6691af1f250cdadffd5d9b79,,,,,,,,,,,,,,,,,,,,,,,,,,,,,,,,,,,,,,,,,,,,,,,,,,,,,,,,,,,,967.4912,977.7597,-0.205555556,-0.313888889,1.0,0.0,0.0,4.2631,compass,0.0,33.0,33.0,19.0,1.0,SoundStimuli/LetsGetItOn_MarvinGaye_Cover5S.wav,,,,,,,,,,,,,,,,,,,,,,,,,,,,,,,,,,,,,,,,,,,,,,,,,,,
,,,,,331869,1,2024-07-12_17h33.44.983,experiment,2024.1.5,Win32,169.4915254,6691931c2c63981b064e1f0c,6691af1f250cdadffd5d9b79,,,,,,,,,,,,,,,,,,,,,,,,,,,,,,,,,,,,,,,,,,,,,,,,,,,,,,,,,,,,977.7635,993.1902,-0.084027778,-0.056944444,1.0,0.0,0.0,9.4254,compass,0.0,34.0,34.0,5.0,1.0,SoundStimuli/MyGirl_TheTemptations_Original5S.wav,,,,,,,,,,,,,,,,,,,,,,,,,,,,,,,,,,,,,,,,,,,,,,,,,,,
,,,,,331869,1,2024-07-12_17h33.44.983,experiment,2024.1.5,Win32,169.4915254,6691931c2c63981b064e1f0c,6691af1f250cdadffd5d9b79,,,,,,,,,,,,,,,,,,,,,,,,,,,,,,,,,,,,,,,,,,,,,,,,,,,,,,,,,,,,,,,,,,,,,,,,,,,993.1946,1007.7192,space,14.5214,,1007.7192,1020.2187,right,12.4858,,0.0,1.0,1.0,1.0,1.0,block_order/blockA.xlsx,,,,,,,,,,,,,,,,,,,,,,,,,,,,,,,,,,,
,,,,,331869,1,2024-07-12_17h33.44.983,experiment,2024.1.5,Win32,169.4915254,6691931c2c63981b064e1f0c,6691af1f250cdadffd5d9b79,,,,,,,,,,,,,,,,,,,,,,,,,,,,,,,,,,,,,,,,,,,,,,,,,,,,,,,,,,,,1020.2257,1031.536,-0.172222222,0.138194444,1.0,0.0,0.0,5.3057,compass,0.0,0.0,0.0,20.0,1.0,SoundStimuli/FlashdanceWhatAFeeling_IreneCara_Original5S.wav,,,,,,,,,,,,,,,,,,,,,,,,,,,,,,,,,,,,,,,,,,,,,,,,,,,
,,,,,331869,1,2024-07-12_17h33.44.983,experiment,2024.1.5,Win32,169.4915254,6691931c2c63981b064e1f0c,6691af1f250cdadffd5d9b79,,,,,,,,,,,,,,,,,,,,,,,,,,,,,,,,,,,,,,,,,,,,,,,,,,,,,,,,,,,,1031.5397,1042.2921,-0.068055556,0.022222222,1.0,0.0,0.0,4.7491,compass,0.0,1.0,1.0,32.0,1.0,SoundStimuli/Dilemma_NellyKellyRowland_Cover5S.wav,,,,,,,,,,,,,,,,,,,,,,,,,,,,,,,,,,,,,,,,,,,,,,,,,,,
,,,,,331869,1,2024-07-12_17h33.44.983,experiment,2024.1.5,Win32,169.4915254,6691931c2c63981b064e1f0c,6691af1f250cdadffd5d9b79,,,,,,,,,,,,,,,,,,,,,,,,,,,,,,,,,,,,,,,,,,,,,,,,,,,,,,,,,,,,1042.2958,1052.2957,-0.243055556,-0.234027778,1.0,0.0,0.0,3.9999,compass,0.0,2.0,2.0,18.0,1.0,SoundStimuli/Weak_SWV_Cover5S.wav,,,,,,,,,,,,,,,,,,,,,,,,,,,,,,,,,,,,,,,,,,,,,,,,,,,
,,,,,331869,1,2024-07-12_17h33.44.983,experiment,2024.1.5,Win32,169.4915254,6691931c2c63981b064e1f0c,6691af1f250cdadffd5d9b79,,,,,,,,,,,,,,,,,,,,,,,,,,,,,,,,,,,,,,,,,,,,,,,,,,,,,,,,,,,,1052.2995,1059.9297,0.265972222,0.088888889,1.0,0.0,0.0,1.6291,compass,0.0,3.0,3.0,0.0,1.0,SoundStimuli/GimmeShelter_RollingStones_Original5S.wav,,,,,,,,,,,,,,,,,,,,,,,,,,,,,,,,,,,,,,,,,,,,,,,,,,,
,,,,,331869,1,2024-07-12_17h33.44.983,experiment,2024.1.5,Win32,169.4915254,6691931c2c63981b064e1f0c,6691af1f250cdadffd5d9b79,,,,,,,,,,,,,,,,,,,,,,,,,,,,,,,,,,,,,,,,,,,,,,,,,,,,,,,,,,,,1059.9332,1074.2244,0.329166667,0.0375,1.0,0.0,0.0,8.2876,compass,0.0,4.0,4.0,9.0,1.0,SoundStimuli/HowDoILive_LeAnnRimes_Cover5S.wav,,,,,,,,,,,,,,,,,,,,,,,,,,,,,,,,,,,,,,,,,,,,,,,,,,,
,,,,,331869,1,2024-07-12_17h33.44.983,experiment,2024.1.5,Win32,169.4915254,6691931c2c63981b064e1f0c,6691af1f250cdadffd5d9b79,,,,,,,,,,,,,,,,,,,,,,,,,,,,,,,,,,,,,,,,,,,,,,,,,,,,,,,,,,,,1074.2286,1085.0332,0.039583333,-0.185416667,1.0,0.0,0.0,4.8034,compass,0.0,5.0,5.0,5.0,1.0,SoundStimuli/JoyToTheWorld_ThreeDogNight_Original5S.wav,,,,,,,,,,,,,,,,,,,,,,,,,,,,,,,,,,,,,,,,,,,,,,,,,,,
,,,,,331869,1,2024-07-12_17h33.44.983,experiment,2024.1.5,Win32,169.4915254,6691931c2c63981b064e1f0c,6691af1f250cdadffd5d9b79,,,,,,,,,,,,,,,,,,,,,,,,,,,,,,,,,,,,,,,,,,,,,,,,,,,,,,,,,,,,1085.0372,1093.4471,-0.170138889,-0.072916667,1.0,0.0,0.0,2.405,compass,0.0,6.0,6.0,13.0,1.0,SoundStimuli/Perfect_EdSheeran_Cover5S.wav,,,,,,,,,,,,,,,,,,,,,,,,,,,,,,,,,,,,,,,,,,,,,,,,,,,
,,,,,331869,1,2024-07-12_17h33.44.983,experiment,2024.1.5,Win32,169.4915254,6691931c2c63981b064e1f0c,6691af1f250cdadffd5d9b79,,,,,,,,,,,,,,,,,,,,,,,,,,,,,,,,,,,,,,,,,,,,,,,,,,,,,,,,,,,,1093.4509,1106.2188,-0.248611111,-0.279166667,1.0,0.0,0.0,6.7617,compass,0.0,7.0,7.0,6.0,1.0,SoundStimuli/SaveYourTears_TheWeekndArianaGrande_Cover5S.wav,,,,,,,,,,,,,,,,,,,,,,,,,,,,,,,,,,,,,,,,,,,,,,,,,,,
,,,,,331869,1,2024-07-12_17h33.44.983,experiment,2024.1.5,Win32,169.4915254,6691931c2c63981b064e1f0c,6691af1f250cdadffd5d9b79,,,,,,,,,,,,,,,,,,,,,,,,,,,,,,,,,,,,,,,,,,,,,,,,,,,,,,,,,,,,1106.2225,1114.7467,-0.170833333,-0.134722222,1.0,0.0,0.0,2.5234,compass,0.0,8.0,8.0,30.0,1.0,SoundStimuli/SomebodyThatIUsedtoKnow_Gotye_Original5S.wav,,,,,,,,,,,,,,,,,,,,,,,,,,,,,,,,,,,,,,,,,,,,,,,,,,,
,,,,,331869,1,2024-07-12_17h33.44.983,experiment,2024.1.5,Win32,169.4915254,6691931c2c63981b064e1f0c,6691af1f250cdadffd5d9b79,,,,,,,,,,,,,,,,,,,,,,,,,,,,,,,,,,,,,,,,,,,,,,,,,,,,,,,,,,,,1114.7504,1123.6583,-0.290277778,-0.248611111,1.0,0.0,0.0,2.9013,compass,0.0,9.0,9.0,12.0,1.0,SoundStimuli/UnbreakMyHeart_ToniBraxton_Original5S.wav,,,,,,,,,,,,,,,,,,,,,,,,,,,,,,,,,,,,,,,,,,,,,,,,,,,
,,,,,331869,1,2024-07-12_17h33.44.983,experiment,2024.1.5,Win32,169.4915254,6691931c2c63981b064e1f0c,6691af1f250cdadffd5d9b79,,,,,,,,,,,,,,,,,,,,,,,,,,,,,,,,,,,,,,,,,,,,,,,,,,,,,,,,,,,,1123.6628,1131.3773,-0.238888889,-0.248611111,1.0,0.0,0.0,1.7133,compass,0.0,10.0,10.0,34.0,1.0,SoundStimuli/Irreplaceable_Beyonce_Cover5S.wav,,,,,,,,,,,,,,,,,,,,,,,,,,,,,,,,,,,,,,,,,,,,,,,,,,,
,,,,,331869,1,2024-07-12_17h33.44.983,experiment,2024.1.5,Win32,169.4915254,6691931c2c63981b064e1f0c,6691af1f250cdadffd5d9b79,,,,,,,,,,,,,,,,,,,,,,,,,,,,,,,,,,,,,,,,,,,,,,,,,,,,,,,,,,,,1131.3812,1137.4461,0.299305556,0.310416667,1.0,0.0,0.0,0.0646,compass,0.0,11.0,11.0,17.0,1.0,SoundStimuli/IWannaDanceWithSomebody_WhitneyHouston_Original5S.wav,,,,,,,,,,,,,,,,,,,,,,,,,,,,,,,,,,,,,,,,,,,,,,,,,,,
,,,,,331869,1,2024-07-12_17h33.44.983,experiment,2024.1.5,Win32,169.4915254,6691931c2c63981b064e1f0c,6691af1f250cdadffd5d9b79,,,,,,,,,,,,,,,,,,,,,,,,,,,,,,,,,,,,,,,,,,,,,,,,,,,,,,,,,,,,1137.4497,1145.6047,0.215277778,-0.184722222,1.0,0.0,0.0,2.1514,compass,0.0,12.0,12.0,16.0,1.0,SoundStimuli/ItsAllInTheGame_TommyEdwards_Cover5S.wav,,,,,,,,,,,,,,,,,,,,,,,,,,,,,,,,,,,,,,,,,,,,,,,,,,,
,,,,,331869,1,2024-07-12_17h33.44.983,experiment,2024.1.5,Win32,169.4915254,6691931c2c63981b064e1f0c,6691af1f250cdadffd5d9b79,,,,,,,,,,,,,,,,,,,,,,,,,,,,,,,,,,,,,,,,,,,,,,,,,,,,,,,,,,,,1145.6085,1151.8045,-0.220833333,-0.190277778,1.0,0.0,0.0,0.1848,compass,0.0,13.0,13.0,25.0,1.0,SoundStimuli/IllMakeLoveToYou_BoyzIIMen_Cover5S.wav,,,,,,,,,,,,,,,,,,,,,,,,,,,,,,,,,,,,,,,,,,,,,,,,,,,
,,,,,331869,1,2024-07-12_17h33.44.983,experiment,2024.1.5,Win32,169.4915254,6691931c2c63981b064e1f0c,6691af1f250cdadffd5d9b79,,,,,,,,,,,,,,,,,,,,,,,,,,,,,,,,,,,,,,,,,,,,,,,,,,,,,,,,,,,,1151.8082,1159.2923,-0.234027778,0.056944444,1.0,0.0,0.0,1.4791,compass,0.0,14.0,14.0,33.0,1.0,SoundStimuli/TheBoyIsMine_BrandyMonica_Original5S.wav,,,,,,,,,,,,,,,,,,,,,,,,,,,,,,,,,,,,,,,,,,,,,,,,,,,
,,,,,331869,1,2024-07-12_17h33.44.983,experiment,2024.1.5,Win32,169.4915254,6691931c2c63981b064e1f0c,6691af1f250cdadffd5d9b79,,,,,,,,,,,,,,,,,,,,,,,,,,,,,,,,,,,,,,,,,,,,,,,,,,,,,,,,,,,,1159.296,1175.8272,-0.040972222,-0.053472222,1.0,0.0,0.0,10.5276,compass,0.0,15.0,15.0,15.0,1.0,SoundStimuli/CrazyInLove_BeyonceFtJayZ_Cover5S.wav,,,,,,,,,,,,,,,,,,,,,,,,,,,,,,,,,,,,,,,,,,,,,,,,,,,
,,,,,331869,1,2024-07-12_17h33.44.983,experiment,2024.1.5,Win32,169.4915254,6691931c2c63981b064e1f0c,6691af1f250cdadffd5d9b79,,,,,,,,,,,,,,,,,,,,,,,,,,,,,,,,,,,,,,,,,,,,,,,,,,,,,,,,,,,,1175.8308,1185.8681,0.016666667,0.079861111,1.0,0.0,0.0,4.0352,compass,0.0,16.0,16.0,28.0,1.0,SoundStimuli/IWantToHoldYourHand_TheBeatles_Original5S.wav,,,,,,,,,,,,,,,,,,,,,,,,,,,,,,,,,,,,,,,,,,,,,,,,,,,
,,,,,331869,1,2024-07-12_17h33.44.983,experiment,2024.1.5,Win32,169.4915254,6691931c2c63981b064e1f0c,6691af1f250cdadffd5d9b79,,,,,,,,,,,,,,,,,,,,,,,,,,,,,,,,,,,,,,,,,,,,,,,,,,,,,,,,,,,,1185.8729,1199.2382,0.010416667,-0.068055556,1.0,0.0,0.0,7.3646,compass,0.0,17.0,17.0,14.0,1.0,SoundStimuli/LikeARollingStone_BobDylan_Original5S.wav,,,,,,,,,,,,,,,,,,,,,,,,,,,,,,,,,,,,,,,,,,,,,,,,,,,
,,,,,331869,1,2024-07-12_17h33.44.983,experiment,2024.1.5,Win32,169.4915254,6691931c2c63981b064e1f0c,6691af1f250cdadffd5d9b79,,,,,,,,,,,,,,,,,,,,,,,,,,,,,,,,,,,,,,,,,,,,,,,,,,,,,,,,,,,,1199.242,1206.2277,0.331944444,0.329861111,1.0,0.0,0.0,0.9744,compass,0.0,18.0,18.0,31.0,1.0,SoundStimuli/TossinAndTurnin_BobbyLewis_Original5S.wav,,,,,,,,,,,,,,,,,,,,,,,,,,,,,,,,,,,,,,,,,,,,,,,,,,,
,,,,,331869,1,2024-07-12_17h33.44.983,experiment,2024.1.5,Win32,169.4915254,6691931c2c63981b064e1f0c,6691af1f250cdadffd5d9b79,,,,,,,,,,,,,,,,,,,,,,,,,,,,,,,,,,,,,,,,,,,,,,,,,,,,,,,,,,,,1206.2311,1212.6671,0.341666667,0.343055556,1.0,0.0,0.0,0.4353,compass,0.0,19.0,19.0,3.0,1.0,SoundStimuli/PartyRockAnthem_LMFAO_Original5S.wav,,,,,,,,,,,,,,,,,,,,,,,,,,,,,,,,,,,,,,,,,,,,,,,,,,,
,,,,,331869,1,2024-07-12_17h33.44.983,experiment,2024.1.5,Win32,169.4915254,6691931c2c63981b064e1f0c,6691af1f250cdadffd5d9b79,,,,,,,,,,,,,,,,,,,,,,,,,,,,,,,,,,,,,,,,,,,,,,,,,,,,,,,,,,,,1212.6709,1224.808,0.220138889,-0.295833333,1.0,0.0,0.0,6.1337,compass,0.0,20.0,20.0,4.0,1.0,SoundStimuli/Dreams_FleetwoodMac_Original5S.wav,,,,,,,,,,,,,,,,,,,,,,,,,,,,,,,,,,,,,,,,,,,,,,,,,,,
,,,,,331869,1,2024-07-12_17h33.44.983,experiment,2024.1.5,Win32,169.4915254,6691931c2c63981b064e1f0c,6691af1f250cdadffd5d9b79,,,,,,,,,,,,,,,,,,,,,,,,,,,,,,,,,,,,,,,,,,,,,,,,,,,,,,,,,,,,1224.8121,1233.2018,0.201388889,0.226388889,1.0,0.0,0.0,2.3848,compass,0.0,21.0,21.0,1.0,1.0,SoundStimuli/Smooth_SantanaRobThomas_Original5S.wav,,,,,,,,,,,,,,,,,,,,,,,,,,,,,,,,,,,,,,,,,,,,,,,,,,,
,,,,,331869,1,2024-07-12_17h33.44.983,experiment,2024.1.5,Win32,169.4915254,6691931c2c63981b064e1f0c,6691af1f250cdadffd5d9b79,,,,,,,,,,,,,,,,,,,,,,,,,,,,,,,,,,,,,,,,,,,,,,,,,,,,,,,,,,,,1233.2054,1240.9075,0.321527778,-0.322222222,1.0,0.0,0.0,1.6985,compass,0.0,22.0,22.0,23.0,1.0,SoundStimuli/IWalkTheLine_JohnnyCash_Original5S.wav,,,,,,,,,,,,,,,,,,,,,,,,,,,,,,,,,,,,,,,,,,,,,,,,,,,
,,,,,331869,1,2024-07-12_17h33.44.983,experiment,2024.1.5,Win32,169.4915254,6691931c2c63981b064e1f0c,6691af1f250cdadffd5d9b79,,,,,,,,,,,,,,,,,,,,,,,,,,,,,,,,,,,,,,,,,,,,,,,,,,,,,,,,,,,,1240.9113,1248.6896,0.219444444,0.246527778,1.0,0.0,0.0,1.7731,compass,0.0,23.0,23.0,11.0,1.0,SoundStimuli/BlurredLines_RobinThicke_Cover5S.wav,,,,,,,,,,,,,,,,,,,,,,,,,,,,,,,,,,,,,,,,,,,,,,,,,,,
,,,,,331869,1,2024-07-12_17h33.44.983,experiment,2024.1.5,Win32,169.4915254,6691931c2c63981b064e1f0c,6691af1f250cdadffd5d9b79,,,,,,,,,,,,,,,,,,,,,,,,,,,,,,,,,,,,,,,,,,,,,,,,,,,,,,,,,,,,1248.6937,1256.9069,0.103472222,-0.038888889,1.0,0.0,0.0,2.2103,compass,0.0,24.0,24.0,27.0,1.0,SoundStimuli/EyeOfTheTiger_Survivor_Cover5S.wav,,,,,,,,,,,,,,,,,,,,,,,,,,,,,,,,,,,,,,,,,,,,,,,,,,,
,,,,,331869,1,2024-07-12_17h33.44.983,experiment,2024.1.5,Win32,169.4915254,6691931c2c63981b064e1f0c,6691af1f250cdadffd5d9b79,,,,,,,,,,,,,,,,,,,,,,,,,,,,,,,,,,,,,,,,,,,,,,,,,,,,,,,,,,,,1256.9108,1263.3188,-0.173611111,0.129166667,1.0,0.0,0.0,0.4027,compass,0.0,25.0,25.0,26.0,1.0,SoundStimuli/TheSign_AceOfBase_Cover5S.wav,,,,,,,,,,,,,,,,,,,,,,,,,,,,,,,,,,,,,,,,,,,,,,,,,,,
,,,,,331869,1,2024-07-12_17h33.44.983,experiment,2024.1.5,Win32,169.4915254,6691931c2c63981b064e1f0c,6691af1f250cdadffd5d9b79,,,,,,,,,,,,,,,,,,,,,,,,,,,,,,,,,,,,,,,,,,,,,,,,,,,,,,,,,,,,1263.3226,1269.9712,0.290277778,0.191666667,1.0,0.0,0.0,0.6458,compass,0.0,26.0,26.0,10.0,1.0,SoundStimuli/LeFreak_Chic_Cover5S.wav,,,,,,,,,,,,,,,,,,,,,,,,,,,,,,,,,,,,,,,,,,,,,,,,,,,
,,,,,331869,1,2024-07-12_17h33.44.983,experiment,2024.1.5,Win32,169.4915254,6691931c2c63981b064e1f0c,6691af1f250cdadffd5d9b79,,,,,,,,,,,,,,,,,,,,,,,,,,,,,,,,,,,,,,,,,,,,,,,,,,,,,,,,,,,,1269.9747,1279.4826,-0.2,0.020138889,1.0,0.0,0.0,3.5035,compass,0.0,27.0,27.0,21.0,1.0,SoundStimuli/BridgeOverTroubledWater_SimonAndGarfunkel_Original5S.wav,,,,,,,,,,,,,,,,,,,,,,,,,,,,,,,,,,,,,,,,,,,,,,,,,,,
,,,,,331869,1,2024-07-12_17h33.44.983,experiment,2024.1.5,Win32,169.4915254,6691931c2c63981b064e1f0c,6691af1f250cdadffd5d9b79,,,,,,,,,,,,,,,,,,,,,,,,,,,,,,,,,,,,,,,,,,,,,,,,,,,,,,,,,,,,1279.4863,1285.7295,-0.200694444,0.209027778,1.0,0.0,0.0,0.2398,compass,0.0,28.0,28.0,2.0,1.0,SoundStimuli/SmellsLikeTeenSpirit_Nirvana_Original5S.wav,,,,,,,,,,,,,,,,,,,,,,,,,,,,,,,,,,,,,,,,,,,,,,,,,,,
,,,,,331869,1,2024-07-12_17h33.44.983,experiment,2024.1.5,Win32,169.4915254,6691931c2c63981b064e1f0c,6691af1f250cdadffd5d9b79,,,,,,,,,,,,,,,,,,,,,,,,,,,,,,,,,,,,,,,,,,,,,,,,,,,,,,,,,,,,1285.7332,1293.0586,-0.127777778,-0.220138889,1.0,0.0,0.0,1.3245,compass,0.0,29.0,29.0,8.0,1.0,SoundStimuli/EndlessLove_DianaRossLionelRichie_Cover5S.wav,,,,,,,,,,,,,,,,,,,,,,,,,,,,,,,,,,,,,,,,,,,,,,,,,,,
,,,,,331869,1,2024-07-12_17h33.44.983,experiment,2024.1.5,Win32,169.4915254,6691931c2c63981b064e1f0c,6691af1f250cdadffd5d9b79,,,,,,,,,,,,,,,,,,,,,,,,,,,,,,,,,,,,,,,,,,,,,,,,,,,,,,,,,,,,1293.0622,1300.4146,-0.150694444,-0.077083333,1.0,0.0,0.0,1.3484,compass,0.0,30.0,30.0,29.0,1.0,SoundStimuli/BetteDavisEyes_KimCarnes_Original5S.wav,,,,,,,,,,,,,,,,,,,,,,,,,,,,,,,,,,,,,,,,,,,,,,,,,,,
,,,,,331869,1,2024-07-12_17h33.44.983,experiment,2024.1.5,Win32,169.4915254,6691931c2c63981b064e1f0c,6691af1f250cdadffd5d9b79,,,,,,,,,,,,,,,,,,,,,,,,,,,,,,,,,,,,,,,,,,,,,,,,,,,,,,,,,,,,1300.4181,1306.8935,-0.168055556,0.031944444,1.0,0.0,0.0,0.469,compass,0.0,31.0,31.0,24.0,1.0,SoundStimuli/Kiss_Prince_Cover5S.wav,,,,,,,,,,,,,,,,,,,,,,,,,,,,,,,,,,,,,,,,,,,,,,,,,,,
,,,,,331869,1,2024-07-12_17h33.44.983,experiment,2024.1.5,Win32,169.4915254,6691931c2c63981b064e1f0c,6691af1f250cdadffd5d9b79,,,,,,,,,,,,,,,,,,,,,,,,,,,,,,,,,,,,,,,,,,,,,,,,,,,,,,,,,,,,1306.8969,1314.9286,0.31875,0.329861111,1.0,0.0,0.0,2.0279,compass,0.0,32.0,32.0,22.0,1.0,SoundStimuli/Happy_PharellWilliams_Original5S.wav,,,,,,,,,,,,,,,,,,,,,,,,,,,,,,,,,,,,,,,,,,,,,,,,,,,
,,,,,331869,1,2024-07-12_17h33.44.983,experiment,2024.1.5,Win32,169.4915254,6691931c2c63981b064e1f0c,6691af1f250cdadffd5d9b79,,,,,,,,,,,,,,,,,,,,,,,,,,,,,,,,,,,,,,,,,,,,,,,,,,,,,,,,,,,,1314.9323,1322.3989,-0.316666667,0.032638889,1.0,0.0,0.0,1.4631,compass,0.0,33.0,33.0,7.0,1.0,SoundStimuli/MackTheKnife_BobbyDarin_Cover5S.wav,,,,,,,,,,,,,,,,,,,,,,,,,,,,,,,,,,,,,,,,,,,,,,,,,,,
,,,,,331869,1,2024-07-12_17h33.44.983,experiment,2024.1.5,Win32,169.4915254,6691931c2c63981b064e1f0c,6691af1f250cdadffd5d9b79,,,,,,,,,,,,,,,,,,,,,,,,,,,,,,,,,,,,,,,,,,,,,,,,,,,,,,,,,,,,1322.403,1331.2633,-0.340972222,-0.3375,1.0,0.0,0.0,2.8585,compass,0.0,34.0,34.0,19.0,1.0,SoundStimuli/YouLightUpMyLife_DebbyBoone_Original5S.wav,,,,,,,,,,,,,,,,,,,,,,,,,,,,,,,,,,,,,,,,,,,,,,,,,,,
,,,,,331869,1,2024-07-12_17h33.44.983,experiment,2024.1.5,Win32,169.4915254,6691931c2c63981b064e1f0c,6691af1f250cdadffd5d9b79,,,,,,,,,,,,,,,,,,,,,,,,,,,,,,,,,,,,,,,,,,,,,,,,,,,,,,,,,,,,,,,,,,,,,,,,,,,1331.2673,1334.8125,space,3.5416,,1334.8125,1342.9943,right,8.1755,,0.0,2.0,2.0,2.0,1.0,block_order/blockD.xlsx,,,,,,,,,,,,,,,,,,,,,,,,,,,,,,,,,,,
,,,,,331869,1,2024-07-12_17h33.44.983,experiment,2024.1.5,Win32,169.4915254,6691931c2c63981b064e1f0c,6691af1f250cdadffd5d9b79,,,,,,,,,,,,,,,,,,,,,,,,,,,,,,,,,,,,,,,,,,,,,,,,,,,,,,,,,,,,1343.0029,1352.9866,-0.307638889,0.133333333,1.0,0.0,0.0,3.9806,compass,0.0,0.0,0.0,3.0,1.0,SoundStimuli/NoScrubs_TLC_Cover5S.wav,,,,,,,,,,,,,,,,,,,,,,,,,,,,,,,,,,,,,,,,,,,,,,,,,,,
,,,,,331869,1,2024-07-12_17h33.44.983,experiment,2024.1.5,Win32,169.4915254,6691931c2c63981b064e1f0c,6691af1f250cdadffd5d9b79,,,,,,,,,,,,,,,,,,,,,,,,,,,,,,,,,,,,,,,,,,,,,,,,,,,,,,,,,,,,1352.9906,1359.6687,-0.2875,0.142361111,1.0,0.0,0.0,0.6753,compass,0.0,1.0,1.0,17.0,1.0,SoundStimuli/Fallin_AliciaKeys_Cover5S.wav,,,,,,,,,,,,,,,,,,,,,,,,,,,,,,,,,,,,,,,,,,,,,,,,,,,
,,,,,331869,1,2024-07-12_17h33.44.983,experiment,2024.1.5,Win32,169.4915254,6691931c2c63981b064e1f0c,6691af1f250cdadffd5d9b79,,,,,,,,,,,,,,,,,,,,,,,,,,,,,,,,,,,,,,,,,,,,,,,,,,,,,,,,,,,,1359.6722,1366.7508,-0.270138889,0.304861111,1.0,0.0,0.0,1.0721,compass,0.0,2.0,2.0,12.0,1.0,SoundStimuli/IWillAlwaysLoveYou_WhitneyHouston_Original5S.wav,,,,,,,,,,,,,,,,,,,,,,,,,,,,,,,,,,,,,,,,,,,,,,,,,,,
,,,,,331869,1,2024-07-12_17h33.44.983,experiment,2024.1.5,Win32,169.4915254,6691931c2c63981b064e1f0c,6691af1f250cdadffd5d9b79,,,,,,,,,,,,,,,,,,,,,,,,,,,,,,,,,,,,,,,,,,,,,,,,,,,,,,,,,,,,1366.7543,1374.2392,-0.247916667,-0.254166667,1.0,0.0,0.0,1.4809,compass,0.0,3.0,3.0,34.0,1.0,SoundStimuli/AChangeIsGonnaCome_SamCooke_Original5S.wav,,,,,,,,,,,,,,,,,,,,,,,,,,,,,,,,,,,,,,,,,,,,,,,,,,,
,,,,,331869,1,2024-07-12_17h33.44.983,experiment,2024.1.5,Win32,169.4915254,6691931c2c63981b064e1f0c,6691af1f250cdadffd5d9b79,,,,,,,,,,,,,,,,,,,,,,,,,,,,,,,,,,,,,,,,,,,,,,,,,,,,,,,,,,,,1374.244,1382.9979,-0.33125,-0.33125,1.0,0.0,0.0,2.7529,compass,0.0,4.0,4.0,7.0,1.0,SoundStimuli/NoOne_AliciaKeys_Original5S.wav,,,,,,,,,,,,,,,,,,,,,,,,,,,,,,,,,,,,,,,,,,,,,,,,,,,
,,,,,331869,1,2024-07-12_17h33.44.983,experiment,2024.1.5,Win32,169.4915254,6691931c2c63981b064e1f0c,6691af1f250cdadffd5d9b79,,,,,,,,,,,,,,,,,,,,,,,,,,,,,,,,,,,,,,,,,,,,,,,,,,,,,,,,,,,,1383.0017,1394.4283,-0.236805556,-0.038194444,1.0,0.0,0.0,5.4233,compass,0.0,5.0,5.0,13.0,1.0,SoundStimuli/GodOnlyKnows_TheBeachBoys_Original5S.wav,,,,,,,,,,,,,,,,,,,,,,,,,,,,,,,,,,,,,,,,,,,,,,,,,,,
,,,,,331869,1,2024-07-12_17h33.44.983,experiment,2024.1.5,Win32,169.4915254,6691931c2c63981b064e1f0c,6691af1f250cdadffd5d9b79,,,,,,,,,,,,,,,,,,,,,,,,,,,,,,,,,,,,,,,,,,,,,,,,,,,,,,,,,,,,1394.4327,1403.7477,0.268055556,0.286805556,1.0,0.0,0.0,3.3092,compass,0.0,6.0,6.0,26.0,1.0,SoundStimuli/LivinOnAPrayer_BonJovi_Original5S.wav,,,,,,,,,,,,,,,,,,,,,,,,,,,,,,,,,,,,,,,,,,,,,,,,,,,
,,,,,331869,1,2024-07-12_17h33.44.983,experiment,2024.1.5,Win32,169.4915254,6691931c2c63981b064e1f0c,6691af1f250cdadffd5d9b79,,,,,,,,,,,,,,,,,,,,,,,,,,,,,,,,,,,,,,,,,,,,,,,,,,,,,,,,,,,,1403.7514,1417.9989,-0.197222222,0.218055556,1.0,0.0,0.0,8.2425,compass,0.0,7.0,7.0,15.0,1.0,SoundStimuli/TikTok_Kesha_Original5S.wav,,,,,,,,,,,,,,,,,,,,,,,,,,,,,,,,,,,,,,,,,,,,,,,,,,,
,,,,,331869,1,2024-07-12_17h33.44.983,experiment,2024.1.5,Win32,169.4915254,6691931c2c63981b064e1f0c,6691af1f250cdadffd5d9b79,,,,,,,,,,,,,,,,,,,,,,,,,,,,,,,,,,,,,,,,,,,,,,,,,,,,,,,,,,,,1418.0025,1428.3207,-0.025,0.268055556,1.0,0.0,0.0,4.3158,compass,0.0,8.0,8.0,25.0,1.0,SoundStimuli/Respect_ArethaFranklin_Cover5S.wav,,,,,,,,,,,,,,,,,,,,,,,,,,,,,,,,,,,,,,,,,,,,,,,,,,,
,,,,,331869,1,2024-07-12_17h33.44.983,experiment,2024.1.5,Win32,169.4915254,6691931c2c63981b064e1f0c,6691af1f250cdadffd5d9b79,,,,,,,,,,,,,,,,,,,,,,,,,,,,,,,,,,,,,,,,,,,,,,,,,,,,,,,,,,,,1428.3245,1436.9674,0.205555556,0.190972222,1.0,0.0,0.0,2.6411,compass,0.0,9.0,9.0,21.0,1.0,SoundStimuli/GoodGollyMissMolly_LittleRichard_Original5S.wav,,,,,,,,,,,,,,,,,,,,,,,,,,,,,,,,,,,,,,,,,,,,,,,,,,,
,,,,,331869,1,2024-07-12_17h33.44.983,experiment,2024.1.5,Win32,169.4915254,6691931c2c63981b064e1f0c,6691af1f250cdadffd5d9b79,,,,,,,,,,,,,,,,,,,,,,,,,,,,,,,,,,,,,,,,,,,,,,,,,,,,,,,,,,,,1436.9709,1445.3113,0.138888889,-0.058333333,0.0,0.0,1.0,2.3383,compass,0.0,10.0,10.0,27.0,1.0,SoundStimuli/ShapeofYou_EdSheeran_Cover5S.wav,,,,,,,,,,,,,,,,,,,,,,,,,,,,,,,,,,,,,,,,,,,,,,,,,,,
,,,,,331869,1,2024-07-12_17h33.44.983,experiment,2024.1.5,Win32,169.4915254,6691931c2c63981b064e1f0c,6691af1f250cdadffd5d9b79,,,,,,,,,,,,,,,,,,,,,,,,,,,,,,,,,,,,,,,,,,,,,,,,,,,,,,,,,,,,1445.3115,1452.7851,-0.210416667,0.0875,1.0,0.0,0.0,1.4707,compass,0.0,11.0,11.0,1.0,1.0,SoundStimuli/Stronger_KanyeWest_Cover5S.wav,,,,,,,,,,,,,,,,,,,,,,,,,,,,,,,,,,,,,,,,,,,,,,,,,,,
,,,,,331869,1,2024-07-12_17h33.44.983,experiment,2024.1.5,Win32,169.4915254,6691931c2c63981b064e1f0c,6691af1f250cdadffd5d9b79,,,,,,,,,,,,,,,,,,,,,,,,,,,,,,,,,,,,,,,,,,,,,,,,,,,,,,,,,,,,1452.7889,1463.4318,0.079861111,0.16875,1.0,0.0,0.0,4.6395,compass,0.0,12.0,12.0,32.0,1.0,SoundStimuli/HeatWaves_GlassAnimals_Cover5S.wav,,,,,,,,,,,,,,,,,,,,,,,,,,,,,,,,,,,,,,,,,,,,,,,,,,,
,,,,,331869,1,2024-07-12_17h33.44.983,experiment,2024.1.5,Win32,169.4915254,6691931c2c63981b064e1f0c,6691af1f250cdadffd5d9b79,,,,,,,,,,,,,,,,,,,,,,,,,,,,,,,,,,,,,,,,,,,,,,,,,,,,,,,,,,,,1463.4357,1469.947,0.240972222,0.301388889,1.0,0.0,0.0,0.5094,compass,0.0,13.0,13.0,24.0,1.0,SoundStimuli/UptownFunk_MarkRonson_Cover5S.wav,,,,,,,,,,,,,,,,,,,,,,,,,,,,,,,,,,,,,,,,,,,,,,,,,,,
,,,,,331869,1,2024-07-12_17h33.44.983,experiment,2024.1.5,Win32,169.4915254,6691931c2c63981b064e1f0c,6691af1f250cdadffd5d9b79,,,,,,,,,,,,,,,,,,,,,,,,,,,,,,,,,,,,,,,,,,,,,,,,,,,,,,,,,,,,1469.9507,1484.5618,-0.071527778,0.027083333,1.0,0.0,0.0,8.6054,compass,0.0,14.0,14.0,30.0,1.0,SoundStimuli/PokerFace_LadyGaga_Cover5S.wav,,,,,,,,,,,,,,,,,,,,,,,,,,,,,,,,,,,,,,,,,,,,,,,,,,,
,,,,,331869,1,2024-07-12_17h33.44.983,experiment,2024.1.5,Win32,169.4915254,6691931c2c63981b064e1f0c,6691af1f250cdadffd5d9b79,,,,,,,,,,,,,,,,,,,,,,,,,,,,,,,,,,,,,,,,,,,,,,,,,,,,,,,,,,,,1484.5656,1493.231,-0.065277778,0.057638889,1.0,0.0,0.0,2.6647,compass,0.0,15.0,15.0,29.0,1.0,SoundStimuli/OldTownRoad_LilNasX_Cover5S.wav,,,,,,,,,,,,,,,,,,,,,,,,,,,,,,,,,,,,,,,,,,,,,,,,,,,
,,,,,331869,1,2024-07-12_17h33.44.983,experiment,2024.1.5,Win32,169.4915254,6691931c2c63981b064e1f0c,6691af1f250cdadffd5d9b79,,,,,,,,,,,,,,,,,,,,,,,,,,,,,,,,,,,,,,,,,,,,,,,,,,,,,,,,,,,,1493.2348,1506.5481,0.029861111,-0.332638889,1.0,0.0,0.0,7.3013,compass,0.0,16.0,16.0,19.0,1.0,SoundStimuli/LetsGetItOn_MarvinGaye_Original5S.wav,,,,,,,,,,,,,,,,,,,,,,,,,,,,,,,,,,,,,,,,,,,,,,,,,,,
,,,,,331869,1,2024-07-12_17h33.44.983,experiment,2024.1.5,Win32,169.4915254,6691931c2c63981b064e1f0c,6691af1f250cdadffd5d9b79,,,,,,,,,,,,,,,,,,,,,,,,,,,,,,,,,,,,,,,,,,,,,,,,,,,,,,,,,,,,1506.552,1516.9419,0.044444444,0.166666667,1.0,0.0,0.0,4.3882,compass,0.0,17.0,17.0,11.0,1.0,SoundStimuli/Superstition_StevieWonder_Original5S.wav,,,,,,,,,,,,,,,,,,,,,,,,,,,,,,,,,,,,,,,,,,,,,,,,,,,
,,,,,331869,1,2024-07-12_17h33.44.983,experiment,2024.1.5,Win32,169.4915254,6691931c2c63981b064e1f0c,6691af1f250cdadffd5d9b79,,,,,,,,,,,,,,,,,,,,,,,,,,,,,,,,,,,,,,,,,,,,,,,,,,,,,,,,,,,,1516.9456,1523.9191,0.2875,0.310416667,1.0,0.0,0.0,0.97,compass,0.0,18.0,18.0,9.0,1.0,SoundStimuli/Despacito_LuisFonsiDaddyYankee_Original5S.wav,,,,,,,,,,,,,,,,,,,,,,,,,,,,,,,,,,,,,,,,,,,,,,,,,,,
,,,,,331869,1,2024-07-12_17h33.44.983,experiment,2024.1.5,Win32,169.4915254,6691931c2c63981b064e1f0c,6691af1f250cdadffd5d9b79,,,,,,,,,,,,,,,,,,,,,,,,,,,,,,,,,,,,,,,,,,,,,,,,,,,,,,,,,,,,1523.9227,1530.2532,0.151388889,0.222916667,1.0,0.0,0.0,0.3295,compass,0.0,19.0,19.0,6.0,1.0,SoundStimuli/Levitating_DuaLipa_Original5S.wav,,,,,,,,,,,,,,,,,,,,,,,,,,,,,,,,,,,,,,,,,,,,,,,,,,,
,,,,,331869,1,2024-07-12_17h33.44.983,experiment,2024.1.5,Win32,169.4915254,6691931c2c63981b064e1f0c,6691af1f250cdadffd5d9b79,,,,,,,,,,,,,,,,,,,,,,,,,,,,,,,,,,,,,,,,,,,,,,,,,,,,,,,,,,,,1530.2566,1540.5094,0.240972222,0.116666667,1.0,0.0,0.0,4.2505,compass,0.0,20.0,20.0,31.0,1.0,SoundStimuli/TheBattleOfNewOrleans_JohnnyHorton_Original5S.wav,,,,,,,,,,,,,,,,,,,,,,,,,,,,,,,,,,,,,,,,,,,,,,,,,,,
,,,,,331869,1,2024-07-12_17h33.44.983,experiment,2024.1.5,Win32,169.4915254,6691931c2c63981b064e1f0c,6691af1f250cdadffd5d9b79,,,,,,,,,,,,,,,,,,,,,,,,,,,,,,,,,,,,,,,,,,,,,,,,,,,,,,,,,,,,1540.513,1547.4232,0.245138889,-0.095833333,1.0,0.0,0.0,0.9043,compass,0.0,21.0,21.0,33.0,1.0,SoundStimuli/StandByMe_BenEKing_Original5S.wav,,,,,,,,,,,,,,,,,,,,,,,,,,,,,,,,,,,,,,,,,,,,,,,,,,,
,,,,,331869,1,2024-07-12_17h33.44.983,experiment,2024.1.5,Win32,169.4915254,6691931c2c63981b064e1f0c,6691af1f250cdadffd5d9b79,,,,,,,,,,,,,,,,,,,,,,,,,,,,,,,,,,,,,,,,,,,,,,,,,,,,,,,,,,,,1547.4271,1555.943,-0.240277778,-0.025,1.0,0.0,0.0,2.5125,compass,0.0,22.0,22.0,18.0,1.0,SoundStimuli/AnotherOneBitesTheDust_Queen_Cover5S.wav,,,,,,,,,,,,,,,,,,,,,,,,,,,,,,,,,,,,,,,,,,,,,,,,,,,
,,,,,331869,1,2024-07-12_17h33.44.983,experiment,2024.1.5,Win32,169.4915254,6691931c2c63981b064e1f0c,6691af1f250cdadffd5d9b79,,,,,,,,,,,,,,,,,,,,,,,,,,,,,,,,,,,,,,,,,,,,,,,,,,,,,,,,,,,,1555.9465,1565.0231,-0.159027778,-0.044444444,1.0,0.0,0.0,3.0734,compass,0.0,23.0,23.0,10.0,1.0,SoundStimuli/BadDay_DanielPowter_Original5S.wav,,,,,,,,,,,,,,,,,,,,,,,,,,,,,,,,,,,,,,,,,,,,,,,,,,,
,,,,,331869,1,2024-07-12_17h33.44.983,experiment,2024.1.5,Win32,169.4915254,6691931c2c63981b064e1f0c,6691af1f250cdadffd5d9b79,,,,,,,,,,,,,,,,,,,,,,,,,,,,,,,,,,,,,,,,,,,,,,,,,,,,,,,,,,,,1565.0267,1576.2929,-0.226388889,-0.298611111,1.0,0.0,0.0,5.2645,compass,0.0,24.0,24.0,5.0,1.0,SoundStimuli/MyGirl_TheTemptations_Cover5S.wav,,,,,,,,,,,,,,,,,,,,,,,,,,,,,,,,,,,,,,,,,,,,,,,,,,,
,,,,,331869,1,2024-07-12_17h33.44.983,experiment,2024.1.5,Win32,169.4915254,6691931c2c63981b064e1f0c,6691af1f250cdadffd5d9b79,,,,,,,,,,,,,,,,,,,,,,,,,,,,,,,,,,,,,,,,,,,,,,,,,,,,,,,,,,,,1576.2969,1585.4513,0.203472222,-0.046527778,1.0,0.0,0.0,3.1506,compass,0.0,25.0,25.0,22.0,1.0,SoundStimuli/RockWithYou_MichaelJackson_Cover5S.wav,,,,,,,,,,,,,,,,,,,,,,,,,,,,,,,,,,,,,,,,,,,,,,,,,,,
,,,,,331869,1,2024-07-12_17h33.44.983,experiment,2024.1.5,Win32,169.4915254,6691931c2c63981b064e1f0c,6691af1f250cdadffd5d9b79,,,,,,,,,,,,,,,,,,,,,,,,,,,,,,,,,,,,,,,,,,,,,,,,,,,,,,,,,,,,1585.455,1592.0688,0.336111111,0.338888889,1.0,0.0,0.0,0.6104,compass,0.0,26.0,26.0,20.0,1.0,SoundStimuli/HeyYa_Outkast_Original5S.wav,,,,,,,,,,,,,,,,,,,,,,,,,,,,,,,,,,,,,,,,,,,,,,,,,,,
,,,,,331869,1,2024-07-12_17h33.44.983,experiment,2024.1.5,Win32,169.4915254,6691931c2c63981b064e1f0c,6691af1f250cdadffd5d9b79,,,,,,,,,,,,,,,,,,,,,,,,,,,,,,,,,,,,,,,,,,,,,,,,,,,,,,,,,,,,1592.0723,1600.2391,-0.349305556,0.349305556,1.0,0.0,0.0,2.1611,compass,0.0,27.0,27.0,23.0,1.0,SoundStimuli/StrawberryFieldsForever_TheBeatles_Cover5S.wav,,,,,,,,,,,,,,,,,,,,,,,,,,,,,,,,,,,,,,,,,,,,,,,,,,,
,,,,,331869,1,2024-07-12_17h33.44.983,experiment,2024.1.5,Win32,169.4915254,6691931c2c63981b064e1f0c,6691af1f250cdadffd5d9b79,,,,,,,,,,,,,,,,,,,,,,,,,,,,,,,,,,,,,,,,,,,,,,,,,,,,,,,,,,,,1600.2429,1610.7329,-0.150694444,0.220833333,1.0,0.0,0.0,4.4807,compass,0.0,28.0,28.0,0.0,1.0,SoundStimuli/StayinAlive_BeeGees_Cover5S.wav,,,,,,,,,,,,,,,,,,,,,,,,,,,,,,,,,,,,,,,,,,,,,,,,,,,
,,,,,331869,1,2024-07-12_17h33.44.983,experiment,2024.1.5,Win32,169.4915254,6691931c2c63981b064e1f0c,6691af1f250cdadffd5d9b79,,,,,,,,,,,,,,,,,,,,,,,,,,,,,,,,,,,,,,,,,,,,,,,,,,,,,,,,,,,,1610.7368,1620.1209,0.0875,0.036111111,1.0,0.0,0.0,3.3789,compass,0.0,29.0,29.0,4.0,1.0,SoundStimuli/GetUrFreakOn_MissyElliot_Cover5S.wav,,,,,,,,,,,,,,,,,,,,,,,,,,,,,,,,,,,,,,,,,,,,,,,,,,,
,,,,,331869,1,2024-07-12_17h33.44.983,experiment,2024.1.5,Win32,169.4915254,6691931c2c63981b064e1f0c,6691af1f250cdadffd5d9b79,,,,,,,,,,,,,,,,,,,,,,,,,,,,,,,,,,,,,,,,,,,,,,,,,,,,,,,,,,,,1620.1247,1630.9931,0.1125,0.110416667,1.0,0.0,0.0,4.8653,compass,0.0,30.0,30.0,14.0,1.0,SoundStimuli/BlindingLights_TheWeeknd_Cover5S.wav,,,,,,,,,,,,,,,,,,,,,,,,,,,,,,,,,,,,,,,,,,,,,,,,,,,
,,,,,331869,1,2024-07-12_17h33.44.983,experiment,2024.1.5,Win32,169.4915254,6691931c2c63981b064e1f0c,6691af1f250cdadffd5d9b79,,,,,,,,,,,,,,,,,,,,,,,,,,,,,,,,,,,,,,,,,,,,,,,,,,,,,,,,,,,,1630.9967,1642.0805,-0.214583333,0.084722222,1.0,0.0,0.0,5.0822,compass,0.0,31.0,31.0,28.0,1.0,SoundStimuli/ComeAndGetYourLove_Redbone_Cover5S.wav,,,,,,,,,,,,,,,,,,,,,,,,,,,,,,,,,,,,,,,,,,,,,,,,,,,
,,,,,331869,1,2024-07-12_17h33.44.983,experiment,2024.1.5,Win32,169.4915254,6691931c2c63981b064e1f0c,6691af1f250cdadffd5d9b79,,,,,,,,,,,,,,,,,,,,,,,,,,,,,,,,,,,,,,,,,,,,,,,,,,,,,,,,,,,,1642.0841,1649.2905,-0.270833333,0.028472222,1.0,0.0,0.0,1.2046,compass,0.0,32.0,32.0,8.0,1.0,SoundStimuli/LikeAPrayer_Madonna_Cover5S.wav,,,,,,,,,,,,,,,,,,,,,,,,,,,,,,,,,,,,,,,,,,,,,,,,,,,
,,,,,331869,1,2024-07-12_17h33.44.983,experiment,2024.1.5,Win32,169.4915254,6691931c2c63981b064e1f0c,6691af1f250cdadffd5d9b79,,,,,,,,,,,,,,,,,,,,,,,,,,,,,,,,,,,,,,,,,,,,,,,,,,,,,,,,,,,,1649.2939,1657.5902,-0.279166667,0.139583333,1.0,0.0,0.0,2.2925,compass,0.0,33.0,33.0,16.0,1.0,SoundStimuli/BohemianRhapsody_Queen_Cover5S.wav,,,,,,,,,,,,,,,,,,,,,,,,,,,,,,,,,,,,,,,,,,,,,,,,,,,
,,,,,331869,1,2024-07-12_17h33.44.983,experiment,2024.1.5,Win32,169.4915254,6691931c2c63981b064e1f0c,6691af1f250cdadffd5d9b79,,,,,,,,,,,,,,,,,,,,,,,,,,,,,,,,,,,,,,,,,,,,,,,,,,,,,,,,,,,,1657.594,1666.8781,-0.165972222,0.103472222,1.0,0.0,0.0,3.2823,compass,0.0,34.0,34.0,2.0,1.0,SoundStimuli/Mood_24kGoldnianndior_Original5S.wav,,,,,,,,,,,,,,,,,,,,,,,,,,,,,,,,,,,,,,,,,,,,,,,,,,,
,,,,,331869,1,2024-07-12_17h33.44.983,experiment,2024.1.5,Win32,169.4915254,6691931c2c63981b064e1f0c,6691af1f250cdadffd5d9b79,,,,,,,,,,,,,,,,,,,,,,,,,,,,,,,,,,,,,,,,,,,,,,,,,,,,,,,,,,,,,,,,,,,,,,,,,,,1666.8818,1666.8818,,,,1666.8818,1666.8819,,,,0.0,3.0,3.0,3.0,1.0,block_order/blockC.xlsx,,,,,,,,,,,,,,,,,,,,,,,,,,,,,,,,,,,
,,,,,331869,1,2024-07-12_17h33.44.983,experiment,2024.1.5,Win32,169.4915254,6691931c2c63981b064e1f0c,6691af1f250cdadffd5d9b79,,,,,,,,,,,,,,,,,,,,,,,,,,,,,,,,,,,,,,,,,,,,,,,,,,,,,,,,,,,,,,,,,,,,,,,,,,,,,,,,,,,,,,,,,,,21.0,Item 2,Item 6,Youtube,5.0,6.0,"Working, driving, or while im on my PC.",Not a musician,Rarely,Always,Sometimes,Sometimes,Often,Sometimes,Sometimes,Often,Rarely,Rarely,Rarely,Always,Sometimes,Rarely,Sometimes,Rarely,Alternative Rock,EDM,Jazz,"I feel like its stayed the same all I do everyday is listen to the same music while working, sleeping or while im at my PC but I do sometimes try to find new artists listen to different music see if maybe I can enjoy a song from a different genre I try to make different genre playlist and whenever I find a song I enjoy I add it there.",0.0,0.0,0.0,0.0,1.0,,
,,,,,331869,1,2024-07-12_17h33.44.983,experiment,2024.1.5,Win32,169.4915254,6691931c2c63981b064e1f0c,6691af1f250cdadffd5d9b79,,,,,,,,,,,,,,,,,,,,,,,,,,,,,,,,,,,,,,,,,,,,,,,,,,,,,,,,,,,,,,,,,,,,,,,,,,,,,,,,,,,,,,,,,,,,,,,,,,,,,,,,,,,,,,,,,,,,,,,,,,,,2731.4149,2733.7073
