welcome.started,welcome.stopped,space_to_continue.keys,space_to_continue.rt,space_to_continue.duration,participant,session,date,expName,psychopyVersion,OS,frameRate,STUDY_ID,SESSION_ID,consent.consent,consent.consent_recontact,consent_check.started,consent_check.stopped,calibration_ready.started,calibration_ready.stopped,cal_ready.keys,cal_ready.rt,cal_ready.duration,calibration.started,calibration.stopped,mouse.x,mouse.y,mouse.leftButton,mouse.midButton,mouse.rightButton,mouse.time,mouse.clicked_name,move_on.keys,move_on.rt,move_on.duration,run_cal.thisRepN,run_cal.thisTrialN,run_cal.thisN,run_cal.thisIndex,run_cal.ran,emotion_training_ready.started,emotion_training_ready.stopped,training_move_on.keys,training_move_on.rt,training_move_on.duration,examples.started,examples.stopped,emotion_scale.started,emotion_scale.stopped,scale_next.keys,scale_next.rt,scale_next.duration,instructions.started,instructions.stopped,next.keys,next.rt,next.duration,practice_task.started,practice_task.stopped,mouse_rating_2.x,mouse_rating_2.y,mouse_rating_2.leftButton,mouse_rating_2.midButton,mouse_rating_2.rightButton,mouse_rating_2.time,mouse_rating_2.clicked_name,ready.started,ready.stopped,key_resp.keys,key_resp.rt,key_resp.duration,set_group.started,set_group.stopped,task.started,task.stopped,mouse_rating.x,mouse_rating.y,mouse_rating.leftButton,mouse_rating.midButton,mouse_rating.rightButton,mouse_rating.time,mouse_rating.clicked_name,trials.thisRepN,trials.thisTrialN,trials.thisN,trials.thisIndex,trials.ran,clip,short_break.started,short_break.stopped,space_to_move_on.keys,space_to_move_on.rt,space_to_move_on.duration,instruction_reminder.started,instruction_reminder.stopped,reminder_move_on.keys,reminder_move_on.rt,reminder_move_on.duration,blocks.thisRepN,blocks.thisTrialN,blocks.thisN,blocks.thisIndex,blocks.ran,block,post_survey.age,post_survey.musician,post_survey.music_making,post_survey.listen_time,post_survey.medium,post_survey.music_seeking,post_survey.music_choice,post_survey.activities,post_survey.question1.Classic rock,post_survey.question1.Reggae,post_survey.question1.Country,post_survey.question1.Electronic (EDM),post_survey.question1.Metal,post_survey.question1.Pop,post_survey.question1.R&B,post_survey.question1.A cappella,post_survey.question1.Ambient,post_survey.question1.Folk/indie,post_survey.question1.Latin,post_survey.question1.Jazz,post_survey.question1.Alternative rock,post_survey.question1.Hip hop,post_survey.question1.Disco,post_survey.question1.Classical,post_survey.other_genres,post_survey.genres_ranked.text1,post_survey.genres_ranked.text2,post_survey.genres_ranked.text3,post_survey.habit_change,post_survey.habits,show_exp.thisRepN,show_exp.thisTrialN,show_exp.thisN,show_exp.thisIndex,show_exp.ran,goodbye.started,goodbye.stopped
0.001,1.449,space,1.43,,378811,1,2024-07-12_16h07.05.546,experiment,2024.1.5,MacIntel,58.82352941,6691931c2c63981b064e1f0c,6691b7033008e619db223b2b,,,,,,,,,,,,,,,,,,,,,,,,,,,,,,,,,,,,,,,,,,,,,,,,,,,,,,,,,,,,,,,,,,,,,,,,,,,,,,,,,,,,,,,,,,,,,,,,,,,,,,,,,,,,,,,,,,,,,,,,,,,,,,,
,,,,,378811,1,2024-07-12_16h07.05.546,experiment,2024.1.5,MacIntel,58.82352941,6691931c2c63981b064e1f0c,6691b7033008e619db223b2b,yes,no,,,,,,,,,,,,,,,,,,,,,,,,,,,,,,,,,,,,,,,,,,,,,,,,,,,,,,,,,,,,,,,,,,,,,,,,,,,,,,,,,,,,,,,,,,,,,,,,,,,,,,,,,,,,,,,,,,,,,,,,,,,,,
,,,,,378811,1,2024-07-12_16h07.05.546,experiment,2024.1.5,MacIntel,58.82352941,6691931c2c63981b064e1f0c,6691b7033008e619db223b2b,,,13.636,13.637,,,,,,,,,,,,,,,,,,,,,,,,,,,,,,,,,,,,,,,,,,,,,,,,,,,,,,,,,,,,,,,,,,,,,,,,,,,,,,,,,,,,,,,,,,,,,,,,,,,,,,,,,,,,,,,,,,,,,,,,,,,
,,,,,378811,1,2024-07-12_16h07.05.546,experiment,2024.1.5,MacIntel,58.82352941,6691931c2c63981b064e1f0c,6691b7033008e619db223b2b,,,,,13.64,52.56,space,38.895,,52.561,70.731,[-0.021296296296296296],[-0.44537037037037036],[1],[0],[0],[4.078000000000003],"[""play_button""]",y,17.135,,0.0,0.0,0.0,0.0,1.0,,,,,,,,,,,,,,,,,,,,,,,,,,,,,,,,,,,,,,,,,,,,,,,,,,,,,,,,,,,,,,,,,,,,,,,,,,,,,,,,,,,,,,,,,,,,,,,,,,,,,
,,,,,378811,1,2024-07-12_16h07.05.546,experiment,2024.1.5,MacIntel,58.82352941,6691931c2c63981b064e1f0c,6691b7033008e619db223b2b,,,,,,,,,,,,,,,,,,,,,,,,,,,70.732,88.295,space,17.502,,88.295,208.311,208.312,215.157,right,3.31,,215.157,230.67,space,15.469,,230.67,241.407,0.219444444,-0.226851852,1.0,0.0,0.0,4.736,compass_2,241.407,242.485,space,1.054,,242.486,242.486,242.513,253.105,0.199074074,-0.131481481,1.0,0.0,0.0,4.587,compass,0.0,0.0,0.0,19.0,1.0,SoundStimuli/LetsGetItOn_MarvinGaye_Original5S.wav,,,,,,,,,,,,,,,,,,,,,,,,,,,,,,,,,,,,,,,,,,,,,,,,,,,,,
,,,,,378811,1,2024-07-12_16h07.05.546,experiment,2024.1.5,MacIntel,58.82352941,6691931c2c63981b064e1f0c,6691b7033008e619db223b2b,,,,,,,,,,,,,,,,,,,,,,,,,,,,,,,,,,,,,,,,,,,,,,,,,,,,,,,,,,,,253.106,259.958,0.276851852,0.201851852,1.0,0.0,0.0,0.842,compass,0.0,1.0,1.0,16.0,1.0,SoundStimuli/BohemianRhapsody_Queen_Cover5S.wav,,,,,,,,,,,,,,,,,,,,,,,,,,,,,,,,,,,,,,,,,,,,,,,,,,,,,
,,,,,378811,1,2024-07-12_16h07.05.546,experiment,2024.1.5,MacIntel,58.82352941,6691931c2c63981b064e1f0c,6691b7033008e619db223b2b,,,,,,,,,,,,,,,,,,,,,,,,,,,,,,,,,,,,,,,,,,,,,,,,,,,,,,,,,,,,259.959,266.663,0.222222222,-0.136111111,1.0,0.0,0.0,0.701,compass,0.0,2.0,2.0,29.0,1.0,SoundStimuli/OldTownRoad_LilNasX_Cover5S.wav,,,,,,,,,,,,,,,,,,,,,,,,,,,,,,,,,,,,,,,,,,,,,,,,,,,,,
,,,,,378811,1,2024-07-12_16h07.05.546,experiment,2024.1.5,MacIntel,58.82352941,6691931c2c63981b064e1f0c,6691b7033008e619db223b2b,,,,,,,,,,,,,,,,,,,,,,,,,,,,,,,,,,,,,,,,,,,,,,,,,,,,,,,,,,,,266.663,273.131,0.230555556,0.201851852,1.0,0.0,0.0,0.459,compass,0.0,3.0,3.0,9.0,1.0,SoundStimuli/Despacito_LuisFonsiDaddyYankee_Original5S.wav,,,,,,,,,,,,,,,,,,,,,,,,,,,,,,,,,,,,,,,,,,,,,,,,,,,,,
,,,,,378811,1,2024-07-12_16h07.05.546,experiment,2024.1.5,MacIntel,58.82352941,6691931c2c63981b064e1f0c,6691b7033008e619db223b2b,,,,,,,,,,,,,,,,,,,,,,,,,,,,,,,,,,,,,,,,,,,,,,,,,,,,,,,,,,,,273.131,280.689,0.230555556,0.200925926,1.0,0.0,0.0,1.55,compass,0.0,4.0,4.0,15.0,1.0,SoundStimuli/TikTok_Kesha_Original5S.wav,,,,,,,,,,,,,,,,,,,,,,,,,,,,,,,,,,,,,,,,,,,,,,,,,,,,,
,,,,,378811,1,2024-07-12_16h07.05.546,experiment,2024.1.5,MacIntel,58.82352941,6691931c2c63981b064e1f0c,6691b7033008e619db223b2b,,,,,,,,,,,,,,,,,,,,,,,,,,,,,,,,,,,,,,,,,,,,,,,,,,,,,,,,,,,,280.69,291.177,-0.211111111,-0.121296296,1.0,0.0,0.0,4.484,compass,0.0,5.0,5.0,7.0,1.0,SoundStimuli/NoOne_AliciaKeys_Original5S.wav,,,,,,,,,,,,,,,,,,,,,,,,,,,,,,,,,,,,,,,,,,,,,,,,,,,,,
,,,,,378811,1,2024-07-12_16h07.05.546,experiment,2024.1.5,MacIntel,58.82352941,6691931c2c63981b064e1f0c,6691b7033008e619db223b2b,,,,,,,,,,,,,,,,,,,,,,,,,,,,,,,,,,,,,,,,,,,,,,,,,,,,,,,,,,,,291.178,298.125,0.223148148,0.122222222,1.0,0.0,0.0,0.943,compass,0.0,6.0,6.0,21.0,1.0,SoundStimuli/GoodGollyMissMolly_LittleRichard_Original5S.wav,,,,,,,,,,,,,,,,,,,,,,,,,,,,,,,,,,,,,,,,,,,,,,,,,,,,,
,,,,,378811,1,2024-07-12_16h07.05.546,experiment,2024.1.5,MacIntel,58.82352941,6691931c2c63981b064e1f0c,6691b7033008e619db223b2b,,,,,,,,,,,,,,,,,,,,,,,,,,,,,,,,,,,,,,,,,,,,,,,,,,,,,,,,,,,,298.125,304.659,0.223148148,0.122222222,1.0,0.0,0.0,0.526,compass,0.0,7.0,7.0,11.0,1.0,SoundStimuli/Superstition_StevieWonder_Original5S.wav,,,,,,,,,,,,,,,,,,,,,,,,,,,,,,,,,,,,,,,,,,,,,,,,,,,,,
,,,,,378811,1,2024-07-12_16h07.05.546,experiment,2024.1.5,MacIntel,58.82352941,6691931c2c63981b064e1f0c,6691b7033008e619db223b2b,,,,,,,,,,,,,,,,,,,,,,,,,,,,,,,,,,,,,,,,,,,,,,,,,,,,,,,,,,,,304.659,312.345,-0.200925926,0.232407407,1.0,0.0,0.0,1.675,compass,0.0,8.0,8.0,25.0,1.0,SoundStimuli/Respect_ArethaFranklin_Cover5S.wav,,,,,,,,,,,,,,,,,,,,,,,,,,,,,,,,,,,,,,,,,,,,,,,,,,,,,
,,,,,378811,1,2024-07-12_16h07.05.546,experiment,2024.1.5,MacIntel,58.82352941,6691931c2c63981b064e1f0c,6691b7033008e619db223b2b,,,,,,,,,,,,,,,,,,,,,,,,,,,,,,,,,,,,,,,,,,,,,,,,,,,,,,,,,,,,312.345,320.318,0.175,-0.132407407,1.0,0.0,0.0,1.973,compass,0.0,9.0,9.0,10.0,1.0,SoundStimuli/BadDay_DanielPowter_Original5S.wav,,,,,,,,,,,,,,,,,,,,,,,,,,,,,,,,,,,,,,,,,,,,,,,,,,,,,
,,,,,378811,1,2024-07-12_16h07.05.546,experiment,2024.1.5,MacIntel,58.82352941,6691931c2c63981b064e1f0c,6691b7033008e619db223b2b,,,,,,,,,,,,,,,,,,,,,,,,,,,,,,,,,,,,,,,,,,,,,,,,,,,,,,,,,,,,320.319,329.842,0.22037037,-0.197222222,1.0,0.0,0.0,3.511,compass,0.0,10.0,10.0,17.0,1.0,SoundStimuli/Fallin_AliciaKeys_Cover5S.wav,,,,,,,,,,,,,,,,,,,,,,,,,,,,,,,,,,,,,,,,,,,,,,,,,,,,,
,,,,,378811,1,2024-07-12_16h07.05.546,experiment,2024.1.5,MacIntel,58.82352941,6691931c2c63981b064e1f0c,6691b7033008e619db223b2b,,,,,,,,,,,,,,,,,,,,,,,,,,,,,,,,,,,,,,,,,,,,,,,,,,,,,,,,,,,,329.842,336.662,0.242592593,0.148148148,1.0,0.0,0.0,0.807,compass,0.0,11.0,11.0,26.0,1.0,SoundStimuli/LivinOnAPrayer_BonJovi_Original5S.wav,,,,,,,,,,,,,,,,,,,,,,,,,,,,,,,,,,,,,,,,,,,,,,,,,,,,,
,,,,,378811,1,2024-07-12_16h07.05.546,experiment,2024.1.5,MacIntel,58.82352941,6691931c2c63981b064e1f0c,6691b7033008e619db223b2b,,,,,,,,,,,,,,,,,,,,,,,,,,,,,,,,,,,,,,,,,,,,,,,,,,,,,,,,,,,,336.663,343.04,0.213888889,-0.181481481,1.0,0.0,0.0,0.369,compass,0.0,12.0,12.0,22.0,1.0,SoundStimuli/RockWithYou_MichaelJackson_Cover5S.wav,,,,,,,,,,,,,,,,,,,,,,,,,,,,,,,,,,,,,,,,,,,,,,,,,,,,,
,,,,,378811,1,2024-07-12_16h07.05.546,experiment,2024.1.5,MacIntel,58.82352941,6691931c2c63981b064e1f0c,6691b7033008e619db223b2b,,,,,,,,,,,,,,,,,,,,,,,,,,,,,,,,,,,,,,,,,,,,,,,,,,,,,,,,,,,,343.041,350.227,0.182407407,-0.228703704,1.0,0.0,0.0,1.179,compass,0.0,13.0,13.0,18.0,1.0,SoundStimuli/AnotherOneBitesTheDust_Queen_Cover5S.wav,,,,,,,,,,,,,,,,,,,,,,,,,,,,,,,,,,,,,,,,,,,,,,,,,,,,,
,,,,,378811,1,2024-07-12_16h07.05.546,experiment,2024.1.5,MacIntel,58.82352941,6691931c2c63981b064e1f0c,6691b7033008e619db223b2b,,,,,,,,,,,,,,,,,,,,,,,,,,,,,,,,,,,,,,,,,,,,,,,,,,,,,,,,,,,,350.227,358.015,0.234259259,0.149074074,1.0,0.0,0.0,1.784,compass,0.0,14.0,14.0,2.0,1.0,SoundStimuli/Mood_24kGoldnianndior_Original5S.wav,,,,,,,,,,,,,,,,,,,,,,,,,,,,,,,,,,,,,,,,,,,,,,,,,,,,,
,,,,,378811,1,2024-07-12_16h07.05.546,experiment,2024.1.5,MacIntel,58.82352941,6691931c2c63981b064e1f0c,6691b7033008e619db223b2b,,,,,,,,,,,,,,,,,,,,,,,,,,,,,,,,,,,,,,,,,,,,,,,,,,,,,,,,,,,,358.015,366.186,0.208333333,-0.072222222,1.0,0.0,0.0,2.161,compass,0.0,15.0,15.0,33.0,1.0,SoundStimuli/StandByMe_BenEKing_Original5S.wav,,,,,,,,,,,,,,,,,,,,,,,,,,,,,,,,,,,,,,,,,,,,,,,,,,,,,
,,,,,378811,1,2024-07-12_16h07.05.546,experiment,2024.1.5,MacIntel,58.82352941,6691931c2c63981b064e1f0c,6691b7033008e619db223b2b,,,,,,,,,,,,,,,,,,,,,,,,,,,,,,,,,,,,,,,,,,,,,,,,,,,,,,,,,,,,366.187,377.205,0.142592593,0.144444444,1.0,0.0,0.0,5.005,compass,0.0,16.0,16.0,1.0,1.0,SoundStimuli/Stronger_KanyeWest_Cover5S.wav,,,,,,,,,,,,,,,,,,,,,,,,,,,,,,,,,,,,,,,,,,,,,,,,,,,,,
,,,,,378811,1,2024-07-12_16h07.05.546,experiment,2024.1.5,MacIntel,58.82352941,6691931c2c63981b064e1f0c,6691b7033008e619db223b2b,,,,,,,,,,,,,,,,,,,,,,,,,,,,,,,,,,,,,,,,,,,,,,,,,,,,,,,,,,,,377.205,387.364,0.133333333,0.131481481,1.0,0.0,0.0,4.153,compass,0.0,17.0,17.0,4.0,1.0,SoundStimuli/GetUrFreakOn_MissyElliot_Cover5S.wav,,,,,,,,,,,,,,,,,,,,,,,,,,,,,,,,,,,,,,,,,,,,,,,,,,,,,
,,,,,378811,1,2024-07-12_16h07.05.546,experiment,2024.1.5,MacIntel,58.82352941,6691931c2c63981b064e1f0c,6691b7033008e619db223b2b,,,,,,,,,,,,,,,,,,,,,,,,,,,,,,,,,,,,,,,,,,,,,,,,,,,,,,,,,,,,387.364,394.359,0.311111111,0.100925926,1.0,0.0,0.0,0.987,compass,0.0,18.0,18.0,31.0,1.0,SoundStimuli/TheBattleOfNewOrleans_JohnnyHorton_Original5S.wav,,,,,,,,,,,,,,,,,,,,,,,,,,,,,,,,,,,,,,,,,,,,,,,,,,,,,
,,,,,378811,1,2024-07-12_16h07.05.546,experiment,2024.1.5,MacIntel,58.82352941,6691931c2c63981b064e1f0c,6691b7033008e619db223b2b,,,,,,,,,,,,,,,,,,,,,,,,,,,,,,,,,,,,,,,,,,,,,,,,,,,,,,,,,,,,394.36,402.837,0.09537037,0.15462963,1.0,0.0,0.0,2.465,compass,0.0,19.0,19.0,3.0,1.0,SoundStimuli/NoScrubs_TLC_Cover5S.wav,,,,,,,,,,,,,,,,,,,,,,,,,,,,,,,,,,,,,,,,,,,,,,,,,,,,,
,,,,,378811,1,2024-07-12_16h07.05.546,experiment,2024.1.5,MacIntel,58.82352941,6691931c2c63981b064e1f0c,6691b7033008e619db223b2b,,,,,,,,,,,,,,,,,,,,,,,,,,,,,,,,,,,,,,,,,,,,,,,,,,,,,,,,,,,,402.838,414.741,0.09537037,0.15462963,1.0,0.0,0.0,5.892,compass,0.0,20.0,20.0,6.0,1.0,SoundStimuli/Levitating_DuaLipa_Original5S.wav,,,,,,,,,,,,,,,,,,,,,,,,,,,,,,,,,,,,,,,,,,,,,,,,,,,,,
,,,,,378811,1,2024-07-12_16h07.05.546,experiment,2024.1.5,MacIntel,58.82352941,6691931c2c63981b064e1f0c,6691b7033008e619db223b2b,,,,,,,,,,,,,,,,,,,,,,,,,,,,,,,,,,,,,,,,,,,,,,,,,,,,,,,,,,,,414.742,421.909,0.09537037,0.15462963,1.0,0.0,0.0,1.154,compass,0.0,21.0,21.0,0.0,1.0,SoundStimuli/StayinAlive_BeeGees_Cover5S.wav,,,,,,,,,,,,,,,,,,,,,,,,,,,,,,,,,,,,,,,,,,,,,,,,,,,,,
,,,,,378811,1,2024-07-12_16h07.05.546,experiment,2024.1.5,MacIntel,58.82352941,6691931c2c63981b064e1f0c,6691b7033008e619db223b2b,,,,,,,,,,,,,,,,,,,,,,,,,,,,,,,,,,,,,,,,,,,,,,,,,,,,,,,,,,,,421.909,428.482,0.180555556,-0.182407407,1.0,0.0,0.0,0.569,compass,0.0,22.0,22.0,14.0,1.0,SoundStimuli/BlindingLights_TheWeeknd_Cover5S.wav,,,,,,,,,,,,,,,,,,,,,,,,,,,,,,,,,,,,,,,,,,,,,,,,,,,,,
,,,,,378811,1,2024-07-12_16h07.05.546,experiment,2024.1.5,MacIntel,58.82352941,6691931c2c63981b064e1f0c,6691b7033008e619db223b2b,,,,,,,,,,,,,,,,,,,,,,,,,,,,,,,,,,,,,,,,,,,,,,,,,,,,,,,,,,,,428.483,434.824,-0.14537037,-0.214814815,1.0,0.0,0.0,0.328,compass,0.0,23.0,23.0,13.0,1.0,SoundStimuli/GodOnlyKnows_TheBeachBoys_Original5S.wav,,,,,,,,,,,,,,,,,,,,,,,,,,,,,,,,,,,,,,,,,,,,,,,,,,,,,
,,,,,378811,1,2024-07-12_16h07.05.546,experiment,2024.1.5,MacIntel,58.82352941,6691931c2c63981b064e1f0c,6691b7033008e619db223b2b,,,,,,,,,,,,,,,,,,,,,,,,,,,,,,,,,,,,,,,,,,,,,,,,,,,,,,,,,,,,434.824,441.614,0.141666667,-0.209259259,1.0,0.0,0.0,0.779,compass,0.0,24.0,24.0,34.0,1.0,SoundStimuli/AChangeIsGonnaCome_SamCooke_Original5S.wav,,,,,,,,,,,,,,,,,,,,,,,,,,,,,,,,,,,,,,,,,,,,,,,,,,,,,
,,,,,378811,1,2024-07-12_16h07.05.546,experiment,2024.1.5,MacIntel,58.82352941,6691931c2c63981b064e1f0c,6691b7033008e619db223b2b,,,,,,,,,,,,,,,,,,,,,,,,,,,,,,,,,,,,,,,,,,,,,,,,,,,,,,,,,,,,441.615,448.223,0.185185185,0.128703704,1.0,0.0,0.0,0.6,compass,0.0,25.0,25.0,23.0,1.0,SoundStimuli/StrawberryFieldsForever_TheBeatles_Cover5S.wav,,,,,,,,,,,,,,,,,,,,,,,,,,,,,,,,,,,,,,,,,,,,,,,,,,,,,
,,,,,378811,1,2024-07-12_16h07.05.546,experiment,2024.1.5,MacIntel,58.82352941,6691931c2c63981b064e1f0c,6691b7033008e619db223b2b,,,,,,,,,,,,,,,,,,,,,,,,,,,,,,,,,,,,,,,,,,,,,,,,,,,,,,,,,,,,448.224,455.875,0.185185185,0.127777778,1.0,0.0,0.0,1.64,compass,0.0,26.0,26.0,24.0,1.0,SoundStimuli/UptownFunk_MarkRonson_Cover5S.wav,,,,,,,,,,,,,,,,,,,,,,,,,,,,,,,,,,,,,,,,,,,,,,,,,,,,,
,,,,,378811,1,2024-07-12_16h07.05.546,experiment,2024.1.5,MacIntel,58.82352941,6691931c2c63981b064e1f0c,6691b7033008e619db223b2b,,,,,,,,,,,,,,,,,,,,,,,,,,,,,,,,,,,,,,,,,,,,,,,,,,,,,,,,,,,,455.876,464.207,-0.127777778,-0.134259259,1.0,0.0,0.0,2.328,compass,0.0,27.0,27.0,30.0,1.0,SoundStimuli/PokerFace_LadyGaga_Cover5S.wav,,,,,,,,,,,,,,,,,,,,,,,,,,,,,,,,,,,,,,,,,,,,,,,,,,,,,
,,,,,378811,1,2024-07-12_16h07.05.546,experiment,2024.1.5,MacIntel,58.82352941,6691931c2c63981b064e1f0c,6691b7033008e619db223b2b,,,,,,,,,,,,,,,,,,,,,,,,,,,,,,,,,,,,,,,,,,,,,,,,,,,,,,,,,,,,464.208,470.601,0.248148148,0.114814815,1.0,0.0,0.0,0.384,compass,0.0,28.0,28.0,28.0,1.0,SoundStimuli/ComeAndGetYourLove_Redbone_Cover5S.wav,,,,,,,,,,,,,,,,,,,,,,,,,,,,,,,,,,,,,,,,,,,,,,,,,,,,,
,,,,,378811,1,2024-07-12_16h07.05.546,experiment,2024.1.5,MacIntel,58.82352941,6691931c2c63981b064e1f0c,6691b7033008e619db223b2b,,,,,,,,,,,,,,,,,,,,,,,,,,,,,,,,,,,,,,,,,,,,,,,,,,,,,,,,,,,,470.602,477.51,-0.197222222,-0.171296296,1.0,0.0,0.0,0.893,compass,0.0,29.0,29.0,5.0,1.0,SoundStimuli/MyGirl_TheTemptations_Cover5S.wav,,,,,,,,,,,,,,,,,,,,,,,,,,,,,,,,,,,,,,,,,,,,,,,,,,,,,
,,,,,378811,1,2024-07-12_16h07.05.546,experiment,2024.1.5,MacIntel,58.82352941,6691931c2c63981b064e1f0c,6691b7033008e619db223b2b,,,,,,,,,,,,,,,,,,,,,,,,,,,,,,,,,,,,,,,,,,,,,,,,,,,,,,,,,,,,477.511,484.119,0.123148148,-0.22962963,1.0,0.0,0.0,0.601,compass,0.0,30.0,30.0,27.0,1.0,SoundStimuli/ShapeofYou_EdSheeran_Cover5S.wav,,,,,,,,,,,,,,,,,,,,,,,,,,,,,,,,,,,,,,,,,,,,,,,,,,,,,
,,,,,378811,1,2024-07-12_16h07.05.546,experiment,2024.1.5,MacIntel,58.82352941,6691931c2c63981b064e1f0c,6691b7033008e619db223b2b,,,,,,,,,,,,,,,,,,,,,,,,,,,,,,,,,,,,,,,,,,,,,,,,,,,,,,,,,,,,484.12,491.613,0.244444444,0.201851852,1.0,0.0,0.0,1.484,compass,0.0,31.0,31.0,8.0,1.0,SoundStimuli/LikeAPrayer_Madonna_Cover5S.wav,,,,,,,,,,,,,,,,,,,,,,,,,,,,,,,,,,,,,,,,,,,,,,,,,,,,,
,,,,,378811,1,2024-07-12_16h07.05.546,experiment,2024.1.5,MacIntel,58.82352941,6691931c2c63981b064e1f0c,6691b7033008e619db223b2b,,,,,,,,,,,,,,,,,,,,,,,,,,,,,,,,,,,,,,,,,,,,,,,,,,,,,,,,,,,,491.613,497.918,0.297222222,0.034259259,1.0,0.0,0.0,0.295,compass,0.0,32.0,32.0,20.0,1.0,SoundStimuli/HeyYa_Outkast_Original5S.wav,,,,,,,,,,,,,,,,,,,,,,,,,,,,,,,,,,,,,,,,,,,,,,,,,,,,,
,,,,,378811,1,2024-07-12_16h07.05.546,experiment,2024.1.5,MacIntel,58.82352941,6691931c2c63981b064e1f0c,6691b7033008e619db223b2b,,,,,,,,,,,,,,,,,,,,,,,,,,,,,,,,,,,,,,,,,,,,,,,,,,,,,,,,,,,,497.918,505.544,0.105555556,0.073148148,1.0,0.0,0.0,1.62,compass,0.0,33.0,33.0,32.0,1.0,SoundStimuli/HeatWaves_GlassAnimals_Cover5S.wav,,,,,,,,,,,,,,,,,,,,,,,,,,,,,,,,,,,,,,,,,,,,,,,,,,,,,
,,,,,378811,1,2024-07-12_16h07.05.546,experiment,2024.1.5,MacIntel,58.82352941,6691931c2c63981b064e1f0c,6691b7033008e619db223b2b,,,,,,,,,,,,,,,,,,,,,,,,,,,,,,,,,,,,,,,,,,,,,,,,,,,,,,,,,,,,505.545,511.87,0.215740741,-0.174074074,1.0,0.0,0.0,0.324,compass,0.0,34.0,34.0,12.0,1.0,SoundStimuli/IWillAlwaysLoveYou_WhitneyHouston_Original5S.wav,,,,,,,,,,,,,,,,,,,,,,,,,,,,,,,,,,,,,,,,,,,,,,,,,,,,,
,,,,,378811,1,2024-07-12_16h07.05.546,experiment,2024.1.5,MacIntel,58.82352941,6691931c2c63981b064e1f0c,6691b7033008e619db223b2b,,,,,,,,,,,,,,,,,,,,,,,,,,,,,,,,,,,,,,,,,,,,,,,,,,,,,,,,,,,,,,,,,,,,,,,,,,,511.871,515.152,space,3.248,,515.152,518.918,right,3.721,,0.0,0.0,0.0,0.0,1.0,block_order/blockC.xlsx,,,,,,,,,,,,,,,,,,,,,,,,,,,,,,,,,,,,,
,,,,,378811,1,2024-07-12_16h07.05.546,experiment,2024.1.5,MacIntel,58.82352941,6691931c2c63981b064e1f0c,6691b7033008e619db223b2b,,,,,,,,,,,,,,,,,,,,,,,,,,,,,,,,,,,,,,,,,,,,,,,,,,,,,,,,,,,,518.929,525.329,0.278703704,0.15462963,1.0,0.0,0.0,0.391,compass,0.0,0.0,0.0,15.0,1.0,SoundStimuli/CrazyInLove_BeyonceFtJayZ_Cover5S.wav,,,,,,,,,,,,,,,,,,,,,,,,,,,,,,,,,,,,,,,,,,,,,,,,,,,,,
,,,,,378811,1,2024-07-12_16h07.05.546,experiment,2024.1.5,MacIntel,58.82352941,6691931c2c63981b064e1f0c,6691b7033008e619db223b2b,,,,,,,,,,,,,,,,,,,,,,,,,,,,,,,,,,,,,,,,,,,,,,,,,,,,,,,,,,,,525.33,532.81,-0.07962963,0.162962963,1.0,0.0,0.0,1.469,compass,0.0,1.0,1.0,28.0,1.0,SoundStimuli/IWantToHoldYourHand_TheBeatles_Original5S.wav,,,,,,,,,,,,,,,,,,,,,,,,,,,,,,,,,,,,,,,,,,,,,,,,,,,,,
,,,,,378811,1,2024-07-12_16h07.05.546,experiment,2024.1.5,MacIntel,58.82352941,6691931c2c63981b064e1f0c,6691b7033008e619db223b2b,,,,,,,,,,,,,,,,,,,,,,,,,,,,,,,,,,,,,,,,,,,,,,,,,,,,,,,,,,,,532.811,539.144,0.232407407,0.222222222,1.0,0.0,0.0,0.326,compass,0.0,2.0,2.0,26.0,1.0,SoundStimuli/TheSign_AceOfBase_Cover5S.wav,,,,,,,,,,,,,,,,,,,,,,,,,,,,,,,,,,,,,,,,,,,,,,,,,,,,,
,,,,,378811,1,2024-07-12_16h07.05.546,experiment,2024.1.5,MacIntel,58.82352941,6691931c2c63981b064e1f0c,6691b7033008e619db223b2b,,,,,,,,,,,,,,,,,,,,,,,,,,,,,,,,,,,,,,,,,,,,,,,,,,,,,,,,,,,,539.145,546.209,0.27962963,0.130555556,1.0,0.0,0.0,1.063,compass,0.0,3.0,3.0,17.0,1.0,SoundStimuli/IWannaDanceWithSomebody_WhitneyHouston_Original5S.wav,,,,,,,,,,,,,,,,,,,,,,,,,,,,,,,,,,,,,,,,,,,,,,,,,,,,,
,,,,,378811,1,2024-07-12_16h07.05.546,experiment,2024.1.5,MacIntel,58.82352941,6691931c2c63981b064e1f0c,6691b7033008e619db223b2b,,,,,,,,,,,,,,,,,,,,,,,,,,,,,,,,,,,,,,,,,,,,,,,,,,,,,,,,,,,,546.21,553.249,-0.331481481,0.128703704,1.0,0.0,0.0,1.027,compass,0.0,4.0,4.0,29.0,1.0,SoundStimuli/BetteDavisEyes_KimCarnes_Original5S.wav,,,,,,,,,,,,,,,,,,,,,,,,,,,,,,,,,,,,,,,,,,,,,,,,,,,,,
,,,,,378811,1,2024-07-12_16h07.05.546,experiment,2024.1.5,MacIntel,58.82352941,6691931c2c63981b064e1f0c,6691b7033008e619db223b2b,,,,,,,,,,,,,,,,,,,,,,,,,,,,,,,,,,,,,,,,,,,,,,,,,,,,,,,,,,,,553.25,560.844,0.090740741,0.189814815,1.0,0.0,0.0,1.59,compass,0.0,5.0,5.0,20.0,1.0,SoundStimuli/FlashdanceWhatAFeeling_IreneCara_Original5S.wav,,,,,,,,,,,,,,,,,,,,,,,,,,,,,,,,,,,,,,,,,,,,,,,,,,,,,
,,,,,378811,1,2024-07-12_16h07.05.546,experiment,2024.1.5,MacIntel,58.82352941,6691931c2c63981b064e1f0c,6691b7033008e619db223b2b,,,,,,,,,,,,,,,,,,,,,,,,,,,,,,,,,,,,,,,,,,,,,,,,,,,,,,,,,,,,560.845,568.791,0.087962963,0.100925926,1.0,0.0,0.0,1.939,compass,0.0,6.0,6.0,27.0,1.0,SoundStimuli/EyeOfTheTiger_Survivor_Cover5S.wav,,,,,,,,,,,,,,,,,,,,,,,,,,,,,,,,,,,,,,,,,,,,,,,,,,,,,
,,,,,378811,1,2024-07-12_16h07.05.546,experiment,2024.1.5,MacIntel,58.82352941,6691931c2c63981b064e1f0c,6691b7033008e619db223b2b,,,,,,,,,,,,,,,,,,,,,,,,,,,,,,,,,,,,,,,,,,,,,,,,,,,,,,,,,,,,568.792,575.16,0.257407407,-0.067592593,1.0,0.0,0.0,0.363,compass,0.0,7.0,7.0,1.0,1.0,SoundStimuli/Smooth_SantanaRobThomas_Original5S.wav,,,,,,,,,,,,,,,,,,,,,,,,,,,,,,,,,,,,,,,,,,,,,,,,,,,,,
,,,,,378811,1,2024-07-12_16h07.05.546,experiment,2024.1.5,MacIntel,58.82352941,6691931c2c63981b064e1f0c,6691b7033008e619db223b2b,,,,,,,,,,,,,,,,,,,,,,,,,,,,,,,,,,,,,,,,,,,,,,,,,,,,,,,,,,,,575.161,581.461,0.287037037,-0.140740741,1.0,0.0,0.0,0.297,compass,0.0,8.0,8.0,25.0,1.0,SoundStimuli/IllMakeLoveToYou_BoyzIIMen_Cover5S.wav,,,,,,,,,,,,,,,,,,,,,,,,,,,,,,,,,,,,,,,,,,,,,,,,,,,,,
,,,,,378811,1,2024-07-12_16h07.05.546,experiment,2024.1.5,MacIntel,58.82352941,6691931c2c63981b064e1f0c,6691b7033008e619db223b2b,,,,,,,,,,,,,,,,,,,,,,,,,,,,,,,,,,,,,,,,,,,,,,,,,,,,,,,,,,,,581.462,588.171,0.283333333,-0.155555556,1.0,0.0,0.0,0.703,compass,0.0,9.0,9.0,23.0,1.0,SoundStimuli/IWalkTheLine_JohnnyCash_Original5S.wav,,,,,,,,,,,,,,,,,,,,,,,,,,,,,,,,,,,,,,,,,,,,,,,,,,,,,
,,,,,378811,1,2024-07-12_16h07.05.546,experiment,2024.1.5,MacIntel,58.82352941,6691931c2c63981b064e1f0c,6691b7033008e619db223b2b,,,,,,,,,,,,,,,,,,,,,,,,,,,,,,,,,,,,,,,,,,,,,,,,,,,,,,,,,,,,588.171,594.571,0.117592593,-0.184259259,1.0,0.0,0.0,0.384,compass,0.0,10.0,10.0,19.0,1.0,SoundStimuli/YouLightUpMyLife_DebbyBoone_Original5S.wav,,,,,,,,,,,,,,,,,,,,,,,,,,,,,,,,,,,,,,,,,,,,,,,,,,,,,
,,,,,378811,1,2024-07-12_16h07.05.546,experiment,2024.1.5,MacIntel,58.82352941,6691931c2c63981b064e1f0c,6691b7033008e619db223b2b,,,,,,,,,,,,,,,,,,,,,,,,,,,,,,,,,,,,,,,,,,,,,,,,,,,,,,,,,,,,594.572,601.116,0.175925926,0.130555556,1.0,0.0,0.0,0.537,compass,0.0,11.0,11.0,5.0,1.0,SoundStimuli/JoyToTheWorld_ThreeDogNight_Original5S.wav,,,,,,,,,,,,,,,,,,,,,,,,,,,,,,,,,,,,,,,,,,,,,,,,,,,,,
,,,,,378811,1,2024-07-12_16h07.05.546,experiment,2024.1.5,MacIntel,58.82352941,6691931c2c63981b064e1f0c,6691b7033008e619db223b2b,,,,,,,,,,,,,,,,,,,,,,,,,,,,,,,,,,,,,,,,,,,,,,,,,,,,,,,,,,,,601.116,607.39,-0.17962963,-0.063888889,1.0,0.0,0.0,0.26,compass,0.0,12.0,12.0,6.0,1.0,SoundStimuli/SaveYourTears_TheWeekndArianaGrande_Cover5S.wav,,,,,,,,,,,,,,,,,,,,,,,,,,,,,,,,,,,,,,,,,,,,,,,,,,,,,
,,,,,378811,1,2024-07-12_16h07.05.546,experiment,2024.1.5,MacIntel,58.82352941,6691931c2c63981b064e1f0c,6691b7033008e619db223b2b,,,,,,,,,,,,,,,,,,,,,,,,,,,,,,,,,,,,,,,,,,,,,,,,,,,,,,,,,,,,607.39,613.751,-0.176851852,-0.094444444,1.0,0.0,0.0,0.359,compass,0.0,13.0,13.0,12.0,1.0,SoundStimuli/UnbreakMyHeart_ToniBraxton_Original5S.wav,,,,,,,,,,,,,,,,,,,,,,,,,,,,,,,,,,,,,,,,,,,,,,,,,,,,,
,,,,,378811,1,2024-07-12_16h07.05.546,experiment,2024.1.5,MacIntel,58.82352941,6691931c2c63981b064e1f0c,6691b7033008e619db223b2b,,,,,,,,,,,,,,,,,,,,,,,,,,,,,,,,,,,,,,,,,,,,,,,,,,,,,,,,,,,,613.751,621.947,0.301851852,0.135185185,1.0,0.0,0.0,2.191,compass,0.0,14.0,14.0,0.0,1.0,SoundStimuli/GimmeShelter_RollingStones_Original5S.wav,,,,,,,,,,,,,,,,,,,,,,,,,,,,,,,,,,,,,,,,,,,,,,,,,,,,,
,,,,,378811,1,2024-07-12_16h07.05.546,experiment,2024.1.5,MacIntel,58.82352941,6691931c2c63981b064e1f0c,6691b7033008e619db223b2b,,,,,,,,,,,,,,,,,,,,,,,,,,,,,,,,,,,,,,,,,,,,,,,,,,,,,,,,,,,,621.948,630.402,0.282407407,-0.168518519,1.0,0.0,0.0,2.44,compass,0.0,15.0,15.0,9.0,1.0,SoundStimuli/HowDoILive_LeAnnRimes_Cover5S.wav,,,,,,,,,,,,,,,,,,,,,,,,,,,,,,,,,,,,,,,,,,,,,,,,,,,,,
,,,,,378811,1,2024-07-12_16h07.05.546,experiment,2024.1.5,MacIntel,58.82352941,6691931c2c63981b064e1f0c,6691b7033008e619db223b2b,,,,,,,,,,,,,,,,,,,,,,,,,,,,,,,,,,,,,,,,,,,,,,,,,,,,,,,,,,,,630.402,637.681,0.289814815,-0.155555556,1.0,0.0,0.0,1.278,compass,0.0,16.0,16.0,4.0,1.0,SoundStimuli/Dreams_FleetwoodMac_Original5S.wav,,,,,,,,,,,,,,,,,,,,,,,,,,,,,,,,,,,,,,,,,,,,,,,,,,,,,
,,,,,378811,1,2024-07-12_16h07.05.546,experiment,2024.1.5,MacIntel,58.82352941,6691931c2c63981b064e1f0c,6691b7033008e619db223b2b,,,,,,,,,,,,,,,,,,,,,,,,,,,,,,,,,,,,,,,,,,,,,,,,,,,,,,,,,,,,637.682,644.425,-0.063888889,0.193518519,1.0,0.0,0.0,0.732,compass,0.0,17.0,17.0,2.0,1.0,SoundStimuli/SmellsLikeTeenSpirit_Nirvana_Original5S.wav,,,,,,,,,,,,,,,,,,,,,,,,,,,,,,,,,,,,,,,,,,,,,,,,,,,,,
,,,,,378811,1,2024-07-12_16h07.05.546,experiment,2024.1.5,MacIntel,58.82352941,6691931c2c63981b064e1f0c,6691b7033008e619db223b2b,,,,,,,,,,,,,,,,,,,,,,,,,,,,,,,,,,,,,,,,,,,,,,,,,,,,,,,,,,,,644.426,650.892,-0.148148148,-0.207407407,1.0,0.0,0.0,0.466,compass,0.0,18.0,18.0,8.0,1.0,SoundStimuli/EndlessLove_DianaRossLionelRichie_Cover5S.wav,,,,,,,,,,,,,,,,,,,,,,,,,,,,,,,,,,,,,,,,,,,,,,,,,,,,,
,,,,,378811,1,2024-07-12_16h07.05.546,experiment,2024.1.5,MacIntel,58.82352941,6691931c2c63981b064e1f0c,6691b7033008e619db223b2b,,,,,,,,,,,,,,,,,,,,,,,,,,,,,,,,,,,,,,,,,,,,,,,,,,,,,,,,,,,,650.893,657.212,0.124074074,0.199074074,1.0,0.0,0.0,0.308,compass,0.0,19.0,19.0,22.0,1.0,SoundStimuli/Happy_PharellWilliams_Original5S.wav,,,,,,,,,,,,,,,,,,,,,,,,,,,,,,,,,,,,,,,,,,,,,,,,,,,,,
,,,,,378811,1,2024-07-12_16h07.05.546,experiment,2024.1.5,MacIntel,58.82352941,6691931c2c63981b064e1f0c,6691b7033008e619db223b2b,,,,,,,,,,,,,,,,,,,,,,,,,,,,,,,,,,,,,,,,,,,,,,,,,,,,,,,,,,,,657.213,663.573,-0.087037037,0.246296296,1.0,0.0,0.0,0.348,compass,0.0,20.0,20.0,7.0,1.0,SoundStimuli/MackTheKnife_BobbyDarin_Cover5S.wav,,,,,,,,,,,,,,,,,,,,,,,,,,,,,,,,,,,,,,,,,,,,,,,,,,,,,
,,,,,378811,1,2024-07-12_16h07.05.546,experiment,2024.1.5,MacIntel,58.82352941,6691931c2c63981b064e1f0c,6691b7033008e619db223b2b,,,,,,,,,,,,,,,,,,,,,,,,,,,,,,,,,,,,,,,,,,,,,,,,,,,,,,,,,,,,663.573,669.903,0.20462963,-0.172222222,1.0,0.0,0.0,0.329,compass,0.0,21.0,21.0,24.0,1.0,SoundStimuli/Kiss_Prince_Cover5S.wav,,,,,,,,,,,,,,,,,,,,,,,,,,,,,,,,,,,,,,,,,,,,,,,,,,,,,
,,,,,378811,1,2024-07-12_16h07.05.546,experiment,2024.1.5,MacIntel,58.82352941,6691931c2c63981b064e1f0c,6691b7033008e619db223b2b,,,,,,,,,,,,,,,,,,,,,,,,,,,,,,,,,,,,,,,,,,,,,,,,,,,,,,,,,,,,669.904,676.308,0.190740741,-0.20462963,1.0,0.0,0.0,0.404,compass,0.0,22.0,22.0,34.0,1.0,SoundStimuli/Irreplaceable_Beyonce_Cover5S.wav,,,,,,,,,,,,,,,,,,,,,,,,,,,,,,,,,,,,,,,,,,,,,,,,,,,,,
,,,,,378811,1,2024-07-12_16h07.05.546,experiment,2024.1.5,MacIntel,58.82352941,6691931c2c63981b064e1f0c,6691b7033008e619db223b2b,,,,,,,,,,,,,,,,,,,,,,,,,,,,,,,,,,,,,,,,,,,,,,,,,,,,,,,,,,,,676.309,682.723,0.112037037,-0.20462963,1.0,0.0,0.0,0.401,compass,0.0,23.0,23.0,21.0,1.0,SoundStimuli/BridgeOverTroubledWater_SimonAndGarfunkel_Original5S.wav,,,,,,,,,,,,,,,,,,,,,,,,,,,,,,,,,,,,,,,,,,,,,,,,,,,,,
,,,,,378811,1,2024-07-12_16h07.05.546,experiment,2024.1.5,MacIntel,58.82352941,6691931c2c63981b064e1f0c,6691b7033008e619db223b2b,,,,,,,,,,,,,,,,,,,,,,,,,,,,,,,,,,,,,,,,,,,,,,,,,,,,,,,,,,,,682.724,689.963,-0.213888889,0.130555556,1.0,0.0,0.0,1.228,compass,0.0,24.0,24.0,10.0,1.0,SoundStimuli/LeFreak_Chic_Cover5S.wav,,,,,,,,,,,,,,,,,,,,,,,,,,,,,,,,,,,,,,,,,,,,,,,,,,,,,
,,,,,378811,1,2024-07-12_16h07.05.546,experiment,2024.1.5,MacIntel,58.82352941,6691931c2c63981b064e1f0c,6691b7033008e619db223b2b,,,,,,,,,,,,,,,,,,,,,,,,,,,,,,,,,,,,,,,,,,,,,,,,,,,,,,,,,,,,689.964,696.301,0.202777778,-0.144444444,1.0,0.0,0.0,0.334,compass,0.0,25.0,25.0,18.0,1.0,SoundStimuli/Weak_SWV_Cover5S.wav,,,,,,,,,,,,,,,,,,,,,,,,,,,,,,,,,,,,,,,,,,,,,,,,,,,,,
,,,,,378811,1,2024-07-12_16h07.05.546,experiment,2024.1.5,MacIntel,58.82352941,6691931c2c63981b064e1f0c,6691b7033008e619db223b2b,,,,,,,,,,,,,,,,,,,,,,,,,,,,,,,,,,,,,,,,,,,,,,,,,,,,,,,,,,,,696.301,702.782,0.240740741,0.128703704,1.0,0.0,0.0,0.48,compass,0.0,26.0,26.0,32.0,1.0,SoundStimuli/Dilemma_NellyKellyRowland_Cover5S.wav,,,,,,,,,,,,,,,,,,,,,,,,,,,,,,,,,,,,,,,,,,,,,,,,,,,,,
,,,,,378811,1,2024-07-12_16h07.05.546,experiment,2024.1.5,MacIntel,58.82352941,6691931c2c63981b064e1f0c,6691b7033008e619db223b2b,,,,,,,,,,,,,,,,,,,,,,,,,,,,,,,,,,,,,,,,,,,,,,,,,,,,,,,,,,,,702.783,709.161,0.192592593,0.196296296,1.0,0.0,0.0,0.377,compass,0.0,27.0,27.0,33.0,1.0,SoundStimuli/TheBoyIsMine_BrandyMonica_Original5S.wav,,,,,,,,,,,,,,,,,,,,,,,,,,,,,,,,,,,,,,,,,,,,,,,,,,,,,
,,,,,378811,1,2024-07-12_16h07.05.546,experiment,2024.1.5,MacIntel,58.82352941,6691931c2c63981b064e1f0c,6691b7033008e619db223b2b,,,,,,,,,,,,,,,,,,,,,,,,,,,,,,,,,,,,,,,,,,,,,,,,,,,,,,,,,,,,709.162,715.65,0.192592593,0.196296296,1.0,0.0,0.0,0.482,compass,0.0,28.0,28.0,31.0,1.0,SoundStimuli/TossinAndTurnin_BobbyLewis_Original5S.wav,,,,,,,,,,,,,,,,,,,,,,,,,,,,,,,,,,,,,,,,,,,,,,,,,,,,,
,,,,,378811,1,2024-07-12_16h07.05.546,experiment,2024.1.5,MacIntel,58.82352941,6691931c2c63981b064e1f0c,6691b7033008e619db223b2b,,,,,,,,,,,,,,,,,,,,,,,,,,,,,,,,,,,,,,,,,,,,,,,,,,,,,,,,,,,,715.651,723.266,0.192592593,0.19537037,1.0,0.0,0.0,1.615,compass,0.0,29.0,29.0,14.0,1.0,SoundStimuli/LikeARollingStone_BobDylan_Original5S.wav,,,,,,,,,,,,,,,,,,,,,,,,,,,,,,,,,,,,,,,,,,,,,,,,,,,,,
,,,,,378811,1,2024-07-12_16h07.05.546,experiment,2024.1.5,MacIntel,58.82352941,6691931c2c63981b064e1f0c,6691b7033008e619db223b2b,,,,,,,,,,,,,,,,,,,,,,,,,,,,,,,,,,,,,,,,,,,,,,,,,,,,,,,,,,,,723.267,729.93,0.192592593,0.19537037,1.0,0.0,0.0,0.657,compass,0.0,30.0,30.0,11.0,1.0,SoundStimuli/BlurredLines_RobinThicke_Cover5S.wav,,,,,,,,,,,,,,,,,,,,,,,,,,,,,,,,,,,,,,,,,,,,,,,,,,,,,
,,,,,378811,1,2024-07-12_16h07.05.546,experiment,2024.1.5,MacIntel,58.82352941,6691931c2c63981b064e1f0c,6691b7033008e619db223b2b,,,,,,,,,,,,,,,,,,,,,,,,,,,,,,,,,,,,,,,,,,,,,,,,,,,,,,,,,,,,729.931,736.46,0.263888889,-0.159259259,1.0,0.0,0.0,0.515,compass,0.0,31.0,31.0,13.0,1.0,SoundStimuli/Perfect_EdSheeran_Cover5S.wav,,,,,,,,,,,,,,,,,,,,,,,,,,,,,,,,,,,,,,,,,,,,,,,,,,,,,
,,,,,378811,1,2024-07-12_16h07.05.546,experiment,2024.1.5,MacIntel,58.82352941,6691931c2c63981b064e1f0c,6691b7033008e619db223b2b,,,,,,,,,,,,,,,,,,,,,,,,,,,,,,,,,,,,,,,,,,,,,,,,,,,,,,,,,,,,736.46,742.883,0.261111111,-0.161111111,1.0,0.0,0.0,0.418,compass,0.0,32.0,32.0,16.0,1.0,SoundStimuli/ItsAllInTheGame_TommyEdwards_Cover5S.wav,,,,,,,,,,,,,,,,,,,,,,,,,,,,,,,,,,,,,,,,,,,,,,,,,,,,,
,,,,,378811,1,2024-07-12_16h07.05.546,experiment,2024.1.5,MacIntel,58.82352941,6691931c2c63981b064e1f0c,6691b7033008e619db223b2b,,,,,,,,,,,,,,,,,,,,,,,,,,,,,,,,,,,,,,,,,,,,,,,,,,,,,,,,,,,,742.884,749.195,0.226851852,-0.102777778,1.0,0.0,0.0,0.307,compass,0.0,33.0,33.0,30.0,1.0,SoundStimuli/SomebodyThatIUsedtoKnow_Gotye_Original5S.wav,,,,,,,,,,,,,,,,,,,,,,,,,,,,,,,,,,,,,,,,,,,,,,,,,,,,,
,,,,,378811,1,2024-07-12_16h07.05.546,experiment,2024.1.5,MacIntel,58.82352941,6691931c2c63981b064e1f0c,6691b7033008e619db223b2b,,,,,,,,,,,,,,,,,,,,,,,,,,,,,,,,,,,,,,,,,,,,,,,,,,,,,,,,,,,,749.196,755.71,0.199074074,0.187037037,1.0,0.0,0.0,0.506,compass,0.0,34.0,34.0,3.0,1.0,SoundStimuli/PartyRockAnthem_LMFAO_Original5S.wav,,,,,,,,,,,,,,,,,,,,,,,,,,,,,,,,,,,,,,,,,,,,,,,,,,,,,
,,,,,378811,1,2024-07-12_16h07.05.546,experiment,2024.1.5,MacIntel,58.82352941,6691931c2c63981b064e1f0c,6691b7033008e619db223b2b,,,,,,,,,,,,,,,,,,,,,,,,,,,,,,,,,,,,,,,,,,,,,,,,,,,,,,,,,,,,,,,,,,,,,,,,,,,755.711,763.952,space,8.218,,763.952,765.8,right,1.816,,0.0,1.0,1.0,1.0,1.0,block_order/blockD.xlsx,,,,,,,,,,,,,,,,,,,,,,,,,,,,,,,,,,,,,
,,,,,378811,1,2024-07-12_16h07.05.546,experiment,2024.1.5,MacIntel,58.82352941,6691931c2c63981b064e1f0c,6691b7033008e619db223b2b,,,,,,,,,,,,,,,,,,,,,,,,,,,,,,,,,,,,,,,,,,,,,,,,,,,,,,,,,,,,765.809,772.214,-0.207407407,-0.175925926,1.0,0.0,0.0,0.402,compass,0.0,0.0,0.0,16.0,1.0,SoundStimuli/BohemianRhapsody_Queen_Original5S.wav,,,,,,,,,,,,,,,,,,,,,,,,,,,,,,,,,,,,,,,,,,,,,,,,,,,,,
,,,,,378811,1,2024-07-12_16h07.05.546,experiment,2024.1.5,MacIntel,58.82352941,6691931c2c63981b064e1f0c,6691b7033008e619db223b2b,,,,,,,,,,,,,,,,,,,,,,,,,,,,,,,,,,,,,,,,,,,,,,,,,,,,,,,,,,,,772.214,779.165,0.266666667,0.032407407,1.0,0.0,0.0,0.936,compass,0.0,1.0,1.0,33.0,1.0,SoundStimuli/StandByMe_BenEKing_Cover5S.wav,,,,,,,,,,,,,,,,,,,,,,,,,,,,,,,,,,,,,,,,,,,,,,,,,,,,,
,,,,,378811,1,2024-07-12_16h07.05.546,experiment,2024.1.5,MacIntel,58.82352941,6691931c2c63981b064e1f0c,6691b7033008e619db223b2b,,,,,,,,,,,,,,,,,,,,,,,,,,,,,,,,,,,,,,,,,,,,,,,,,,,,,,,,,,,,779.166,785.56,0.242592593,0.162037037,1.0,0.0,0.0,0.388,compass,0.0,2.0,2.0,28.0,1.0,SoundStimuli/ComeAndGetYourLove_Redbone_Original5S.wav,,,,,,,,,,,,,,,,,,,,,,,,,,,,,,,,,,,,,,,,,,,,,,,,,,,,,
,,,,,378811,1,2024-07-12_16h07.05.546,experiment,2024.1.5,MacIntel,58.82352941,6691931c2c63981b064e1f0c,6691b7033008e619db223b2b,,,,,,,,,,,,,,,,,,,,,,,,,,,,,,,,,,,,,,,,,,,,,,,,,,,,,,,,,,,,785.56,791.992,0.242592593,0.162037037,1.0,0.0,0.0,0.431,compass,0.0,3.0,3.0,1.0,1.0,SoundStimuli/Stronger_KanyeWest_Original5S.wav,,,,,,,,,,,,,,,,,,,,,,,,,,,,,,,,,,,,,,,,,,,,,,,,,,,,,
,,,,,378811,1,2024-07-12_16h07.05.546,experiment,2024.1.5,MacIntel,58.82352941,6691931c2c63981b064e1f0c,6691b7033008e619db223b2b,,,,,,,,,,,,,,,,,,,,,,,,,,,,,,,,,,,,,,,,,,,,,,,,,,,,,,,,,,,,791.993,799.631,0.242592593,0.162037037,1.0,0.0,0.0,1.631,compass,0.0,4.0,4.0,0.0,1.0,SoundStimuli/StayinAlive_BeeGees_Original5S.wav,,,,,,,,,,,,,,,,,,,,,,,,,,,,,,,,,,,,,,,,,,,,,,,,,,,,,
,,,,,378811,1,2024-07-12_16h07.05.546,experiment,2024.1.5,MacIntel,58.82352941,6691931c2c63981b064e1f0c,6691b7033008e619db223b2b,,,,,,,,,,,,,,,,,,,,,,,,,,,,,,,,,,,,,,,,,,,,,,,,,,,,,,,,,,,,799.631,806.383,-0.172222222,-0.114814815,1.0,0.0,0.0,0.746,compass,0.0,5.0,5.0,17.0,1.0,SoundStimuli/Fallin_AliciaKeys_Original5S.wav,,,,,,,,,,,,,,,,,,,,,,,,,,,,,,,,,,,,,,,,,,,,,,,,,,,,,
,,,,,378811,1,2024-07-12_16h07.05.546,experiment,2024.1.5,MacIntel,58.82352941,6691931c2c63981b064e1f0c,6691b7033008e619db223b2b,,,,,,,,,,,,,,,,,,,,,,,,,,,,,,,,,,,,,,,,,,,,,,,,,,,,,,,,,,,,806.384,812.8,0.265740741,-0.159259259,1.0,0.0,0.0,0.407,compass,0.0,6.0,6.0,18.0,1.0,SoundStimuli/AnotherOneBitesTheDust_Queen_Original5S.wav,,,,,,,,,,,,,,,,,,,,,,,,,,,,,,,,,,,,,,,,,,,,,,,,,,,,,
,,,,,378811,1,2024-07-12_16h07.05.546,experiment,2024.1.5,MacIntel,58.82352941,6691931c2c63981b064e1f0c,6691b7033008e619db223b2b,,,,,,,,,,,,,,,,,,,,,,,,,,,,,,,,,,,,,,,,,,,,,,,,,,,,,,,,,,,,812.8,819.014,0.256481481,-0.098148148,1.0,0.0,0.0,0.213,compass,0.0,7.0,7.0,12.0,1.0,SoundStimuli/IWillAlwaysLoveYou_WhitneyHouston_Cover5S.wav,,,,,,,,,,,,,,,,,,,,,,,,,,,,,,,,,,,,,,,,,,,,,,,,,,,,,
,,,,,378811,1,2024-07-12_16h07.05.546,experiment,2024.1.5,MacIntel,58.82352941,6691931c2c63981b064e1f0c,6691b7033008e619db223b2b,,,,,,,,,,,,,,,,,,,,,,,,,,,,,,,,,,,,,,,,,,,,,,,,,,,,,,,,,,,,819.015,826.093,0.0,0.000925926,1.0,0.0,0.0,1.065,compass,0.0,8.0,8.0,31.0,1.0,SoundStimuli/TheBattleOfNewOrleans_JohnnyHorton_Cover5S.wav,,,,,,,,,,,,,,,,,,,,,,,,,,,,,,,,,,,,,,,,,,,,,,,,,,,,,
,,,,,378811,1,2024-07-12_16h07.05.546,experiment,2024.1.5,MacIntel,58.82352941,6691931c2c63981b064e1f0c,6691b7033008e619db223b2b,,,,,,,,,,,,,,,,,,,,,,,,,,,,,,,,,,,,,,,,,,,,,,,,,,,,,,,,,,,,826.094,832.651,0.235185185,0.117592593,1.0,0.0,0.0,0.545,compass,0.0,9.0,9.0,5.0,1.0,SoundStimuli/MyGirl_TheTemptations_Original5S.wav,,,,,,,,,,,,,,,,,,,,,,,,,,,,,,,,,,,,,,,,,,,,,,,,,,,,,
,,,,,378811,1,2024-07-12_16h07.05.546,experiment,2024.1.5,MacIntel,58.82352941,6691931c2c63981b064e1f0c,6691b7033008e619db223b2b,,,,,,,,,,,,,,,,,,,,,,,,,,,,,,,,,,,,,,,,,,,,,,,,,,,,,,,,,,,,832.651,839.704,-0.10462963,0.033333333,1.0,0.0,0.0,1.051,compass,0.0,10.0,10.0,34.0,1.0,SoundStimuli/AChangeIsGonnaCome_SamCooke_Cover5S.wav,,,,,,,,,,,,,,,,,,,,,,,,,,,,,,,,,,,,,,,,,,,,,,,,,,,,,
,,,,,378811,1,2024-07-12_16h07.05.546,experiment,2024.1.5,MacIntel,58.82352941,6691931c2c63981b064e1f0c,6691b7033008e619db223b2b,,,,,,,,,,,,,,,,,,,,,,,,,,,,,,,,,,,,,,,,,,,,,,,,,,,,,,,,,,,,839.705,846.135,0.133333333,0.201851852,1.0,0.0,0.0,0.417,compass,0.0,11.0,11.0,27.0,1.0,SoundStimuli/ShapeofYou_EdSheeran_Original5S.wav,,,,,,,,,,,,,,,,,,,,,,,,,,,,,,,,,,,,,,,,,,,,,,,,,,,,,
,,,,,378811,1,2024-07-12_16h07.05.546,experiment,2024.1.5,MacIntel,58.82352941,6691931c2c63981b064e1f0c,6691b7033008e619db223b2b,,,,,,,,,,,,,,,,,,,,,,,,,,,,,,,,,,,,,,,,,,,,,,,,,,,,,,,,,,,,846.136,856.73,-0.082407407,-0.167592593,1.0,0.0,0.0,4.589,compass,0.0,12.0,12.0,20.0,1.0,SoundStimuli/HeyYa_Outkast_Cover5S.wav,,,,,,,,,,,,,,,,,,,,,,,,,,,,,,,,,,,,,,,,,,,,,,,,,,,,,
,,,,,378811,1,2024-07-12_16h07.05.546,experiment,2024.1.5,MacIntel,58.82352941,6691931c2c63981b064e1f0c,6691b7033008e619db223b2b,,,,,,,,,,,,,,,,,,,,,,,,,,,,,,,,,,,,,,,,,,,,,,,,,,,,,,,,,,,,856.73,863.059,0.202777778,0.159259259,1.0,0.0,0.0,0.317,compass,0.0,13.0,13.0,7.0,1.0,SoundStimuli/NoOne_AliciaKeys_Cover5S.wav,,,,,,,,,,,,,,,,,,,,,,,,,,,,,,,,,,,,,,,,,,,,,,,,,,,,,
,,,,,378811,1,2024-07-12_16h07.05.546,experiment,2024.1.5,MacIntel,58.82352941,6691931c2c63981b064e1f0c,6691b7033008e619db223b2b,,,,,,,,,,,,,,,,,,,,,,,,,,,,,,,,,,,,,,,,,,,,,,,,,,,,,,,,,,,,863.059,870.75,0.167592593,-0.241666667,1.0,0.0,0.0,1.683,compass,0.0,14.0,14.0,19.0,1.0,SoundStimuli/LetsGetItOn_MarvinGaye_Cover5S.wav,,,,,,,,,,,,,,,,,,,,,,,,,,,,,,,,,,,,,,,,,,,,,,,,,,,,,
,,,,,378811,1,2024-07-12_16h07.05.546,experiment,2024.1.5,MacIntel,58.82352941,6691931c2c63981b064e1f0c,6691b7033008e619db223b2b,,,,,,,,,,,,,,,,,,,,,,,,,,,,,,,,,,,,,,,,,,,,,,,,,,,,,,,,,,,,870.75,877.852,0.2,0.146296296,1.0,0.0,0.0,1.102,compass,0.0,15.0,15.0,29.0,1.0,SoundStimuli/OldTownRoad_LilNasX_Original5S.wav,,,,,,,,,,,,,,,,,,,,,,,,,,,,,,,,,,,,,,,,,,,,,,,,,,,,,
,,,,,378811,1,2024-07-12_16h07.05.546,experiment,2024.1.5,MacIntel,58.82352941,6691931c2c63981b064e1f0c,6691b7033008e619db223b2b,,,,,,,,,,,,,,,,,,,,,,,,,,,,,,,,,,,,,,,,,,,,,,,,,,,,,,,,,,,,877.853,884.233,0.273148148,-0.175925926,1.0,0.0,0.0,0.367,compass,0.0,16.0,16.0,13.0,1.0,SoundStimuli/GodOnlyKnows_TheBeachBoys_Cover5S.wav,,,,,,,,,,,,,,,,,,,,,,,,,,,,,,,,,,,,,,,,,,,,,,,,,,,,,
,,,,,378811,1,2024-07-12_16h07.05.546,experiment,2024.1.5,MacIntel,58.82352941,6691931c2c63981b064e1f0c,6691b7033008e619db223b2b,,,,,,,,,,,,,,,,,,,,,,,,,,,,,,,,,,,,,,,,,,,,,,,,,,,,,,,,,,,,884.234,890.604,0.273148148,-0.234259259,1.0,0.0,0.0,0.364,compass,0.0,17.0,17.0,2.0,1.0,SoundStimuli/Mood_24kGoldnianndior_Cover5S.wav,,,,,,,,,,,,,,,,,,,,,,,,,,,,,,,,,,,,,,,,,,,,,,,,,,,,,
,,,,,378811,1,2024-07-12_16h07.05.546,experiment,2024.1.5,MacIntel,58.82352941,6691931c2c63981b064e1f0c,6691b7033008e619db223b2b,,,,,,,,,,,,,,,,,,,,,,,,,,,,,,,,,,,,,,,,,,,,,,,,,,,,,,,,,,,,890.604,896.679,0.25,0.217592593,1.0,0.0,0.0,0.058,compass,0.0,18.0,18.0,6.0,1.0,SoundStimuli/Levitating_DuaLipa_Cover5S.wav,,,,,,,,,,,,,,,,,,,,,,,,,,,,,,,,,,,,,,,,,,,,,,,,,,,,,
,,,,,378811,1,2024-07-12_16h07.05.546,experiment,2024.1.5,MacIntel,58.82352941,6691931c2c63981b064e1f0c,6691b7033008e619db223b2b,,,,,,,,,,,,,,,,,,,,,,,,,,,,,,,,,,,,,,,,,,,,,,,,,,,,,,,,,,,,896.679,903.128,0.24537037,0.180555556,1.0,0.0,0.0,0.442,compass,0.0,19.0,19.0,24.0,1.0,SoundStimuli/UptownFunk_MarkRonson_Original5S.wav,,,,,,,,,,,,,,,,,,,,,,,,,,,,,,,,,,,,,,,,,,,,,,,,,,,,,
,,,,,378811,1,2024-07-12_16h07.05.546,experiment,2024.1.5,MacIntel,58.82352941,6691931c2c63981b064e1f0c,6691b7033008e619db223b2b,,,,,,,,,,,,,,,,,,,,,,,,,,,,,,,,,,,,,,,,,,,,,,,,,,,,,,,,,,,,903.129,909.543,0.232407407,0.231481481,1.0,0.0,0.0,0.406,compass,0.0,20.0,20.0,9.0,1.0,SoundStimuli/Despacito_LuisFonsiDaddyYankee_Cover5S.wav,,,,,,,,,,,,,,,,,,,,,,,,,,,,,,,,,,,,,,,,,,,,,,,,,,,,,
,,,,,378811,1,2024-07-12_16h07.05.546,experiment,2024.1.5,MacIntel,58.82352941,6691931c2c63981b064e1f0c,6691b7033008e619db223b2b,,,,,,,,,,,,,,,,,,,,,,,,,,,,,,,,,,,,,,,,,,,,,,,,,,,,,,,,,,,,909.544,915.926,-0.185185185,-0.198148148,1.0,0.0,0.0,0.382,compass,0.0,21.0,21.0,23.0,1.0,SoundStimuli/StrawberryFieldsForever_TheBeatles_Original5S.wav,,,,,,,,,,,,,,,,,,,,,,,,,,,,,,,,,,,,,,,,,,,,,,,,,,,,,
,,,,,378811,1,2024-07-12_16h07.05.546,experiment,2024.1.5,MacIntel,58.82352941,6691931c2c63981b064e1f0c,6691b7033008e619db223b2b,,,,,,,,,,,,,,,,,,,,,,,,,,,,,,,,,,,,,,,,,,,,,,,,,,,,,,,,,,,,915.926,924.644,0.301851852,-0.164814815,1.0,0.0,0.0,2.703,compass,0.0,22.0,22.0,15.0,1.0,SoundStimuli/TikTok_Kesha_Cover5S.wav,,,,,,,,,,,,,,,,,,,,,,,,,,,,,,,,,,,,,,,,,,,,,,,,,,,,,
,,,,,378811,1,2024-07-12_16h07.05.546,experiment,2024.1.5,MacIntel,58.82352941,6691931c2c63981b064e1f0c,6691b7033008e619db223b2b,,,,,,,,,,,,,,,,,,,,,,,,,,,,,,,,,,,,,,,,,,,,,,,,,,,,,,,,,,,,924.644,932.795,0.215740741,0.112962963,1.0,0.0,0.0,2.143,compass,0.0,23.0,23.0,14.0,1.0,SoundStimuli/BlindingLights_TheWeeknd_Original5S.wav,,,,,,,,,,,,,,,,,,,,,,,,,,,,,,,,,,,,,,,,,,,,,,,,,,,,,
,,,,,378811,1,2024-07-12_16h07.05.546,experiment,2024.1.5,MacIntel,58.82352941,6691931c2c63981b064e1f0c,6691b7033008e619db223b2b,,,,,,,,,,,,,,,,,,,,,,,,,,,,,,,,,,,,,,,,,,,,,,,,,,,,,,,,,,,,932.795,939.203,0.185185185,-0.138888889,1.0,0.0,0.0,0.397,compass,0.0,24.0,24.0,11.0,1.0,SoundStimuli/Superstition_StevieWonder_Cover5S.wav,,,,,,,,,,,,,,,,,,,,,,,,,,,,,,,,,,,,,,,,,,,,,,,,,,,,,
,,,,,378811,1,2024-07-12_16h07.05.546,experiment,2024.1.5,MacIntel,58.82352941,6691931c2c63981b064e1f0c,6691b7033008e619db223b2b,,,,,,,,,,,,,,,,,,,,,,,,,,,,,,,,,,,,,,,,,,,,,,,,,,,,,,,,,,,,939.203,945.541,0.12037037,0.167592593,1.0,0.0,0.0,0.333,compass,0.0,25.0,25.0,3.0,1.0,SoundStimuli/NoScrubs_TLC_Original5S.wav,,,,,,,,,,,,,,,,,,,,,,,,,,,,,,,,,,,,,,,,,,,,,,,,,,,,,
,,,,,378811,1,2024-07-12_16h07.05.546,experiment,2024.1.5,MacIntel,58.82352941,6691931c2c63981b064e1f0c,6691b7033008e619db223b2b,,,,,,,,,,,,,,,,,,,,,,,,,,,,,,,,,,,,,,,,,,,,,,,,,,,,,,,,,,,,945.541,954.348,0.222222222,-0.221296296,1.0,0.0,0.0,2.796,compass,0.0,26.0,26.0,26.0,1.0,SoundStimuli/LivinOnAPrayer_BonJovi_Cover5S.wav,,,,,,,,,,,,,,,,,,,,,,,,,,,,,,,,,,,,,,,,,,,,,,,,,,,,,
,,,,,378811,1,2024-07-12_16h07.05.546,experiment,2024.1.5,MacIntel,58.82352941,6691931c2c63981b064e1f0c,6691b7033008e619db223b2b,,,,,,,,,,,,,,,,,,,,,,,,,,,,,,,,,,,,,,,,,,,,,,,,,,,,,,,,,,,,954.348,961.773,0.213888889,0.25,1.0,0.0,0.0,1.42,compass,0.0,27.0,27.0,30.0,1.0,SoundStimuli/PokerFace_LadyGaga_Original5S.wav,,,,,,,,,,,,,,,,,,,,,,,,,,,,,,,,,,,,,,,,,,,,,,,,,,,,,
,,,,,378811,1,2024-07-12_16h07.05.546,experiment,2024.1.5,MacIntel,58.82352941,6691931c2c63981b064e1f0c,6691b7033008e619db223b2b,,,,,,,,,,,,,,,,,,,,,,,,,,,,,,,,,,,,,,,,,,,,,,,,,,,,,,,,,,,,961.773,968.172,0.202777778,0.193518519,1.0,0.0,0.0,0.384,compass,0.0,28.0,28.0,32.0,1.0,SoundStimuli/HeatWaves_GlassAnimals_Original5S.wav,,,,,,,,,,,,,,,,,,,,,,,,,,,,,,,,,,,,,,,,,,,,,,,,,,,,,
,,,,,378811,1,2024-07-12_16h07.05.546,experiment,2024.1.5,MacIntel,58.82352941,6691931c2c63981b064e1f0c,6691b7033008e619db223b2b,,,,,,,,,,,,,,,,,,,,,,,,,,,,,,,,,,,,,,,,,,,,,,,,,,,,,,,,,,,,968.172,976.44,0.247222222,0.253703704,1.0,0.0,0.0,2.266,compass,0.0,29.0,29.0,25.0,1.0,SoundStimuli/Respect_ArethaFranklin_Original5S.wav,,,,,,,,,,,,,,,,,,,,,,,,,,,,,,,,,,,,,,,,,,,,,,,,,,,,,
,,,,,378811,1,2024-07-12_16h07.05.546,experiment,2024.1.5,MacIntel,58.82352941,6691931c2c63981b064e1f0c,6691b7033008e619db223b2b,,,,,,,,,,,,,,,,,,,,,,,,,,,,,,,,,,,,,,,,,,,,,,,,,,,,,,,,,,,,976.44,982.872,0.218518519,0.269444444,1.0,0.0,0.0,0.416,compass,0.0,30.0,30.0,8.0,1.0,SoundStimuli/LikeAPrayer_Madonna_Original5S.wav,,,,,,,,,,,,,,,,,,,,,,,,,,,,,,,,,,,,,,,,,,,,,,,,,,,,,
,,,,,378811,1,2024-07-12_16h07.05.546,experiment,2024.1.5,MacIntel,58.82352941,6691931c2c63981b064e1f0c,6691b7033008e619db223b2b,,,,,,,,,,,,,,,,,,,,,,,,,,,,,,,,,,,,,,,,,,,,,,,,,,,,,,,,,,,,982.872,989.95,0.218518519,0.269444444,1.0,0.0,0.0,1.078,compass,0.0,31.0,31.0,21.0,1.0,SoundStimuli/GoodGollyMissMolly_LittleRichard_Cover5S.wav,,,,,,,,,,,,,,,,,,,,,,,,,,,,,,,,,,,,,,,,,,,,,,,,,,,,,
,,,,,378811,1,2024-07-12_16h07.05.546,experiment,2024.1.5,MacIntel,58.82352941,6691931c2c63981b064e1f0c,6691b7033008e619db223b2b,,,,,,,,,,,,,,,,,,,,,,,,,,,,,,,,,,,,,,,,,,,,,,,,,,,,,,,,,,,,989.951,996.356,0.235185185,0.169444444,1.0,0.0,0.0,0.398,compass,0.0,32.0,32.0,4.0,1.0,SoundStimuli/GetUrFreakOn_MissyElliot_Original5S.wav,,,,,,,,,,,,,,,,,,,,,,,,,,,,,,,,,,,,,,,,,,,,,,,,,,,,,
,,,,,378811,1,2024-07-12_16h07.05.546,experiment,2024.1.5,MacIntel,58.82352941,6691931c2c63981b064e1f0c,6691b7033008e619db223b2b,,,,,,,,,,,,,,,,,,,,,,,,,,,,,,,,,,,,,,,,,,,,,,,,,,,,,,,,,,,,996.357,1004.45,0.269444444,-0.066666667,1.0,0.0,0.0,2.087,compass,0.0,33.0,33.0,22.0,1.0,SoundStimuli/RockWithYou_MichaelJackson_Original5S.wav,,,,,,,,,,,,,,,,,,,,,,,,,,,,,,,,,,,,,,,,,,,,,,,,,,,,,
,,,,,378811,1,2024-07-12_16h07.05.546,experiment,2024.1.5,MacIntel,58.82352941,6691931c2c63981b064e1f0c,6691b7033008e619db223b2b,,,,,,,,,,,,,,,,,,,,,,,,,,,,,,,,,,,,,,,,,,,,,,,,,,,,,,,,,,,,1004.451,1011.931,-0.121296296,-0.198148148,1.0,0.0,0.0,1.472,compass,0.0,34.0,34.0,10.0,1.0,SoundStimuli/BadDay_DanielPowter_Cover5S.wav,,,,,,,,,,,,,,,,,,,,,,,,,,,,,,,,,,,,,,,,,,,,,,,,,,,,,
,,,,,378811,1,2024-07-12_16h07.05.546,experiment,2024.1.5,MacIntel,58.82352941,6691931c2c63981b064e1f0c,6691b7033008e619db223b2b,,,,,,,,,,,,,,,,,,,,,,,,,,,,,,,,,,,,,,,,,,,,,,,,,,,,,,,,,,,,,,,,,,,,,,,,,,,1011.931,1040.746,space,28.796,,1040.746,1042.62,right,1.847,,0.0,2.0,2.0,2.0,1.0,block_order/blockA.xlsx,,,,,,,,,,,,,,,,,,,,,,,,,,,,,,,,,,,,,
,,,,,378811,1,2024-07-12_16h07.05.546,experiment,2024.1.5,MacIntel,58.82352941,6691931c2c63981b064e1f0c,6691b7033008e619db223b2b,,,,,,,,,,,,,,,,,,,,,,,,,,,,,,,,,,,,,,,,,,,,,,,,,,,,,,,,,,,,1042.628,1049.004,0.250925926,-0.15,1.0,0.0,0.0,0.375,compass,0.0,0.0,0.0,0.0,1.0,SoundStimuli/GimmeShelter_RollingStones_Cover5S.wav,,,,,,,,,,,,,,,,,,,,,,,,,,,,,,,,,,,,,,,,,,,,,,,,,,,,,
,,,,,378811,1,2024-07-12_16h07.05.546,experiment,2024.1.5,MacIntel,58.82352941,6691931c2c63981b064e1f0c,6691b7033008e619db223b2b,,,,,,,,,,,,,,,,,,,,,,,,,,,,,,,,,,,,,,,,,,,,,,,,,,,,,,,,,,,,1049.004,1057.291,0.175,-0.150925926,1.0,0.0,0.0,2.273,compass,0.0,1.0,1.0,13.0,1.0,SoundStimuli/Perfect_EdSheeran_Original5S.wav,,,,,,,,,,,,,,,,,,,,,,,,,,,,,,,,,,,,,,,,,,,,,,,,,,,,,
,,,,,378811,1,2024-07-12_16h07.05.546,experiment,2024.1.5,MacIntel,58.82352941,6691931c2c63981b064e1f0c,6691b7033008e619db223b2b,,,,,,,,,,,,,,,,,,,,,,,,,,,,,,,,,,,,,,,,,,,,,,,,,,,,,,,,,,,,1057.291,1064.599,0.225,-0.135185185,1.0,0.0,0.0,1.307,compass,0.0,2.0,2.0,28.0,1.0,SoundStimuli/IWantToHoldYourHand_TheBeatles_Cover5S.wav,,,,,,,,,,,,,,,,,,,,,,,,,,,,,,,,,,,,,,,,,,,,,,,,,,,,,
,,,,,378811,1,2024-07-12_16h07.05.546,experiment,2024.1.5,MacIntel,58.82352941,6691931c2c63981b064e1f0c,6691b7033008e619db223b2b,,,,,,,,,,,,,,,,,,,,,,,,,,,,,,,,,,,,,,,,,,,,,,,,,,,,,,,,,,,,1064.599,1071.453,0.256481481,-0.182407407,1.0,0.0,0.0,0.853,compass,0.0,3.0,3.0,7.0,1.0,SoundStimuli/MackTheKnife_BobbyDarin_Original5S.wav,,,,,,,,,,,,,,,,,,,,,,,,,,,,,,,,,,,,,,,,,,,,,,,,,,,,,
,,,,,378811,1,2024-07-12_16h07.05.546,experiment,2024.1.5,MacIntel,58.82352941,6691931c2c63981b064e1f0c,6691b7033008e619db223b2b,,,,,,,,,,,,,,,,,,,,,,,,,,,,,,,,,,,,,,,,,,,,,,,,,,,,,,,,,,,,1071.453,1079.569,0.268518519,-0.187037037,1.0,0.0,0.0,2.111,compass,0.0,4.0,4.0,25.0,1.0,SoundStimuli/IllMakeLoveToYou_BoyzIIMen_Original5S.wav,,,,,,,,,,,,,,,,,,,,,,,,,,,,,,,,,,,,,,,,,,,,,,,,,,,,,
,,,,,378811,1,2024-07-12_16h07.05.546,experiment,2024.1.5,MacIntel,58.82352941,6691931c2c63981b064e1f0c,6691b7033008e619db223b2b,,,,,,,,,,,,,,,,,,,,,,,,,,,,,,,,,,,,,,,,,,,,,,,,,,,,,,,,,,,,1079.57,1086.265,0.312962963,0.107407407,1.0,0.0,0.0,0.692,compass,0.0,5.0,5.0,11.0,1.0,SoundStimuli/BlurredLines_RobinThicke_Original5S.wav,,,,,,,,,,,,,,,,,,,,,,,,,,,,,,,,,,,,,,,,,,,,,,,,,,,,,
,,,,,378811,1,2024-07-12_16h07.05.546,experiment,2024.1.5,MacIntel,58.82352941,6691931c2c63981b064e1f0c,6691b7033008e619db223b2b,,,,,,,,,,,,,,,,,,,,,,,,,,,,,,,,,,,,,,,,,,,,,,,,,,,,,,,,,,,,1086.265,1092.981,0.237962963,0.188888889,1.0,0.0,0.0,0.699,compass,0.0,6.0,6.0,33.0,1.0,SoundStimuli/TheBoyIsMine_BrandyMonica_Cover5S.wav,,,,,,,,,,,,,,,,,,,,,,,,,,,,,,,,,,,,,,,,,,,,,,,,,,,,,
,,,,,378811,1,2024-07-12_16h07.05.546,experiment,2024.1.5,MacIntel,58.82352941,6691931c2c63981b064e1f0c,6691b7033008e619db223b2b,,,,,,,,,,,,,,,,,,,,,,,,,,,,,,,,,,,,,,,,,,,,,,,,,,,,,,,,,,,,1092.981,1099.977,0.277777778,0.190740741,1.0,0.0,0.0,0.987,compass,0.0,7.0,7.0,5.0,1.0,SoundStimuli/JoyToTheWorld_ThreeDogNight_Cover5S.wav,,,,,,,,,,,,,,,,,,,,,,,,,,,,,,,,,,,,,,,,,,,,,,,,,,,,,
,,,,,378811,1,2024-07-12_16h07.05.546,experiment,2024.1.5,MacIntel,58.82352941,6691931c2c63981b064e1f0c,6691b7033008e619db223b2b,,,,,,,,,,,,,,,,,,,,,,,,,,,,,,,,,,,,,,,,,,,,,,,,,,,,,,,,,,,,1099.978,1106.986,0.284259259,0.22962963,1.0,0.0,0.0,1.0,compass,0.0,8.0,8.0,18.0,1.0,SoundStimuli/Weak_SWV_Original5S.wav,,,,,,,,,,,,,,,,,,,,,,,,,,,,,,,,,,,,,,,,,,,,,,,,,,,,,
,,,,,378811,1,2024-07-12_16h07.05.546,experiment,2024.1.5,MacIntel,58.82352941,6691931c2c63981b064e1f0c,6691b7033008e619db223b2b,,,,,,,,,,,,,,,,,,,,,,,,,,,,,,,,,,,,,,,,,,,,,,,,,,,,,,,,,,,,1106.986,1116.882,0.284259259,0.22962963,1.0,0.0,0.0,3.888,compass,0.0,9.0,9.0,26.0,1.0,SoundStimuli/TheSign_AceOfBase_Original5S.wav,,,,,,,,,,,,,,,,,,,,,,,,,,,,,,,,,,,,,,,,,,,,,,,,,,,,,
,,,,,378811,1,2024-07-12_16h07.05.546,experiment,2024.1.5,MacIntel,58.82352941,6691931c2c63981b064e1f0c,6691b7033008e619db223b2b,,,,,,,,,,,,,,,,,,,,,,,,,,,,,,,,,,,,,,,,,,,,,,,,,,,,,,,,,,,,1116.883,1133.272,0.211111111,0.163888889,1.0,0.0,0.0,10.376,compass,0.0,10.0,10.0,30.0,1.0,SoundStimuli/SomebodyThatIUsedtoKnow_Gotye_Cover5S.wav,,,,,,,,,,,,,,,,,,,,,,,,,,,,,,,,,,,,,,,,,,,,,,,,,,,,,
,,,,,378811,1,2024-07-12_16h07.05.546,experiment,2024.1.5,MacIntel,58.82352941,6691931c2c63981b064e1f0c,6691b7033008e619db223b2b,,,,,,,,,,,,,,,,,,,,,,,,,,,,,,,,,,,,,,,,,,,,,,,,,,,,,,,,,,,,1133.273,1142.931,0.225925926,0.219444444,1.0,0.0,0.0,3.652,compass,0.0,11.0,11.0,22.0,1.0,SoundStimuli/Happy_PharellWilliams_Cover5S.wav,,,,,,,,,,,,,,,,,,,,,,,,,,,,,,,,,,,,,,,,,,,,,,,,,,,,,
,,,,,378811,1,2024-07-12_16h07.05.546,experiment,2024.1.5,MacIntel,58.82352941,6691931c2c63981b064e1f0c,6691b7033008e619db223b2b,,,,,,,,,,,,,,,,,,,,,,,,,,,,,,,,,,,,,,,,,,,,,,,,,,,,,,,,,,,,1142.931,1150.255,-0.063888889,-0.047222222,1.0,0.0,0.0,1.318,compass,0.0,12.0,12.0,17.0,1.0,SoundStimuli/IWannaDanceWithSomebody_WhitneyHouston_Cover5S.wav,,,,,,,,,,,,,,,,,,,,,,,,,,,,,,,,,,,,,,,,,,,,,,,,,,,,,
,,,,,378811,1,2024-07-12_16h07.05.546,experiment,2024.1.5,MacIntel,58.82352941,6691931c2c63981b064e1f0c,6691b7033008e619db223b2b,,,,,,,,,,,,,,,,,,,,,,,,,,,,,,,,,,,,,,,,,,,,,,,,,,,,,,,,,,,,1150.255,1158.442,0.181481481,0.163888889,1.0,0.0,0.0,2.186,compass,0.0,13.0,13.0,6.0,1.0,SoundStimuli/SaveYourTears_TheWeekndArianaGrande_Original5S.wav,,,,,,,,,,,,,,,,,,,,,,,,,,,,,,,,,,,,,,,,,,,,,,,,,,,,,
,,,,,378811,1,2024-07-12_16h07.05.546,experiment,2024.1.5,MacIntel,58.82352941,6691931c2c63981b064e1f0c,6691b7033008e619db223b2b,,,,,,,,,,,,,,,,,,,,,,,,,,,,,,,,,,,,,,,,,,,,,,,,,,,,,,,,,,,,1158.443,1165.371,0.187037037,0.233333333,1.0,0.0,0.0,0.921,compass,0.0,14.0,14.0,3.0,1.0,SoundStimuli/PartyRockAnthem_LMFAO_Cover5S.wav,,,,,,,,,,,,,,,,,,,,,,,,,,,,,,,,,,,,,,,,,,,,,,,,,,,,,
,,,,,378811,1,2024-07-12_16h07.05.546,experiment,2024.1.5,MacIntel,58.82352941,6691931c2c63981b064e1f0c,6691b7033008e619db223b2b,,,,,,,,,,,,,,,,,,,,,,,,,,,,,,,,,,,,,,,,,,,,,,,,,,,,,,,,,,,,1165.371,1171.959,0.242592593,-0.212962963,1.0,0.0,0.0,0.582,compass,0.0,15.0,15.0,14.0,1.0,SoundStimuli/LikeARollingStone_BobDylan_Cover5S.wav,,,,,,,,,,,,,,,,,,,,,,,,,,,,,,,,,,,,,,,,,,,,,,,,,,,,,
,,,,,378811,1,2024-07-12_16h07.05.546,experiment,2024.1.5,MacIntel,58.82352941,6691931c2c63981b064e1f0c,6691b7033008e619db223b2b,,,,,,,,,,,,,,,,,,,,,,,,,,,,,,,,,,,,,,,,,,,,,,,,,,,,,,,,,,,,1171.96,1178.627,0.19537037,0.149074074,1.0,0.0,0.0,0.652,compass,0.0,16.0,16.0,20.0,1.0,SoundStimuli/FlashdanceWhatAFeeling_IreneCara_Cover5S.wav,,,,,,,,,,,,,,,,,,,,,,,,,,,,,,,,,,,,,,,,,,,,,,,,,,,,,
,,,,,378811,1,2024-07-12_16h07.05.546,experiment,2024.1.5,MacIntel,58.82352941,6691931c2c63981b064e1f0c,6691b7033008e619db223b2b,,,,,,,,,,,,,,,,,,,,,,,,,,,,,,,,,,,,,,,,,,,,,,,,,,,,,,,,,,,,1178.628,1185.096,0.19537037,0.149074074,1.0,0.0,0.0,0.466,compass,0.0,17.0,17.0,4.0,1.0,SoundStimuli/Dreams_FleetwoodMac_Cover5S.wav,,,,,,,,,,,,,,,,,,,,,,,,,,,,,,,,,,,,,,,,,,,,,,,,,,,,,
,,,,,378811,1,2024-07-12_16h07.05.546,experiment,2024.1.5,MacIntel,58.82352941,6691931c2c63981b064e1f0c,6691b7033008e619db223b2b,,,,,,,,,,,,,,,,,,,,,,,,,,,,,,,,,,,,,,,,,,,,,,,,,,,,,,,,,,,,1185.097,1193.659,0.194444444,-0.106481481,1.0,0.0,0.0,2.554,compass,0.0,18.0,18.0,19.0,1.0,SoundStimuli/YouLightUpMyLife_DebbyBoone_Cover5S.wav,,,,,,,,,,,,,,,,,,,,,,,,,,,,,,,,,,,,,,,,,,,,,,,,,,,,,
,,,,,378811,1,2024-07-12_16h07.05.546,experiment,2024.1.5,MacIntel,58.82352941,6691931c2c63981b064e1f0c,6691b7033008e619db223b2b,,,,,,,,,,,,,,,,,,,,,,,,,,,,,,,,,,,,,,,,,,,,,,,,,,,,,,,,,,,,1193.66,1211.523,0.242592593,-0.230555556,1.0,0.0,0.0,11.851,compass,0.0,19.0,19.0,21.0,1.0,SoundStimuli/BridgeOverTroubledWater_SimonAndGarfunkel_Cover5S.wav,,,,,,,,,,,,,,,,,,,,,,,,,,,,,,,,,,,,,,,,,,,,,,,,,,,,,
,,,,,378811,1,2024-07-12_16h07.05.546,experiment,2024.1.5,MacIntel,58.82352941,6691931c2c63981b064e1f0c,6691b7033008e619db223b2b,,,,,,,,,,,,,,,,,,,,,,,,,,,,,,,,,,,,,,,,,,,,,,,,,,,,,,,,,,,,1211.523,1218.191,0.232407407,-0.224074074,1.0,0.0,0.0,0.664,compass,0.0,20.0,20.0,29.0,1.0,SoundStimuli/BetteDavisEyes_KimCarnes_Cover5S.wav,,,,,,,,,,,,,,,,,,,,,,,,,,,,,,,,,,,,,,,,,,,,,,,,,,,,,
,,,,,378811,1,2024-07-12_16h07.05.546,experiment,2024.1.5,MacIntel,58.82352941,6691931c2c63981b064e1f0c,6691b7033008e619db223b2b,,,,,,,,,,,,,,,,,,,,,,,,,,,,,,,,,,,,,,,,,,,,,,,,,,,,,,,,,,,,1218.191,1225.69,0.203703704,0.151851852,1.0,0.0,0.0,1.484,compass,0.0,21.0,21.0,15.0,1.0,SoundStimuli/CrazyInLove_BeyonceFtJayZ_Original5S.wav,,,,,,,,,,,,,,,,,,,,,,,,,,,,,,,,,,,,,,,,,,,,,,,,,,,,,
,,,,,378811,1,2024-07-12_16h07.05.546,experiment,2024.1.5,MacIntel,58.82352941,6691931c2c63981b064e1f0c,6691b7033008e619db223b2b,,,,,,,,,,,,,,,,,,,,,,,,,,,,,,,,,,,,,,,,,,,,,,,,,,,,,,,,,,,,1225.69,1232.266,0.272222222,0.103703704,1.0,0.0,0.0,0.57,compass,0.0,22.0,22.0,32.0,1.0,SoundStimuli/Dilemma_NellyKellyRowland_Original5S.wav,,,,,,,,,,,,,,,,,,,,,,,,,,,,,,,,,,,,,,,,,,,,,,,,,,,,,
,,,,,378811,1,2024-07-12_16h07.05.546,experiment,2024.1.5,MacIntel,58.82352941,6691931c2c63981b064e1f0c,6691b7033008e619db223b2b,,,,,,,,,,,,,,,,,,,,,,,,,,,,,,,,,,,,,,,,,,,,,,,,,,,,,,,,,,,,1232.266,1239.945,0.239814815,0.202777778,1.0,0.0,0.0,1.678,compass,0.0,23.0,23.0,1.0,1.0,SoundStimuli/Smooth_SantanaRobThomas_Cover5S.wav,,,,,,,,,,,,,,,,,,,,,,,,,,,,,,,,,,,,,,,,,,,,,,,,,,,,,
,,,,,378811,1,2024-07-12_16h07.05.546,experiment,2024.1.5,MacIntel,58.82352941,6691931c2c63981b064e1f0c,6691b7033008e619db223b2b,,,,,,,,,,,,,,,,,,,,,,,,,,,,,,,,,,,,,,,,,,,,,,,,,,,,,,,,,,,,1239.946,1246.683,-0.166666667,0.240740741,1.0,0.0,0.0,0.726,compass,0.0,24.0,24.0,2.0,1.0,SoundStimuli/SmellsLikeTeenSpirit_Nirvana_Cover5S.wav,,,,,,,,,,,,,,,,,,,,,,,,,,,,,,,,,,,,,,,,,,,,,,,,,,,,,
,,,,,378811,1,2024-07-12_16h07.05.546,experiment,2024.1.5,MacIntel,58.82352941,6691931c2c63981b064e1f0c,6691b7033008e619db223b2b,,,,,,,,,,,,,,,,,,,,,,,,,,,,,,,,,,,,,,,,,,,,,,,,,,,,,,,,,,,,1246.684,1253.206,0.142592593,0.14537037,1.0,0.0,0.0,0.511,compass,0.0,25.0,25.0,12.0,1.0,SoundStimuli/UnbreakMyHeart_ToniBraxton_Cover5S.wav,,,,,,,,,,,,,,,,,,,,,,,,,,,,,,,,,,,,,,,,,,,,,,,,,,,,,
,,,,,378811,1,2024-07-12_16h07.05.546,experiment,2024.1.5,MacIntel,58.82352941,6691931c2c63981b064e1f0c,6691b7033008e619db223b2b,,,,,,,,,,,,,,,,,,,,,,,,,,,,,,,,,,,,,,,,,,,,,,,,,,,,,,,,,,,,1253.206,1259.806,0.273148148,-0.182407407,1.0,0.0,0.0,0.599,compass,0.0,26.0,26.0,9.0,1.0,SoundStimuli/HowDoILive_LeAnnRimes_Original5S.wav,,,,,,,,,,,,,,,,,,,,,,,,,,,,,,,,,,,,,,,,,,,,,,,,,,,,,
,,,,,378811,1,2024-07-12_16h07.05.546,experiment,2024.1.5,MacIntel,58.82352941,6691931c2c63981b064e1f0c,6691b7033008e619db223b2b,,,,,,,,,,,,,,,,,,,,,,,,,,,,,,,,,,,,,,,,,,,,,,,,,,,,,,,,,,,,1259.807,1266.657,0.247222222,0.098148148,1.0,0.0,0.0,0.841,compass,0.0,27.0,27.0,34.0,1.0,SoundStimuli/Irreplaceable_Beyonce_Original5S.wav,,,,,,,,,,,,,,,,,,,,,,,,,,,,,,,,,,,,,,,,,,,,,,,,,,,,,
,,,,,378811,1,2024-07-12_16h07.05.546,experiment,2024.1.5,MacIntel,58.82352941,6691931c2c63981b064e1f0c,6691b7033008e619db223b2b,,,,,,,,,,,,,,,,,,,,,,,,,,,,,,,,,,,,,,,,,,,,,,,,,,,,,,,,,,,,1266.658,1274.25,0.274074074,-0.162962963,1.0,0.0,0.0,1.591,compass,0.0,28.0,28.0,16.0,1.0,SoundStimuli/ItsAllInTheGame_TommyEdwards_Original5S.wav,,,,,,,,,,,,,,,,,,,,,,,,,,,,,,,,,,,,,,,,,,,,,,,,,,,,,
,,,,,378811,1,2024-07-12_16h07.05.546,experiment,2024.1.5,MacIntel,58.82352941,6691931c2c63981b064e1f0c,6691b7033008e619db223b2b,,,,,,,,,,,,,,,,,,,,,,,,,,,,,,,,,,,,,,,,,,,,,,,,,,,,,,,,,,,,1274.25,1280.814,0.252777778,0.156481481,1.0,0.0,0.0,0.552,compass,0.0,29.0,29.0,27.0,1.0,SoundStimuli/EyeOfTheTiger_Survivor_Original5S.wav,,,,,,,,,,,,,,,,,,,,,,,,,,,,,,,,,,,,,,,,,,,,,,,,,,,,,
,,,,,378811,1,2024-07-12_16h07.05.546,experiment,2024.1.5,MacIntel,58.82352941,6691931c2c63981b064e1f0c,6691b7033008e619db223b2b,,,,,,,,,,,,,,,,,,,,,,,,,,,,,,,,,,,,,,,,,,,,,,,,,,,,,,,,,,,,1280.815,1289.083,0.363888889,-0.249074074,1.0,0.0,0.0,0.92,compass,0.0,30.0,30.0,8.0,1.0,SoundStimuli/EndlessLove_DianaRossLionelRichie_Original5S.wav,,,,,,,,,,,,,,,,,,,,,,,,,,,,,,,,,,,,,,,,,,,,,,,,,,,,,
,,,,,378811,1,2024-07-12_16h07.05.546,experiment,2024.1.5,MacIntel,58.82352941,6691931c2c63981b064e1f0c,6691b7033008e619db223b2b,,,,,,,,,,,,,,,,,,,,,,,,,,,,,,,,,,,,,,,,,,,,,,,,,,,,,,,,,,,,1289.083,1296.712,0.146296296,0.180555556,1.0,0.0,0.0,1.614,compass,0.0,31.0,31.0,31.0,1.0,SoundStimuli/TossinAndTurnin_BobbyLewis_Cover5S.wav,,,,,,,,,,,,,,,,,,,,,,,,,,,,,,,,,,,,,,,,,,,,,,,,,,,,,
,,,,,378811,1,2024-07-12_16h07.05.546,experiment,2024.1.5,MacIntel,58.82352941,6691931c2c63981b064e1f0c,6691b7033008e619db223b2b,,,,,,,,,,,,,,,,,,,,,,,,,,,,,,,,,,,,,,,,,,,,,,,,,,,,,,,,,,,,1296.712,1304.243,0.146296296,0.180555556,1.0,0.0,0.0,1.529,compass,0.0,32.0,32.0,24.0,1.0,SoundStimuli/Kiss_Prince_Original5S.wav,,,,,,,,,,,,,,,,,,,,,,,,,,,,,,,,,,,,,,,,,,,,,,,,,,,,,
,,,,,378811,1,2024-07-12_16h07.05.546,experiment,2024.1.5,MacIntel,58.82352941,6691931c2c63981b064e1f0c,6691b7033008e619db223b2b,,,,,,,,,,,,,,,,,,,,,,,,,,,,,,,,,,,,,,,,,,,,,,,,,,,,,,,,,,,,1304.243,1311.312,0.146296296,0.180555556,1.0,0.0,0.0,1.06,compass,0.0,33.0,33.0,10.0,1.0,SoundStimuli/LeFreak_Chic_Original5S.wav,,,,,,,,,,,,,,,,,,,,,,,,,,,,,,,,,,,,,,,,,,,,,,,,,,,,,
,,,,,378811,1,2024-07-12_16h07.05.546,experiment,2024.1.5,MacIntel,58.82352941,6691931c2c63981b064e1f0c,6691b7033008e619db223b2b,,,,,,,,,,,,,,,,,,,,,,,,,,,,,,,,,,,,,,,,,,,,,,,,,,,,,,,,,,,,1311.312,1320.011,0.146296296,0.180555556,1.0,0.0,0.0,2.688,compass,0.0,34.0,34.0,23.0,1.0,SoundStimuli/IWalkTheLine_JohnnyCash_Cover5S.wav,,,,,,,,,,,,,,,,,,,,,,,,,,,,,,,,,,,,,,,,,,,,,,,,,,,,,
,,,,,378811,1,2024-07-12_16h07.05.546,experiment,2024.1.5,MacIntel,58.82352941,6691931c2c63981b064e1f0c,6691b7033008e619db223b2b,,,,,,,,,,,,,,,,,,,,,,,,,,,,,,,,,,,,,,,,,,,,,,,,,,,,,,,,,,,,,,,,,,,,,,,,,,,1320.011,1320.012,,,,1320.012,1320.012,,,,0.0,3.0,3.0,3.0,1.0,block_order/blockB.xlsx,,,,,,,,,,,,,,,,,,,,,,,,,,,,,,,,,,,,,
,,,,,378811,1,2024-07-12_16h07.05.546,experiment,2024.1.5,MacIntel,58.82352941,6691931c2c63981b064e1f0c,6691b7033008e619db223b2b,,,,,,,,,,,,,,,,,,,,,,,,,,,,,,,,,,,,,,,,,,,,,,,,,,,,,,,,,,,,,,,,,,,,,,,,,,,,,,,,,,,,,,,,,,,27.0,Item 3,Self taught classical guitarist from 20-27,Item 5,Apple Music and Spotify,3.0,5.0,"Driving, exercising, laundry, work, parties",Often,Often,Often,Rarely,Never,Sometimes,Often,Rarely,Sometimes,Sometimes,Sometimes,Often,Sometimes,Often,Rarely,Often,Remixes,Classic Rock,Hip Hop,Country,"More diverse over time, less metal",Music is a large part of my life,0.0,0.0,0.0,0.0,1.0,,
,,,,,378811,1,2024-07-12_16h07.05.546,experiment,2024.1.5,MacIntel,58.82352941,6691931c2c63981b064e1f0c,6691b7033008e619db223b2b,,,,,,,,,,,,,,,,,,,,,,,,,,,,,,,,,,,,,,,,,,,,,,,,,,,,,,,,,,,,,,,,,,,,,,,,,,,,,,,,,,,,,,,,,,,,,,,,,,,,,,,,,,,,,,,,,,,,,,,,,,,,,,1477.068,1479.331
