welcome.started,welcome.stopped,space_to_continue.keys,space_to_continue.rt,space_to_continue.duration,participant,session,date,expName,psychopyVersion,OS,frameRate,STUDY_ID,SESSION_ID,consent.consent,consent.consent_recontact,consent_check.started,consent_check.stopped,calibration_ready.started,calibration_ready.stopped,cal_ready.keys,cal_ready.rt,cal_ready.duration,calibration.started,calibration.stopped,mouse.x,mouse.y,mouse.leftButton,mouse.midButton,mouse.rightButton,mouse.time,mouse.clicked_name,move_on.keys,move_on.rt,move_on.duration,run_cal.thisRepN,run_cal.thisTrialN,run_cal.thisN,run_cal.thisIndex,run_cal.ran,emotion_training_ready.started,emotion_training_ready.stopped,training_move_on.keys,training_move_on.rt,training_move_on.duration,examples.started,examples.stopped,emotion_scale.started,emotion_scale.stopped,scale_next.keys,scale_next.rt,scale_next.duration,instructions.started,instructions.stopped,next.keys,next.rt,next.duration,practice_task.started,practice_task.stopped,mouse_rating_2.x,mouse_rating_2.y,mouse_rating_2.leftButton,mouse_rating_2.midButton,mouse_rating_2.rightButton,mouse_rating_2.time,mouse_rating_2.clicked_name,ready.started,ready.stopped,key_resp.keys,key_resp.rt,key_resp.duration,set_group.started,set_group.stopped,task.started,task.stopped,mouse_rating.x,mouse_rating.y,mouse_rating.leftButton,mouse_rating.midButton,mouse_rating.rightButton,mouse_rating.time,mouse_rating.clicked_name,trials.thisRepN,trials.thisTrialN,trials.thisN,trials.thisIndex,trials.ran,clip,short_break.started,short_break.stopped,space_to_move_on.keys,space_to_move_on.rt,space_to_move_on.duration,instruction_reminder.started,instruction_reminder.stopped,reminder_move_on.keys,reminder_move_on.rt,reminder_move_on.duration,blocks.thisRepN,blocks.thisTrialN,blocks.thisN,blocks.thisIndex,blocks.ran,block,post_survey.age,post_survey.musician,post_survey.music_making,post_survey.listen_time,post_survey.medium,post_survey.music_seeking,post_survey.music_choice,post_survey.activities,post_survey.question1.R&B,post_survey.question1.Metal,post_survey.question1.Alternative rock,post_survey.question1.Classic rock,post_survey.question1.Latin,post_survey.question1.Electronic (EDM),post_survey.question1.Ambient,post_survey.question1.Folk/indie,post_survey.question1.Disco,post_survey.question1.A cappella,post_survey.question1.Classical,post_survey.question1.Pop,post_survey.question1.Reggae,post_survey.question1.Country,post_survey.question1.Hip hop,post_survey.question1.Jazz,post_survey.other_genres,post_survey.genres_ranked.text1,post_survey.genres_ranked.text2,post_survey.genres_ranked.text3,post_survey.habit_change,post_survey.habits,show_exp.thisRepN,show_exp.thisTrialN,show_exp.thisN,show_exp.thisIndex,show_exp.ran,goodbye.started,goodbye.stopped
0.0004,5.2787,space,5.2693,,476463,1,2024-07-12_17h32.57.532,experiment,2024.1.5,Win32,60.24096386,6691931c2c63981b064e1f0c,6691adf251430e598bc008ae,,,,,,,,,,,,,,,,,,,,,,,,,,,,,,,,,,,,,,,,,,,,,,,,,,,,,,,,,,,,,,,,,,,,,,,,,,,,,,,,,,,,,,,,,,,,,,,,,,,,,,,,,,,,,,,,,,,,,,,,,,,,,,,
,,,,,476463,1,2024-07-12_17h32.57.532,experiment,2024.1.5,Win32,60.24096386,6691931c2c63981b064e1f0c,6691adf251430e598bc008ae,yes,yes,,,,,,,,,,,,,,,,,,,,,,,,,,,,,,,,,,,,,,,,,,,,,,,,,,,,,,,,,,,,,,,,,,,,,,,,,,,,,,,,,,,,,,,,,,,,,,,,,,,,,,,,,,,,,,,,,,,,,,,,,,,,,
,,,,,476463,1,2024-07-12_17h32.57.532,experiment,2024.1.5,Win32,60.24096386,6691931c2c63981b064e1f0c,6691adf251430e598bc008ae,,,47.4785,47.4787,,,,,,,,,,,,,,,,,,,,,,,,,,,,,,,,,,,,,,,,,,,,,,,,,,,,,,,,,,,,,,,,,,,,,,,,,,,,,,,,,,,,,,,,,,,,,,,,,,,,,,,,,,,,,,,,,,,,,,,,,,,
,,,,,476463,1,2024-07-12_17h32.57.532,experiment,2024.1.5,Win32,60.24096386,6691931c2c63981b064e1f0c,6691adf251430e598bc008ae,,,,,47.4807,54.6317,space,7.1395,,54.6395,142.5276,[-0.01171875],[-0.421875],[1],[0],[0],[59.005299999952314],"[""play_button""]",y,86.8578,,0.0,0.0,0.0,0.0,1.0,,,,,,,,,,,,,,,,,,,,,,,,,,,,,,,,,,,,,,,,,,,,,,,,,,,,,,,,,,,,,,,,,,,,,,,,,,,,,,,,,,,,,,,,,,,,,,,,,,,,,
,,,,,476463,1,2024-07-12_17h32.57.532,experiment,2024.1.5,Win32,60.24096386,6691931c2c63981b064e1f0c,6691adf251430e598bc008ae,,,,,,,,,,,,,,,,,,,,,,,,,,,142.5283,183.4012,space,40.8605,,183.4017,303.4173,303.4184,317.8768,right,10.9361,,317.8775,334.8484,space,16.9506,,334.8486,345.5139,-0.122395833,-0.166666667,1.0,0.0,0.0,4.659,compass_2,345.5144,348.0434,space,2.5122,,348.0439,348.0525,348.0783,369.2419,-0.102864583,-0.18359375,1.0,0.0,0.0,15.1581,compass,0.0,0.0,0.0,28.0,1.0,SoundStimuli/ComeAndGetYourLove_Redbone_Original5S.wav,,,,,,,,,,,,,,,,,,,,,,,,,,,,,,,,,,,,,,,,,,,,,,,,,,,,,
,,,,,476463,1,2024-07-12_17h32.57.532,experiment,2024.1.5,Win32,60.24096386,6691931c2c63981b064e1f0c,6691adf251430e598bc008ae,,,,,,,,,,,,,,,,,,,,,,,,,,,,,,,,,,,,,,,,,,,,,,,,,,,,,,,,,,,,369.2502,378.7248,0.177083333,0.196614583,1.0,0.0,0.0,3.461,compass,0.0,1.0,1.0,0.0,1.0,SoundStimuli/StayinAlive_BeeGees_Original5S.wav,,,,,,,,,,,,,,,,,,,,,,,,,,,,,,,,,,,,,,,,,,,,,,,,,,,,,
,,,,,476463,1,2024-07-12_17h32.57.532,experiment,2024.1.5,Win32,60.24096386,6691931c2c63981b064e1f0c,6691adf251430e598bc008ae,,,,,,,,,,,,,,,,,,,,,,,,,,,,,,,,,,,,,,,,,,,,,,,,,,,,,,,,,,,,378.7332,395.0145,-0.194010417,0.190104167,1.0,0.0,0.0,10.2663,compass,0.0,2.0,2.0,4.0,1.0,SoundStimuli/GetUrFreakOn_MissyElliot_Original5S.wav,,,,,,,,,,,,,,,,,,,,,,,,,,,,,,,,,,,,,,,,,,,,,,,,,,,,,
,,,,,476463,1,2024-07-12_17h32.57.532,experiment,2024.1.5,Win32,60.24096386,6691931c2c63981b064e1f0c,6691adf251430e598bc008ae,,,,,,,,,,,,,,,,,,,,,,,,,,,,,,,,,,,,,,,,,,,,,,,,,,,,,,,,,,,,395.0231,411.9362,-0.1796875,0.201822917,1.0,0.0,0.0,10.8984,compass,0.0,3.0,3.0,24.0,1.0,SoundStimuli/UptownFunk_MarkRonson_Original5S.wav,,,,,,,,,,,,,,,,,,,,,,,,,,,,,,,,,,,,,,,,,,,,,,,,,,,,,
,,,,,476463,1,2024-07-12_17h32.57.532,experiment,2024.1.5,Win32,60.24096386,6691931c2c63981b064e1f0c,6691adf251430e598bc008ae,,,,,,,,,,,,,,,,,,,,,,,,,,,,,,,,,,,,,,,,,,,,,,,,,,,,,,,,,,,,411.9448,418.6582,0.166666667,-0.169270833,1.0,0.0,0.0,0.6985,compass,0.0,4.0,4.0,16.0,1.0,SoundStimuli/BohemianRhapsody_Queen_Original5S.wav,,,,,,,,,,,,,,,,,,,,,,,,,,,,,,,,,,,,,,,,,,,,,,,,,,,,,
,,,,,476463,1,2024-07-12_17h32.57.532,experiment,2024.1.5,Win32,60.24096386,6691931c2c63981b064e1f0c,6691adf251430e598bc008ae,,,,,,,,,,,,,,,,,,,,,,,,,,,,,,,,,,,,,,,,,,,,,,,,,,,,,,,,,,,,418.6687,424.7315,-0.173177083,0.19140625,1.0,0.0,0.0,0.0498,compass,0.0,5.0,5.0,7.0,1.0,SoundStimuli/NoOne_AliciaKeys_Cover5S.wav,,,,,,,,,,,,,,,,,,,,,,,,,,,,,,,,,,,,,,,,,,,,,,,,,,,,,
,,,,,476463,1,2024-07-12_17h32.57.532,experiment,2024.1.5,Win32,60.24096386,6691931c2c63981b064e1f0c,6691adf251430e598bc008ae,,,,,,,,,,,,,,,,,,,,,,,,,,,,,,,,,,,,,,,,,,,,,,,,,,,,,,,,,,,,424.7398,431.853,-0.197916667,-0.13671875,1.0,0.0,0.0,1.098,compass,0.0,6.0,6.0,17.0,1.0,SoundStimuli/Fallin_AliciaKeys_Original5S.wav,,,,,,,,,,,,,,,,,,,,,,,,,,,,,,,,,,,,,,,,,,,,,,,,,,,,,
,,,,,476463,1,2024-07-12_17h32.57.532,experiment,2024.1.5,Win32,60.24096386,6691931c2c63981b064e1f0c,6691adf251430e598bc008ae,,,,,,,,,,,,,,,,,,,,,,,,,,,,,,,,,,,,,,,,,,,,,,,,,,,,,,,,,,,,431.8616,439.0413,0.1484375,-0.147135417,1.0,0.0,0.0,1.165,compass,0.0,7.0,7.0,26.0,1.0,SoundStimuli/LivinOnAPrayer_BonJovi_Cover5S.wav,,,,,,,,,,,,,,,,,,,,,,,,,,,,,,,,,,,,,,,,,,,,,,,,,,,,,
,,,,,476463,1,2024-07-12_17h32.57.532,experiment,2024.1.5,Win32,60.24096386,6691931c2c63981b064e1f0c,6691adf251430e598bc008ae,,,,,,,,,,,,,,,,,,,,,,,,,,,,,,,,,,,,,,,,,,,,,,,,,,,,,,,,,,,,439.0528,446.5451,-0.153645833,-0.139322917,1.0,0.0,0.0,1.4809,compass,0.0,8.0,8.0,2.0,1.0,SoundStimuli/Mood_24kGoldnianndior_Cover5S.wav,,,,,,,,,,,,,,,,,,,,,,,,,,,,,,,,,,,,,,,,,,,,,,,,,,,,,
,,,,,476463,1,2024-07-12_17h32.57.532,experiment,2024.1.5,Win32,60.24096386,6691931c2c63981b064e1f0c,6691adf251430e598bc008ae,,,,,,,,,,,,,,,,,,,,,,,,,,,,,,,,,,,,,,,,,,,,,,,,,,,,,,,,,,,,446.5539,453.2838,-0.161458333,0.190104167,1.0,0.0,0.0,0.7156,compass,0.0,9.0,9.0,21.0,1.0,SoundStimuli/GoodGollyMissMolly_LittleRichard_Cover5S.wav,,,,,,,,,,,,,,,,,,,,,,,,,,,,,,,,,,,,,,,,,,,,,,,,,,,,,
,,,,,476463,1,2024-07-12_17h32.57.532,experiment,2024.1.5,Win32,60.24096386,6691931c2c63981b064e1f0c,6691adf251430e598bc008ae,,,,,,,,,,,,,,,,,,,,,,,,,,,,,,,,,,,,,,,,,,,,,,,,,,,,,,,,,,,,453.2941,459.9728,-0.178385417,-0.057291667,1.0,0.0,0.0,0.6653,compass,0.0,10.0,10.0,9.0,1.0,SoundStimuli/Despacito_LuisFonsiDaddyYankee_Cover5S.wav,,,,,,,,,,,,,,,,,,,,,,,,,,,,,,,,,,,,,,,,,,,,,,,,,,,,,
,,,,,476463,1,2024-07-12_17h32.57.532,experiment,2024.1.5,Win32,60.24096386,6691931c2c63981b064e1f0c,6691adf251430e598bc008ae,,,,,,,,,,,,,,,,,,,,,,,,,,,,,,,,,,,,,,,,,,,,,,,,,,,,,,,,,,,,459.9831,466.7615,-0.18359375,0.119791667,1.0,0.0,0.0,0.7657,compass,0.0,11.0,11.0,34.0,1.0,SoundStimuli/AChangeIsGonnaCome_SamCooke_Cover5S.wav,,,,,,,,,,,,,,,,,,,,,,,,,,,,,,,,,,,,,,,,,,,,,,,,,,,,,
,,,,,476463,1,2024-07-12_17h32.57.532,experiment,2024.1.5,Win32,60.24096386,6691931c2c63981b064e1f0c,6691adf251430e598bc008ae,,,,,,,,,,,,,,,,,,,,,,,,,,,,,,,,,,,,,,,,,,,,,,,,,,,,,,,,,,,,466.7714,473.9494,-0.170572917,-0.149739583,1.0,0.0,0.0,1.1647,compass,0.0,12.0,12.0,33.0,1.0,SoundStimuli/StandByMe_BenEKing_Cover5S.wav,,,,,,,,,,,,,,,,,,,,,,,,,,,,,,,,,,,,,,,,,,,,,,,,,,,,,
,,,,,476463,1,2024-07-12_17h32.57.532,experiment,2024.1.5,Win32,60.24096386,6691931c2c63981b064e1f0c,6691adf251430e598bc008ae,,,,,,,,,,,,,,,,,,,,,,,,,,,,,,,,,,,,,,,,,,,,,,,,,,,,,,,,,,,,473.9578,480.139,0.186197917,-0.1953125,1.0,0.0,0.0,0.1663,compass,0.0,13.0,13.0,15.0,1.0,SoundStimuli/TikTok_Kesha_Cover5S.wav,,,,,,,,,,,,,,,,,,,,,,,,,,,,,,,,,,,,,,,,,,,,,,,,,,,,,
,,,,,476463,1,2024-07-12_17h32.57.532,experiment,2024.1.5,Win32,60.24096386,6691931c2c63981b064e1f0c,6691adf251430e598bc008ae,,,,,,,,,,,,,,,,,,,,,,,,,,,,,,,,,,,,,,,,,,,,,,,,,,,,,,,,,,,,480.1489,486.4289,0.1796875,-0.15625,1.0,0.0,0.0,0.2666,compass,0.0,14.0,14.0,22.0,1.0,SoundStimuli/RockWithYou_MichaelJackson_Original5S.wav,,,,,,,,,,,,,,,,,,,,,,,,,,,,,,,,,,,,,,,,,,,,,,,,,,,,,
,,,,,476463,1,2024-07-12_17h32.57.532,experiment,2024.1.5,Win32,60.24096386,6691931c2c63981b064e1f0c,6691adf251430e598bc008ae,,,,,,,,,,,,,,,,,,,,,,,,,,,,,,,,,,,,,,,,,,,,,,,,,,,,,,,,,,,,486.4384,492.5351,0.1796875,-0.154947917,1.0,0.0,0.0,0.0831,compass,0.0,15.0,15.0,5.0,1.0,SoundStimuli/MyGirl_TheTemptations_Original5S.wav,,,,,,,,,,,,,,,,,,,,,,,,,,,,,,,,,,,,,,,,,,,,,,,,,,,,,
,,,,,476463,1,2024-07-12_17h32.57.532,experiment,2024.1.5,Win32,60.24096386,6691931c2c63981b064e1f0c,6691adf251430e598bc008ae,,,,,,,,,,,,,,,,,,,,,,,,,,,,,,,,,,,,,,,,,,,,,,,,,,,,,,,,,,,,492.5455,499.3736,-0.15625,-0.135416667,1.0,0.0,0.0,0.8153,compass,0.0,16.0,16.0,11.0,1.0,SoundStimuli/Superstition_StevieWonder_Cover5S.wav,,,,,,,,,,,,,,,,,,,,,,,,,,,,,,,,,,,,,,,,,,,,,,,,,,,,,
,,,,,476463,1,2024-07-12_17h32.57.532,experiment,2024.1.5,Win32,60.24096386,6691931c2c63981b064e1f0c,6691adf251430e598bc008ae,,,,,,,,,,,,,,,,,,,,,,,,,,,,,,,,,,,,,,,,,,,,,,,,,,,,,,,,,,,,499.382,505.5468,-0.157552083,-0.135416667,1.0,0.0,0.0,0.1499,compass,0.0,17.0,17.0,32.0,1.0,SoundStimuli/HeatWaves_GlassAnimals_Original5S.wav,,,,,,,,,,,,,,,,,,,,,,,,,,,,,,,,,,,,,,,,,,,,,,,,,,,,,
,,,,,476463,1,2024-07-12_17h32.57.532,experiment,2024.1.5,Win32,60.24096386,6691931c2c63981b064e1f0c,6691adf251430e598bc008ae,,,,,,,,,,,,,,,,,,,,,,,,,,,,,,,,,,,,,,,,,,,,,,,,,,,,,,,,,,,,505.5548,512.0361,0.16796875,-0.174479167,1.0,0.0,0.0,0.4661,compass,0.0,18.0,18.0,12.0,1.0,SoundStimuli/IWillAlwaysLoveYou_WhitneyHouston_Cover5S.wav,,,,,,,,,,,,,,,,,,,,,,,,,,,,,,,,,,,,,,,,,,,,,,,,,,,,,
,,,,,476463,1,2024-07-12_17h32.57.532,experiment,2024.1.5,Win32,60.24096386,6691931c2c63981b064e1f0c,6691adf251430e598bc008ae,,,,,,,,,,,,,,,,,,,,,,,,,,,,,,,,,,,,,,,,,,,,,,,,,,,,,,,,,,,,512.0471,518.243,0.16796875,0.196614583,1.0,0.0,0.0,0.184,compass,0.0,19.0,19.0,25.0,1.0,SoundStimuli/Respect_ArethaFranklin_Original5S.wav,,,,,,,,,,,,,,,,,,,,,,,,,,,,,,,,,,,,,,,,,,,,,,,,,,,,,
,,,,,476463,1,2024-07-12_17h32.57.532,experiment,2024.1.5,Win32,60.24096386,6691931c2c63981b064e1f0c,6691adf251430e598bc008ae,,,,,,,,,,,,,,,,,,,,,,,,,,,,,,,,,,,,,,,,,,,,,,,,,,,,,,,,,,,,518.2525,524.6488,0.1640625,-0.13671875,1.0,0.0,0.0,0.383,compass,0.0,20.0,20.0,23.0,1.0,SoundStimuli/StrawberryFieldsForever_TheBeatles_Original5S.wav,,,,,,,,,,,,,,,,,,,,,,,,,,,,,,,,,,,,,,,,,,,,,,,,,,,,,
,,,,,476463,1,2024-07-12_17h32.57.532,experiment,2024.1.5,Win32,60.24096386,6691931c2c63981b064e1f0c,6691adf251430e598bc008ae,,,,,,,,,,,,,,,,,,,,,,,,,,,,,,,,,,,,,,,,,,,,,,,,,,,,,,,,,,,,524.6601,533.7833,-0.169270833,0.161458333,1.0,0.0,0.0,3.1112,compass,0.0,21.0,21.0,18.0,1.0,SoundStimuli/AnotherOneBitesTheDust_Queen_Original5S.wav,,,,,,,,,,,,,,,,,,,,,,,,,,,,,,,,,,,,,,,,,,,,,,,,,,,,,
,,,,,476463,1,2024-07-12_17h32.57.532,experiment,2024.1.5,Win32,60.24096386,6691931c2c63981b064e1f0c,6691adf251430e598bc008ae,,,,,,,,,,,,,,,,,,,,,,,,,,,,,,,,,,,,,,,,,,,,,,,,,,,,,,,,,,,,533.794,542.0196,0.153645833,-0.177083333,1.0,0.0,0.0,2.2133,compass,0.0,22.0,22.0,10.0,1.0,SoundStimuli/BadDay_DanielPowter_Cover5S.wav,,,,,,,,,,,,,,,,,,,,,,,,,,,,,,,,,,,,,,,,,,,,,,,,,,,,,
,,,,,476463,1,2024-07-12_17h32.57.532,experiment,2024.1.5,Win32,60.24096386,6691931c2c63981b064e1f0c,6691adf251430e598bc008ae,,,,,,,,,,,,,,,,,,,,,,,,,,,,,,,,,,,,,,,,,,,,,,,,,,,,,,,,,,,,542.0311,551.57,-0.201822917,0.194010417,1.0,0.0,0.0,3.5275,compass,0.0,23.0,23.0,1.0,1.0,SoundStimuli/Stronger_KanyeWest_Original5S.wav,,,,,,,,,,,,,,,,,,,,,,,,,,,,,,,,,,,,,,,,,,,,,,,,,,,,,
,,,,,476463,1,2024-07-12_17h32.57.532,experiment,2024.1.5,Win32,60.24096386,6691931c2c63981b064e1f0c,6691adf251430e598bc008ae,,,,,,,,,,,,,,,,,,,,,,,,,,,,,,,,,,,,,,,,,,,,,,,,,,,,,,,,,,,,551.5795,561.5368,-0.16796875,0.169270833,1.0,0.0,0.0,3.9433,compass,0.0,24.0,24.0,14.0,1.0,SoundStimuli/BlindingLights_TheWeeknd_Original5S.wav,,,,,,,,,,,,,,,,,,,,,,,,,,,,,,,,,,,,,,,,,,,,,,,,,,,,,
,,,,,476463,1,2024-07-12_17h32.57.532,experiment,2024.1.5,Win32,60.24096386,6691931c2c63981b064e1f0c,6691adf251430e598bc008ae,,,,,,,,,,,,,,,,,,,,,,,,,,,,,,,,,,,,,,,,,,,,,,,,,,,,,,,,,,,,561.5475,568.5418,0.188802083,0.2109375,1.0,0.0,0.0,0.9818,compass,0.0,25.0,25.0,29.0,1.0,SoundStimuli/OldTownRoad_LilNasX_Original5S.wav,,,,,,,,,,,,,,,,,,,,,,,,,,,,,,,,,,,,,,,,,,,,,,,,,,,,,
,,,,,476463,1,2024-07-12_17h32.57.532,experiment,2024.1.5,Win32,60.24096386,6691931c2c63981b064e1f0c,6691adf251430e598bc008ae,,,,,,,,,,,,,,,,,,,,,,,,,,,,,,,,,,,,,,,,,,,,,,,,,,,,,,,,,,,,568.5524,576.562,-0.096354167,0.203125,1.0,0.0,0.0,1.997,compass,0.0,26.0,26.0,31.0,1.0,SoundStimuli/TheBattleOfNewOrleans_JohnnyHorton_Cover5S.wav,,,,,,,,,,,,,,,,,,,,,,,,,,,,,,,,,,,,,,,,,,,,,,,,,,,,,
,,,,,476463,1,2024-07-12_17h32.57.532,experiment,2024.1.5,Win32,60.24096386,6691931c2c63981b064e1f0c,6691adf251430e598bc008ae,,,,,,,,,,,,,,,,,,,,,,,,,,,,,,,,,,,,,,,,,,,,,,,,,,,,,,,,,,,,576.5729,583.5,-0.096354167,0.203125,1.0,0.0,0.0,0.9152,compass,0.0,27.0,27.0,27.0,1.0,SoundStimuli/ShapeofYou_EdSheeran_Original5S.wav,,,,,,,,,,,,,,,,,,,,,,,,,,,,,,,,,,,,,,,,,,,,,,,,,,,,,
,,,,,476463,1,2024-07-12_17h32.57.532,experiment,2024.1.5,Win32,60.24096386,6691931c2c63981b064e1f0c,6691adf251430e598bc008ae,,,,,,,,,,,,,,,,,,,,,,,,,,,,,,,,,,,,,,,,,,,,,,,,,,,,,,,,,,,,583.5089,589.9559,-0.12890625,-0.138020833,1.0,0.0,0.0,0.4325,compass,0.0,28.0,28.0,19.0,1.0,SoundStimuli/LetsGetItOn_MarvinGaye_Cover5S.wav,,,,,,,,,,,,,,,,,,,,,,,,,,,,,,,,,,,,,,,,,,,,,,,,,,,,,
,,,,,476463,1,2024-07-12_17h32.57.532,experiment,2024.1.5,Win32,60.24096386,6691931c2c63981b064e1f0c,6691adf251430e598bc008ae,,,,,,,,,,,,,,,,,,,,,,,,,,,,,,,,,,,,,,,,,,,,,,,,,,,,,,,,,,,,589.9646,596.7781,-0.12890625,-0.138020833,1.0,0.0,0.0,0.7989,compass,0.0,29.0,29.0,20.0,1.0,SoundStimuli/HeyYa_Outkast_Cover5S.wav,,,,,,,,,,,,,,,,,,,,,,,,,,,,,,,,,,,,,,,,,,,,,,,,,,,,,
,,,,,476463,1,2024-07-12_17h32.57.532,experiment,2024.1.5,Win32,60.24096386,6691931c2c63981b064e1f0c,6691adf251430e598bc008ae,,,,,,,,,,,,,,,,,,,,,,,,,,,,,,,,,,,,,,,,,,,,,,,,,,,,,,,,,,,,596.7886,605.4968,-0.13671875,0.174479167,1.0,0.0,0.0,2.6957,compass,0.0,30.0,30.0,6.0,1.0,SoundStimuli/Levitating_DuaLipa_Cover5S.wav,,,,,,,,,,,,,,,,,,,,,,,,,,,,,,,,,,,,,,,,,,,,,,,,,,,,,
,,,,,476463,1,2024-07-12_17h32.57.532,experiment,2024.1.5,Win32,60.24096386,6691931c2c63981b064e1f0c,6691adf251430e598bc008ae,,,,,,,,,,,,,,,,,,,,,,,,,,,,,,,,,,,,,,,,,,,,,,,,,,,,,,,,,,,,605.5045,613.1877,0.118489583,-0.157552083,1.0,0.0,0.0,1.6658,compass,0.0,31.0,31.0,13.0,1.0,SoundStimuli/GodOnlyKnows_TheBeachBoys_Cover5S.wav,,,,,,,,,,,,,,,,,,,,,,,,,,,,,,,,,,,,,,,,,,,,,,,,,,,,,
,,,,,476463,1,2024-07-12_17h32.57.532,experiment,2024.1.5,Win32,60.24096386,6691931c2c63981b064e1f0c,6691adf251430e598bc008ae,,,,,,,,,,,,,,,,,,,,,,,,,,,,,,,,,,,,,,,,,,,,,,,,,,,,,,,,,,,,613.1972,632.6183,-0.138020833,0.190104167,1.0,0.0,0.0,13.4109,compass,0.0,32.0,32.0,8.0,1.0,SoundStimuli/LikeAPrayer_Madonna_Original5S.wav,,,,,,,,,,,,,,,,,,,,,,,,,,,,,,,,,,,,,,,,,,,,,,,,,,,,,
,,,,,476463,1,2024-07-12_17h32.57.532,experiment,2024.1.5,Win32,60.24096386,6691931c2c63981b064e1f0c,6691adf251430e598bc008ae,,,,,,,,,,,,,,,,,,,,,,,,,,,,,,,,,,,,,,,,,,,,,,,,,,,,,,,,,,,,632.6278,638.8249,-0.138020833,0.190104167,1.0,0.0,0.0,0.1832,compass,0.0,33.0,33.0,3.0,1.0,SoundStimuli/NoScrubs_TLC_Original5S.wav,,,,,,,,,,,,,,,,,,,,,,,,,,,,,,,,,,,,,,,,,,,,,,,,,,,,,
,,,,,476463,1,2024-07-12_17h32.57.532,experiment,2024.1.5,Win32,60.24096386,6691931c2c63981b064e1f0c,6691adf251430e598bc008ae,,,,,,,,,,,,,,,,,,,,,,,,,,,,,,,,,,,,,,,,,,,,,,,,,,,,,,,,,,,,638.8332,645.1148,-0.138020833,0.190104167,1.0,0.0,0.0,0.2669,compass,0.0,34.0,34.0,30.0,1.0,SoundStimuli/PokerFace_LadyGaga_Original5S.wav,,,,,,,,,,,,,,,,,,,,,,,,,,,,,,,,,,,,,,,,,,,,,,,,,,,,,
,,,,,476463,1,2024-07-12_17h32.57.532,experiment,2024.1.5,Win32,60.24096386,6691931c2c63981b064e1f0c,6691adf251430e598bc008ae,,,,,,,,,,,,,,,,,,,,,,,,,,,,,,,,,,,,,,,,,,,,,,,,,,,,,,,,,,,,,,,,,,,,,,,,,,,645.1604,648.942,space,3.7569,,648.942,657.8118,right,8.8511,,0.0,0.0,0.0,0.0,1.0,block_order/blockA.xlsx,,,,,,,,,,,,,,,,,,,,,,,,,,,,,,,,,,,,,
,,,,,476463,1,2024-07-12_17h32.57.532,experiment,2024.1.5,Win32,60.24096386,6691931c2c63981b064e1f0c,6691adf251430e598bc008ae,,,,,,,,,,,,,,,,,,,,,,,,,,,,,,,,,,,,,,,,,,,,,,,,,,,,,,,,,,,,657.8281,668.1755,-0.15234375,0.192708333,1.0,0.0,0.0,4.3427,compass,0.0,0.0,0.0,31.0,1.0,SoundStimuli/TossinAndTurnin_BobbyLewis_Original5S.wav,,,,,,,,,,,,,,,,,,,,,,,,,,,,,,,,,,,,,,,,,,,,,,,,,,,,,
,,,,,476463,1,2024-07-12_17h32.57.532,experiment,2024.1.5,Win32,60.24096386,6691931c2c63981b064e1f0c,6691adf251430e598bc008ae,,,,,,,,,,,,,,,,,,,,,,,,,,,,,,,,,,,,,,,,,,,,,,,,,,,,,,,,,,,,668.1843,675.2972,0.1640625,0.186197917,1.0,0.0,0.0,1.0983,compass,0.0,1.0,1.0,14.0,1.0,SoundStimuli/LikeARollingStone_BobDylan_Original5S.wav,,,,,,,,,,,,,,,,,,,,,,,,,,,,,,,,,,,,,,,,,,,,,,,,,,,,,
,,,,,476463,1,2024-07-12_17h32.57.532,experiment,2024.1.5,Win32,60.24096386,6691931c2c63981b064e1f0c,6691adf251430e598bc008ae,,,,,,,,,,,,,,,,,,,,,,,,,,,,,,,,,,,,,,,,,,,,,,,,,,,,,,,,,,,,675.3046,681.3704,-0.147135417,-0.170572917,1.0,0.0,0.0,0.05,compass,0.0,2.0,2.0,25.0,1.0,SoundStimuli/IllMakeLoveToYou_BoyzIIMen_Cover5S.wav,,,,,,,,,,,,,,,,,,,,,,,,,,,,,,,,,,,,,,,,,,,,,,,,,,,,,
,,,,,476463,1,2024-07-12_17h32.57.532,experiment,2024.1.5,Win32,60.24096386,6691931c2c63981b064e1f0c,6691adf251430e598bc008ae,,,,,,,,,,,,,,,,,,,,,,,,,,,,,,,,,,,,,,,,,,,,,,,,,,,,,,,,,,,,681.3784,687.6266,-0.177083333,0.170572917,1.0,0.0,0.0,0.233,compass,0.0,3.0,3.0,33.0,1.0,SoundStimuli/TheBoyIsMine_BrandyMonica_Original5S.wav,,,,,,,,,,,,,,,,,,,,,,,,,,,,,,,,,,,,,,,,,,,,,,,,,,,,,
,,,,,476463,1,2024-07-12_17h32.57.532,experiment,2024.1.5,Win32,60.24096386,6691931c2c63981b064e1f0c,6691adf251430e598bc008ae,,,,,,,,,,,,,,,,,,,,,,,,,,,,,,,,,,,,,,,,,,,,,,,,,,,,,,,,,,,,687.6351,693.8162,0.102864583,0.170572917,1.0,0.0,0.0,0.1663,compass,0.0,4.0,4.0,30.0,1.0,SoundStimuli/SomebodyThatIUsedtoKnow_Gotye_Original5S.wav,,,,,,,,,,,,,,,,,,,,,,,,,,,,,,,,,,,,,,,,,,,,,,,,,,,,,
,,,,,476463,1,2024-07-12_17h32.57.532,experiment,2024.1.5,Win32,60.24096386,6691931c2c63981b064e1f0c,6691adf251430e598bc008ae,,,,,,,,,,,,,,,,,,,,,,,,,,,,,,,,,,,,,,,,,,,,,,,,,,,,,,,,,,,,693.8255,701.2374,-0.0859375,0.19140625,1.0,0.0,0.0,1.3978,compass,0.0,5.0,5.0,3.0,1.0,SoundStimuli/PartyRockAnthem_LMFAO_Original5S.wav,,,,,,,,,,,,,,,,,,,,,,,,,,,,,,,,,,,,,,,,,,,,,,,,,,,,,
,,,,,476463,1,2024-07-12_17h32.57.532,experiment,2024.1.5,Win32,60.24096386,6691931c2c63981b064e1f0c,6691adf251430e598bc008ae,,,,,,,,,,,,,,,,,,,,,,,,,,,,,,,,,,,,,,,,,,,,,,,,,,,,,,,,,,,,701.2468,714.1327,0.157552083,-0.095052083,1.0,0.0,0.0,6.8718,compass,0.0,6.0,6.0,19.0,1.0,SoundStimuli/YouLightUpMyLife_DebbyBoone_Original5S.wav,,,,,,,,,,,,,,,,,,,,,,,,,,,,,,,,,,,,,,,,,,,,,,,,,,,,,
,,,,,476463,1,2024-07-12_17h32.57.532,experiment,2024.1.5,Win32,60.24096386,6691931c2c63981b064e1f0c,6691adf251430e598bc008ae,,,,,,,,,,,,,,,,,,,,,,,,,,,,,,,,,,,,,,,,,,,,,,,,,,,,,,,,,,,,714.1411,720.2556,-0.1484375,-0.083333333,1.0,0.0,0.0,0.0998,compass,0.0,7.0,7.0,24.0,1.0,SoundStimuli/Kiss_Prince_Cover5S.wav,,,,,,,,,,,,,,,,,,,,,,,,,,,,,,,,,,,,,,,,,,,,,,,,,,,,,
,,,,,476463,1,2024-07-12_17h32.57.532,experiment,2024.1.5,Win32,60.24096386,6691931c2c63981b064e1f0c,6691adf251430e598bc008ae,,,,,,,,,,,,,,,,,,,,,,,,,,,,,,,,,,,,,,,,,,,,,,,,,,,,,,,,,,,,720.2631,726.3953,-0.203125,0.166666667,1.0,0.0,0.0,0.1166,compass,0.0,8.0,8.0,26.0,1.0,SoundStimuli/TheSign_AceOfBase_Cover5S.wav,,,,,,,,,,,,,,,,,,,,,,,,,,,,,,,,,,,,,,,,,,,,,,,,,,,,,
,,,,,476463,1,2024-07-12_17h32.57.532,experiment,2024.1.5,Win32,60.24096386,6691931c2c63981b064e1f0c,6691adf251430e598bc008ae,,,,,,,,,,,,,,,,,,,,,,,,,,,,,,,,,,,,,,,,,,,,,,,,,,,,,,,,,,,,726.4045,732.7184,-0.208333333,-0.140625,1.0,0.0,0.0,0.2997,compass,0.0,9.0,9.0,16.0,1.0,SoundStimuli/ItsAllInTheGame_TommyEdwards_Cover5S.wav,,,,,,,,,,,,,,,,,,,,,,,,,,,,,,,,,,,,,,,,,,,,,,,,,,,,,
,,,,,476463,1,2024-07-12_17h32.57.532,experiment,2024.1.5,Win32,60.24096386,6691931c2c63981b064e1f0c,6691adf251430e598bc008ae,,,,,,,,,,,,,,,,,,,,,,,,,,,,,,,,,,,,,,,,,,,,,,,,,,,,,,,,,,,,732.7284,738.7916,0.165364583,-0.154947917,1.0,0.0,0.0,0.0503,compass,0.0,10.0,10.0,13.0,1.0,SoundStimuli/Perfect_EdSheeran_Cover5S.wav,,,,,,,,,,,,,,,,,,,,,,,,,,,,,,,,,,,,,,,,,,,,,,,,,,,,,
,,,,,476463,1,2024-07-12_17h32.57.532,experiment,2024.1.5,Win32,60.24096386,6691931c2c63981b064e1f0c,6691adf251430e598bc008ae,,,,,,,,,,,,,,,,,,,,,,,,,,,,,,,,,,,,,,,,,,,,,,,,,,,,,,,,,,,,738.7996,745.5633,-0.178385417,-0.12890625,1.0,0.0,0.0,0.7487,compass,0.0,11.0,11.0,29.0,1.0,SoundStimuli/BetteDavisEyes_KimCarnes_Original5S.wav,,,,,,,,,,,,,,,,,,,,,,,,,,,,,,,,,,,,,,,,,,,,,,,,,,,,,
,,,,,476463,1,2024-07-12_17h32.57.532,experiment,2024.1.5,Win32,60.24096386,6691931c2c63981b064e1f0c,6691adf251430e598bc008ae,,,,,,,,,,,,,,,,,,,,,,,,,,,,,,,,,,,,,,,,,,,,,,,,,,,,,,,,,,,,745.5877,754.3322,-0.1875,0.190104167,1.0,0.0,0.0,2.7291,compass,0.0,12.0,12.0,5.0,1.0,SoundStimuli/JoyToTheWorld_ThreeDogNight_Original5S.wav,,,,,,,,,,,,,,,,,,,,,,,,,,,,,,,,,,,,,,,,,,,,,,,,,,,,,
,,,,,476463,1,2024-07-12_17h32.57.532,experiment,2024.1.5,Win32,60.24096386,6691931c2c63981b064e1f0c,6691adf251430e598bc008ae,,,,,,,,,,,,,,,,,,,,,,,,,,,,,,,,,,,,,,,,,,,,,,,,,,,,,,,,,,,,754.3403,760.9213,0.15625,-0.126302083,1.0,0.0,0.0,0.5659,compass,0.0,13.0,13.0,21.0,1.0,SoundStimuli/BridgeOverTroubledWater_SimonAndGarfunkel_Original5S.wav,,,,,,,,,,,,,,,,,,,,,,,,,,,,,,,,,,,,,,,,,,,,,,,,,,,,,
,,,,,476463,1,2024-07-12_17h32.57.532,experiment,2024.1.5,Win32,60.24096386,6691931c2c63981b064e1f0c,6691adf251430e598bc008ae,,,,,,,,,,,,,,,,,,,,,,,,,,,,,,,,,,,,,,,,,,,,,,,,,,,,,,,,,,,,760.9297,767.3938,-0.330729167,0.208333333,1.0,0.0,0.0,0.4493,compass,0.0,14.0,14.0,15.0,1.0,SoundStimuli/CrazyInLove_BeyonceFtJayZ_Cover5S.wav,,,,,,,,,,,,,,,,,,,,,,,,,,,,,,,,,,,,,,,,,,,,,,,,,,,,,
,,,,,476463,1,2024-07-12_17h32.57.532,experiment,2024.1.5,Win32,60.24096386,6691931c2c63981b064e1f0c,6691adf251430e598bc008ae,,,,,,,,,,,,,,,,,,,,,,,,,,,,,,,,,,,,,,,,,,,,,,,,,,,,,,,,,,,,767.4025,774.2489,0.1953125,-0.157552083,1.0,0.0,0.0,0.832,compass,0.0,15.0,15.0,23.0,1.0,SoundStimuli/IWalkTheLine_JohnnyCash_Original5S.wav,,,,,,,,,,,,,,,,,,,,,,,,,,,,,,,,,,,,,,,,,,,,,,,,,,,,,
,,,,,476463,1,2024-07-12_17h32.57.532,experiment,2024.1.5,Win32,60.24096386,6691931c2c63981b064e1f0c,6691adf251430e598bc008ae,,,,,,,,,,,,,,,,,,,,,,,,,,,,,,,,,,,,,,,,,,,,,,,,,,,,,,,,,,,,774.2576,781.6698,-0.12890625,0.119791667,1.0,0.0,0.0,1.3979,compass,0.0,16.0,16.0,0.0,1.0,SoundStimuli/GimmeShelter_RollingStones_Original5S.wav,,,,,,,,,,,,,,,,,,,,,,,,,,,,,,,,,,,,,,,,,,,,,,,,,,,,,
,,,,,476463,1,2024-07-12_17h32.57.532,experiment,2024.1.5,Win32,60.24096386,6691931c2c63981b064e1f0c,6691adf251430e598bc008ae,,,,,,,,,,,,,,,,,,,,,,,,,,,,,,,,,,,,,,,,,,,,,,,,,,,,,,,,,,,,781.6809,788.775,0.122395833,0.158854167,1.0,0.0,0.0,1.0821,compass,0.0,17.0,17.0,27.0,1.0,SoundStimuli/EyeOfTheTiger_Survivor_Cover5S.wav,,,,,,,,,,,,,,,,,,,,,,,,,,,,,,,,,,,,,,,,,,,,,,,,,,,,,
,,,,,476463,1,2024-07-12_17h32.57.532,experiment,2024.1.5,Win32,60.24096386,6691931c2c63981b064e1f0c,6691adf251430e598bc008ae,,,,,,,,,,,,,,,,,,,,,,,,,,,,,,,,,,,,,,,,,,,,,,,,,,,,,,,,,,,,788.7828,798.8916,-0.171875,-0.131510417,1.0,0.0,0.0,4.0936,compass,0.0,18.0,18.0,34.0,1.0,SoundStimuli/Irreplaceable_Beyonce_Cover5S.wav,,,,,,,,,,,,,,,,,,,,,,,,,,,,,,,,,,,,,,,,,,,,,,,,,,,,,
,,,,,476463,1,2024-07-12_17h32.57.532,experiment,2024.1.5,Win32,60.24096386,6691931c2c63981b064e1f0c,6691adf251430e598bc008ae,,,,,,,,,,,,,,,,,,,,,,,,,,,,,,,,,,,,,,,,,,,,,,,,,,,,,,,,,,,,798.8993,806.878,-0.178385417,0.18359375,1.0,0.0,0.0,1.9636,compass,0.0,19.0,19.0,28.0,1.0,SoundStimuli/IWantToHoldYourHand_TheBeatles_Original5S.wav,,,,,,,,,,,,,,,,,,,,,,,,,,,,,,,,,,,,,,,,,,,,,,,,,,,,,
,,,,,476463,1,2024-07-12_17h32.57.532,experiment,2024.1.5,Win32,60.24096386,6691931c2c63981b064e1f0c,6691adf251430e598bc008ae,,,,,,,,,,,,,,,,,,,,,,,,,,,,,,,,,,,,,,,,,,,,,,,,,,,,,,,,,,,,806.8863,813.3507,-0.08984375,-0.122395833,1.0,0.0,0.0,0.449,compass,0.0,20.0,20.0,6.0,1.0,SoundStimuli/SaveYourTears_TheWeekndArianaGrande_Cover5S.wav,,,,,,,,,,,,,,,,,,,,,,,,,,,,,,,,,,,,,,,,,,,,,,,,,,,,,
,,,,,476463,1,2024-07-12_17h32.57.532,experiment,2024.1.5,Win32,60.24096386,6691931c2c63981b064e1f0c,6691adf251430e598bc008ae,,,,,,,,,,,,,,,,,,,,,,,,,,,,,,,,,,,,,,,,,,,,,,,,,,,,,,,,,,,,813.3586,819.4738,0.166666667,-0.138020833,1.0,0.0,0.0,0.1003,compass,0.0,21.0,21.0,9.0,1.0,SoundStimuli/HowDoILive_LeAnnRimes_Cover5S.wav,,,,,,,,,,,,,,,,,,,,,,,,,,,,,,,,,,,,,,,,,,,,,,,,,,,,,
,,,,,476463,1,2024-07-12_17h32.57.532,experiment,2024.1.5,Win32,60.24096386,6691931c2c63981b064e1f0c,6691adf251430e598bc008ae,,,,,,,,,,,,,,,,,,,,,,,,,,,,,,,,,,,,,,,,,,,,,,,,,,,,,,,,,,,,819.4821,825.7964,-0.169270833,-0.16015625,1.0,0.0,0.0,0.2998,compass,0.0,22.0,22.0,20.0,1.0,SoundStimuli/FlashdanceWhatAFeeling_IreneCara_Original5S.wav,,,,,,,,,,,,,,,,,,,,,,,,,,,,,,,,,,,,,,,,,,,,,,,,,,,,,
,,,,,476463,1,2024-07-12_17h32.57.532,experiment,2024.1.5,Win32,60.24096386,6691931c2c63981b064e1f0c,6691adf251430e598bc008ae,,,,,,,,,,,,,,,,,,,,,,,,,,,,,,,,,,,,,,,,,,,,,,,,,,,,,,,,,,,,825.804,832.2522,-0.170572917,-0.147135417,1.0,0.0,0.0,0.4328,compass,0.0,23.0,23.0,10.0,1.0,SoundStimuli/LeFreak_Chic_Cover5S.wav,,,,,,,,,,,,,,,,,,,,,,,,,,,,,,,,,,,,,,,,,,,,,,,,,,,,,
,,,,,476463,1,2024-07-12_17h32.57.532,experiment,2024.1.5,Win32,60.24096386,6691931c2c63981b064e1f0c,6691adf251430e598bc008ae,,,,,,,,,,,,,,,,,,,,,,,,,,,,,,,,,,,,,,,,,,,,,,,,,,,,,,,,,,,,832.2607,838.6917,0.149739583,-0.1328125,1.0,0.0,0.0,0.4161,compass,0.0,24.0,24.0,8.0,1.0,SoundStimuli/EndlessLove_DianaRossLionelRichie_Cover5S.wav,,,,,,,,,,,,,,,,,,,,,,,,,,,,,,,,,,,,,,,,,,,,,,,,,,,,,
,,,,,476463,1,2024-07-12_17h32.57.532,experiment,2024.1.5,Win32,60.24096386,6691931c2c63981b064e1f0c,6691adf251430e598bc008ae,,,,,,,,,,,,,,,,,,,,,,,,,,,,,,,,,,,,,,,,,,,,,,,,,,,,,,,,,,,,838.7002,844.7647,-0.19140625,0.1796875,1.0,0.0,0.0,0.05,compass,0.0,25.0,25.0,2.0,1.0,SoundStimuli/SmellsLikeTeenSpirit_Nirvana_Original5S.wav,,,,,,,,,,,,,,,,,,,,,,,,,,,,,,,,,,,,,,,,,,,,,,,,,,,,,
,,,,,476463,1,2024-07-12_17h32.57.532,experiment,2024.1.5,Win32,60.24096386,6691931c2c63981b064e1f0c,6691adf251430e598bc008ae,,,,,,,,,,,,,,,,,,,,,,,,,,,,,,,,,,,,,,,,,,,,,,,,,,,,,,,,,,,,844.7751,851.1211,-0.220052083,-0.13671875,1.0,0.0,0.0,0.3333,compass,0.0,26.0,26.0,12.0,1.0,SoundStimuli/UnbreakMyHeart_ToniBraxton_Original5S.wav,,,,,,,,,,,,,,,,,,,,,,,,,,,,,,,,,,,,,,,,,,,,,,,,,,,,,
,,,,,476463,1,2024-07-12_17h32.57.532,experiment,2024.1.5,Win32,60.24096386,6691931c2c63981b064e1f0c,6691adf251430e598bc008ae,,,,,,,,,,,,,,,,,,,,,,,,,,,,,,,,,,,,,,,,,,,,,,,,,,,,,,,,,,,,851.1298,860.5884,-0.184895833,-0.149739583,1.0,0.0,0.0,3.4444,compass,0.0,27.0,27.0,32.0,1.0,SoundStimuli/Dilemma_NellyKellyRowland_Cover5S.wav,,,,,,,,,,,,,,,,,,,,,,,,,,,,,,,,,,,,,,,,,,,,,,,,,,,,,
,,,,,476463,1,2024-07-12_17h32.57.532,experiment,2024.1.5,Win32,60.24096386,6691931c2c63981b064e1f0c,6691adf251430e598bc008ae,,,,,,,,,,,,,,,,,,,,,,,,,,,,,,,,,,,,,,,,,,,,,,,,,,,,,,,,,,,,860.5973,869.1074,-0.186197917,-0.147135417,1.0,0.0,0.0,2.4958,compass,0.0,28.0,28.0,7.0,1.0,SoundStimuli/MackTheKnife_BobbyDarin_Cover5S.wav,,,,,,,,,,,,,,,,,,,,,,,,,,,,,,,,,,,,,,,,,,,,,,,,,,,,,
,,,,,476463,1,2024-07-12_17h32.57.532,experiment,2024.1.5,Win32,60.24096386,6691931c2c63981b064e1f0c,6691adf251430e598bc008ae,,,,,,,,,,,,,,,,,,,,,,,,,,,,,,,,,,,,,,,,,,,,,,,,,,,,,,,,,,,,869.117,882.6016,-0.177083333,-0.145833333,1.0,0.0,0.0,7.4708,compass,0.0,29.0,29.0,18.0,1.0,SoundStimuli/Weak_SWV_Cover5S.wav,,,,,,,,,,,,,,,,,,,,,,,,,,,,,,,,,,,,,,,,,,,,,,,,,,,,,
,,,,,476463,1,2024-07-12_17h32.57.532,experiment,2024.1.5,Win32,60.24096386,6691931c2c63981b064e1f0c,6691adf251430e598bc008ae,,,,,,,,,,,,,,,,,,,,,,,,,,,,,,,,,,,,,,,,,,,,,,,,,,,,,,,,,,,,882.6097,888.9078,-0.177083333,-0.145833333,1.0,0.0,0.0,0.2832,compass,0.0,30.0,30.0,1.0,1.0,SoundStimuli/Smooth_SantanaRobThomas_Original5S.wav,,,,,,,,,,,,,,,,,,,,,,,,,,,,,,,,,,,,,,,,,,,,,,,,,,,,,
,,,,,476463,1,2024-07-12_17h32.57.532,experiment,2024.1.5,Win32,60.24096386,6691931c2c63981b064e1f0c,6691adf251430e598bc008ae,,,,,,,,,,,,,,,,,,,,,,,,,,,,,,,,,,,,,,,,,,,,,,,,,,,,,,,,,,,,888.9181,894.9477,-0.177083333,-0.143229167,1.0,0.0,0.0,0.0166,compass,0.0,31.0,31.0,17.0,1.0,SoundStimuli/IWannaDanceWithSomebody_WhitneyHouston_Original5S.wav,,,,,,,,,,,,,,,,,,,,,,,,,,,,,,,,,,,,,,,,,,,,,,,,,,,,,
,,,,,476463,1,2024-07-12_17h32.57.532,experiment,2024.1.5,Win32,60.24096386,6691931c2c63981b064e1f0c,6691adf251430e598bc008ae,,,,,,,,,,,,,,,,,,,,,,,,,,,,,,,,,,,,,,,,,,,,,,,,,,,,,,,,,,,,894.9561,900.9878,-0.177083333,-0.143229167,1.0,0.0,0.0,0.0166,compass,0.0,32.0,32.0,11.0,1.0,SoundStimuli/BlurredLines_RobinThicke_Cover5S.wav,,,,,,,,,,,,,,,,,,,,,,,,,,,,,,,,,,,,,,,,,,,,,,,,,,,,,
,,,,,476463,1,2024-07-12_17h32.57.532,experiment,2024.1.5,Win32,60.24096386,6691931c2c63981b064e1f0c,6691adf251430e598bc008ae,,,,,,,,,,,,,,,,,,,,,,,,,,,,,,,,,,,,,,,,,,,,,,,,,,,,,,,,,,,,900.9955,907.3605,0.161458333,-0.140625,1.0,0.0,0.0,0.3495,compass,0.0,33.0,33.0,4.0,1.0,SoundStimuli/Dreams_FleetwoodMac_Original5S.wav,,,,,,,,,,,,,,,,,,,,,,,,,,,,,,,,,,,,,,,,,,,,,,,,,,,,,
,,,,,476463,1,2024-07-12_17h32.57.532,experiment,2024.1.5,Win32,60.24096386,6691931c2c63981b064e1f0c,6691adf251430e598bc008ae,,,,,,,,,,,,,,,,,,,,,,,,,,,,,,,,,,,,,,,,,,,,,,,,,,,,,,,,,,,,907.3687,922.7016,-0.173177083,-0.138020833,1.0,0.0,0.0,9.3179,compass,0.0,34.0,34.0,22.0,1.0,SoundStimuli/Happy_PharellWilliams_Original5S.wav,,,,,,,,,,,,,,,,,,,,,,,,,,,,,,,,,,,,,,,,,,,,,,,,,,,,,
,,,,,476463,1,2024-07-12_17h32.57.532,experiment,2024.1.5,Win32,60.24096386,6691931c2c63981b064e1f0c,6691adf251430e598bc008ae,,,,,,,,,,,,,,,,,,,,,,,,,,,,,,,,,,,,,,,,,,,,,,,,,,,,,,,,,,,,,,,,,,,,,,,,,,,922.7016,937.9927,space,15.2794,,937.9928,947.094,right,9.0891,,0.0,1.0,1.0,1.0,1.0,block_order/blockD.xlsx,,,,,,,,,,,,,,,,,,,,,,,,,,,,,,,,,,,,,
,,,,,476463,1,2024-07-12_17h32.57.532,experiment,2024.1.5,Win32,60.24096386,6691931c2c63981b064e1f0c,6691adf251430e598bc008ae,,,,,,,,,,,,,,,,,,,,,,,,,,,,,,,,,,,,,,,,,,,,,,,,,,,,,,,,,,,,947.1076,957.427,-0.143229167,0.23046875,1.0,0.0,0.0,4.3096,compass,0.0,0.0,0.0,21.0,1.0,SoundStimuli/GoodGollyMissMolly_LittleRichard_Original5S.wav,,,,,,,,,,,,,,,,,,,,,,,,,,,,,,,,,,,,,,,,,,,,,,,,,,,,,
,,,,,476463,1,2024-07-12_17h32.57.532,experiment,2024.1.5,Win32,60.24096386,6691931c2c63981b064e1f0c,6691adf251430e598bc008ae,,,,,,,,,,,,,,,,,,,,,,,,,,,,,,,,,,,,,,,,,,,,,,,,,,,,,,,,,,,,957.436,966.1125,-0.088541667,0.217447917,1.0,0.0,0.0,2.6623,compass,0.0,1.0,1.0,20.0,1.0,SoundStimuli/HeyYa_Outkast_Original5S.wav,,,,,,,,,,,,,,,,,,,,,,,,,,,,,,,,,,,,,,,,,,,,,,,,,,,,,
,,,,,476463,1,2024-07-12_17h32.57.532,experiment,2024.1.5,Win32,60.24096386,6691931c2c63981b064e1f0c,6691adf251430e598bc008ae,,,,,,,,,,,,,,,,,,,,,,,,,,,,,,,,,,,,,,,,,,,,,,,,,,,,,,,,,,,,966.1209,972.4858,-0.161458333,0.1953125,1.0,0.0,0.0,0.35,compass,0.0,2.0,2.0,14.0,1.0,SoundStimuli/BlindingLights_TheWeeknd_Cover5S.wav,,,,,,,,,,,,,,,,,,,,,,,,,,,,,,,,,,,,,,,,,,,,,,,,,,,,,
,,,,,476463,1,2024-07-12_17h32.57.532,experiment,2024.1.5,Win32,60.24096386,6691931c2c63981b064e1f0c,6691adf251430e598bc008ae,,,,,,,,,,,,,,,,,,,,,,,,,,,,,,,,,,,,,,,,,,,,,,,,,,,,,,,,,,,,972.4969,979.6732,-0.161458333,0.1953125,1.0,0.0,0.0,1.1648,compass,0.0,3.0,3.0,17.0,1.0,SoundStimuli/Fallin_AliciaKeys_Cover5S.wav,,,,,,,,,,,,,,,,,,,,,,,,,,,,,,,,,,,,,,,,,,,,,,,,,,,,,
,,,,,476463,1,2024-07-12_17h32.57.532,experiment,2024.1.5,Win32,60.24096386,6691931c2c63981b064e1f0c,6691adf251430e598bc008ae,,,,,,,,,,,,,,,,,,,,,,,,,,,,,,,,,,,,,,,,,,,,,,,,,,,,,,,,,,,,979.6818,986.1456,0.161458333,-0.098958333,1.0,0.0,0.0,0.4495,compass,0.0,4.0,4.0,12.0,1.0,SoundStimuli/IWillAlwaysLoveYou_WhitneyHouston_Original5S.wav,,,,,,,,,,,,,,,,,,,,,,,,,,,,,,,,,,,,,,,,,,,,,,,,,,,,,
,,,,,476463,1,2024-07-12_17h32.57.532,experiment,2024.1.5,Win32,60.24096386,6691931c2c63981b064e1f0c,6691adf251430e598bc008ae,,,,,,,,,,,,,,,,,,,,,,,,,,,,,,,,,,,,,,,,,,,,,,,,,,,,,,,,,,,,986.1557,998.6084,-0.184895833,0.208333333,1.0,0.0,0.0,6.4394,compass,0.0,5.0,5.0,6.0,1.0,SoundStimuli/Levitating_DuaLipa_Original5S.wav,,,,,,,,,,,,,,,,,,,,,,,,,,,,,,,,,,,,,,,,,,,,,,,,,,,,,
,,,,,476463,1,2024-07-12_17h32.57.532,experiment,2024.1.5,Win32,60.24096386,6691931c2c63981b064e1f0c,6691adf251430e598bc008ae,,,,,,,,,,,,,,,,,,,,,,,,,,,,,,,,,,,,,,,,,,,,,,,,,,,,,,,,,,,,998.6169,1006.695,-0.178385417,0.212239583,1.0,0.0,0.0,2.0633,compass,0.0,6.0,6.0,29.0,1.0,SoundStimuli/OldTownRoad_LilNasX_Cover5S.wav,,,,,,,,,,,,,,,,,,,,,,,,,,,,,,,,,,,,,,,,,,,,,,,,,,,,,
,,,,,476463,1,2024-07-12_17h32.57.532,experiment,2024.1.5,Win32,60.24096386,6691931c2c63981b064e1f0c,6691adf251430e598bc008ae,,,,,,,,,,,,,,,,,,,,,,,,,,,,,,,,,,,,,,,,,,,,,,,,,,,,,,,,,,,,1006.7036,1012.7514,-0.182291667,0.212239583,1.0,0.0,0.0,0.0334,compass,0.0,7.0,7.0,23.0,1.0,SoundStimuli/StrawberryFieldsForever_TheBeatles_Cover5S.wav,,,,,,,,,,,,,,,,,,,,,,,,,,,,,,,,,,,,,,,,,,,,,,,,,,,,,
,,,,,476463,1,2024-07-12_17h32.57.532,experiment,2024.1.5,Win32,60.24096386,6691931c2c63981b064e1f0c,6691adf251430e598bc008ae,,,,,,,,,,,,,,,,,,,,,,,,,,,,,,,,,,,,,,,,,,,,,,,,,,,,,,,,,,,,1012.7595,1019.3904,-0.182291667,0.212239583,1.0,0.0,0.0,0.616,compass,0.0,8.0,8.0,9.0,1.0,SoundStimuli/Despacito_LuisFonsiDaddyYankee_Original5S.wav,,,,,,,,,,,,,,,,,,,,,,,,,,,,,,,,,,,,,,,,,,,,,,,,,,,,,
,,,,,476463,1,2024-07-12_17h32.57.532,experiment,2024.1.5,Win32,60.24096386,6691931c2c63981b064e1f0c,6691adf251430e598bc008ae,,,,,,,,,,,,,,,,,,,,,,,,,,,,,,,,,,,,,,,,,,,,,,,,,,,,,,,,,,,,1019.3985,1025.8129,-0.171875,0.212239583,1.0,0.0,0.0,0.3993,compass,0.0,9.0,9.0,15.0,1.0,SoundStimuli/TikTok_Kesha_Original5S.wav,,,,,,,,,,,,,,,,,,,,,,,,,,,,,,,,,,,,,,,,,,,,,,,,,,,,,
,,,,,476463,1,2024-07-12_17h32.57.532,experiment,2024.1.5,Win32,60.24096386,6691931c2c63981b064e1f0c,6691adf251430e598bc008ae,,,,,,,,,,,,,,,,,,,,,,,,,,,,,,,,,,,,,,,,,,,,,,,,,,,,,,,,,,,,1025.8212,1033.2007,-0.171875,0.212239583,1.0,0.0,0.0,1.3647,compass,0.0,10.0,10.0,1.0,1.0,SoundStimuli/Stronger_KanyeWest_Cover5S.wav,,,,,,,,,,,,,,,,,,,,,,,,,,,,,,,,,,,,,,,,,,,,,,,,,,,,,
,,,,,476463,1,2024-07-12_17h32.57.532,experiment,2024.1.5,Win32,60.24096386,6691931c2c63981b064e1f0c,6691adf251430e598bc008ae,,,,,,,,,,,,,,,,,,,,,,,,,,,,,,,,,,,,,,,,,,,,,,,,,,,,,,,,,,,,1033.212,1040.3055,0.178385417,0.209635417,1.0,0.0,0.0,1.0814,compass,0.0,11.0,11.0,26.0,1.0,SoundStimuli/LivinOnAPrayer_BonJovi_Original5S.wav,,,,,,,,,,,,,,,,,,,,,,,,,,,,,,,,,,,,,,,,,,,,,,,,,,,,,
,,,,,476463,1,2024-07-12_17h32.57.532,experiment,2024.1.5,Win32,60.24096386,6691931c2c63981b064e1f0c,6691adf251430e598bc008ae,,,,,,,,,,,,,,,,,,,,,,,,,,,,,,,,,,,,,,,,,,,,,,,,,,,,,,,,,,,,1040.3163,1046.4951,0.203125,-0.138020833,1.0,0.0,0.0,0.1661,compass,0.0,12.0,12.0,13.0,1.0,SoundStimuli/GodOnlyKnows_TheBeachBoys_Original5S.wav,,,,,,,,,,,,,,,,,,,,,,,,,,,,,,,,,,,,,,,,,,,,,,,,,,,,,
,,,,,476463,1,2024-07-12_17h32.57.532,experiment,2024.1.5,Win32,60.24096386,6691931c2c63981b064e1f0c,6691adf251430e598bc008ae,,,,,,,,,,,,,,,,,,,,,,,,,,,,,,,,,,,,,,,,,,,,,,,,,,,,,,,,,,,,1046.5058,1053.1175,0.180989583,0.12109375,1.0,0.0,0.0,0.5987,compass,0.0,13.0,13.0,32.0,1.0,SoundStimuli/HeatWaves_GlassAnimals_Cover5S.wav,,,,,,,,,,,,,,,,,,,,,,,,,,,,,,,,,,,,,,,,,,,,,,,,,,,,,
,,,,,476463,1,2024-07-12_17h32.57.532,experiment,2024.1.5,Win32,60.24096386,6691931c2c63981b064e1f0c,6691adf251430e598bc008ae,,,,,,,,,,,,,,,,,,,,,,,,,,,,,,,,,,,,,,,,,,,,,,,,,,,,,,,,,,,,1053.1274,1061.3371,-0.111979167,0.25,1.0,0.0,0.0,2.1966,compass,0.0,14.0,14.0,3.0,1.0,SoundStimuli/NoScrubs_TLC_Cover5S.wav,,,,,,,,,,,,,,,,,,,,,,,,,,,,,,,,,,,,,,,,,,,,,,,,,,,,,
,,,,,476463,1,2024-07-12_17h32.57.532,experiment,2024.1.5,Win32,60.24096386,6691931c2c63981b064e1f0c,6691adf251430e598bc008ae,,,,,,,,,,,,,,,,,,,,,,,,,,,,,,,,,,,,,,,,,,,,,,,,,,,,,,,,,,,,1061.3458,1068.6914,-0.1640625,0.23828125,1.0,0.0,0.0,1.3312,compass,0.0,15.0,15.0,11.0,1.0,SoundStimuli/Superstition_StevieWonder_Original5S.wav,,,,,,,,,,,,,,,,,,,,,,,,,,,,,,,,,,,,,,,,,,,,,,,,,,,,,
,,,,,476463,1,2024-07-12_17h32.57.532,experiment,2024.1.5,Win32,60.24096386,6691931c2c63981b064e1f0c,6691adf251430e598bc008ae,,,,,,,,,,,,,,,,,,,,,,,,,,,,,,,,,,,,,,,,,,,,,,,,,,,,,,,,,,,,1068.6997,1077.3771,-0.141927083,0.239583333,1.0,0.0,0.0,2.6624,compass,0.0,16.0,16.0,16.0,1.0,SoundStimuli/BohemianRhapsody_Queen_Cover5S.wav,,,,,,,,,,,,,,,,,,,,,,,,,,,,,,,,,,,,,,,,,,,,,,,,,,,,,
,,,,,476463,1,2024-07-12_17h32.57.532,experiment,2024.1.5,Win32,60.24096386,6691931c2c63981b064e1f0c,6691adf251430e598bc008ae,,,,,,,,,,,,,,,,,,,,,,,,,,,,,,,,,,,,,,,,,,,,,,,,,,,,,,,,,,,,1077.3854,1083.7164,-0.087239583,0.2109375,1.0,0.0,0.0,0.3163,compass,0.0,17.0,17.0,19.0,1.0,SoundStimuli/LetsGetItOn_MarvinGaye_Original5S.wav,,,,,,,,,,,,,,,,,,,,,,,,,,,,,,,,,,,,,,,,,,,,,,,,,,,,,
,,,,,476463,1,2024-07-12_17h32.57.532,experiment,2024.1.5,Win32,60.24096386,6691931c2c63981b064e1f0c,6691adf251430e598bc008ae,,,,,,,,,,,,,,,,,,,,,,,,,,,,,,,,,,,,,,,,,,,,,,,,,,,,,,,,,,,,1083.7248,1090.7384,-0.127604167,0.229166667,1.0,0.0,0.0,0.9982,compass,0.0,18.0,18.0,4.0,1.0,SoundStimuli/GetUrFreakOn_MissyElliot_Cover5S.wav,,,,,,,,,,,,,,,,,,,,,,,,,,,,,,,,,,,,,,,,,,,,,,,,,,,,,
,,,,,476463,1,2024-07-12_17h32.57.532,experiment,2024.1.5,Win32,60.24096386,6691931c2c63981b064e1f0c,6691adf251430e598bc008ae,,,,,,,,,,,,,,,,,,,,,,,,,,,,,,,,,,,,,,,,,,,,,,,,,,,,,,,,,,,,1090.7468,1098.4751,-0.20703125,-0.139322917,1.0,0.0,0.0,1.7138,compass,0.0,19.0,19.0,34.0,1.0,SoundStimuli/AChangeIsGonnaCome_SamCooke_Original5S.wav,,,,,,,,,,,,,,,,,,,,,,,,,,,,,,,,,,,,,,,,,,,,,,,,,,,,,
,,,,,476463,1,2024-07-12_17h32.57.532,experiment,2024.1.5,Win32,60.24096386,6691931c2c63981b064e1f0c,6691adf251430e598bc008ae,,,,,,,,,,,,,,,,,,,,,,,,,,,,,,,,,,,,,,,,,,,,,,,,,,,,,,,,,,,,1098.4832,1104.7814,-0.20703125,-0.139322917,1.0,0.0,0.0,0.283,compass,0.0,20.0,20.0,7.0,1.0,SoundStimuli/NoOne_AliciaKeys_Original5S.wav,,,,,,,,,,,,,,,,,,,,,,,,,,,,,,,,,,,,,,,,,,,,,,,,,,,,,
,,,,,476463,1,2024-07-12_17h32.57.532,experiment,2024.1.5,Win32,60.24096386,6691931c2c63981b064e1f0c,6691adf251430e598bc008ae,,,,,,,,,,,,,,,,,,,,,,,,,,,,,,,,,,,,,,,,,,,,,,,,,,,,,,,,,,,,1104.7899,1111.2207,-0.115885417,-0.145833333,1.0,0.0,0.0,0.416,compass,0.0,21.0,21.0,27.0,1.0,SoundStimuli/ShapeofYou_EdSheeran_Cover5S.wav,,,,,,,,,,,,,,,,,,,,,,,,,,,,,,,,,,,,,,,,,,,,,,,,,,,,,
,,,,,476463,1,2024-07-12_17h32.57.532,experiment,2024.1.5,Win32,60.24096386,6691931c2c63981b064e1f0c,6691adf251430e598bc008ae,,,,,,,,,,,,,,,,,,,,,,,,,,,,,,,,,,,,,,,,,,,,,,,,,,,,,,,,,,,,1111.2288,1119.0246,-0.20703125,0.157552083,1.0,0.0,0.0,1.7808,compass,0.0,22.0,22.0,8.0,1.0,SoundStimuli/LikeAPrayer_Madonna_Cover5S.wav,,,,,,,,,,,,,,,,,,,,,,,,,,,,,,,,,,,,,,,,,,,,,,,,,,,,,
,,,,,476463,1,2024-07-12_17h32.57.532,experiment,2024.1.5,Win32,60.24096386,6691931c2c63981b064e1f0c,6691adf251430e598bc008ae,,,,,,,,,,,,,,,,,,,,,,,,,,,,,,,,,,,,,,,,,,,,,,,,,,,,,,,,,,,,1119.0336,1125.1477,-0.201822917,0.166666667,1.0,0.0,0.0,0.1,compass,0.0,23.0,23.0,28.0,1.0,SoundStimuli/ComeAndGetYourLove_Redbone_Cover5S.wav,,,,,,,,,,,,,,,,,,,,,,,,,,,,,,,,,,,,,,,,,,,,,,,,,,,,,
,,,,,476463,1,2024-07-12_17h32.57.532,experiment,2024.1.5,Win32,60.24096386,6691931c2c63981b064e1f0c,6691adf251430e598bc008ae,,,,,,,,,,,,,,,,,,,,,,,,,,,,,,,,,,,,,,,,,,,,,,,,,,,,,,,,,,,,1125.1559,1135.2307,-0.201822917,0.166666667,1.0,0.0,0.0,4.06,compass,0.0,24.0,24.0,10.0,1.0,SoundStimuli/BadDay_DanielPowter_Original5S.wav,,,,,,,,,,,,,,,,,,,,,,,,,,,,,,,,,,,,,,,,,,,,,,,,,,,,,
,,,,,476463,1,2024-07-12_17h32.57.532,experiment,2024.1.5,Win32,60.24096386,6691931c2c63981b064e1f0c,6691adf251430e598bc008ae,,,,,,,,,,,,,,,,,,,,,,,,,,,,,,,,,,,,,,,,,,,,,,,,,,,,,,,,,,,,1135.2387,1145.9293,-0.201822917,0.166666667,1.0,0.0,0.0,4.6754,compass,0.0,25.0,25.0,18.0,1.0,SoundStimuli/AnotherOneBitesTheDust_Queen_Cover5S.wav,,,,,,,,,,,,,,,,,,,,,,,,,,,,,,,,,,,,,,,,,,,,,,,,,,,,,
,,,,,476463,1,2024-07-12_17h32.57.532,experiment,2024.1.5,Win32,60.24096386,6691931c2c63981b064e1f0c,6691adf251430e598bc008ae,,,,,,,,,,,,,,,,,,,,,,,,,,,,,,,,,,,,,,,,,,,,,,,,,,,,,,,,,,,,1145.9377,1152.2356,-0.151041667,0.192708333,1.0,0.0,0.0,0.2828,compass,0.0,26.0,26.0,22.0,1.0,SoundStimuli/RockWithYou_MichaelJackson_Cover5S.wav,,,,,,,,,,,,,,,,,,,,,,,,,,,,,,,,,,,,,,,,,,,,,,,,,,,,,
,,,,,476463,1,2024-07-12_17h32.57.532,experiment,2024.1.5,Win32,60.24096386,6691931c2c63981b064e1f0c,6691adf251430e598bc008ae,,,,,,,,,,,,,,,,,,,,,,,,,,,,,,,,,,,,,,,,,,,,,,,,,,,,,,,,,,,,1152.2434,1158.4586,-0.169270833,0.178385417,1.0,0.0,0.0,0.1997,compass,0.0,27.0,27.0,2.0,1.0,SoundStimuli/Mood_24kGoldnianndior_Original5S.wav,,,,,,,,,,,,,,,,,,,,,,,,,,,,,,,,,,,,,,,,,,,,,,,,,,,,,
,,,,,476463,1,2024-07-12_17h32.57.532,experiment,2024.1.5,Win32,60.24096386,6691931c2c63981b064e1f0c,6691adf251430e598bc008ae,,,,,,,,,,,,,,,,,,,,,,,,,,,,,,,,,,,,,,,,,,,,,,,,,,,,,,,,,,,,1158.4664,1165.0642,-0.1640625,0.205729167,1.0,0.0,0.0,0.5825,compass,0.0,28.0,28.0,0.0,1.0,SoundStimuli/StayinAlive_BeeGees_Cover5S.wav,,,,,,,,,,,,,,,,,,,,,,,,,,,,,,,,,,,,,,,,,,,,,,,,,,,,,
,,,,,476463,1,2024-07-12_17h32.57.532,experiment,2024.1.5,Win32,60.24096386,6691931c2c63981b064e1f0c,6691adf251430e598bc008ae,,,,,,,,,,,,,,,,,,,,,,,,,,,,,,,,,,,,,,,,,,,,,,,,,,,,,,,,,,,,1165.072,1171.7699,-0.166666667,0.200520833,1.0,0.0,0.0,0.6823,compass,0.0,29.0,29.0,31.0,1.0,SoundStimuli/TheBattleOfNewOrleans_JohnnyHorton_Original5S.wav,,,,,,,,,,,,,,,,,,,,,,,,,,,,,,,,,,,,,,,,,,,,,,,,,,,,,
,,,,,476463,1,2024-07-12_17h32.57.532,experiment,2024.1.5,Win32,60.24096386,6691931c2c63981b064e1f0c,6691adf251430e598bc008ae,,,,,,,,,,,,,,,,,,,,,,,,,,,,,,,,,,,,,,,,,,,,,,,,,,,,,,,,,,,,1171.7785,1178.0259,-0.166666667,0.200520833,1.0,0.0,0.0,0.2331,compass,0.0,30.0,30.0,30.0,1.0,SoundStimuli/PokerFace_LadyGaga_Cover5S.wav,,,,,,,,,,,,,,,,,,,,,,,,,,,,,,,,,,,,,,,,,,,,,,,,,,,,,
,,,,,476463,1,2024-07-12_17h32.57.532,experiment,2024.1.5,Win32,60.24096386,6691931c2c63981b064e1f0c,6691adf251430e598bc008ae,,,,,,,,,,,,,,,,,,,,,,,,,,,,,,,,,,,,,,,,,,,,,,,,,,,,,,,,,,,,1178.036,1184.6981,-0.166666667,0.200520833,1.0,0.0,0.0,0.6489,compass,0.0,31.0,31.0,24.0,1.0,SoundStimuli/UptownFunk_MarkRonson_Cover5S.wav,,,,,,,,,,,,,,,,,,,,,,,,,,,,,,,,,,,,,,,,,,,,,,,,,,,,,
,,,,,476463,1,2024-07-12_17h32.57.532,experiment,2024.1.5,Win32,60.24096386,6691931c2c63981b064e1f0c,6691adf251430e598bc008ae,,,,,,,,,,,,,,,,,,,,,,,,,,,,,,,,,,,,,,,,,,,,,,,,,,,,,,,,,,,,1184.7072,1192.0361,-0.170572917,0.1953125,1.0,0.0,0.0,1.3148,compass,0.0,32.0,32.0,25.0,1.0,SoundStimuli/Respect_ArethaFranklin_Cover5S.wav,,,,,,,,,,,,,,,,,,,,,,,,,,,,,,,,,,,,,,,,,,,,,,,,,,,,,
,,,,,476463,1,2024-07-12_17h32.57.532,experiment,2024.1.5,Win32,60.24096386,6691931c2c63981b064e1f0c,6691adf251430e598bc008ae,,,,,,,,,,,,,,,,,,,,,,,,,,,,,,,,,,,,,,,,,,,,,,,,,,,,,,,,,,,,1192.0442,1199.5069,-0.170572917,0.1953125,1.0,0.0,0.0,1.4479,compass,0.0,33.0,33.0,5.0,1.0,SoundStimuli/MyGirl_TheTemptations_Cover5S.wav,,,,,,,,,,,,,,,,,,,,,,,,,,,,,,,,,,,,,,,,,,,,,,,,,,,,,
,,,,,476463,1,2024-07-12_17h32.57.532,experiment,2024.1.5,Win32,60.24096386,6691931c2c63981b064e1f0c,6691adf251430e598bc008ae,,,,,,,,,,,,,,,,,,,,,,,,,,,,,,,,,,,,,,,,,,,,,,,,,,,,,,,,,,,,1199.5149,1209.4739,-0.14453125,0.227864583,1.0,0.0,0.0,3.9439,compass,0.0,34.0,34.0,33.0,1.0,SoundStimuli/StandByMe_BenEKing_Original5S.wav,,,,,,,,,,,,,,,,,,,,,,,,,,,,,,,,,,,,,,,,,,,,,,,,,,,,,
,,,,,476463,1,2024-07-12_17h32.57.532,experiment,2024.1.5,Win32,60.24096386,6691931c2c63981b064e1f0c,6691adf251430e598bc008ae,,,,,,,,,,,,,,,,,,,,,,,,,,,,,,,,,,,,,,,,,,,,,,,,,,,,,,,,,,,,,,,,,,,,,,,,,,,1209.474,1226.0792,space,16.5885,,1226.0793,1230.0727,right,3.9765,,0.0,2.0,2.0,2.0,1.0,block_order/blockC.xlsx,,,,,,,,,,,,,,,,,,,,,,,,,,,,,,,,,,,,,
,,,,,476463,1,2024-07-12_17h32.57.532,experiment,2024.1.5,Win32,60.24096386,6691931c2c63981b064e1f0c,6691adf251430e598bc008ae,,,,,,,,,,,,,,,,,,,,,,,,,,,,,,,,,,,,,,,,,,,,,,,,,,,,,,,,,,,,1230.089,1239.8895,-0.171875,0.225260417,1.0,0.0,0.0,3.7936,compass,0.0,0.0,0.0,5.0,1.0,SoundStimuli/JoyToTheWorld_ThreeDogNight_Cover5S.wav,,,,,,,,,,,,,,,,,,,,,,,,,,,,,,,,,,,,,,,,,,,,,,,,,,,,,
,,,,,476463,1,2024-07-12_17h32.57.532,experiment,2024.1.5,Win32,60.24096386,6691931c2c63981b064e1f0c,6691adf251430e598bc008ae,,,,,,,,,,,,,,,,,,,,,,,,,,,,,,,,,,,,,,,,,,,,,,,,,,,,,,,,,,,,1239.898,1246.1625,-0.158854167,0.208333333,1.0,0.0,0.0,0.2498,compass,0.0,1.0,1.0,3.0,1.0,SoundStimuli/PartyRockAnthem_LMFAO_Cover5S.wav,,,,,,,,,,,,,,,,,,,,,,,,,,,,,,,,,,,,,,,,,,,,,,,,,,,,,
,,,,,476463,1,2024-07-12_17h32.57.532,experiment,2024.1.5,Win32,60.24096386,6691931c2c63981b064e1f0c,6691adf251430e598bc008ae,,,,,,,,,,,,,,,,,,,,,,,,,,,,,,,,,,,,,,,,,,,,,,,,,,,,,,,,,,,,1246.1708,1252.787,-0.158854167,0.208333333,1.0,0.0,0.0,0.6158,compass,0.0,2.0,2.0,34.0,1.0,SoundStimuli/Irreplaceable_Beyonce_Original5S.wav,,,,,,,,,,,,,,,,,,,,,,,,,,,,,,,,,,,,,,,,,,,,,,,,,,,,,
,,,,,476463,1,2024-07-12_17h32.57.532,experiment,2024.1.5,Win32,60.24096386,6691931c2c63981b064e1f0c,6691adf251430e598bc008ae,,,,,,,,,,,,,,,,,,,,,,,,,,,,,,,,,,,,,,,,,,,,,,,,,,,,,,,,,,,,1252.7946,1259.075,-0.158854167,0.208333333,1.0,0.0,0.0,0.2651,compass,0.0,3.0,3.0,25.0,1.0,SoundStimuli/IllMakeLoveToYou_BoyzIIMen_Original5S.wav,,,,,,,,,,,,,,,,,,,,,,,,,,,,,,,,,,,,,,,,,,,,,,,,,,,,,
,,,,,476463,1,2024-07-12_17h32.57.532,experiment,2024.1.5,Win32,60.24096386,6691931c2c63981b064e1f0c,6691adf251430e598bc008ae,,,,,,,,,,,,,,,,,,,,,,,,,,,,,,,,,,,,,,,,,,,,,,,,,,,,,,,,,,,,1259.0825,1265.5163,0.15234375,-0.16796875,1.0,0.0,0.0,0.4332,compass,0.0,4.0,4.0,19.0,1.0,SoundStimuli/YouLightUpMyLife_DebbyBoone_Cover5S.wav,,,,,,,,,,,,,,,,,,,,,,,,,,,,,,,,,,,,,,,,,,,,,,,,,,,,,
,,,,,476463,1,2024-07-12_17h32.57.532,experiment,2024.1.5,Win32,60.24096386,6691931c2c63981b064e1f0c,6691adf251430e598bc008ae,,,,,,,,,,,,,,,,,,,,,,,,,,,,,,,,,,,,,,,,,,,,,,,,,,,,,,,,,,,,1265.5238,1272.3549,-0.161458333,-0.109375,1.0,0.0,0.0,0.8174,compass,0.0,5.0,5.0,31.0,1.0,SoundStimuli/TossinAndTurnin_BobbyLewis_Cover5S.wav,,,,,,,,,,,,,,,,,,,,,,,,,,,,,,,,,,,,,,,,,,,,,,,,,,,,,
,,,,,476463,1,2024-07-12_17h32.57.532,experiment,2024.1.5,Win32,60.24096386,6691931c2c63981b064e1f0c,6691adf251430e598bc008ae,,,,,,,,,,,,,,,,,,,,,,,,,,,,,,,,,,,,,,,,,,,,,,,,,,,,,,,,,,,,1272.3629,1280.9552,-0.19921875,-0.096354167,1.0,0.0,0.0,2.579,compass,0.0,6.0,6.0,26.0,1.0,SoundStimuli/TheSign_AceOfBase_Original5S.wav,,,,,,,,,,,,,,,,,,,,,,,,,,,,,,,,,,,,,,,,,,,,,,,,,,,,,
,,,,,476463,1,2024-07-12_17h32.57.532,experiment,2024.1.5,Win32,60.24096386,6691931c2c63981b064e1f0c,6691adf251430e598bc008ae,,,,,,,,,,,,,,,,,,,,,,,,,,,,,,,,,,,,,,,,,,,,,,,,,,,,,,,,,,,,1280.9628,1287.3778,-0.186197917,-0.12890625,1.0,0.0,0.0,0.4147,compass,0.0,7.0,7.0,14.0,1.0,SoundStimuli/LikeARollingStone_BobDylan_Cover5S.wav,,,,,,,,,,,,,,,,,,,,,,,,,,,,,,,,,,,,,,,,,,,,,,,,,,,,,
,,,,,476463,1,2024-07-12_17h32.57.532,experiment,2024.1.5,Win32,60.24096386,6691931c2c63981b064e1f0c,6691adf251430e598bc008ae,,,,,,,,,,,,,,,,,,,,,,,,,,,,,,,,,,,,,,,,,,,,,,,,,,,,,,,,,,,,1287.3882,1293.7672,-0.188802083,-0.115885417,1.0,0.0,0.0,0.3646,compass,0.0,8.0,8.0,23.0,1.0,SoundStimuli/IWalkTheLine_JohnnyCash_Cover5S.wav,,,,,,,,,,,,,,,,,,,,,,,,,,,,,,,,,,,,,,,,,,,,,,,,,,,,,
,,,,,476463,1,2024-07-12_17h32.57.532,experiment,2024.1.5,Win32,60.24096386,6691931c2c63981b064e1f0c,6691adf251430e598bc008ae,,,,,,,,,,,,,,,,,,,,,,,,,,,,,,,,,,,,,,,,,,,,,,,,,,,,,,,,,,,,1293.7748,1300.7056,-0.188802083,-0.115885417,1.0,0.0,0.0,0.9153,compass,0.0,9.0,9.0,32.0,1.0,SoundStimuli/Dilemma_NellyKellyRowland_Original5S.wav,,,,,,,,,,,,,,,,,,,,,,,,,,,,,,,,,,,,,,,,,,,,,,,,,,,,,
,,,,,476463,1,2024-07-12_17h32.57.532,experiment,2024.1.5,Win32,60.24096386,6691931c2c63981b064e1f0c,6691adf251430e598bc008ae,,,,,,,,,,,,,,,,,,,,,,,,,,,,,,,,,,,,,,,,,,,,,,,,,,,,,,,,,,,,1300.7133,1307.794,-0.178385417,-0.139322917,1.0,0.0,0.0,1.0803,compass,0.0,10.0,10.0,7.0,1.0,SoundStimuli/MackTheKnife_BobbyDarin_Original5S.wav,,,,,,,,,,,,,,,,,,,,,,,,,,,,,,,,,,,,,,,,,,,,,,,,,,,,,
,,,,,476463,1,2024-07-12_17h32.57.532,experiment,2024.1.5,Win32,60.24096386,6691931c2c63981b064e1f0c,6691adf251430e598bc008ae,,,,,,,,,,,,,,,,,,,,,,,,,,,,,,,,,,,,,,,,,,,,,,,,,,,,,,,,,,,,1307.8013,1314.416,-0.19921875,-0.16015625,1.0,0.0,0.0,0.6143,compass,0.0,11.0,11.0,33.0,1.0,SoundStimuli/TheBoyIsMine_BrandyMonica_Cover5S.wav,,,,,,,,,,,,,,,,,,,,,,,,,,,,,,,,,,,,,,,,,,,,,,,,,,,,,
,,,,,476463,1,2024-07-12_17h32.57.532,experiment,2024.1.5,Win32,60.24096386,6691931c2c63981b064e1f0c,6691adf251430e598bc008ae,,,,,,,,,,,,,,,,,,,,,,,,,,,,,,,,,,,,,,,,,,,,,,,,,,,,,,,,,,,,1314.4234,1322.4874,-0.200520833,-0.157552083,1.0,0.0,0.0,2.0634,compass,0.0,12.0,12.0,15.0,1.0,SoundStimuli/CrazyInLove_BeyonceFtJayZ_Original5S.wav,,,,,,,,,,,,,,,,,,,,,,,,,,,,,,,,,,,,,,,,,,,,,,,,,,,,,
,,,,,476463,1,2024-07-12_17h32.57.532,experiment,2024.1.5,Win32,60.24096386,6691931c2c63981b064e1f0c,6691adf251430e598bc008ae,,,,,,,,,,,,,,,,,,,,,,,,,,,,,,,,,,,,,,,,,,,,,,,,,,,,,,,,,,,,1322.4951,1331.7539,-0.178385417,-0.114583333,1.0,0.0,0.0,3.2433,compass,0.0,13.0,13.0,22.0,1.0,SoundStimuli/Happy_PharellWilliams_Cover5S.wav,,,,,,,,,,,,,,,,,,,,,,,,,,,,,,,,,,,,,,,,,,,,,,,,,,,,,
,,,,,476463,1,2024-07-12_17h32.57.532,experiment,2024.1.5,Win32,60.24096386,6691931c2c63981b064e1f0c,6691adf251430e598bc008ae,,,,,,,,,,,,,,,,,,,,,,,,,,,,,,,,,,,,,,,,,,,,,,,,,,,,,,,,,,,,1331.7617,1347.0784,0.1796875,-0.174479167,1.0,0.0,0.0,9.3,compass,0.0,14.0,14.0,8.0,1.0,SoundStimuli/EndlessLove_DianaRossLionelRichie_Original5S.wav,,,,,,,,,,,,,,,,,,,,,,,,,,,,,,,,,,,,,,,,,,,,,,,,,,,,,
,,,,,476463,1,2024-07-12_17h32.57.532,experiment,2024.1.5,Win32,60.24096386,6691931c2c63981b064e1f0c,6691adf251430e598bc008ae,,,,,,,,,,,,,,,,,,,,,,,,,,,,,,,,,,,,,,,,,,,,,,,,,,,,,,,,,,,,1347.0861,1366.4461,0.365885417,-0.147135417,1.0,0.0,0.0,12.7122,compass,0.0,15.0,15.0,17.0,1.0,SoundStimuli/IWannaDanceWithSomebody_WhitneyHouston_Cover5S.wav,,,,,,,,,,,,,,,,,,,,,,,,,,,,,,,,,,,,,,,,,,,,,,,,,,,,,
,,,,,476463,1,2024-07-12_17h32.57.532,experiment,2024.1.5,Win32,60.24096386,6691931c2c63981b064e1f0c,6691adf251430e598bc008ae,,,,,,,,,,,,,,,,,,,,,,,,,,,,,,,,,,,,,,,,,,,,,,,,,,,,,,,,,,,,1366.4537,1373.4348,0.209635417,0.158854167,1.0,0.0,0.0,0.9806,compass,0.0,16.0,16.0,27.0,1.0,SoundStimuli/EyeOfTheTiger_Survivor_Original5S.wav,,,,,,,,,,,,,,,,,,,,,,,,,,,,,,,,,,,,,,,,,,,,,,,,,,,,,
,,,,,476463,1,2024-07-12_17h32.57.532,experiment,2024.1.5,Win32,60.24096386,6691931c2c63981b064e1f0c,6691adf251430e598bc008ae,,,,,,,,,,,,,,,,,,,,,,,,,,,,,,,,,,,,,,,,,,,,,,,,,,,,,,,,,,,,1373.4422,1379.5089,0.15234375,-0.157552083,1.0,0.0,0.0,0.0664,compass,0.0,17.0,17.0,16.0,1.0,SoundStimuli/ItsAllInTheGame_TommyEdwards_Original5S.wav,,,,,,,,,,,,,,,,,,,,,,,,,,,,,,,,,,,,,,,,,,,,,,,,,,,,,
,,,,,476463,1,2024-07-12_17h32.57.532,experiment,2024.1.5,Win32,60.24096386,6691931c2c63981b064e1f0c,6691adf251430e598bc008ae,,,,,,,,,,,,,,,,,,,,,,,,,,,,,,,,,,,,,,,,,,,,,,,,,,,,,,,,,,,,1379.5163,1386.6624,0.153645833,0.196614583,1.0,0.0,0.0,1.1302,compass,0.0,18.0,18.0,30.0,1.0,SoundStimuli/SomebodyThatIUsedtoKnow_Gotye_Cover5S.wav,,,,,,,,,,,,,,,,,,,,,,,,,,,,,,,,,,,,,,,,,,,,,,,,,,,,,
,,,,,476463,1,2024-07-12_17h32.57.532,experiment,2024.1.5,Win32,60.24096386,6691931c2c63981b064e1f0c,6691adf251430e598bc008ae,,,,,,,,,,,,,,,,,,,,,,,,,,,,,,,,,,,,,,,,,,,,,,,,,,,,,,,,,,,,1386.67,1393.4178,0.204427083,0.173177083,1.0,0.0,0.0,0.7311,compass,0.0,19.0,19.0,1.0,1.0,SoundStimuli/Smooth_SantanaRobThomas_Cover5S.wav,,,,,,,,,,,,,,,,,,,,,,,,,,,,,,,,,,,,,,,,,,,,,,,,,,,,,
,,,,,476463,1,2024-07-12_17h32.57.532,experiment,2024.1.5,Win32,60.24096386,6691931c2c63981b064e1f0c,6691adf251430e598bc008ae,,,,,,,,,,,,,,,,,,,,,,,,,,,,,,,,,,,,,,,,,,,,,,,,,,,,,,,,,,,,1393.4274,1400.94,0.204427083,0.171875,1.0,0.0,0.0,1.4991,compass,0.0,20.0,20.0,9.0,1.0,SoundStimuli/HowDoILive_LeAnnRimes_Original5S.wav,,,,,,,,,,,,,,,,,,,,,,,,,,,,,,,,,,,,,,,,,,,,,,,,,,,,,
,,,,,476463,1,2024-07-12_17h32.57.532,experiment,2024.1.5,Win32,60.24096386,6691931c2c63981b064e1f0c,6691adf251430e598bc008ae,,,,,,,,,,,,,,,,,,,,,,,,,,,,,,,,,,,,,,,,,,,,,,,,,,,,,,,,,,,,1400.9478,1410.1582,0.140625,0.169270833,1.0,0.0,0.0,3.1964,compass,0.0,21.0,21.0,11.0,1.0,SoundStimuli/BlurredLines_RobinThicke_Original5S.wav,,,,,,,,,,,,,,,,,,,,,,,,,,,,,,,,,,,,,,,,,,,,,,,,,,,,,
,,,,,476463,1,2024-07-12_17h32.57.532,experiment,2024.1.5,Win32,60.24096386,6691931c2c63981b064e1f0c,6691adf251430e598bc008ae,,,,,,,,,,,,,,,,,,,,,,,,,,,,,,,,,,,,,,,,,,,,,,,,,,,,,,,,,,,,1410.1659,1417.8938,0.071614583,0.134114583,1.0,0.0,0.0,1.7126,compass,0.0,22.0,22.0,6.0,1.0,SoundStimuli/SaveYourTears_TheWeekndArianaGrande_Original5S.wav,,,,,,,,,,,,,,,,,,,,,,,,,,,,,,,,,,,,,,,,,,,,,,,,,,,,,
,,,,,476463,1,2024-07-12_17h32.57.532,experiment,2024.1.5,Win32,60.24096386,6691931c2c63981b064e1f0c,6691adf251430e598bc008ae,,,,,,,,,,,,,,,,,,,,,,,,,,,,,,,,,,,,,,,,,,,,,,,,,,,,,,,,,,,,1417.9017,1424.9317,0.153645833,0.186197917,1.0,0.0,0.0,1.0136,compass,0.0,23.0,23.0,4.0,1.0,SoundStimuli/Dreams_FleetwoodMac_Cover5S.wav,,,,,,,,,,,,,,,,,,,,,,,,,,,,,,,,,,,,,,,,,,,,,,,,,,,,,
,,,,,476463,1,2024-07-12_17h32.57.532,experiment,2024.1.5,Win32,60.24096386,6691931c2c63981b064e1f0c,6691adf251430e598bc008ae,,,,,,,,,,,,,,,,,,,,,,,,,,,,,,,,,,,,,,,,,,,,,,,,,,,,,,,,,,,,1424.9421,1433.9168,0.147135417,0.1875,1.0,0.0,0.0,2.9601,compass,0.0,24.0,24.0,12.0,1.0,SoundStimuli/UnbreakMyHeart_ToniBraxton_Cover5S.wav,,,,,,,,,,,,,,,,,,,,,,,,,,,,,,,,,,,,,,,,,,,,,,,,,,,,,
,,,,,476463,1,2024-07-12_17h32.57.532,experiment,2024.1.5,Win32,60.24096386,6691931c2c63981b064e1f0c,6691adf251430e598bc008ae,,,,,,,,,,,,,,,,,,,,,,,,,,,,,,,,,,,,,,,,,,,,,,,,,,,,,,,,,,,,1433.9256,1441.122,-0.122395833,-0.102864583,1.0,0.0,0.0,1.1808,compass,0.0,25.0,25.0,29.0,1.0,SoundStimuli/BetteDavisEyes_KimCarnes_Cover5S.wav,,,,,,,,,,,,,,,,,,,,,,,,,,,,,,,,,,,,,,,,,,,,,,,,,,,,,
,,,,,476463,1,2024-07-12_17h32.57.532,experiment,2024.1.5,Win32,60.24096386,6691931c2c63981b064e1f0c,6691adf251430e598bc008ae,,,,,,,,,,,,,,,,,,,,,,,,,,,,,,,,,,,,,,,,,,,,,,,,,,,,,,,,,,,,1441.1297,1447.7121,-0.122395833,-0.100260417,1.0,0.0,0.0,0.5658,compass,0.0,26.0,26.0,2.0,1.0,SoundStimuli/SmellsLikeTeenSpirit_Nirvana_Cover5S.wav,,,,,,,,,,,,,,,,,,,,,,,,,,,,,,,,,,,,,,,,,,,,,,,,,,,,,
,,,,,476463,1,2024-07-12_17h32.57.532,experiment,2024.1.5,Win32,60.24096386,6691931c2c63981b064e1f0c,6691adf251430e598bc008ae,,,,,,,,,,,,,,,,,,,,,,,,,,,,,,,,,,,,,,,,,,,,,,,,,,,,,,,,,,,,1447.7197,1465.0002,0.19921875,-0.1015625,1.0,0.0,0.0,11.2662,compass,0.0,27.0,27.0,13.0,1.0,SoundStimuli/Perfect_EdSheeran_Original5S.wav,,,,,,,,,,,,,,,,,,,,,,,,,,,,,,,,,,,,,,,,,,,,,,,,,,,,,
,,,,,476463,1,2024-07-12_17h32.57.532,experiment,2024.1.5,Win32,60.24096386,6691931c2c63981b064e1f0c,6691adf251430e598bc008ae,,,,,,,,,,,,,,,,,,,,,,,,,,,,,,,,,,,,,,,,,,,,,,,,,,,,,,,,,,,,1465.0082,1472.7205,0.209635417,-0.145833333,1.0,0.0,0.0,1.6975,compass,0.0,28.0,28.0,24.0,1.0,SoundStimuli/Kiss_Prince_Original5S.wav,,,,,,,,,,,,,,,,,,,,,,,,,,,,,,,,,,,,,,,,,,,,,,,,,,,,,
,,,,,476463,1,2024-07-12_17h32.57.532,experiment,2024.1.5,Win32,60.24096386,6691931c2c63981b064e1f0c,6691adf251430e598bc008ae,,,,,,,,,,,,,,,,,,,,,,,,,,,,,,,,,,,,,,,,,,,,,,,,,,,,,,,,,,,,1472.7279,1478.9266,0.083333333,-0.325520833,1.0,0.0,0.0,0.1833,compass,0.0,29.0,29.0,0.0,1.0,SoundStimuli/GimmeShelter_RollingStones_Cover5S.wav,,,,,,,,,,,,,,,,,,,,,,,,,,,,,,,,,,,,,,,,,,,,,,,,,,,,,
,,,,,476463,1,2024-07-12_17h32.57.532,experiment,2024.1.5,Win32,60.24096386,6691931c2c63981b064e1f0c,6691adf251430e598bc008ae,,,,,,,,,,,,,,,,,,,,,,,,,,,,,,,,,,,,,,,,,,,,,,,,,,,,,,,,,,,,1478.9341,1486.4961,0.15234375,-0.1484375,1.0,0.0,0.0,1.5461,compass,0.0,30.0,30.0,28.0,1.0,SoundStimuli/IWantToHoldYourHand_TheBeatles_Cover5S.wav,,,,,,,,,,,,,,,,,,,,,,,,,,,,,,,,,,,,,,,,,,,,,,,,,,,,,
,,,,,476463,1,2024-07-12_17h32.57.532,experiment,2024.1.5,Win32,60.24096386,6691931c2c63981b064e1f0c,6691adf251430e598bc008ae,,,,,,,,,,,,,,,,,,,,,,,,,,,,,,,,,,,,,,,,,,,,,,,,,,,,,,,,,,,,1486.5039,1497.4292,0.157552083,-0.130208333,1.0,0.0,0.0,4.9088,compass,0.0,31.0,31.0,18.0,1.0,SoundStimuli/Weak_SWV_Original5S.wav,,,,,,,,,,,,,,,,,,,,,,,,,,,,,,,,,,,,,,,,,,,,,,,,,,,,,
,,,,,476463,1,2024-07-12_17h32.57.532,experiment,2024.1.5,Win32,60.24096386,6691931c2c63981b064e1f0c,6691adf251430e598bc008ae,,,,,,,,,,,,,,,,,,,,,,,,,,,,,,,,,,,,,,,,,,,,,,,,,,,,,,,,,,,,1497.4382,1508.8086,0.141927083,-0.158854167,1.0,0.0,0.0,5.3567,compass,0.0,32.0,32.0,21.0,1.0,SoundStimuli/BridgeOverTroubledWater_SimonAndGarfunkel_Cover5S.wav,,,,,,,,,,,,,,,,,,,,,,,,,,,,,,,,,,,,,,,,,,,,,,,,,,,,,
,,,,,476463,1,2024-07-12_17h32.57.532,experiment,2024.1.5,Win32,60.24096386,6691931c2c63981b064e1f0c,6691adf251430e598bc008ae,,,,,,,,,,,,,,,,,,,,,,,,,,,,,,,,,,,,,,,,,,,,,,,,,,,,,,,,,,,,1508.8169,1534.8313,,,,,,,,0.0,33.0,33.0,20.0,1.0,SoundStimuli/FlashdanceWhatAFeeling_IreneCara_Cover5S.wav,,,,,,,,,,,,,,,,,,,,,,,,,,,,,,,,,,,,,,,,,,,,,,,,,,,,,
,,,,,476463,1,2024-07-12_17h32.57.532,experiment,2024.1.5,Win32,60.24096386,6691931c2c63981b064e1f0c,6691adf251430e598bc008ae,,,,,,,,,,,,,,,,,,,,,,,,,,,,,,,,,,,,,,,,,,,,,,,,,,,,,,,,,,,,1534.8315,1541.2543,0.171875,0.153645833,1.0,0.0,0.0,0.4164,compass,0.0,34.0,34.0,10.0,1.0,SoundStimuli/LeFreak_Chic_Original5S.wav,,,,,,,,,,,,,,,,,,,,,,,,,,,,,,,,,,,,,,,,,,,,,,,,,,,,,
,,,,,476463,1,2024-07-12_17h32.57.532,experiment,2024.1.5,Win32,60.24096386,6691931c2c63981b064e1f0c,6691adf251430e598bc008ae,,,,,,,,,,,,,,,,,,,,,,,,,,,,,,,,,,,,,,,,,,,,,,,,,,,,,,,,,,,,,,,,,,,,,,,,,,,1541.2544,1541.2545,,,,1541.2545,1541.2545,,,,0.0,3.0,3.0,3.0,1.0,block_order/blockB.xlsx,,,,,,,,,,,,,,,,,,,,,,,,,,,,,,,,,,,,,
,,,,,476463,1,2024-07-12_17h32.57.532,experiment,2024.1.5,Win32,60.24096386,6691931c2c63981b064e1f0c,6691adf251430e598bc008ae,,,,,,,,,,,,,,,,,,,,,,,,,,,,,,,,,,,,,,,,,,,,,,,,,,,,,,,,,,,,,,,,,,,,,,,,,,,,,,,,,,,,,,,,,,,59.0,Item 2,"I play piano and guitar, self taught from the age of 24 up to now, currently playing them all the time. I love listening to music as well.",Item 5,you tube,5.0,7.0,"driving, exercising, while at work, and with friends",Rarely,Rarely,Sometimes,Sometimes,Never,Never,Often,Sometimes,Sometimes,Sometimes,Rarely,Rarely,Rarely,Always,Sometimes,Rarely,Christian music of any kind,Country,Christian,Ambient,"I listen to different types of music as I've gotten older, and I listen to it at different times than I use to. ",I enjoy more quiet music now,0.0,0.0,0.0,0.0,1.0,,
,,,,,476463,1,2024-07-12_17h32.57.532,experiment,2024.1.5,Win32,60.24096386,6691931c2c63981b064e1f0c,6691adf251430e598bc008ae,,,,,,,,,,,,,,,,,,,,,,,,,,,,,,,,,,,,,,,,,,,,,,,,,,,,,,,,,,,,,,,,,,,,,,,,,,,,,,,,,,,,,,,,,,,,,,,,,,,,,,,,,,,,,,,,,,,,,,,,,,,,,,1971.8053,1974.1491
