welcome.started,welcome.stopped,space_to_continue.keys,space_to_continue.rt,space_to_continue.duration,participant,session,date,expName,psychopyVersion,OS,frameRate,STUDY_ID,SESSION_ID,consent.consent,consent.consent_recontact,consent_check.started,consent_check.stopped,calibration_ready.started,calibration_ready.stopped,cal_ready.keys,cal_ready.rt,cal_ready.duration,calibration.started,calibration.stopped,mouse.x,mouse.y,mouse.leftButton,mouse.midButton,mouse.rightButton,mouse.time,mouse.clicked_name,move_on.keys,move_on.rt,move_on.duration,run_cal.thisRepN,run_cal.thisTrialN,run_cal.thisN,run_cal.thisIndex,run_cal.ran,emotion_training_ready.started,emotion_training_ready.stopped,training_move_on.keys,training_move_on.rt,training_move_on.duration,examples.started,examples.stopped,emotion_scale.started,emotion_scale.stopped,scale_next.keys,scale_next.rt,scale_next.duration,instructions.started,instructions.stopped,next.keys,next.rt,next.duration,practice_task.started,practice_task.stopped,mouse_rating_2.x,mouse_rating_2.y,mouse_rating_2.leftButton,mouse_rating_2.midButton,mouse_rating_2.rightButton,mouse_rating_2.time,mouse_rating_2.clicked_name,ready.started,ready.stopped,key_resp.keys,key_resp.rt,key_resp.duration,set_group.started,set_group.stopped,task.started,task.stopped,mouse_rating.x,mouse_rating.y,mouse_rating.leftButton,mouse_rating.midButton,mouse_rating.rightButton,mouse_rating.time,mouse_rating.clicked_name,trials.thisRepN,trials.thisTrialN,trials.thisN,trials.thisIndex,trials.ran,clip,short_break.started,short_break.stopped,space_to_move_on.keys,space_to_move_on.rt,space_to_move_on.duration,instruction_reminder.started,instruction_reminder.stopped,reminder_move_on.keys,reminder_move_on.rt,reminder_move_on.duration,blocks.thisRepN,blocks.thisTrialN,blocks.thisN,blocks.thisIndex,blocks.ran,block,post_survey.age,post_survey.musician,post_survey.listen_time,post_survey.medium,post_survey.music_making,post_survey.music_seeking,post_survey.music_choice,post_survey.activities,post_survey.question1.Classical,post_survey.question1.Disco,post_survey.question1.Classic rock,post_survey.question1.Reggae,post_survey.question1.A cappella,post_survey.question1.Country,post_survey.question1.Hip hop,post_survey.question1.Ambient,post_survey.question1.Electronic (EDM),post_survey.question1.Metal,post_survey.question1.Alternative rock,post_survey.question1.Latin,post_survey.question1.R&B,post_survey.question1.Folk/indie,post_survey.question1.Jazz,post_survey.question1.Pop,post_survey.other_genres,post_survey.genres_ranked.text1,post_survey.genres_ranked.text2,post_survey.genres_ranked.text3,post_survey.habit_change,post_survey.habits,show_exp.thisRepN,show_exp.thisTrialN,show_exp.thisN,show_exp.thisIndex,show_exp.ran,goodbye.started,goodbye.stopped
0.0004,2.7328,space,2.7089,,519625,1,2024-07-13_00h34.31.525,experiment,2024.1.5,Win32,58.82352941,6691931c2c63981b064e1f0c,6691bd2536bed8eb2b8fdc35,,,,,,,,,,,,,,,,,,,,,,,,,,,,,,,,,,,,,,,,,,,,,,,,,,,,,,,,,,,,,,,,,,,,,,,,,,,,,,,,,,,,,,,,,,,,,,,,,,,,,,,,,,,,,,,,,,,,,,,,,,,,,,,
,,,,,519625,1,2024-07-13_00h34.31.525,experiment,2024.1.5,Win32,58.82352941,6691931c2c63981b064e1f0c,6691bd2536bed8eb2b8fdc35,yes,yes,,,,,,,,,,,,,,,,,,,,,,,,,,,,,,,,,,,,,,,,,,,,,,,,,,,,,,,,,,,,,,,,,,,,,,,,,,,,,,,,,,,,,,,,,,,,,,,,,,,,,,,,,,,,,,,,,,,,,,,,,,,,,
,,,,,519625,1,2024-07-13_00h34.31.525,experiment,2024.1.5,Win32,58.82352941,6691931c2c63981b064e1f0c,6691bd2536bed8eb2b8fdc35,,,18.4777,18.4805,,,,,,,,,,,,,,,,,,,,,,,,,,,,,,,,,,,,,,,,,,,,,,,,,,,,,,,,,,,,,,,,,,,,,,,,,,,,,,,,,,,,,,,,,,,,,,,,,,,,,,,,,,,,,,,,,,,,,,,,,,,
,,,,,519625,1,2024-07-13_00h34.31.525,experiment,2024.1.5,Win32,58.82352941,6691931c2c63981b064e1f0c,6691bd2536bed8eb2b8fdc35,,,,,18.493,27.6999,space,9.1311,,27.7024,56.2129,[0.012037065294053819],[-0.40185186598036027],[1],[0],[0],[23.811900000000364],"[""play_button""]",n,27.4798,,0.0,0.0,0.0,0.0,1.0,,,,,,,,,,,,,,,,,,,,,,,,,,,,,,,,,,,,,,,,,,,,,,,,,,,,,,,,,,,,,,,,,,,,,,,,,,,,,,,,,,,,,,,,,,,,,,,,,,,,,
,,,,,519625,1,2024-07-13_00h34.31.525,experiment,2024.1.5,Win32,58.82352941,6691931c2c63981b064e1f0c,6691bd2536bed8eb2b8fdc35,,,,,,,,,,56.215,59.7772,[],[],[],[],[],[],[],n,2.5338,,1.0,0.0,1.0,0.0,1.0,,,,,,,,,,,,,,,,,,,,,,,,,,,,,,,,,,,,,,,,,,,,,,,,,,,,,,,,,,,,,,,,,,,,,,,,,,,,,,,,,,,,,,,,,,,,,,,,,,,,,
,,,,,519625,1,2024-07-13_00h34.31.525,experiment,2024.1.5,Win32,58.82352941,6691931c2c63981b064e1f0c,6691bd2536bed8eb2b8fdc35,,,,,,,,,,59.7781,61.9761,[],[],[],[],[],[],[],y,1.1723,,2.0,0.0,2.0,0.0,1.0,,,,,,,,,,,,,,,,,,,,,,,,,,,,,,,,,,,,,,,,,,,,,,,,,,,,,,,,,,,,,,,,,,,,,,,,,,,,,,,,,,,,,,,,,,,,,,,,,,,,,
,,,,,519625,1,2024-07-13_00h34.31.525,experiment,2024.1.5,Win32,58.82352941,6691931c2c63981b064e1f0c,6691bd2536bed8eb2b8fdc35,,,,,,,,,,,,,,,,,,,,,,,,,,,61.979,80.8728,space,18.8546,,80.8733,200.8805,200.8848,209.34,right,4.927,,209.3404,240.1112,space,30.7245,,240.1115,246.8224,0.275257779,0.096649485,1.0,0.0,0.0,0.7029,compass_2,246.8233,249.6463,space,2.8002,,249.6517,249.6533,249.716,255.8998,0.220618572,-0.266237161,1.0,0.0,0.0,0.1667,compass,0.0,0.0,0.0,15.0,1.0,SoundStimuli/CrazyInLove_BeyonceFtJayZ_Cover5S.wav,,,,,,,,,,,,,,,,,,,,,,,,,,,,,,,,,,,,,,,,,,,,,,,,,,,,,
,,,,,519625,1,2024-07-13_00h34.31.525,experiment,2024.1.5,Win32,58.82352941,6691931c2c63981b064e1f0c,6691bd2536bed8eb2b8fdc35,,,,,,,,,,,,,,,,,,,,,,,,,,,,,,,,,,,,,,,,,,,,,,,,,,,,,,,,,,,,255.9023,262.8729,0.195876289,-0.250773243,1.0,0.0,0.0,0.969,compass,0.0,1.0,1.0,18.0,1.0,SoundStimuli/Weak_SWV_Cover5S.wav,,,,,,,,,,,,,,,,,,,,,,,,,,,,,,,,,,,,,,,,,,,,,,,,,,,,,
,,,,,519625,1,2024-07-13_00h34.31.525,experiment,2024.1.5,Win32,58.82352941,6691931c2c63981b064e1f0c,6691bd2536bed8eb2b8fdc35,,,,,,,,,,,,,,,,,,,,,,,,,,,,,,,,,,,,,,,,,,,,,,,,,,,,,,,,,,,,262.8753,269.3982,0.164948454,0.210051546,1.0,0.0,0.0,0.517,compass,0.0,2.0,2.0,4.0,1.0,SoundStimuli/Dreams_FleetwoodMac_Original5S.wav,,,,,,,,,,,,,,,,,,,,,,,,,,,,,,,,,,,,,,,,,,,,,,,,,,,,,
,,,,,519625,1,2024-07-13_00h34.31.525,experiment,2024.1.5,Win32,58.82352941,6691931c2c63981b064e1f0c,6691bd2536bed8eb2b8fdc35,,,,,,,,,,,,,,,,,,,,,,,,,,,,,,,,,,,,,,,,,,,,,,,,,,,,,,,,,,,,269.403,275.424,-0.141237082,0.203865936,1.0,0.0,0.0,0.0157,compass,0.0,3.0,3.0,27.0,1.0,SoundStimuli/EyeOfTheTiger_Survivor_Cover5S.wav,,,,,,,,,,,,,,,,,,,,,,,,,,,,,,,,,,,,,,,,,,,,,,,,,,,,,
,,,,,519625,1,2024-07-13_00h34.31.525,experiment,2024.1.5,Win32,58.82352941,6691931c2c63981b064e1f0c,6691bd2536bed8eb2b8fdc35,,,,,,,,,,,,,,,,,,,,,,,,,,,,,,,,,,,,,,,,,,,,,,,,,,,,,,,,,,,,275.4285,288.2471,0.193814464,0.30180412,1.0,0.0,0.0,6.8105,compass,0.0,4.0,4.0,29.0,1.0,SoundStimuli/BetteDavisEyes_KimCarnes_Original5S.wav,,,,,,,,,,,,,,,,,,,,,,,,,,,,,,,,,,,,,,,,,,,,,,,,,,,,,
,,,,,519625,1,2024-07-13_00h34.31.525,experiment,2024.1.5,Win32,58.82352941,6691931c2c63981b064e1f0c,6691bd2536bed8eb2b8fdc35,,,,,,,,,,,,,,,,,,,,,,,,,,,,,,,,,,,,,,,,,,,,,,,,,,,,,,,,,,,,288.2489,294.3142,0.212371118,-0.173453655,1.0,0.0,0.0,0.0521,compass,0.0,5.0,5.0,19.0,1.0,SoundStimuli/YouLightUpMyLife_DebbyBoone_Original5S.wav,,,,,,,,,,,,,,,,,,,,,,,,,,,,,,,,,,,,,,,,,,,,,,,,,,,,,
,,,,,519625,1,2024-07-13_00h34.31.525,experiment,2024.1.5,Win32,58.82352941,6691931c2c63981b064e1f0c,6691bd2536bed8eb2b8fdc35,,,,,,,,,,,,,,,,,,,,,,,,,,,,,,,,,,,,,,,,,,,,,,,,,,,,,,,,,,,,294.318,302.1712,0.255670135,-0.07551555,1.0,0.0,0.0,1.8338,compass,0.0,6.0,6.0,25.0,1.0,SoundStimuli/IllMakeLoveToYou_BoyzIIMen_Cover5S.wav,,,,,,,,,,,,,,,,,,,,,,,,,,,,,,,,,,,,,,,,,,,,,,,,,,,,,
,,,,,519625,1,2024-07-13_00h34.31.525,experiment,2024.1.5,Win32,58.82352941,6691931c2c63981b064e1f0c,6691bd2536bed8eb2b8fdc35,,,,,,,,,,,,,,,,,,,,,,,,,,,,,,,,,,,,,,,,,,,,,,,,,,,,,,,,,,,,302.1739,308.3487,-0.159793814,-0.268298985,1.0,0.0,0.0,0.168,compass,0.0,7.0,7.0,21.0,1.0,SoundStimuli/BridgeOverTroubledWater_SimonAndGarfunkel_Original5S.wav,,,,,,,,,,,,,,,,,,,,,,,,,,,,,,,,,,,,,,,,,,,,,,,,,,,,,
,,,,,519625,1,2024-07-13_00h34.31.525,experiment,2024.1.5,Win32,58.82352941,6691931c2c63981b064e1f0c,6691bd2536bed8eb2b8fdc35,,,,,,,,,,,,,,,,,,,,,,,,,,,,,,,,,,,,,,,,,,,,,,,,,,,,,,,,,,,,308.3499,318.1341,0.178350547,0.136855647,1.0,0.0,0.0,3.7774,compass,0.0,8.0,8.0,9.0,1.0,SoundStimuli/HowDoILive_LeAnnRimes_Cover5S.wav,,,,,,,,,,,,,,,,,,,,,,,,,,,,,,,,,,,,,,,,,,,,,,,,,,,,,
,,,,,519625,1,2024-07-13_00h34.31.525,experiment,2024.1.5,Win32,58.82352941,6691931c2c63981b064e1f0c,6691bd2536bed8eb2b8fdc35,,,,,,,,,,,,,,,,,,,,,,,,,,,,,,,,,,,,,,,,,,,,,,,,,,,,,,,,,,,,318.1351,325.0817,0.217525757,-0.225000047,1.0,0.0,0.0,0.9356,compass,0.0,9.0,9.0,5.0,1.0,SoundStimuli/JoyToTheWorld_ThreeDogNight_Original5S.wav,,,,,,,,,,,,,,,,,,,,,,,,,,,,,,,,,,,,,,,,,,,,,,,,,,,,,
,,,,,519625,1,2024-07-13_00h34.31.525,experiment,2024.1.5,Win32,58.82352941,6691931c2c63981b064e1f0c,6691bd2536bed8eb2b8fdc35,,,,,,,,,,,,,,,,,,,,,,,,,,,,,,,,,,,,,,,,,,,,,,,,,,,,,,,,,,,,325.0841,331.1051,0.217525757,-0.225000047,1.0,0.0,0.0,0.0163,compass,0.0,10.0,10.0,12.0,1.0,SoundStimuli/UnbreakMyHeart_ToniBraxton_Original5S.wav,,,,,,,,,,,,,,,,,,,,,,,,,,,,,,,,,,,,,,,,,,,,,,,,,,,,,
,,,,,519625,1,2024-07-13_00h34.31.525,experiment,2024.1.5,Win32,58.82352941,6691931c2c63981b064e1f0c,6691bd2536bed8eb2b8fdc35,,,,,,,,,,,,,,,,,,,,,,,,,,,,,,,,,,,,,,,,,,,,,,,,,,,,,,,,,,,,331.1098,337.2902,-0.131958716,0.179123711,1.0,0.0,0.0,0.1664,compass,0.0,11.0,11.0,32.0,1.0,SoundStimuli/Dilemma_NellyKellyRowland_Cover5S.wav,,,,,,,,,,,,,,,,,,,,,,,,,,,,,,,,,,,,,,,,,,,,,,,,,,,,,
,,,,,519625,1,2024-07-13_00h34.31.525,experiment,2024.1.5,Win32,58.82352941,6691931c2c63981b064e1f0c,6691bd2536bed8eb2b8fdc35,,,,,,,,,,,,,,,,,,,,,,,,,,,,,,,,,,,,,,,,,,,,,,,,,,,,,,,,,,,,337.2913,347.8738,0.222680397,-0.22087632,1.0,0.0,0.0,4.5714,compass,0.0,12.0,12.0,6.0,1.0,SoundStimuli/SaveYourTears_TheWeekndArianaGrande_Cover5S.wav,,,,,,,,,,,,,,,,,,,,,,,,,,,,,,,,,,,,,,,,,,,,,,,,,,,,,
,,,,,519625,1,2024-07-13_00h34.31.525,experiment,2024.1.5,Win32,58.82352941,6691931c2c63981b064e1f0c,6691bd2536bed8eb2b8fdc35,,,,,,,,,,,,,,,,,,,,,,,,,,,,,,,,,,,,,,,,,,,,,,,,,,,,,,,,,,,,347.8781,354.5497,-0.110309247,0.220360825,1.0,0.0,0.0,0.6659,compass,0.0,13.0,13.0,8.0,1.0,SoundStimuli/EndlessLove_DianaRossLionelRichie_Cover5S.wav,,,,,,,,,,,,,,,,,,,,,,,,,,,,,,,,,,,,,,,,,,,,,,,,,,,,,
,,,,,519625,1,2024-07-13_00h34.31.525,experiment,2024.1.5,Win32,58.82352941,6691931c2c63981b064e1f0c,6691bd2536bed8eb2b8fdc35,,,,,,,,,,,,,,,,,,,,,,,,,,,,,,,,,,,,,,,,,,,,,,,,,,,,,,,,,,,,354.5503,360.8083,-0.083505139,-0.341494845,1.0,0.0,0.0,0.2498,compass,0.0,14.0,14.0,7.0,1.0,SoundStimuli/MackTheKnife_BobbyDarin_Cover5S.wav,,,,,,,,,,,,,,,,,,,,,,,,,,,,,,,,,,,,,,,,,,,,,,,,,,,,,
,,,,,519625,1,2024-07-13_00h34.31.525,experiment,2024.1.5,Win32,58.82352941,6691931c2c63981b064e1f0c,6691bd2536bed8eb2b8fdc35,,,,,,,,,,,,,,,,,,,,,,,,,,,,,,,,,,,,,,,,,,,,,,,,,,,,,,,,,,,,360.811,367.1413,-0.29793816,0.280154631,0.0,0.0,1.0,0.3148,compass,0.0,15.0,15.0,2.0,1.0,SoundStimuli/SmellsLikeTeenSpirit_Nirvana_Original5S.wav,,,,,,,,,,,,,,,,,,,,,,,,,,,,,,,,,,,,,,,,,,,,,,,,,,,,,
,,,,,519625,1,2024-07-13_00h34.31.525,experiment,2024.1.5,Win32,58.82352941,6691931c2c63981b064e1f0c,6691bd2536bed8eb2b8fdc35,,,,,,,,,,,,,,,,,,,,,,,,,,,,,,,,,,,,,,,,,,,,,,,,,,,,,,,,,,,,367.1427,373.2745,-0.072164948,-0.150773196,1.0,0.0,0.0,0.1145,compass,0.0,16.0,16.0,30.0,1.0,SoundStimuli/SomebodyThatIUsedtoKnow_Gotye_Original5S.wav,,,,,,,,,,,,,,,,,,,,,,,,,,,,,,,,,,,,,,,,,,,,,,,,,,,,,
,,,,,519625,1,2024-07-13_00h34.31.525,experiment,2024.1.5,Win32,58.82352941,6691931c2c63981b064e1f0c,6691bd2536bed8eb2b8fdc35,,,,,,,,,,,,,,,,,,,,,,,,,,,,,,,,,,,,,,,,,,,,,,,,,,,,,,,,,,,,373.2758,380.0336,0.209278382,0.079123703,1.0,0.0,0.0,0.7515,compass,0.0,17.0,17.0,23.0,1.0,SoundStimuli/IWalkTheLine_JohnnyCash_Original5S.wav,,,,,,,,,,,,,,,,,,,,,,,,,,,,,,,,,,,,,,,,,,,,,,,,,,,,,
,,,,,519625,1,2024-07-13_00h34.31.525,experiment,2024.1.5,Win32,58.82352941,6691931c2c63981b064e1f0c,6691bd2536bed8eb2b8fdc35,,,,,,,,,,,,,,,,,,,,,,,,,,,,,,,,,,,,,,,,,,,,,,,,,,,,,,,,,,,,380.0355,386.2543,-0.103092784,0.13891751,1.0,0.0,0.0,0.215,compass,0.0,18.0,18.0,10.0,1.0,SoundStimuli/LeFreak_Chic_Cover5S.wav,,,,,,,,,,,,,,,,,,,,,,,,,,,,,,,,,,,,,,,,,,,,,,,,,,,,,
,,,,,519625,1,2024-07-13_00h34.31.525,experiment,2024.1.5,Win32,58.82352941,6691931c2c63981b064e1f0c,6691bd2536bed8eb2b8fdc35,,,,,,,,,,,,,,,,,,,,,,,,,,,,,,,,,,,,,,,,,,,,,,,,,,,,,,,,,,,,386.256,395.3417,0.063917573,0.180154643,1.0,0.0,0.0,3.0737,compass,0.0,19.0,19.0,17.0,1.0,SoundStimuli/IWannaDanceWithSomebody_WhitneyHouston_Original5S.wav,,,,,,,,,,,,,,,,,,,,,,,,,,,,,,,,,,,,,,,,,,,,,,,,,,,,,
,,,,,519625,1,2024-07-13_00h34.31.525,experiment,2024.1.5,Win32,58.82352941,6691931c2c63981b064e1f0c,6691bd2536bed8eb2b8fdc35,,,,,,,,,,,,,,,,,,,,,,,,,,,,,,,,,,,,,,,,,,,,,,,,,,,,,,,,,,,,395.3433,405.363,0.118556701,0.073969064,1.0,0.0,0.0,4.0034,compass,0.0,20.0,20.0,14.0,1.0,SoundStimuli/LikeARollingStone_BobDylan_Original5S.wav,,,,,,,,,,,,,,,,,,,,,,,,,,,,,,,,,,,,,,,,,,,,,,,,,,,,,
,,,,,519625,1,2024-07-13_00h34.31.525,experiment,2024.1.5,Win32,58.82352941,6691931c2c63981b064e1f0c,6691bd2536bed8eb2b8fdc35,,,,,,,,,,,,,,,,,,,,,,,,,,,,,,,,,,,,,,,,,,,,,,,,,,,,,,,,,,,,405.3645,412.0461,0.228866027,-0.239432974,1.0,0.0,0.0,0.6661,compass,0.0,21.0,21.0,34.0,1.0,SoundStimuli/Irreplaceable_Beyonce_Cover5S.wav,,,,,,,,,,,,,,,,,,,,,,,,,,,,,,,,,,,,,,,,,,,,,,,,,,,,,
,,,,,519625,1,2024-07-13_00h34.31.525,experiment,2024.1.5,Win32,58.82352941,6691931c2c63981b064e1f0c,6691bd2536bed8eb2b8fdc35,,,,,,,,,,,,,,,,,,,,,,,,,,,,,,,,,,,,,,,,,,,,,,,,,,,,,,,,,,,,412.0484,419.9285,0.129896891,-0.196134036,1.0,0.0,0.0,1.8678,compass,0.0,22.0,22.0,16.0,1.0,SoundStimuli/ItsAllInTheGame_TommyEdwards_Cover5S.wav,,,,,,,,,,,,,,,,,,,,,,,,,,,,,,,,,,,,,,,,,,,,,,,,,,,,,
,,,,,519625,1,2024-07-13_00h34.31.525,experiment,2024.1.5,Win32,58.82352941,6691931c2c63981b064e1f0c,6691bd2536bed8eb2b8fdc35,,,,,,,,,,,,,,,,,,,,,,,,,,,,,,,,,,,,,,,,,,,,,,,,,,,,,,,,,,,,419.9291,438.34,0.142268073,-0.206443315,1.0,0.0,0.0,12.4027,compass,0.0,23.0,23.0,31.0,1.0,SoundStimuli/TossinAndTurnin_BobbyLewis_Original5S.wav,,,,,,,,,,,,,,,,,,,,,,,,,,,,,,,,,,,,,,,,,,,,,,,,,,,,,
,,,,,519625,1,2024-07-13_00h34.31.525,experiment,2024.1.5,Win32,58.82352941,6691931c2c63981b064e1f0c,6691bd2536bed8eb2b8fdc35,,,,,,,,,,,,,,,,,,,,,,,,,,,,,,,,,,,,,,,,,,,,,,,,,,,,,,,,,,,,438.3433,445.1023,-0.120618525,0.148195876,1.0,0.0,0.0,0.7446,compass,0.0,24.0,24.0,33.0,1.0,SoundStimuli/TheBoyIsMine_BrandyMonica_Original5S.wav,,,,,,,,,,,,,,,,,,,,,,,,,,,,,,,,,,,,,,,,,,,,,,,,,,,,,
,,,,,519625,1,2024-07-13_00h34.31.525,experiment,2024.1.5,Win32,58.82352941,6691931c2c63981b064e1f0c,6691bd2536bed8eb2b8fdc35,,,,,,,,,,,,,,,,,,,,,,,,,,,,,,,,,,,,,,,,,,,,,,,,,,,,,,,,,,,,445.1031,451.3959,0.118556701,0.094587621,1.0,0.0,0.0,0.2818,compass,0.0,25.0,25.0,11.0,1.0,SoundStimuli/BlurredLines_RobinThicke_Cover5S.wav,,,,,,,,,,,,,,,,,,,,,,,,,,,,,,,,,,,,,,,,,,,,,,,,,,,,,
,,,,,519625,1,2024-07-13_00h34.31.525,experiment,2024.1.5,Win32,58.82352941,6691931c2c63981b064e1f0c,6691bd2536bed8eb2b8fdc35,,,,,,,,,,,,,,,,,,,,,,,,,,,,,,,,,,,,,,,,,,,,,,,,,,,,,,,,,,,,451.3983,457.6233,0.118556701,0.094587621,1.0,0.0,0.0,0.2186,compass,0.0,26.0,26.0,13.0,1.0,SoundStimuli/Perfect_EdSheeran_Cover5S.wav,,,,,,,,,,,,,,,,,,,,,,,,,,,,,,,,,,,,,,,,,,,,,,,,,,,,,
,,,,,519625,1,2024-07-13_00h34.31.525,experiment,2024.1.5,Win32,58.82352941,6691931c2c63981b064e1f0c,6691bd2536bed8eb2b8fdc35,,,,,,,,,,,,,,,,,,,,,,,,,,,,,,,,,,,,,,,,,,,,,,,,,,,,,,,,,,,,457.6242,465.3974,0.220618572,0.367783507,1.0,0.0,0.0,0.3096,compass,0.0,27.0,27.0,22.0,1.0,SoundStimuli/Happy_PharellWilliams_Original5S.wav,,,,,,,,,,,,,,,,,,,,,,,,,,,,,,,,,,,,,,,,,,,,,,,,,,,,,
,,,,,519625,1,2024-07-13_00h34.31.525,experiment,2024.1.5,Win32,58.82352941,6691931c2c63981b064e1f0c,6691bd2536bed8eb2b8fdc35,,,,,,,,,,,,,,,,,,,,,,,,,,,,,,,,,,,,,,,,,,,,,,,,,,,,,,,,,,,,465.3994,471.4954,0.301030975,-0.079639199,1.0,0.0,0.0,0.0862,compass,0.0,28.0,28.0,24.0,1.0,SoundStimuli/Kiss_Prince_Cover5S.wav,,,,,,,,,,,,,,,,,,,,,,,,,,,,,,,,,,,,,,,,,,,,,,,,,,,,,
,,,,,519625,1,2024-07-13_00h34.31.525,experiment,2024.1.5,Win32,58.82352941,6691931c2c63981b064e1f0c,6691bd2536bed8eb2b8fdc35,,,,,,,,,,,,,,,,,,,,,,,,,,,,,,,,,,,,,,,,,,,,,,,,,,,,,,,,,,,,471.4972,477.8723,-0.136082443,0.154381428,1.0,0.0,0.0,0.362,compass,0.0,29.0,29.0,26.0,1.0,SoundStimuli/TheSign_AceOfBase_Cover5S.wav,,,,,,,,,,,,,,,,,,,,,,,,,,,,,,,,,,,,,,,,,,,,,,,,,,,,,
,,,,,519625,1,2024-07-13_00h34.31.525,experiment,2024.1.5,Win32,58.82352941,6691931c2c63981b064e1f0c,6691bd2536bed8eb2b8fdc35,,,,,,,,,,,,,,,,,,,,,,,,,,,,,,,,,,,,,,,,,,,,,,,,,,,,,,,,,,,,477.8731,484.7651,0.189690737,0.05438142,1.0,0.0,0.0,0.8806,compass,0.0,30.0,30.0,28.0,1.0,SoundStimuli/IWantToHoldYourHand_TheBeatles_Original5S.wav,,,,,,,,,,,,,,,,,,,,,,,,,,,,,,,,,,,,,,,,,,,,,,,,,,,,,
,,,,,519625,1,2024-07-13_00h34.31.525,experiment,2024.1.5,Win32,58.82352941,6691931c2c63981b064e1f0c,6691bd2536bed8eb2b8fdc35,,,,,,,,,,,,,,,,,,,,,,,,,,,,,,,,,,,,,,,,,,,,,,,,,,,,,,,,,,,,484.7672,491.5394,0.194845377,-0.287886629,1.0,0.0,0.0,0.7634,compass,0.0,31.0,31.0,3.0,1.0,SoundStimuli/PartyRockAnthem_LMFAO_Original5S.wav,,,,,,,,,,,,,,,,,,,,,,,,,,,,,,,,,,,,,,,,,,,,,,,,,,,,,
,,,,,519625,1,2024-07-13_00h34.31.525,experiment,2024.1.5,Win32,58.82352941,6691931c2c63981b064e1f0c,6691bd2536bed8eb2b8fdc35,,,,,,,,,,,,,,,,,,,,,,,,,,,,,,,,,,,,,,,,,,,,,,,,,,,,,,,,,,,,491.5417,498.2341,0.160824727,0.165721657,1.0,0.0,0.0,0.674,compass,0.0,32.0,32.0,20.0,1.0,SoundStimuli/FlashdanceWhatAFeeling_IreneCara_Original5S.wav,,,,,,,,,,,,,,,,,,,,,,,,,,,,,,,,,,,,,,,,,,,,,,,,,,,,,
,,,,,519625,1,2024-07-13_00h34.31.525,experiment,2024.1.5,Win32,58.82352941,6691931c2c63981b064e1f0c,6691bd2536bed8eb2b8fdc35,,,,,,,,,,,,,,,,,,,,,,,,,,,,,,,,,,,,,,,,,,,,,,,,,,,,,,,,,,,,498.2363,506.5729,-0.022680381,0.216237117,1.0,0.0,0.0,2.3289,compass,0.0,33.0,33.0,0.0,1.0,SoundStimuli/GimmeShelter_RollingStones_Original5S.wav,,,,,,,,,,,,,,,,,,,,,,,,,,,,,,,,,,,,,,,,,,,,,,,,,,,,,
,,,,,519625,1,2024-07-13_00h34.31.525,experiment,2024.1.5,Win32,58.82352941,6691931c2c63981b064e1f0c,6691bd2536bed8eb2b8fdc35,,,,,,,,,,,,,,,,,,,,,,,,,,,,,,,,,,,,,,,,,,,,,,,,,,,,,,,,,,,,506.5736,514.3875,-0.04536084,0.234793771,1.0,0.0,0.0,1.8096,compass,0.0,34.0,34.0,1.0,1.0,SoundStimuli/Smooth_SantanaRobThomas_Original5S.wav,,,,,,,,,,,,,,,,,,,,,,,,,,,,,,,,,,,,,,,,,,,,,,,,,,,,,
,,,,,519625,1,2024-07-13_00h34.31.525,experiment,2024.1.5,Win32,58.82352941,6691931c2c63981b064e1f0c,6691bd2536bed8eb2b8fdc35,,,,,,,,,,,,,,,,,,,,,,,,,,,,,,,,,,,,,,,,,,,,,,,,,,,,,,,,,,,,,,,,,,,,,,,,,,,514.3892,715.8484,space,201.4327,,715.8488,794.7391,right,78.8577,,0.0,0.0,0.0,0.0,1.0,block_order/blockD.xlsx,,,,,,,,,,,,,,,,,,,,,,,,,,,,,,,,,,,,,
,,,,,519625,1,2024-07-13_00h34.31.525,experiment,2024.1.5,Win32,58.82352941,6691931c2c63981b064e1f0c,6691bd2536bed8eb2b8fdc35,,,,,,,,,,,,,,,,,,,,,,,,,,,,,,,,,,,,,,,,,,,,,,,,,,,,,,,,,,,,794.7603,801.8529,0.118556701,-0.195103124,1.0,0.0,0.0,1.0833,compass,0.0,0.0,0.0,15.0,1.0,SoundStimuli/TikTok_Kesha_Cover5S.wav,,,,,,,,,,,,,,,,,,,,,,,,,,,,,,,,,,,,,,,,,,,,,,,,,,,,,
,,,,,519625,1,2024-07-13_00h34.31.525,experiment,2024.1.5,Win32,58.82352941,6691931c2c63981b064e1f0c,6691bd2536bed8eb2b8fdc35,,,,,,,,,,,,,,,,,,,,,,,,,,,,,,,,,,,,,,,,,,,,,,,,,,,,,,,,,,,,801.8559,808.0864,0.154639175,0.155412379,1.0,0.0,0.0,0.2258,compass,0.0,1.0,1.0,8.0,1.0,SoundStimuli/LikeAPrayer_Madonna_Original5S.wav,,,,,,,,,,,,,,,,,,,,,,,,,,,,,,,,,,,,,,,,,,,,,,,,,,,,,
,,,,,519625,1,2024-07-13_00h34.31.525,experiment,2024.1.5,Win32,58.82352941,6691931c2c63981b064e1f0c,6691bd2536bed8eb2b8fdc35,,,,,,,,,,,,,,,,,,,,,,,,,,,,,,,,,,,,,,,,,,,,,,,,,,,,,,,,,,,,808.0876,814.7701,0.285567058,-0.088917526,1.0,0.0,0.0,0.6662,compass,0.0,2.0,2.0,5.0,1.0,SoundStimuli/MyGirl_TheTemptations_Original5S.wav,,,,,,,,,,,,,,,,,,,,,,,,,,,,,,,,,,,,,,,,,,,,,,,,,,,,,
,,,,,519625,1,2024-07-13_00h34.31.525,experiment,2024.1.5,Win32,58.82352941,6691931c2c63981b064e1f0c,6691bd2536bed8eb2b8fdc35,,,,,,,,,,,,,,,,,,,,,,,,,,,,,,,,,,,,,,,,,,,,,,,,,,,,,,,,,,,,814.7722,821.2636,-0.047422665,0.11623709,1.0,0.0,0.0,0.4828,compass,0.0,3.0,3.0,34.0,1.0,SoundStimuli/AChangeIsGonnaCome_SamCooke_Cover5S.wav,,,,,,,,,,,,,,,,,,,,,,,,,,,,,,,,,,,,,,,,,,,,,,,,,,,,,
,,,,,519625,1,2024-07-13_00h34.31.525,experiment,2024.1.5,Win32,58.82352941,6691931c2c63981b064e1f0c,6691bd2536bed8eb2b8fdc35,,,,,,,,,,,,,,,,,,,,,,,,,,,,,,,,,,,,,,,,,,,,,,,,,,,,,,,,,,,,821.2645,829.3236,0.18556701,-0.059020642,1.0,0.0,0.0,2.0483,compass,0.0,4.0,4.0,13.0,1.0,SoundStimuli/GodOnlyKnows_TheBeachBoys_Cover5S.wav,,,,,,,,,,,,,,,,,,,,,,,,,,,,,,,,,,,,,,,,,,,,,,,,,,,,,
,,,,,519625,1,2024-07-13_00h34.31.525,experiment,2024.1.5,Win32,58.82352941,6691931c2c63981b064e1f0c,6691bd2536bed8eb2b8fdc35,,,,,,,,,,,,,,,,,,,,,,,,,,,,,,,,,,,,,,,,,,,,,,,,,,,,,,,,,,,,829.3282,836.1688,0.18556701,-0.059020642,1.0,0.0,0.0,0.8338,compass,0.0,5.0,5.0,17.0,1.0,SoundStimuli/Fallin_AliciaKeys_Original5S.wav,,,,,,,,,,,,,,,,,,,,,,,,,,,,,,,,,,,,,,,,,,,,,,,,,,,,,
,,,,,519625,1,2024-07-13_00h34.31.525,experiment,2024.1.5,Win32,58.82352941,6691931c2c63981b064e1f0c,6691bd2536bed8eb2b8fdc35,,,,,,,,,,,,,,,,,,,,,,,,,,,,,,,,,,,,,,,,,,,,,,,,,,,,,,,,,,,,836.1698,842.8271,0.18556701,-0.059020642,1.0,0.0,0.0,0.645,compass,0.0,6.0,6.0,0.0,1.0,SoundStimuli/StayinAlive_BeeGees_Original5S.wav,,,,,,,,,,,,,,,,,,,,,,,,,,,,,,,,,,,,,,,,,,,,,,,,,,,,,
,,,,,519625,1,2024-07-13_00h34.31.525,experiment,2024.1.5,Win32,58.82352941,6691931c2c63981b064e1f0c,6691bd2536bed8eb2b8fdc35,,,,,,,,,,,,,,,,,,,,,,,,,,,,,,,,,,,,,,,,,,,,,,,,,,,,,,,,,,,,842.8291,849.0714,0.217525757,-0.196134036,1.0,0.0,0.0,0.2333,compass,0.0,7.0,7.0,10.0,1.0,SoundStimuli/BadDay_DanielPowter_Cover5S.wav,,,,,,,,,,,,,,,,,,,,,,,,,,,,,,,,,,,,,,,,,,,,,,,,,,,,,
,,,,,519625,1,2024-07-13_00h34.31.525,experiment,2024.1.5,Win32,58.82352941,6691931c2c63981b064e1f0c,6691bd2536bed8eb2b8fdc35,,,,,,,,,,,,,,,,,,,,,,,,,,,,,,,,,,,,,,,,,,,,,,,,,,,,,,,,,,,,849.0735,855.1364,0.276288691,0.117268041,1.0,0.0,0.0,0.0453,compass,0.0,8.0,8.0,32.0,1.0,SoundStimuli/HeatWaves_GlassAnimals_Original5S.wav,,,,,,,,,,,,,,,,,,,,,,,,,,,,,,,,,,,,,,,,,,,,,,,,,,,,,
,,,,,519625,1,2024-07-13_00h34.31.525,experiment,2024.1.5,Win32,58.82352941,6691931c2c63981b064e1f0c,6691bd2536bed8eb2b8fdc35,,,,,,,,,,,,,,,,,,,,,,,,,,,,,,,,,,,,,,,,,,,,,,,,,,,,,,,,,,,,855.1375,862.4925,0.197938192,0.137886598,1.0,0.0,0.0,1.3439,compass,0.0,9.0,9.0,21.0,1.0,SoundStimuli/GoodGollyMissMolly_LittleRichard_Cover5S.wav,,,,,,,,,,,,,,,,,,,,,,,,,,,,,,,,,,,,,,,,,,,,,,,,,,,,,
,,,,,519625,1,2024-07-13_00h34.31.525,experiment,2024.1.5,Win32,58.82352941,6691931c2c63981b064e1f0c,6691bd2536bed8eb2b8fdc35,,,,,,,,,,,,,,,,,,,,,,,,,,,,,,,,,,,,,,,,,,,,,,,,,,,,,,,,,,,,862.494,868.5394,-0.296907169,0.323453608,1.0,0.0,0.0,0.0355,compass,0.0,10.0,10.0,4.0,1.0,SoundStimuli/GetUrFreakOn_MissyElliot_Original5S.wav,,,,,,,,,,,,,,,,,,,,,,,,,,,,,,,,,,,,,,,,,,,,,,,,,,,,,
,,,,,519625,1,2024-07-13_00h34.31.525,experiment,2024.1.5,Win32,58.82352941,6691931c2c63981b064e1f0c,6691bd2536bed8eb2b8fdc35,,,,,,,,,,,,,,,,,,,,,,,,,,,,,,,,,,,,,,,,,,,,,,,,,,,,,,,,,,,,868.5413,877.8641,0.116494877,0.073969064,1.0,0.0,0.0,3.3115,compass,0.0,11.0,11.0,3.0,1.0,SoundStimuli/NoScrubs_TLC_Original5S.wav,,,,,,,,,,,,,,,,,,,,,,,,,,,,,,,,,,,,,,,,,,,,,,,,,,,,,
,,,,,519625,1,2024-07-13_00h34.31.525,experiment,2024.1.5,Win32,58.82352941,6691931c2c63981b064e1f0c,6691bd2536bed8eb2b8fdc35,,,,,,,,,,,,,,,,,,,,,,,,,,,,,,,,,,,,,,,,,,,,,,,,,,,,,,,,,,,,877.8666,884.2109,0.141237161,0.131701007,1.0,0.0,0.0,0.3343,compass,0.0,12.0,12.0,12.0,1.0,SoundStimuli/IWillAlwaysLoveYou_WhitneyHouston_Cover5S.wav,,,,,,,,,,,,,,,,,,,,,,,,,,,,,,,,,,,,,,,,,,,,,,,,,,,,,
,,,,,519625,1,2024-07-13_00h34.31.525,experiment,2024.1.5,Win32,58.82352941,6691931c2c63981b064e1f0c,6691bd2536bed8eb2b8fdc35,,,,,,,,,,,,,,,,,,,,,,,,,,,,,,,,,,,,,,,,,,,,,,,,,,,,,,,,,,,,884.2113,890.5999,0.154639175,-0.229123696,1.0,0.0,0.0,0.3829,compass,0.0,13.0,13.0,33.0,1.0,SoundStimuli/StandByMe_BenEKing_Cover5S.wav,,,,,,,,,,,,,,,,,,,,,,,,,,,,,,,,,,,,,,,,,,,,,,,,,,,,,
,,,,,519625,1,2024-07-13_00h34.31.525,experiment,2024.1.5,Win32,58.82352941,6691931c2c63981b064e1f0c,6691bd2536bed8eb2b8fdc35,,,,,,,,,,,,,,,,,,,,,,,,,,,,,,,,,,,,,,,,,,,,,,,,,,,,,,,,,,,,890.6017,897.1095,-0.039175211,0.093556709,1.0,0.0,0.0,0.4995,compass,0.0,14.0,14.0,18.0,1.0,SoundStimuli/AnotherOneBitesTheDust_Queen_Original5S.wav,,,,,,,,,,,,,,,,,,,,,,,,,,,,,,,,,,,,,,,,,,,,,,,,,,,,,
,,,,,519625,1,2024-07-13_00h34.31.525,experiment,2024.1.5,Win32,58.82352941,6691931c2c63981b064e1f0c,6691bd2536bed8eb2b8fdc35,,,,,,,,,,,,,,,,,,,,,,,,,,,,,,,,,,,,,,,,,,,,,,,,,,,,,,,,,,,,897.1112,910.2669,-0.367010294,0.22860824,1.0,0.0,0.0,6.5508,compass,0.0,15.0,15.0,1.0,1.0,SoundStimuli/Stronger_KanyeWest_Original5S.wav,,,,,,,,,,,,,,,,,,,,,,,,,,,,,,,,,,,,,,,,,,,,,,,,,,,,,
,,,,,519625,1,2024-07-13_00h34.31.525,experiment,2024.1.5,Win32,58.82352941,6691931c2c63981b064e1f0c,6691bd2536bed8eb2b8fdc35,,,,,,,,,,,,,,,,,,,,,,,,,,,,,,,,,,,,,,,,,,,,,,,,,,,,,,,,,,,,910.2676,924.0793,0.108247423,-0.118814449,1.0,0.0,0.0,7.0284,compass,0.0,16.0,16.0,11.0,1.0,SoundStimuli/Superstition_StevieWonder_Cover5S.wav,,,,,,,,,,,,,,,,,,,,,,,,,,,,,,,,,,,,,,,,,,,,,,,,,,,,,
,,,,,519625,1,2024-07-13_00h34.31.525,experiment,2024.1.5,Win32,58.82352941,6691931c2c63981b064e1f0c,6691bd2536bed8eb2b8fdc35,,,,,,,,,,,,,,,,,,,,,,,,,,,,,,,,,,,,,,,,,,,,,,,,,,,,,,,,,,,,924.0812,930.3127,0.147422712,0.128608232,1.0,0.0,0.0,0.2157,compass,0.0,17.0,17.0,25.0,1.0,SoundStimuli/Respect_ArethaFranklin_Original5S.wav,,,,,,,,,,,,,,,,,,,,,,,,,,,,,,,,,,,,,,,,,,,,,,,,,,,,,
,,,,,519625,1,2024-07-13_00h34.31.525,experiment,2024.1.5,Win32,58.82352941,6691931c2c63981b064e1f0c,6691bd2536bed8eb2b8fdc35,,,,,,,,,,,,,,,,,,,,,,,,,,,,,,,,,,,,,,,,,,,,,,,,,,,,,,,,,,,,930.3142,939.4379,0.135051531,-0.06314433,1.0,0.0,0.0,3.1101,compass,0.0,18.0,18.0,20.0,1.0,SoundStimuli/HeyYa_Outkast_Cover5S.wav,,,,,,,,,,,,,,,,,,,,,,,,,,,,,,,,,,,,,,,,,,,,,,,,,,,,,
,,,,,519625,1,2024-07-13_00h34.31.525,experiment,2024.1.5,Win32,58.82352941,6691931c2c63981b064e1f0c,6691bd2536bed8eb2b8fdc35,,,,,,,,,,,,,,,,,,,,,,,,,,,,,,,,,,,,,,,,,,,,,,,,,,,,,,,,,,,,939.4395,946.4367,-0.177319556,0.104896899,1.0,0.0,0.0,0.9882,compass,0.0,19.0,19.0,29.0,1.0,SoundStimuli/OldTownRoad_LilNasX_Original5S.wav,,,,,,,,,,,,,,,,,,,,,,,,,,,,,,,,,,,,,,,,,,,,,,,,,,,,,
,,,,,519625,1,2024-07-13_00h34.31.525,experiment,2024.1.5,Win32,58.82352941,6691931c2c63981b064e1f0c,6691bd2536bed8eb2b8fdc35,,,,,,,,,,,,,,,,,,,,,,,,,,,,,,,,,,,,,,,,,,,,,,,,,,,,,,,,,,,,946.4372,953.7923,0.044329928,0.130670095,1.0,0.0,0.0,1.349,compass,0.0,20.0,20.0,22.0,1.0,SoundStimuli/RockWithYou_MichaelJackson_Original5S.wav,,,,,,,,,,,,,,,,,,,,,,,,,,,,,,,,,,,,,,,,,,,,,,,,,,,,,
,,,,,519625,1,2024-07-13_00h34.31.525,experiment,2024.1.5,Win32,58.82352941,6691931c2c63981b064e1f0c,6691bd2536bed8eb2b8fdc35,,,,,,,,,,,,,,,,,,,,,,,,,,,,,,,,,,,,,,,,,,,,,,,,,,,,,,,,,,,,953.7934,960.9266,0.122680428,0.202835044,1.0,0.0,0.0,1.1248,compass,0.0,21.0,21.0,30.0,1.0,SoundStimuli/PokerFace_LadyGaga_Original5S.wav,,,,,,,,,,,,,,,,,,,,,,,,,,,,,,,,,,,,,,,,,,,,,,,,,,,,,
,,,,,519625,1,2024-07-13_00h34.31.525,experiment,2024.1.5,Win32,58.82352941,6691931c2c63981b064e1f0c,6691bd2536bed8eb2b8fdc35,,,,,,,,,,,,,,,,,,,,,,,,,,,,,,,,,,,,,,,,,,,,,,,,,,,,,,,,,,,,960.9278,968.5932,0.435051515,0.102835036,1.0,0.0,0.0,0.313,compass,0.0,22.0,22.0,2.0,1.0,SoundStimuli/Mood_24kGoldnianndior_Cover5S.wav,,,,,,,,,,,,,,,,,,,,,,,,,,,,,,,,,,,,,,,,,,,,,,,,,,,,,
,,,,,519625,1,2024-07-13_00h34.31.525,experiment,2024.1.5,Win32,58.82352941,6691931c2c63981b064e1f0c,6691bd2536bed8eb2b8fdc35,,,,,,,,,,,,,,,,,,,,,,,,,,,,,,,,,,,,,,,,,,,,,,,,,,,,,,,,,,,,968.5955,974.7203,0.090721681,0.06056701,1.0,0.0,0.0,0.1166,compass,0.0,23.0,23.0,27.0,1.0,SoundStimuli/ShapeofYou_EdSheeran_Original5S.wav,,,,,,,,,,,,,,,,,,,,,,,,,,,,,,,,,,,,,,,,,,,,,,,,,,,,,
,,,,,519625,1,2024-07-13_00h34.31.525,experiment,2024.1.5,Win32,58.82352941,6691931c2c63981b064e1f0c,6691bd2536bed8eb2b8fdc35,,,,,,,,,,,,,,,,,,,,,,,,,,,,,,,,,,,,,,,,,,,,,,,,,,,,,,,,,,,,974.7207,981.7815,0.160824727,-0.141494869,1.0,0.0,0.0,1.0492,compass,0.0,24.0,24.0,28.0,1.0,SoundStimuli/ComeAndGetYourLove_Redbone_Original5S.wav,,,,,,,,,,,,,,,,,,,,,,,,,,,,,,,,,,,,,,,,,,,,,,,,,,,,,
,,,,,519625,1,2024-07-13_00h34.31.525,experiment,2024.1.5,Win32,58.82352941,6691931c2c63981b064e1f0c,6691bd2536bed8eb2b8fdc35,,,,,,,,,,,,,,,,,,,,,,,,,,,,,,,,,,,,,,,,,,,,,,,,,,,,,,,,,,,,981.7833,988.841,0.158762902,-0.166237113,1.0,0.0,0.0,1.0496,compass,0.0,25.0,25.0,19.0,1.0,SoundStimuli/LetsGetItOn_MarvinGaye_Cover5S.wav,,,,,,,,,,,,,,,,,,,,,,,,,,,,,,,,,,,,,,,,,,,,,,,,,,,,,
,,,,,519625,1,2024-07-13_00h34.31.525,experiment,2024.1.5,Win32,58.82352941,6691931c2c63981b064e1f0c,6691bd2536bed8eb2b8fdc35,,,,,,,,,,,,,,,,,,,,,,,,,,,,,,,,,,,,,,,,,,,,,,,,,,,,,,,,,,,,988.8427,994.8607,-0.147422633,0.186340194,1.0,0.0,0.0,0.0122,compass,0.0,26.0,26.0,6.0,1.0,SoundStimuli/Levitating_DuaLipa_Cover5S.wav,,,,,,,,,,,,,,,,,,,,,,,,,,,,,,,,,,,,,,,,,,,,,,,,,,,,,
,,,,,519625,1,2024-07-13_00h34.31.525,experiment,2024.1.5,Win32,58.82352941,6691931c2c63981b064e1f0c,6691bd2536bed8eb2b8fdc35,,,,,,,,,,,,,,,,,,,,,,,,,,,,,,,,,,,,,,,,,,,,,,,,,,,,,,,,,,,,994.8618,1002.1122,0.147422712,0.137886598,1.0,0.0,0.0,1.2496,compass,0.0,27.0,27.0,9.0,1.0,SoundStimuli/Despacito_LuisFonsiDaddyYankee_Cover5S.wav,,,,,,,,,,,,,,,,,,,,,,,,,,,,,,,,,,,,,,,,,,,,,,,,,,,,,
,,,,,519625,1,2024-07-13_00h34.31.525,experiment,2024.1.5,Win32,58.82352941,6691931c2c63981b064e1f0c,6691bd2536bed8eb2b8fdc35,,,,,,,,,,,,,,,,,,,,,,,,,,,,,,,,,,,,,,,,,,,,,,,,,,,,,,,,,,,,1002.1141,1008.2459,-0.317525726,0.107989675,1.0,0.0,0.0,0.1201,compass,0.0,28.0,28.0,14.0,1.0,SoundStimuli/BlindingLights_TheWeeknd_Original5S.wav,,,,,,,,,,,,,,,,,,,,,,,,,,,,,,,,,,,,,,,,,,,,,,,,,,,,,
,,,,,519625,1,2024-07-13_00h34.31.525,experiment,2024.1.5,Win32,58.82352941,6691931c2c63981b064e1f0c,6691bd2536bed8eb2b8fdc35,,,,,,,,,,,,,,,,,,,,,,,,,,,,,,,,,,,,,,,,,,,,,,,,,,,,,,,,,,,,1008.2468,1014.5454,0.126804155,0.016237121,1.0,0.0,0.0,0.2948,compass,0.0,29.0,29.0,26.0,1.0,SoundStimuli/LivinOnAPrayer_BonJovi_Cover5S.wav,,,,,,,,,,,,,,,,,,,,,,,,,,,,,,,,,,,,,,,,,,,,,,,,,,,,,
,,,,,519625,1,2024-07-13_00h34.31.525,experiment,2024.1.5,Win32,58.82352941,6691931c2c63981b064e1f0c,6691bd2536bed8eb2b8fdc35,,,,,,,,,,,,,,,,,,,,,,,,,,,,,,,,,,,,,,,,,,,,,,,,,,,,,,,,,,,,1014.5463,1021.003,0.059793846,0.06056701,1.0,0.0,0.0,0.4512,compass,0.0,30.0,30.0,24.0,1.0,SoundStimuli/UptownFunk_MarkRonson_Original5S.wav,,,,,,,,,,,,,,,,,,,,,,,,,,,,,,,,,,,,,,,,,,,,,,,,,,,,,
,,,,,519625,1,2024-07-13_00h34.31.525,experiment,2024.1.5,Win32,58.82352941,6691931c2c63981b064e1f0c,6691bd2536bed8eb2b8fdc35,,,,,,,,,,,,,,,,,,,,,,,,,,,,,,,,,,,,,,,,,,,,,,,,,,,,,,,,,,,,1021.0037,1028.5935,0.059793846,0.06056701,1.0,0.0,0.0,1.5816,compass,0.0,31.0,31.0,23.0,1.0,SoundStimuli/StrawberryFieldsForever_TheBeatles_Original5S.wav,,,,,,,,,,,,,,,,,,,,,,,,,,,,,,,,,,,,,,,,,,,,,,,,,,,,,
,,,,,519625,1,2024-07-13_00h34.31.525,experiment,2024.1.5,Win32,58.82352941,6691931c2c63981b064e1f0c,6691bd2536bed8eb2b8fdc35,,,,,,,,,,,,,,,,,,,,,,,,,,,,,,,,,,,,,,,,,,,,,,,,,,,,,,,,,,,,1028.5944,1034.8854,0.149484536,0.170876277,1.0,0.0,0.0,0.2861,compass,0.0,32.0,32.0,7.0,1.0,SoundStimuli/NoOne_AliciaKeys_Cover5S.wav,,,,,,,,,,,,,,,,,,,,,,,,,,,,,,,,,,,,,,,,,,,,,,,,,,,,,
,,,,,519625,1,2024-07-13_00h34.31.525,experiment,2024.1.5,Win32,58.82352941,6691931c2c63981b064e1f0c,6691bd2536bed8eb2b8fdc35,,,,,,,,,,,,,,,,,,,,,,,,,,,,,,,,,,,,,,,,,,,,,,,,,,,,,,,,,,,,1034.8873,1044.1265,0.179381459,-0.132216581,1.0,0.0,0.0,3.2348,compass,0.0,33.0,33.0,31.0,1.0,SoundStimuli/TheBattleOfNewOrleans_JohnnyHorton_Cover5S.wav,,,,,,,,,,,,,,,,,,,,,,,,,,,,,,,,,,,,,,,,,,,,,,,,,,,,,
,,,,,519625,1,2024-07-13_00h34.31.525,experiment,2024.1.5,Win32,58.82352941,6691931c2c63981b064e1f0c,6691bd2536bed8eb2b8fdc35,,,,,,,,,,,,,,,,,,,,,,,,,,,,,,,,,,,,,,,,,,,,,,,,,,,,,,,,,,,,1044.1283,1051.1534,0.188659825,0.118298953,1.0,0.0,0.0,1.0186,compass,0.0,34.0,34.0,16.0,1.0,SoundStimuli/BohemianRhapsody_Queen_Original5S.wav,,,,,,,,,,,,,,,,,,,,,,,,,,,,,,,,,,,,,,,,,,,,,,,,,,,,,
,,,,,519625,1,2024-07-13_00h34.31.525,experiment,2024.1.5,Win32,58.82352941,6691931c2c63981b064e1f0c,6691bd2536bed8eb2b8fdc35,,,,,,,,,,,,,,,,,,,,,,,,,,,,,,,,,,,,,,,,,,,,,,,,,,,,,,,,,,,,,,,,,,,,,,,,,,,1051.1542,1127.0872,space,75.9213,,1127.0874,1138.1683,right,11.067,,0.0,1.0,1.0,1.0,1.0,block_order/blockA.xlsx,,,,,,,,,,,,,,,,,,,,,,,,,,,,,,,,,,,,,
,,,,,519625,1,2024-07-13_00h34.31.525,experiment,2024.1.5,Win32,58.82352941,6691931c2c63981b064e1f0c,6691bd2536bed8eb2b8fdc35,,,,,,,,,,,,,,,,,,,,,,,,,,,,,,,,,,,,,,,,,,,,,,,,,,,,,,,,,,,,1138.1925,1144.2794,-0.25257732,0.300773188,1.0,0.0,0.0,0.0818,compass,0.0,0.0,0.0,24.0,1.0,SoundStimuli/Kiss_Prince_Original5S.wav,,,,,,,,,,,,,,,,,,,,,,,,,,,,,,,,,,,,,,,,,,,,,,,,,,,,,
,,,,,519625,1,2024-07-13_00h34.31.525,experiment,2024.1.5,Win32,58.82352941,6691931c2c63981b064e1f0c,6691bd2536bed8eb2b8fdc35,,,,,,,,,,,,,,,,,,,,,,,,,,,,,,,,,,,,,,,,,,,,,,,,,,,,,,,,,,,,1144.2809,1150.3072,0.113402062,0.145103101,1.0,0.0,0.0,0.0171,compass,0.0,1.0,1.0,29.0,1.0,SoundStimuli/BetteDavisEyes_KimCarnes_Cover5S.wav,,,,,,,,,,,,,,,,,,,,,,,,,,,,,,,,,,,,,,,,,,,,,,,,,,,,,
,,,,,519625,1,2024-07-13_00h34.31.525,experiment,2024.1.5,Win32,58.82352941,6691931c2c63981b064e1f0c,6691bd2536bed8eb2b8fdc35,,,,,,,,,,,,,,,,,,,,,,,,,,,,,,,,,,,,,,,,,,,,,,,,,,,,,,,,,,,,1150.3091,1157.7161,0.108247423,0.13891751,1.0,0.0,0.0,1.3968,compass,0.0,2.0,2.0,2.0,1.0,SoundStimuli/SmellsLikeTeenSpirit_Nirvana_Cover5S.wav,,,,,,,,,,,,,,,,,,,,,,,,,,,,,,,,,,,,,,,,,,,,,,,,,,,,,
,,,,,519625,1,2024-07-13_00h34.31.525,experiment,2024.1.5,Win32,58.82352941,6691931c2c63981b064e1f0c,6691bd2536bed8eb2b8fdc35,,,,,,,,,,,,,,,,,,,,,,,,,,,,,,,,,,,,,,,,,,,,,,,,,,,,,,,,,,,,1157.718,1163.9606,0.196907201,0.12757732,1.0,0.0,0.0,0.2401,compass,0.0,3.0,3.0,32.0,1.0,SoundStimuli/Dilemma_NellyKellyRowland_Original5S.wav,,,,,,,,,,,,,,,,,,,,,,,,,,,,,,,,,,,,,,,,,,,,,,,,,,,,,
,,,,,519625,1,2024-07-13_00h34.31.525,experiment,2024.1.5,Win32,58.82352941,6691931c2c63981b064e1f0c,6691bd2536bed8eb2b8fdc35,,,,,,,,,,,,,,,,,,,,,,,,,,,,,,,,,,,,,,,,,,,,,,,,,,,,,,,,,,,,1163.9622,1171.7123,0.196907201,0.12757732,1.0,0.0,0.0,1.7399,compass,0.0,4.0,4.0,9.0,1.0,SoundStimuli/HowDoILive_LeAnnRimes_Original5S.wav,,,,,,,,,,,,,,,,,,,,,,,,,,,,,,,,,,,,,,,,,,,,,,,,,,,,,
,,,,,519625,1,2024-07-13_00h34.31.525,experiment,2024.1.5,Win32,58.82352941,6691931c2c63981b064e1f0c,6691bd2536bed8eb2b8fdc35,,,,,,,,,,,,,,,,,,,,,,,,,,,,,,,,,,,,,,,,,,,,,,,,,,,,,,,,,,,,1171.7136,1178.6906,-0.121649437,0.153350515,1.0,0.0,0.0,0.9491,compass,0.0,5.0,5.0,15.0,1.0,SoundStimuli/CrazyInLove_BeyonceFtJayZ_Original5S.wav,,,,,,,,,,,,,,,,,,,,,,,,,,,,,,,,,,,,,,,,,,,,,,,,,,,,,
,,,,,519625,1,2024-07-13_00h34.31.525,experiment,2024.1.5,Win32,58.82352941,6691931c2c63981b064e1f0c,6691bd2536bed8eb2b8fdc35,,,,,,,,,,,,,,,,,,,,,,,,,,,,,,,,,,,,,,,,,,,,,,,,,,,,,,,,,,,,1178.6959,1184.7951,0.135051531,0.106958763,1.0,0.0,0.0,0.0842,compass,0.0,6.0,6.0,28.0,1.0,SoundStimuli/IWantToHoldYourHand_TheBeatles_Cover5S.wav,,,,,,,,,,,,,,,,,,,,,,,,,,,,,,,,,,,,,,,,,,,,,,,,,,,,,
,,,,,519625,1,2024-07-13_00h34.31.525,experiment,2024.1.5,Win32,58.82352941,6691931c2c63981b064e1f0c,6691bd2536bed8eb2b8fdc35,,,,,,,,,,,,,,,,,,,,,,,,,,,,,,,,,,,,,,,,,,,,,,,,,,,,,,,,,,,,1184.797,1191.6526,0.135051531,0.106958763,1.0,0.0,0.0,0.8504,compass,0.0,7.0,7.0,33.0,1.0,SoundStimuli/TheBoyIsMine_BrandyMonica_Cover5S.wav,,,,,,,,,,,,,,,,,,,,,,,,,,,,,,,,,,,,,,,,,,,,,,,,,,,,,
,,,,,519625,1,2024-07-13_00h34.31.525,experiment,2024.1.5,Win32,58.82352941,6691931c2c63981b064e1f0c,6691bd2536bed8eb2b8fdc35,,,,,,,,,,,,,,,,,,,,,,,,,,,,,,,,,,,,,,,,,,,,,,,,,,,,,,,,,,,,1191.6539,1198.7111,0.184536098,0.027577312,1.0,0.0,0.0,1.0491,compass,0.0,8.0,8.0,20.0,1.0,SoundStimuli/FlashdanceWhatAFeeling_IreneCara_Cover5S.wav,,,,,,,,,,,,,,,,,,,,,,,,,,,,,,,,,,,,,,,,,,,,,,,,,,,,,
,,,,,519625,1,2024-07-13_00h34.31.525,experiment,2024.1.5,Win32,58.82352941,6691931c2c63981b064e1f0c,6691bd2536bed8eb2b8fdc35,,,,,,,,,,,,,,,,,,,,,,,,,,,,,,,,,,,,,,,,,,,,,,,,,,,,,,,,,,,,1198.7116,1204.9109,0.111340238,0.069845337,1.0,0.0,0.0,0.1888,compass,0.0,9.0,9.0,13.0,1.0,SoundStimuli/Perfect_EdSheeran_Original5S.wav,,,,,,,,,,,,,,,,,,,,,,,,,,,,,,,,,,,,,,,,,,,,,,,,,,,,,
,,,,,519625,1,2024-07-13_00h34.31.525,experiment,2024.1.5,Win32,58.82352941,6691931c2c63981b064e1f0c,6691bd2536bed8eb2b8fdc35,,,,,,,,,,,,,,,,,,,,,,,,,,,,,,,,,,,,,,,,,,,,,,,,,,,,,,,,,,,,1204.9138,1213.1646,0.181443283,0.018298945,1.0,0.0,0.0,2.2441,compass,0.0,10.0,10.0,14.0,1.0,SoundStimuli/LikeARollingStone_BobDylan_Cover5S.wav,,,,,,,,,,,,,,,,,,,,,,,,,,,,,,,,,,,,,,,,,,,,,,,,,,,,,
,,,,,519625,1,2024-07-13_00h34.31.525,experiment,2024.1.5,Win32,58.82352941,6691931c2c63981b064e1f0c,6691bd2536bed8eb2b8fdc35,,,,,,,,,,,,,,,,,,,,,,,,,,,,,,,,,,,,,,,,,,,,,,,,,,,,,,,,,,,,1213.1666,1220.8907,0.188659825,0.203865936,1.0,0.0,0.0,1.7143,compass,0.0,11.0,11.0,3.0,1.0,SoundStimuli/PartyRockAnthem_LMFAO_Cover5S.wav,,,,,,,,,,,,,,,,,,,,,,,,,,,,,,,,,,,,,,,,,,,,,,,,,,,,,
,,,,,519625,1,2024-07-13_00h34.31.525,experiment,2024.1.5,Win32,58.82352941,6691931c2c63981b064e1f0c,6691bd2536bed8eb2b8fdc35,,,,,,,,,,,,,,,,,,,,,,,,,,,,,,,,,,,,,,,,,,,,,,,,,,,,,,,,,,,,1220.8929,1234.4133,0.134020619,0.106958763,1.0,0.0,0.0,7.5112,compass,0.0,12.0,12.0,0.0,1.0,SoundStimuli/GimmeShelter_RollingStones_Cover5S.wav,,,,,,,,,,,,,,,,,,,,,,,,,,,,,,,,,,,,,,,,,,,,,,,,,,,,,
,,,,,519625,1,2024-07-13_00h34.31.525,experiment,2024.1.5,Win32,58.82352941,6691931c2c63981b064e1f0c,6691bd2536bed8eb2b8fdc35,,,,,,,,,,,,,,,,,,,,,,,,,,,,,,,,,,,,,,,,,,,,,,,,,,,,,,,,,,,,1234.4163,1241.6885,0.120618604,0.049226781,1.0,0.0,0.0,1.2657,compass,0.0,13.0,13.0,1.0,1.0,SoundStimuli/Smooth_SantanaRobThomas_Cover5S.wav,,,,,,,,,,,,,,,,,,,,,,,,,,,,,,,,,,,,,,,,,,,,,,,,,,,,,
,,,,,519625,1,2024-07-13_00h34.31.525,experiment,2024.1.5,Win32,58.82352941,6691931c2c63981b064e1f0c,6691bd2536bed8eb2b8fdc35,,,,,,,,,,,,,,,,,,,,,,,,,,,,,,,,,,,,,,,,,,,,,,,,,,,,,,,,,,,,1241.69,1248.7976,0.184536098,0.082216479,1.0,0.0,0.0,1.0989,compass,0.0,14.0,14.0,19.0,1.0,SoundStimuli/YouLightUpMyLife_DebbyBoone_Cover5S.wav,,,,,,,,,,,,,,,,,,,,,,,,,,,,,,,,,,,,,,,,,,,,,,,,,,,,,
,,,,,519625,1,2024-07-13_00h34.31.525,experiment,2024.1.5,Win32,58.82352941,6691931c2c63981b064e1f0c,6691bd2536bed8eb2b8fdc35,,,,,,,,,,,,,,,,,,,,,,,,,,,,,,,,,,,,,,,,,,,,,,,,,,,,,,,,,,,,1248.7988,1254.9687,0.184536098,0.082216479,1.0,0.0,0.0,0.1581,compass,0.0,15.0,15.0,5.0,1.0,SoundStimuli/JoyToTheWorld_ThreeDogNight_Cover5S.wav,,,,,,,,,,,,,,,,,,,,,,,,,,,,,,,,,,,,,,,,,,,,,,,,,,,,,
,,,,,519625,1,2024-07-13_00h34.31.525,experiment,2024.1.5,Win32,58.82352941,6691931c2c63981b064e1f0c,6691bd2536bed8eb2b8fdc35,,,,,,,,,,,,,,,,,,,,,,,,,,,,,,,,,,,,,,,,,,,,,,,,,,,,,,,,,,,,1254.9701,1261.4698,0.184536098,0.082216479,1.0,0.0,0.0,0.4987,compass,0.0,16.0,16.0,21.0,1.0,SoundStimuli/BridgeOverTroubledWater_SimonAndGarfunkel_Cover5S.wav,,,,,,,,,,,,,,,,,,,,,,,,,,,,,,,,,,,,,,,,,,,,,,,,,,,,,
,,,,,519625,1,2024-07-13_00h34.31.525,experiment,2024.1.5,Win32,58.82352941,6691931c2c63981b064e1f0c,6691bd2536bed8eb2b8fdc35,,,,,,,,,,,,,,,,,,,,,,,,,,,,,,,,,,,,,,,,,,,,,,,,,,,,,,,,,,,,1261.4717,1268.1904,0.184536098,0.082216479,1.0,0.0,0.0,0.7086,compass,0.0,17.0,17.0,16.0,1.0,SoundStimuli/ItsAllInTheGame_TommyEdwards_Original5S.wav,,,,,,,,,,,,,,,,,,,,,,,,,,,,,,,,,,,,,,,,,,,,,,,,,,,,,
,,,,,519625,1,2024-07-13_00h34.31.525,experiment,2024.1.5,Win32,58.82352941,6691931c2c63981b064e1f0c,6691bd2536bed8eb2b8fdc35,,,,,,,,,,,,,,,,,,,,,,,,,,,,,,,,,,,,,,,,,,,,,,,,,,,,,,,,,,,,1268.1923,1274.3151,0.086597954,0.092525757,1.0,0.0,0.0,0.1193,compass,0.0,18.0,18.0,26.0,1.0,SoundStimuli/TheSign_AceOfBase_Original5S.wav,,,,,,,,,,,,,,,,,,,,,,,,,,,,,,,,,,,,,,,,,,,,,,,,,,,,,
,,,,,519625,1,2024-07-13_00h34.31.525,experiment,2024.1.5,Win32,58.82352941,6691931c2c63981b064e1f0c,6691bd2536bed8eb2b8fdc35,,,,,,,,,,,,,,,,,,,,,,,,,,,,,,,,,,,,,,,,,,,,,,,,,,,,,,,,,,,,1274.3158,1281.1622,0.055670119,0.069845337,1.0,0.0,0.0,0.843,compass,0.0,19.0,19.0,22.0,1.0,SoundStimuli/Happy_PharellWilliams_Cover5S.wav,,,,,,,,,,,,,,,,,,,,,,,,,,,,,,,,,,,,,,,,,,,,,,,,,,,,,
,,,,,519625,1,2024-07-13_00h34.31.525,experiment,2024.1.5,Win32,58.82352941,6691931c2c63981b064e1f0c,6691bd2536bed8eb2b8fdc35,,,,,,,,,,,,,,,,,,,,,,,,,,,,,,,,,,,,,,,,,,,,,,,,,,,,,,,,,,,,1281.1642,1288.2112,-0.054639128,0.036855678,1.0,0.0,0.0,1.0322,compass,0.0,20.0,20.0,31.0,1.0,SoundStimuli/TossinAndTurnin_BobbyLewis_Cover5S.wav,,,,,,,,,,,,,,,,,,,,,,,,,,,,,,,,,,,,,,,,,,,,,,,,,,,,,
,,,,,519625,1,2024-07-13_00h34.31.525,experiment,2024.1.5,Win32,58.82352941,6691931c2c63981b064e1f0c,6691bd2536bed8eb2b8fdc35,,,,,,,,,,,,,,,,,,,,,,,,,,,,,,,,,,,,,,,,,,,,,,,,,,,,,,,,,,,,1288.2125,1294.3725,-0.186597922,0.100773172,1.0,0.0,0.0,0.1484,compass,0.0,21.0,21.0,11.0,1.0,SoundStimuli/BlurredLines_RobinThicke_Original5S.wav,,,,,,,,,,,,,,,,,,,,,,,,,,,,,,,,,,,,,,,,,,,,,,,,,,,,,
,,,,,519625,1,2024-07-13_00h34.31.525,experiment,2024.1.5,Win32,58.82352941,6691931c2c63981b064e1f0c,6691bd2536bed8eb2b8fdc35,,,,,,,,,,,,,,,,,,,,,,,,,,,,,,,,,,,,,,,,,,,,,,,,,,,,,,,,,,,,1294.3739,1300.64,-0.157731912,-0.017783529,1.0,0.0,0.0,0.2561,compass,0.0,22.0,22.0,30.0,1.0,SoundStimuli/SomebodyThatIUsedtoKnow_Gotye_Cover5S.wav,,,,,,,,,,,,,,,,,,,,,,,,,,,,,,,,,,,,,,,,,,,,,,,,,,,,,
,,,,,519625,1,2024-07-13_00h34.31.525,experiment,2024.1.5,Win32,58.82352941,6691931c2c63981b064e1f0c,6691bd2536bed8eb2b8fdc35,,,,,,,,,,,,,,,,,,,,,,,,,,,,,,,,,,,,,,,,,,,,,,,,,,,,,,,,,,,,1300.6424,1307.4429,-0.064948406,-0.178608295,1.0,0.0,0.0,0.7932,compass,0.0,23.0,23.0,23.0,1.0,SoundStimuli/IWalkTheLine_JohnnyCash_Cover5S.wav,,,,,,,,,,,,,,,,,,,,,,,,,,,,,,,,,,,,,,,,,,,,,,,,,,,,,
,,,,,519625,1,2024-07-13_00h34.31.525,experiment,2024.1.5,Win32,58.82352941,6691931c2c63981b064e1f0c,6691bd2536bed8eb2b8fdc35,,,,,,,,,,,,,,,,,,,,,,,,,,,,,,,,,,,,,,,,,,,,,,,,,,,,,,,,,,,,1307.4455,1314.2095,0.218556748,-0.185824758,1.0,0.0,0.0,0.7554,compass,0.0,24.0,24.0,4.0,1.0,SoundStimuli/Dreams_FleetwoodMac_Cover5S.wav,,,,,,,,,,,,,,,,,,,,,,,,,,,,,,,,,,,,,,,,,,,,,,,,,,,,,
,,,,,519625,1,2024-07-13_00h34.31.525,experiment,2024.1.5,Win32,58.82352941,6691931c2c63981b064e1f0c,6691bd2536bed8eb2b8fdc35,,,,,,,,,,,,,,,,,,,,,,,,,,,,,,,,,,,,,,,,,,,,,,,,,,,,,,,,,,,,1314.2127,1321.1232,0.201030928,0.089432982,1.0,0.0,0.0,0.9058,compass,0.0,25.0,25.0,27.0,1.0,SoundStimuli/EyeOfTheTiger_Survivor_Original5S.wav,,,,,,,,,,,,,,,,,,,,,,,,,,,,,,,,,,,,,,,,,,,,,,,,,,,,,
,,,,,519625,1,2024-07-13_00h34.31.525,experiment,2024.1.5,Win32,58.82352941,6691931c2c63981b064e1f0c,6691bd2536bed8eb2b8fdc35,,,,,,,,,,,,,,,,,,,,,,,,,,,,,,,,,,,,,,,,,,,,,,,,,,,,,,,,,,,,1321.1276,1327.5433,0.203092831,-0.146649508,1.0,0.0,0.0,0.3937,compass,0.0,26.0,26.0,18.0,1.0,SoundStimuli/Weak_SWV_Original5S.wav,,,,,,,,,,,,,,,,,,,,,,,,,,,,,,,,,,,,,,,,,,,,,,,,,,,,,
,,,,,519625,1,2024-07-13_00h34.31.525,experiment,2024.1.5,Win32,58.82352941,6691931c2c63981b064e1f0c,6691bd2536bed8eb2b8fdc35,,,,,,,,,,,,,,,,,,,,,,,,,,,,,,,,,,,,,,,,,,,,,,,,,,,,,,,,,,,,1327.546,1333.836,-0.110309247,0.071907201,1.0,0.0,0.0,0.2759,compass,0.0,27.0,27.0,12.0,1.0,SoundStimuli/UnbreakMyHeart_ToniBraxton_Cover5S.wav,,,,,,,,,,,,,,,,,,,,,,,,,,,,,,,,,,,,,,,,,,,,,,,,,,,,,
,,,,,519625,1,2024-07-13_00h34.31.525,experiment,2024.1.5,Win32,58.82352941,6691931c2c63981b064e1f0c,6691bd2536bed8eb2b8fdc35,,,,,,,,,,,,,,,,,,,,,,,,,,,,,,,,,,,,,,,,,,,,,,,,,,,,,,,,,,,,1333.8371,1345.5243,0.210309294,-0.039432998,1.0,0.0,0.0,5.6775,compass,0.0,28.0,28.0,17.0,1.0,SoundStimuli/IWannaDanceWithSomebody_WhitneyHouston_Cover5S.wav,,,,,,,,,,,,,,,,,,,,,,,,,,,,,,,,,,,,,,,,,,,,,,,,,,,,,
,,,,,519625,1,2024-07-13_00h34.31.525,experiment,2024.1.5,Win32,58.82352941,6691931c2c63981b064e1f0c,6691bd2536bed8eb2b8fdc35,,,,,,,,,,,,,,,,,,,,,,,,,,,,,,,,,,,,,,,,,,,,,,,,,,,,,,,,,,,,1345.5274,1352.5342,0.120618604,-0.090979468,1.0,0.0,0.0,0.9994,compass,0.0,29.0,29.0,10.0,1.0,SoundStimuli/LeFreak_Chic_Original5S.wav,,,,,,,,,,,,,,,,,,,,,,,,,,,,,,,,,,,,,,,,,,,,,,,,,,,,,
,,,,,519625,1,2024-07-13_00h34.31.525,experiment,2024.1.5,Win32,58.82352941,6691931c2c63981b064e1f0c,6691bd2536bed8eb2b8fdc35,,,,,,,,,,,,,,,,,,,,,,,,,,,,,,,,,,,,,,,,,,,,,,,,,,,,,,,,,,,,1352.537,1359.2621,0.109278335,0.012113394,1.0,0.0,0.0,0.7126,compass,0.0,30.0,30.0,25.0,1.0,SoundStimuli/IllMakeLoveToYou_BoyzIIMen_Original5S.wav,,,,,,,,,,,,,,,,,,,,,,,,,,,,,,,,,,,,,,,,,,,,,,,,,,,,,
,,,,,519625,1,2024-07-13_00h34.31.525,experiment,2024.1.5,Win32,58.82352941,6691931c2c63981b064e1f0c,6691bd2536bed8eb2b8fdc35,,,,,,,,,,,,,,,,,,,,,,,,,,,,,,,,,,,,,,,,,,,,,,,,,,,,,,,,,,,,1359.2641,1366.4529,0.109278335,-0.095103116,1.0,0.0,0.0,1.1789,compass,0.0,31.0,31.0,6.0,1.0,SoundStimuli/SaveYourTears_TheWeekndArianaGrande_Original5S.wav,,,,,,,,,,,,,,,,,,,,,,,,,,,,,,,,,,,,,,,,,,,,,,,,,,,,,
,,,,,519625,1,2024-07-13_00h34.31.525,experiment,2024.1.5,Win32,58.82352941,6691931c2c63981b064e1f0c,6691bd2536bed8eb2b8fdc35,,,,,,,,,,,,,,,,,,,,,,,,,,,,,,,,,,,,,,,,,,,,,,,,,,,,,,,,,,,,1366.4536,1375.3177,0.109278335,-0.095103116,1.0,0.0,0.0,2.8475,compass,0.0,32.0,32.0,7.0,1.0,SoundStimuli/MackTheKnife_BobbyDarin_Original5S.wav,,,,,,,,,,,,,,,,,,,,,,,,,,,,,,,,,,,,,,,,,,,,,,,,,,,,,
,,,,,519625,1,2024-07-13_00h34.31.525,experiment,2024.1.5,Win32,58.82352941,6691931c2c63981b064e1f0c,6691bd2536bed8eb2b8fdc35,,,,,,,,,,,,,,,,,,,,,,,,,,,,,,,,,,,,,,,,,,,,,,,,,,,,,,,,,,,,1375.3203,1381.8516,-0.121649437,0.155412379,1.0,0.0,0.0,0.527,compass,0.0,33.0,33.0,34.0,1.0,SoundStimuli/Irreplaceable_Beyonce_Original5S.wav,,,,,,,,,,,,,,,,,,,,,,,,,,,,,,,,,,,,,,,,,,,,,,,,,,,,,
,,,,,519625,1,2024-07-13_00h34.31.525,experiment,2024.1.5,Win32,58.82352941,6691931c2c63981b064e1f0c,6691bd2536bed8eb2b8fdc35,,,,,,,,,,,,,,,,,,,,,,,,,,,,,,,,,,,,,,,,,,,,,,,,,,,,,,,,,,,,1381.8527,1388.7362,0.197938192,-0.222938144,1.0,0.0,0.0,0.8822,compass,0.0,34.0,34.0,8.0,1.0,SoundStimuli/EndlessLove_DianaRossLionelRichie_Original5S.wav,,,,,,,,,,,,,,,,,,,,,,,,,,,,,,,,,,,,,,,,,,,,,,,,,,,,,
,,,,,519625,1,2024-07-13_00h34.31.525,experiment,2024.1.5,Win32,58.82352941,6691931c2c63981b064e1f0c,6691bd2536bed8eb2b8fdc35,,,,,,,,,,,,,,,,,,,,,,,,,,,,,,,,,,,,,,,,,,,,,,,,,,,,,,,,,,,,,,,,,,,,,,,,,,,1388.7364,1973.4603,space,584.7039,,1973.4604,1974.3393,right,0.8665,,0.0,2.0,2.0,2.0,1.0,block_order/blockB.xlsx,,,,,,,,,,,,,,,,,,,,,,,,,,,,,,,,,,,,,
,,,,,519625,1,2024-07-13_00h34.31.525,experiment,2024.1.5,Win32,58.82352941,6691931c2c63981b064e1f0c,6691bd2536bed8eb2b8fdc35,,,,,,,,,,,,,,,,,,,,,,,,,,,,,,,,,,,,,,,,,,,,,,,,,,,,,,,,,,,,1974.3702,1982.1488,-0.095876241,0.091494845,1.0,0.0,0.0,0.6634,compass,0.0,0.0,0.0,15.0,1.0,SoundStimuli/TikTok_Kesha_Original5S.wav,,,,,,,,,,,,,,,,,,,,,,,,,,,,,,,,,,,,,,,,,,,,,,,,,,,,,
,,,,,519625,1,2024-07-13_00h34.31.525,experiment,2024.1.5,Win32,58.82352941,6691931c2c63981b064e1f0c,6691bd2536bed8eb2b8fdc35,,,,,,,,,,,,,,,,,,,,,,,,,,,,,,,,,,,,,,,,,,,,,,,,,,,,,,,,,,,,1982.1526,1988.829,-0.128865979,0.101804124,1.0,0.0,0.0,0.6593,compass,0.0,1.0,1.0,19.0,1.0,SoundStimuli/LetsGetItOn_MarvinGaye_Original5S.wav,,,,,,,,,,,,,,,,,,,,,,,,,,,,,,,,,,,,,,,,,,,,,,,,,,,,,
,,,,,519625,1,2024-07-13_00h34.31.525,experiment,2024.1.5,Win32,58.82352941,6691931c2c63981b064e1f0c,6691bd2536bed8eb2b8fdc35,,,,,,,,,,,,,,,,,,,,,,,,,,,,,,,,,,,,,,,,,,,,,,,,,,,,,,,,,,,,1988.8293,1995.7334,0.127835067,0.090463894,1.0,0.0,0.0,0.8993,compass,0.0,2.0,2.0,13.0,1.0,SoundStimuli/GodOnlyKnows_TheBeachBoys_Original5S.wav,,,,,,,,,,,,,,,,,,,,,,,,,,,,,,,,,,,,,,,,,,,,,,,,,,,,,
,,,,,519625,1,2024-07-13_00h34.31.525,experiment,2024.1.5,Win32,58.82352941,6691931c2c63981b064e1f0c,6691bd2536bed8eb2b8fdc35,,,,,,,,,,,,,,,,,,,,,,,,,,,,,,,,,,,,,,,,,,,,,,,,,,,,,,,,,,,,1995.7368,2002.2117,0.216494845,0.346133999,1.0,0.0,0.0,0.4583,compass,0.0,3.0,3.0,9.0,1.0,SoundStimuli/Despacito_LuisFonsiDaddyYankee_Original5S.wav,,,,,,,,,,,,,,,,,,,,,,,,,,,,,,,,,,,,,,,,,,,,,,,,,,,,,
,,,,,519625,1,2024-07-13_00h34.31.525,experiment,2024.1.5,Win32,58.82352941,6691931c2c63981b064e1f0c,6691bd2536bed8eb2b8fdc35,,,,,,,,,,,,,,,,,,,,,,,,,,,,,,,,,,,,,,,,,,,,,,,,,,,,,,,,,,,,2002.2133,2009.7956,0.234020666,-0.116752664,1.0,0.0,0.0,1.5599,compass,0.0,4.0,4.0,14.0,1.0,SoundStimuli/BlindingLights_TheWeeknd_Cover5S.wav,,,,,,,,,,,,,,,,,,,,,,,,,,,,,,,,,,,,,,,,,,,,,,,,,,,,,
,,,,,519625,1,2024-07-13_00h34.31.525,experiment,2024.1.5,Win32,58.82352941,6691931c2c63981b064e1f0c,6691bd2536bed8eb2b8fdc35,,,,,,,,,,,,,,,,,,,,,,,,,,,,,,,,,,,,,,,,,,,,,,,,,,,,,,,,,,,,2009.7966,2035.8036,,,,,,,,0.0,5.0,5.0,10.0,1.0,SoundStimuli/BadDay_DanielPowter_Original5S.wav,,,,,,,,,,,,,,,,,,,,,,,,,,,,,,,,,,,,,,,,,,,,,,,,,,,,,
,,,,,519625,1,2024-07-13_00h34.31.525,experiment,2024.1.5,Win32,58.82352941,6691931c2c63981b064e1f0c,6691bd2536bed8eb2b8fdc35,,,,,,,,,,,,,,,,,,,,,,,,,,,,,,,,,,,,,,,,,,,,,,,,,,,,,,,,,,,,2035.8061,2042.4095,0.214433021,0.061597922,1.0,0.0,0.0,0.6017,compass,0.0,6.0,6.0,22.0,1.0,SoundStimuli/RockWithYou_MichaelJackson_Cover5S.wav,,,,,,,,,,,,,,,,,,,,,,,,,,,,,,,,,,,,,,,,,,,,,,,,,,,,,
,,,,,519625,1,2024-07-13_00h34.31.525,experiment,2024.1.5,Win32,58.82352941,6691931c2c63981b064e1f0c,6691bd2536bed8eb2b8fdc35,,,,,,,,,,,,,,,,,,,,,,,,,,,,,,,,,,,,,,,,,,,,,,,,,,,,,,,,,,,,2042.4116,2048.8033,0.113402062,0.209020575,1.0,0.0,0.0,0.3846,compass,0.0,7.0,7.0,12.0,1.0,SoundStimuli/IWillAlwaysLoveYou_WhitneyHouston_Original5S.wav,,,,,,,,,,,,,,,,,,,,,,,,,,,,,,,,,,,,,,,,,,,,,,,,,,,,,
,,,,,519625,1,2024-07-13_00h34.31.525,experiment,2024.1.5,Win32,58.82352941,6691931c2c63981b064e1f0c,6691bd2536bed8eb2b8fdc35,,,,,,,,,,,,,,,,,,,,,,,,,,,,,,,,,,,,,,,,,,,,,,,,,,,,,,,,,,,,2048.8039,2055.9816,0.113402062,0.209020575,1.0,0.0,0.0,1.1675,compass,0.0,8.0,8.0,0.0,1.0,SoundStimuli/StayinAlive_BeeGees_Cover5S.wav,,,,,,,,,,,,,,,,,,,,,,,,,,,,,,,,,,,,,,,,,,,,,,,,,,,,,
,,,,,519625,1,2024-07-13_00h34.31.525,experiment,2024.1.5,Win32,58.82352941,6691931c2c63981b064e1f0c,6691bd2536bed8eb2b8fdc35,,,,,,,,,,,,,,,,,,,,,,,,,,,,,,,,,,,,,,,,,,,,,,,,,,,,,,,,,,,,2055.9822,2062.8393,-0.206185567,0.185309282,1.0,0.0,0.0,0.849,compass,0.0,9.0,9.0,29.0,1.0,SoundStimuli/OldTownRoad_LilNasX_Cover5S.wav,,,,,,,,,,,,,,,,,,,,,,,,,,,,,,,,,,,,,,,,,,,,,,,,,,,,,
,,,,,519625,1,2024-07-13_00h34.31.525,experiment,2024.1.5,Win32,58.82352941,6691931c2c63981b064e1f0c,6691bd2536bed8eb2b8fdc35,,,,,,,,,,,,,,,,,,,,,,,,,,,,,,,,,,,,,,,,,,,,,,,,,,,,,,,,,,,,2062.8406,2068.9181,-0.163917542,0.065721649,1.0,0.0,0.0,0.0768,compass,0.0,10.0,10.0,24.0,1.0,SoundStimuli/UptownFunk_MarkRonson_Cover5S.wav,,,,,,,,,,,,,,,,,,,,,,,,,,,,,,,,,,,,,,,,,,,,,,,,,,,,,
,,,,,519625,1,2024-07-13_00h34.31.525,experiment,2024.1.5,Win32,58.82352941,6691931c2c63981b064e1f0c,6691bd2536bed8eb2b8fdc35,,,,,,,,,,,,,,,,,,,,,,,,,,,,,,,,,,,,,,,,,,,,,,,,,,,,,,,,,,,,2068.9199,2084.6862,-0.362886606,0.394587625,1.0,0.0,0.0,9.2658,compass,0.0,11.0,11.0,21.0,1.0,SoundStimuli/GoodGollyMissMolly_LittleRichard_Original5S.wav,,,,,,,,,,,,,,,,,,,,,,,,,,,,,,,,,,,,,,,,,,,,,,,,,,,,,
,,,,,519625,1,2024-07-13_00h34.31.525,experiment,2024.1.5,Win32,58.82352941,6691931c2c63981b064e1f0c,6691bd2536bed8eb2b8fdc35,,,,,,,,,,,,,,,,,,,,,,,,,,,,,,,,,,,,,,,,,,,,,,,,,,,,,,,,,,,,2084.687,2090.8226,-0.037113386,0.103865987,1.0,0.0,0.0,0.1263,compass,0.0,12.0,12.0,11.0,1.0,SoundStimuli/Superstition_StevieWonder_Original5S.wav,,,,,,,,,,,,,,,,,,,,,,,,,,,,,,,,,,,,,,,,,,,,,,,,,,,,,
,,,,,519625,1,2024-07-13_00h34.31.525,experiment,2024.1.5,Win32,58.82352941,6691931c2c63981b064e1f0c,6691bd2536bed8eb2b8fdc35,,,,,,,,,,,,,,,,,,,,,,,,,,,,,,,,,,,,,,,,,,,,,,,,,,,,,,,,,,,,2090.8231,2098.3206,0.196907201,0.159536067,1.0,0.0,0.0,1.4817,compass,0.0,13.0,13.0,23.0,1.0,SoundStimuli/StrawberryFieldsForever_TheBeatles_Cover5S.wav,,,,,,,,,,,,,,,,,,,,,,,,,,,,,,,,,,,,,,,,,,,,,,,,,,,,,
,,,,,519625,1,2024-07-13_00h34.31.525,experiment,2024.1.5,Win32,58.82352941,6691931c2c63981b064e1f0c,6691bd2536bed8eb2b8fdc35,,,,,,,,,,,,,,,,,,,,,,,,,,,,,,,,,,,,,,,,,,,,,,,,,,,,,,,,,,,,2098.3217,2104.6855,0.267010325,-0.2033505,1.0,0.0,0.0,0.3519,compass,0.0,14.0,14.0,5.0,1.0,SoundStimuli/MyGirl_TheTemptations_Cover5S.wav,,,,,,,,,,,,,,,,,,,,,,,,,,,,,,,,,,,,,,,,,,,,,,,,,,,,,
,,,,,519625,1,2024-07-13_00h34.31.525,experiment,2024.1.5,Win32,58.82352941,6691931c2c63981b064e1f0c,6691bd2536bed8eb2b8fdc35,,,,,,,,,,,,,,,,,,,,,,,,,,,,,,,,,,,,,,,,,,,,,,,,,,,,,,,,,,,,2104.6874,2112.8075,0.259793862,0.165721657,1.0,0.0,0.0,2.1149,compass,0.0,15.0,15.0,4.0,1.0,SoundStimuli/GetUrFreakOn_MissyElliot_Cover5S.wav,,,,,,,,,,,,,,,,,,,,,,,,,,,,,,,,,,,,,,,,,,,,,,,,,,,,,
,,,,,519625,1,2024-07-13_00h34.31.525,experiment,2024.1.5,Win32,58.82352941,6691931c2c63981b064e1f0c,6691bd2536bed8eb2b8fdc35,,,,,,,,,,,,,,,,,,,,,,,,,,,,,,,,,,,,,,,,,,,,,,,,,,,,,,,,,,,,2112.8082,2120.2363,0.131958794,-0.155927835,1.0,0.0,0.0,1.4153,compass,0.0,16.0,16.0,16.0,1.0,SoundStimuli/BohemianRhapsody_Queen_Cover5S.wav,,,,,,,,,,,,,,,,,,,,,,,,,,,,,,,,,,,,,,,,,,,,,,,,,,,,,
,,,,,519625,1,2024-07-13_00h34.31.525,experiment,2024.1.5,Win32,58.82352941,6691931c2c63981b064e1f0c,6691bd2536bed8eb2b8fdc35,,,,,,,,,,,,,,,,,,,,,,,,,,,,,,,,,,,,,,,,,,,,,,,,,,,,,,,,,,,,2120.2367,2127.9306,0.242268041,-0.082731974,1.0,0.0,0.0,1.6854,compass,0.0,17.0,17.0,18.0,1.0,SoundStimuli/AnotherOneBitesTheDust_Queen_Cover5S.wav,,,,,,,,,,,,,,,,,,,,,,,,,,,,,,,,,,,,,,,,,,,,,,,,,,,,,
,,,,,519625,1,2024-07-13_00h34.31.525,experiment,2024.1.5,Win32,58.82352941,6691931c2c63981b064e1f0c,6691bd2536bed8eb2b8fdc35,,,,,,,,,,,,,,,,,,,,,,,,,,,,,,,,,,,,,,,,,,,,,,,,,,,,,,,,,,,,2127.932,2134.6955,0.250515495,0.086340206,1.0,0.0,0.0,0.7517,compass,0.0,18.0,18.0,34.0,1.0,SoundStimuli/AChangeIsGonnaCome_SamCooke_Original5S.wav,,,,,,,,,,,,,,,,,,,,,,,,,,,,,,,,,,,,,,,,,,,,,,,,,,,,,
,,,,,519625,1,2024-07-13_00h34.31.525,experiment,2024.1.5,Win32,58.82352941,6691931c2c63981b064e1f0c,6691bd2536bed8eb2b8fdc35,,,,,,,,,,,,,,,,,,,,,,,,,,,,,,,,,,,,,,,,,,,,,,,,,,,,,,,,,,,,2134.6963,2140.7153,0.265979413,0.124484544,1.0,0.0,0.0,0.0144,compass,0.0,19.0,19.0,27.0,1.0,SoundStimuli/ShapeofYou_EdSheeran_Cover5S.wav,,,,,,,,,,,,,,,,,,,,,,,,,,,,,,,,,,,,,,,,,,,,,,,,,,,,,
,,,,,519625,1,2024-07-13_00h34.31.525,experiment,2024.1.5,Win32,58.82352941,6691931c2c63981b064e1f0c,6691bd2536bed8eb2b8fdc35,,,,,,,,,,,,,,,,,,,,,,,,,,,,,,,,,,,,,,,,,,,,,,,,,,,,,,,,,,,,2140.7158,2148.1812,0.275257779,0.109020626,1.0,0.0,0.0,1.4555,compass,0.0,20.0,20.0,32.0,1.0,SoundStimuli/HeatWaves_GlassAnimals_Cover5S.wav,,,,,,,,,,,,,,,,,,,,,,,,,,,,,,,,,,,,,,,,,,,,,,,,,,,,,
,,,,,519625,1,2024-07-13_00h34.31.525,experiment,2024.1.5,Win32,58.82352941,6691931c2c63981b064e1f0c,6691bd2536bed8eb2b8fdc35,,,,,,,,,,,,,,,,,,,,,,,,,,,,,,,,,,,,,,,,,,,,,,,,,,,,,,,,,,,,2148.1818,2154.4083,-0.11237115,0.084278343,1.0,0.0,0.0,0.2194,compass,0.0,21.0,21.0,25.0,1.0,SoundStimuli/Respect_ArethaFranklin_Cover5S.wav,,,,,,,,,,,,,,,,,,,,,,,,,,,,,,,,,,,,,,,,,,,,,,,,,,,,,
,,,,,519625,1,2024-07-13_00h34.31.525,experiment,2024.1.5,Win32,58.82352941,6691931c2c63981b064e1f0c,6691bd2536bed8eb2b8fdc35,,,,,,,,,,,,,,,,,,,,,,,,,,,,,,,,,,,,,,,,,,,,,,,,,,,,,,,,,,,,2154.4095,2161.1075,-0.119587613,0.119329905,1.0,0.0,0.0,0.6894,compass,0.0,22.0,22.0,26.0,1.0,SoundStimuli/LivinOnAPrayer_BonJovi_Original5S.wav,,,,,,,,,,,,,,,,,,,,,,,,,,,,,,,,,,,,,,,,,,,,,,,,,,,,,
,,,,,519625,1,2024-07-13_00h34.31.525,experiment,2024.1.5,Win32,58.82352941,6691931c2c63981b064e1f0c,6691bd2536bed8eb2b8fdc35,,,,,,,,,,,,,,,,,,,,,,,,,,,,,,,,,,,,,,,,,,,,,,,,,,,,,,,,,,,,2161.1094,2168.4221,0.291752609,0.202835044,1.0,0.0,0.0,1.2989,compass,0.0,23.0,23.0,6.0,1.0,SoundStimuli/Levitating_DuaLipa_Original5S.wav,,,,,,,,,,,,,,,,,,,,,,,,,,,,,,,,,,,,,,,,,,,,,,,,,,,,,
,,,,,519625,1,2024-07-13_00h34.31.525,experiment,2024.1.5,Win32,58.82352941,6691931c2c63981b064e1f0c,6691bd2536bed8eb2b8fdc35,,,,,,,,,,,,,,,,,,,,,,,,,,,,,,,,,,,,,,,,,,,,,,,,,,,,,,,,,,,,2168.4234,2174.6733,-0.079381412,0.098711348,1.0,0.0,0.0,0.2379,compass,0.0,24.0,24.0,1.0,1.0,SoundStimuli/Stronger_KanyeWest_Cover5S.wav,,,,,,,,,,,,,,,,,,,,,,,,,,,,,,,,,,,,,,,,,,,,,,,,,,,,,
,,,,,519625,1,2024-07-13_00h34.31.525,experiment,2024.1.5,Win32,58.82352941,6691931c2c63981b064e1f0c,6691bd2536bed8eb2b8fdc35,,,,,,,,,,,,,,,,,,,,,,,,,,,,,,,,,,,,,,,,,,,,,,,,,,,,,,,,,,,,2174.674,2180.9187,0.196907201,0.144072149,1.0,0.0,0.0,0.2331,compass,0.0,25.0,25.0,33.0,1.0,SoundStimuli/StandByMe_BenEKing_Original5S.wav,,,,,,,,,,,,,,,,,,,,,,,,,,,,,,,,,,,,,,,,,,,,,,,,,,,,,
,,,,,519625,1,2024-07-13_00h34.31.525,experiment,2024.1.5,Win32,58.82352941,6691931c2c63981b064e1f0c,6691bd2536bed8eb2b8fdc35,,,,,,,,,,,,,,,,,,,,,,,,,,,,,,,,,,,,,,,,,,,,,,,,,,,,,,,,,,,,2180.9206,2187.6041,-0.119587613,0.123453593,1.0,0.0,0.0,0.6808,compass,0.0,26.0,26.0,2.0,1.0,SoundStimuli/Mood_24kGoldnianndior_Original5S.wav,,,,,,,,,,,,,,,,,,,,,,,,,,,,,,,,,,,,,,,,,,,,,,,,,,,,,
,,,,,519625,1,2024-07-13_00h34.31.525,experiment,2024.1.5,Win32,58.82352941,6691931c2c63981b064e1f0c,6691bd2536bed8eb2b8fdc35,,,,,,,,,,,,,,,,,,,,,,,,,,,,,,,,,,,,,,,,,,,,,,,,,,,,,,,,,,,,2187.6051,2194.6485,0.273195876,-0.270360809,1.0,0.0,0.0,1.0307,compass,0.0,27.0,27.0,3.0,1.0,SoundStimuli/NoScrubs_TLC_Cover5S.wav,,,,,,,,,,,,,,,,,,,,,,,,,,,,,,,,,,,,,,,,,,,,,,,,,,,,,
,,,,,519625,1,2024-07-13_00h34.31.525,experiment,2024.1.5,Win32,58.82352941,6691931c2c63981b064e1f0c,6691bd2536bed8eb2b8fdc35,,,,,,,,,,,,,,,,,,,,,,,,,,,,,,,,,,,,,,,,,,,,,,,,,,,,,,,,,,,,2194.6502,2201.7792,0.167010356,0.036855678,1.0,0.0,0.0,1.1186,compass,0.0,28.0,28.0,20.0,1.0,SoundStimuli/HeyYa_Outkast_Original5S.wav,,,,,,,,,,,,,,,,,,,,,,,,,,,,,,,,,,,,,,,,,,,,,,,,,,,,,
,,,,,519625,1,2024-07-13_00h34.31.525,experiment,2024.1.5,Win32,58.82352941,6691931c2c63981b064e1f0c,6691bd2536bed8eb2b8fdc35,,,,,,,,,,,,,,,,,,,,,,,,,,,,,,,,,,,,,,,,,,,,,,,,,,,,,,,,,,,,2201.7805,2210.1001,0.183505186,0.172938101,1.0,0.0,0.0,2.3136,compass,0.0,29.0,29.0,17.0,1.0,SoundStimuli/Fallin_AliciaKeys_Cover5S.wav,,,,,,,,,,,,,,,,,,,,,,,,,,,,,,,,,,,,,,,,,,,,,,,,,,,,,
,,,,,519625,1,2024-07-13_00h34.31.525,experiment,2024.1.5,Win32,58.82352941,6691931c2c63981b064e1f0c,6691bd2536bed8eb2b8fdc35,,,,,,,,,,,,,,,,,,,,,,,,,,,,,,,,,,,,,,,,,,,,,,,,,,,,,,,,,,,,2210.1036,2216.8733,0.237113402,-0.241494877,1.0,0.0,0.0,0.7573,compass,0.0,30.0,30.0,8.0,1.0,SoundStimuli/LikeAPrayer_Madonna_Cover5S.wav,,,,,,,,,,,,,,,,,,,,,,,,,,,,,,,,,,,,,,,,,,,,,,,,,,,,,
,,,,,519625,1,2024-07-13_00h34.31.525,experiment,2024.1.5,Win32,58.82352941,6691931c2c63981b064e1f0c,6691bd2536bed8eb2b8fdc35,,,,,,,,,,,,,,,,,,,,,,,,,,,,,,,,,,,,,,,,,,,,,,,,,,,,,,,,,,,,2216.8739,2225.1458,0.277319603,0.130670095,1.0,0.0,0.0,2.2519,compass,0.0,31.0,31.0,7.0,1.0,SoundStimuli/NoOne_AliciaKeys_Original5S.wav,,,,,,,,,,,,,,,,,,,,,,,,,,,,,,,,,,,,,,,,,,,,,,,,,,,,,
,,,,,519625,1,2024-07-13_00h34.31.525,experiment,2024.1.5,Win32,58.82352941,6691931c2c63981b064e1f0c,6691bd2536bed8eb2b8fdc35,,,,,,,,,,,,,,,,,,,,,,,,,,,,,,,,,,,,,,,,,,,,,,,,,,,,,,,,,,,,2225.1466,2231.608,-0.01134019,0.151288652,1.0,0.0,0.0,0.4602,compass,0.0,32.0,32.0,30.0,1.0,SoundStimuli/PokerFace_LadyGaga_Cover5S.wav,,,,,,,,,,,,,,,,,,,,,,,,,,,,,,,,,,,,,,,,,,,,,,,,,,,,,
,,,,,519625,1,2024-07-13_00h34.31.525,experiment,2024.1.5,Win32,58.82352941,6691931c2c63981b064e1f0c,6691bd2536bed8eb2b8fdc35,,,,,,,,,,,,,,,,,,,,,,,,,,,,,,,,,,,,,,,,,,,,,,,,,,,,,,,,,,,,2231.6089,2238.7677,-0.01134019,0.151288652,1.0,0.0,0.0,1.1428,compass,0.0,33.0,33.0,28.0,1.0,SoundStimuli/ComeAndGetYourLove_Redbone_Cover5S.wav,,,,,,,,,,,,,,,,,,,,,,,,,,,,,,,,,,,,,,,,,,,,,,,,,,,,,
,,,,,519625,1,2024-07-13_00h34.31.525,experiment,2024.1.5,Win32,58.82352941,6691931c2c63981b064e1f0c,6691bd2536bed8eb2b8fdc35,,,,,,,,,,,,,,,,,,,,,,,,,,,,,,,,,,,,,,,,,,,,,,,,,,,,,,,,,,,,2238.7681,2246.8425,0.230927851,-0.17551548,1.0,0.0,0.0,2.0722,compass,0.0,34.0,34.0,31.0,1.0,SoundStimuli/TheBattleOfNewOrleans_JohnnyHorton_Original5S.wav,,,,,,,,,,,,,,,,,,,,,,,,,,,,,,,,,,,,,,,,,,,,,,,,,,,,,
,,,,,519625,1,2024-07-13_00h34.31.525,experiment,2024.1.5,Win32,58.82352941,6691931c2c63981b064e1f0c,6691bd2536bed8eb2b8fdc35,,,,,,,,,,,,,,,,,,,,,,,,,,,,,,,,,,,,,,,,,,,,,,,,,,,,,,,,,,,,,,,,,,,,,,,,,,,2246.8442,2246.8448,,,,2246.845,2246.8453,,,,0.0,3.0,3.0,3.0,1.0,block_order/blockC.xlsx,,,,,,,,,,,,,,,,,,,,,,,,,,,,,,,,,,,,,
,,,,,519625,1,2024-07-13_00h34.31.525,experiment,2024.1.5,Win32,58.82352941,6691931c2c63981b064e1f0c,6691bd2536bed8eb2b8fdc35,,,,,,,,,,,,,,,,,,,,,,,,,,,,,,,,,,,,,,,,,,,,,,,,,,,,,,,,,,,,,,,,,,,,,,,,,,,,,,,,,,,,,,,,,,,25.0,Item 2,Item 5,YOUTUBE,self taught pianist,5.0,7.0,exercising,Sometimes,Rarely,Rarely,Rarely,Rarely,Sometimes,Often,Rarely,Sometimes,Rarely,Rarely,Always,Sometimes,Rarely,Rarely,Always,rap,Pop,latin,rap,I listen to music more than before,I listen to music everyday. It has become an integral part of life. The constant search for new music and the unending love for existing ones.,0.0,0.0,0.0,0.0,1.0,,
,,,,,519625,1,2024-07-13_00h34.31.525,experiment,2024.1.5,Win32,58.82352941,6691931c2c63981b064e1f0c,6691bd2536bed8eb2b8fdc35,,,,,,,,,,,,,,,,,,,,,,,,,,,,,,,,,,,,,,,,,,,,,,,,,,,,,,,,,,,,,,,,,,,,,,,,,,,,,,,,,,,,,,,,,,,,,,,,,,,,,,,,,,,,,,,,,,,,,,,,,,,,,,2664.9935,2666.2041
