welcome.started,welcome.stopped,space_to_continue.keys,space_to_continue.rt,space_to_continue.duration,participant,session,date,expName,psychopyVersion,OS,frameRate,STUDY_ID,SESSION_ID,consent.consent,consent.consent_recontact,consent_check.started,consent_check.stopped,calibration_ready.started,calibration_ready.stopped,cal_ready.keys,cal_ready.rt,cal_ready.duration,calibration.started,calibration.stopped,mouse.x,mouse.y,mouse.leftButton,mouse.midButton,mouse.rightButton,mouse.time,mouse.clicked_name,move_on.keys,move_on.rt,move_on.duration,run_cal.thisRepN,run_cal.thisTrialN,run_cal.thisN,run_cal.thisIndex,run_cal.ran,emotion_training_ready.started,emotion_training_ready.stopped,training_move_on.keys,training_move_on.rt,training_move_on.duration,examples.started,examples.stopped,emotion_scale.started,emotion_scale.stopped,scale_next.keys,scale_next.rt,scale_next.duration,instructions.started,instructions.stopped,next.keys,next.rt,next.duration,practice_task.started,practice_task.stopped,mouse_rating_2.x,mouse_rating_2.y,mouse_rating_2.leftButton,mouse_rating_2.midButton,mouse_rating_2.rightButton,mouse_rating_2.time,mouse_rating_2.clicked_name,ready.started,ready.stopped,key_resp.keys,key_resp.rt,key_resp.duration,set_group.started,set_group.stopped,task.started,task.stopped,mouse_rating.x,mouse_rating.y,mouse_rating.leftButton,mouse_rating.midButton,mouse_rating.rightButton,mouse_rating.time,mouse_rating.clicked_name,trials.thisRepN,trials.thisTrialN,trials.thisN,trials.thisIndex,trials.ran,clip,short_break.started,short_break.stopped,space_to_move_on.keys,space_to_move_on.rt,space_to_move_on.duration,instruction_reminder.started,instruction_reminder.stopped,reminder_move_on.keys,reminder_move_on.rt,reminder_move_on.duration,blocks.thisRepN,blocks.thisTrialN,blocks.thisN,blocks.thisIndex,blocks.ran,block,post_survey.age,post_survey.musician,post_survey.music_making,post_survey.listen_time,post_survey.medium,post_survey.music_seeking,post_survey.music_choice,post_survey.activities,post_survey.question1.Folk/indie,post_survey.question1.Hip hop,post_survey.question1.Metal,post_survey.question1.Classical,post_survey.question1.Ambient,post_survey.question1.A cappella,post_survey.question1.Latin,post_survey.question1.Jazz,post_survey.question1.Electronic (EDM),post_survey.question1.R&B,post_survey.question1.Pop,post_survey.question1.Disco,post_survey.question1.Reggae,post_survey.question1.Alternative rock,post_survey.question1.Classic rock,post_survey.question1.Country,post_survey.genres_ranked.text1,post_survey.genres_ranked.text2,post_survey.genres_ranked.text3,post_survey.habit_change,show_exp.thisRepN,show_exp.thisTrialN,show_exp.thisN,show_exp.thisIndex,show_exp.ran,goodbye.started,goodbye.stopped
0.0012,1.0693,space,1.0448,,560951,1,2024-07-12_17h38.52.125,experiment,2024.1.5,MacIntel,64.1025641,6691931c2c63981b064e1f0c,6691b0571030406d5f22485f,,,,,,,,,,,,,,,,,,,,,,,,,,,,,,,,,,,,,,,,,,,,,,,,,,,,,,,,,,,,,,,,,,,,,,,,,,,,,,,,,,,,,,,,,,,,,,,,,,,,,,,,,,,,,,,,,,,,,,,,,,,,,
,,,,,560951,1,2024-07-12_17h38.52.125,experiment,2024.1.5,MacIntel,64.1025641,6691931c2c63981b064e1f0c,6691b0571030406d5f22485f,yes,yes,,,,,,,,,,,,,,,,,,,,,,,,,,,,,,,,,,,,,,,,,,,,,,,,,,,,,,,,,,,,,,,,,,,,,,,,,,,,,,,,,,,,,,,,,,,,,,,,,,,,,,,,,,,,,,,,,,,,,,,,,,,
,,,,,560951,1,2024-07-12_17h38.52.125,experiment,2024.1.5,MacIntel,64.1025641,6691931c2c63981b064e1f0c,6691b0571030406d5f22485f,,,16.6382,16.6384,,,,,,,,,,,,,,,,,,,,,,,,,,,,,,,,,,,,,,,,,,,,,,,,,,,,,,,,,,,,,,,,,,,,,,,,,,,,,,,,,,,,,,,,,,,,,,,,,,,,,,,,,,,,,,,,,,,,,,,,,
,,,,,560951,1,2024-07-12_17h38.52.125,experiment,2024.1.5,MacIntel,64.1025641,6691931c2c63981b064e1f0c,6691b0571030406d5f22485f,,,,,16.641,20.1361,space,3.4753,,20.1379,36.156,"[0.027115478515625,-0.015922580295138888]","[-0.4063201226128472,-0.4224825032552083]","[1,1]","[0,0]","[0,0]","[2.4352000000476863,4.600500000000004]","[""play_button""]",y,14.9909,,0.0,0.0,0.0,0.0,1.0,,,,,,,,,,,,,,,,,,,,,,,,,,,,,,,,,,,,,,,,,,,,,,,,,,,,,,,,,,,,,,,,,,,,,,,,,,,,,,,,,,,,,,,,,,,,,,,,,,,
,,,,,560951,1,2024-07-12_17h38.52.125,experiment,2024.1.5,MacIntel,64.1025641,6691931c2c63981b064e1f0c,6691b0571030406d5f22485f,,,,,,,,,,,,,,,,,,,,,,,,,,,36.1568,54.1231,space,17.9468,,54.1233,174.1336,174.134,183.8341,right,6.1734,,183.8347,188.6977,space,4.8321,,188.698,199.2979,0.172760824,-0.167398953,1.0,0.0,0.0,4.5837,compass_2,199.2983,201.2822,space,1.9653,,201.2825,201.2964,201.3294,207.8669,0.170599094,0.168077223,1.0,0.0,0.0,0.5339,compass,0.0,0.0,0.0,33.0,1.0,SoundStimuli/TheBoyIsMine_BrandyMonica_Cover5S.wav,,,,,,,,,,,,,,,,,,,,,,,,,,,,,,,,,,,,,,,,,,,,,,,,,,,
,,,,,560951,1,2024-07-12_17h38.52.125,experiment,2024.1.5,MacIntel,64.1025641,6691931c2c63981b064e1f0c,6691b0571030406d5f22485f,,,,,,,,,,,,,,,,,,,,,,,,,,,,,,,,,,,,,,,,,,,,,,,,,,,,,,,,,,,,207.8828,215.4488,-0.156563314,0.184167921,1.0,0.0,0.0,1.5654,compass,0.0,1.0,1.0,2.0,1.0,SoundStimuli/SmellsLikeTeenSpirit_Nirvana_Cover5S.wav,,,,,,,,,,,,,,,,,,,,,,,,,,,,,,,,,,,,,,,,,,,,,,,,,,,
,,,,,560951,1,2024-07-12_17h38.52.125,experiment,2024.1.5,MacIntel,64.1025641,6691931c2c63981b064e1f0c,6691b0571030406d5f22485f,,,,,,,,,,,,,,,,,,,,,,,,,,,,,,,,,,,,,,,,,,,,,,,,,,,,,,,,,,,,215.4615,226.4359,-0.174900852,-0.166401774,1.0,0.0,0.0,4.9693,compass,0.0,2.0,2.0,14.0,1.0,SoundStimuli/LikeARollingStone_BobDylan_Cover5S.wav,,,,,,,,,,,,,,,,,,,,,,,,,,,,,,,,,,,,,,,,,,,,,,,,,,,
,,,,,560951,1,2024-07-12_17h38.52.125,experiment,2024.1.5,MacIntel,64.1025641,6691931c2c63981b064e1f0c,6691b0571030406d5f22485f,,,,,,,,,,,,,,,,,,,,,,,,,,,,,,,,,,,,,,,,,,,,,,,,,,,,,,,,,,,,226.4484,235.4353,-0.173019341,0.181456367,1.0,0.0,0.0,2.9847,compass,0.0,3.0,3.0,31.0,1.0,SoundStimuli/TossinAndTurnin_BobbyLewis_Cover5S.wav,,,,,,,,,,,,,,,,,,,,,,,,,,,,,,,,,,,,,,,,,,,,,,,,,,,
,,,,,560951,1,2024-07-12_17h38.52.125,experiment,2024.1.5,MacIntel,64.1025641,6691931c2c63981b064e1f0c,6691b0571030406d5f22485f,,,,,,,,,,,,,,,,,,,,,,,,,,,,,,,,,,,,,,,,,,,,,,,,,,,,,,,,,,,,235.4466,242.0522,0.165789388,-0.171509196,1.0,0.0,0.0,0.6014,compass,0.0,4.0,4.0,8.0,1.0,SoundStimuli/EndlessLove_DianaRossLionelRichie_Original5S.wav,,,,,,,,,,,,,,,,,,,,,,,,,,,,,,,,,,,,,,,,,,,,,,,,,,,
,,,,,560951,1,2024-07-12_17h38.52.125,experiment,2024.1.5,MacIntel,64.1025641,6691931c2c63981b064e1f0c,6691b0571030406d5f22485f,,,,,,,,,,,,,,,,,,,,,,,,,,,,,,,,,,,,,,,,,,,,,,,,,,,,,,,,,,,,242.0678,249.0026,0.167015516,0.162904595,1.0,0.0,0.0,0.9333,compass,0.0,5.0,5.0,4.0,1.0,SoundStimuli/Dreams_FleetwoodMac_Cover5S.wav,,,,,,,,,,,,,,,,,,,,,,,,,,,,,,,,,,,,,,,,,,,,,,,,,,,
,,,,,560951,1,2024-07-12_17h38.52.125,experiment,2024.1.5,MacIntel,64.1025641,6691931c2c63981b064e1f0c,6691b0571030406d5f22485f,,,,,,,,,,,,,,,,,,,,,,,,,,,,,,,,,,,,,,,,,,,,,,,,,,,,,,,,,,,,249.0149,255.5519,0.17023173,0.170545756,1.0,0.0,0.0,0.533,compass,0.0,6.0,6.0,1.0,1.0,SoundStimuli/Smooth_SantanaRobThomas_Cover5S.wav,,,,,,,,,,,,,,,,,,,,,,,,,,,,,,,,,,,,,,,,,,,,,,,,,,,
,,,,,560951,1,2024-07-12_17h38.52.125,experiment,2024.1.5,MacIntel,64.1025641,6691931c2c63981b064e1f0c,6691b0571030406d5f22485f,,,,,,,,,,,,,,,,,,,,,,,,,,,,,,,,,,,,,,,,,,,,,,,,,,,,,,,,,,,,255.5679,262.7861,0.161258545,-0.16822659,1.0,0.0,0.0,1.217,compass,0.0,7.0,7.0,3.0,1.0,SoundStimuli/PartyRockAnthem_LMFAO_Cover5S.wav,,,,,,,,,,,,,,,,,,,,,,,,,,,,,,,,,,,,,,,,,,,,,,,,,,,
,,,,,560951,1,2024-07-12_17h38.52.125,experiment,2024.1.5,MacIntel,64.1025641,6691931c2c63981b064e1f0c,6691b0571030406d5f22485f,,,,,,,,,,,,,,,,,,,,,,,,,,,,,,,,,,,,,,,,,,,,,,,,,,,,,,,,,,,,262.7986,270.3363,0.165812717,0.162791951,1.0,0.0,0.0,1.5324,compass,0.0,8.0,8.0,26.0,1.0,SoundStimuli/TheSign_AceOfBase_Original5S.wav,,,,,,,,,,,,,,,,,,,,,,,,,,,,,,,,,,,,,,,,,,,,,,,,,,,
,,,,,560951,1,2024-07-12_17h38.52.125,experiment,2024.1.5,MacIntel,64.1025641,6691931c2c63981b064e1f0c,6691b0571030406d5f22485f,,,,,,,,,,,,,,,,,,,,,,,,,,,,,,,,,,,,,,,,,,,,,,,,,,,,,,,,,,,,270.3483,278.0368,-0.129860162,-0.089464518,1.0,0.0,0.0,1.6819,compass,0.0,9.0,9.0,23.0,1.0,SoundStimuli/IWalkTheLine_JohnnyCash_Cover5S.wav,,,,,,,,,,,,,,,,,,,,,,,,,,,,,,,,,,,,,,,,,,,,,,,,,,,
,,,,,560951,1,2024-07-12_17h38.52.125,experiment,2024.1.5,MacIntel,64.1025641,6691931c2c63981b064e1f0c,6691b0571030406d5f22485f,,,,,,,,,,,,,,,,,,,,,,,,,,,,,,,,,,,,,,,,,,,,,,,,,,,,,,,,,,,,278.0494,285.321,-0.20053087,-0.188499891,1.0,0.0,0.0,1.2666,compass,0.0,10.0,10.0,9.0,1.0,SoundStimuli/HowDoILive_LeAnnRimes_Original5S.wav,,,,,,,,,,,,,,,,,,,,,,,,,,,,,,,,,,,,,,,,,,,,,,,,,,,
,,,,,560951,1,2024-07-12_17h38.52.125,experiment,2024.1.5,MacIntel,64.1025641,6691931c2c63981b064e1f0c,6691b0571030406d5f22485f,,,,,,,,,,,,,,,,,,,,,,,,,,,,,,,,,,,,,,,,,,,,,,,,,,,,,,,,,,,,285.3373,293.5553,0.145718519,0.134438816,1.0,0.0,0.0,2.2174,compass,0.0,11.0,11.0,24.0,1.0,SoundStimuli/Kiss_Prince_Original5S.wav,,,,,,,,,,,,,,,,,,,,,,,,,,,,,,,,,,,,,,,,,,,,,,,,,,,
,,,,,560951,1,2024-07-12_17h38.52.125,experiment,2024.1.5,MacIntel,64.1025641,6691931c2c63981b064e1f0c,6691b0571030406d5f22485f,,,,,,,,,,,,,,,,,,,,,,,,,,,,,,,,,,,,,,,,,,,,,,,,,,,,,,,,,,,,293.5698,301.1882,0.139024455,0.162117513,1.0,0.0,0.0,1.6155,compass,0.0,12.0,12.0,7.0,1.0,SoundStimuli/MackTheKnife_BobbyDarin_Original5S.wav,,,,,,,,,,,,,,,,,,,,,,,,,,,,,,,,,,,,,,,,,,,,,,,,,,,
,,,,,560951,1,2024-07-12_17h38.52.125,experiment,2024.1.5,MacIntel,64.1025641,6691931c2c63981b064e1f0c,6691b0571030406d5f22485f,,,,,,,,,,,,,,,,,,,,,,,,,,,,,,,,,,,,,,,,,,,,,,,,,,,,,,,,,,,,301.2005,308.4058,0.125295342,-0.036993747,1.0,0.0,0.0,1.1995,compass,0.0,13.0,13.0,16.0,1.0,SoundStimuli/ItsAllInTheGame_TommyEdwards_Original5S.wav,,,,,,,,,,,,,,,,,,,,,,,,,,,,,,,,,,,,,,,,,,,,,,,,,,,
,,,,,560951,1,2024-07-12_17h38.52.125,experiment,2024.1.5,MacIntel,64.1025641,6691931c2c63981b064e1f0c,6691b0571030406d5f22485f,,,,,,,,,,,,,,,,,,,,,,,,,,,,,,,,,,,,,,,,,,,,,,,,,,,,,,,,,,,,308.4178,315.0075,-0.111572876,-0.020379028,1.0,0.0,0.0,0.585,compass,0.0,14.0,14.0,21.0,1.0,SoundStimuli/BridgeOverTroubledWater_SimonAndGarfunkel_Cover5S.wav,,,,,,,,,,,,,,,,,,,,,,,,,,,,,,,,,,,,,,,,,,,,,,,,,,,
,,,,,560951,1,2024-07-12_17h38.52.125,experiment,2024.1.5,MacIntel,64.1025641,6691931c2c63981b064e1f0c,6691b0571030406d5f22485f,,,,,,,,,,,,,,,,,,,,,,,,,,,,,,,,,,,,,,,,,,,,,,,,,,,,,,,,,,,,315.021,322.3068,0.08308431,0.154002414,1.0,0.0,0.0,1.2824,compass,0.0,15.0,15.0,34.0,1.0,SoundStimuli/Irreplaceable_Beyonce_Original5S.wav,,,,,,,,,,,,,,,,,,,,,,,,,,,,,,,,,,,,,,,,,,,,,,,,,,,
,,,,,560951,1,2024-07-12_17h38.52.125,experiment,2024.1.5,MacIntel,64.1025641,6691931c2c63981b064e1f0c,6691b0571030406d5f22485f,,,,,,,,,,,,,,,,,,,,,,,,,,,,,,,,,,,,,,,,,,,,,,,,,,,,,,,,,,,,322.3191,328.7914,0.142218357,-0.018582628,1.0,0.0,0.0,0.4672,compass,0.0,16.0,16.0,30.0,1.0,SoundStimuli/SomebodyThatIUsedtoKnow_Gotye_Cover5S.wav,,,,,,,,,,,,,,,,,,,,,,,,,,,,,,,,,,,,,,,,,,,,,,,,,,,
,,,,,560951,1,2024-07-12_17h38.52.125,experiment,2024.1.5,MacIntel,64.1025641,6691931c2c63981b064e1f0c,6691b0571030406d5f22485f,,,,,,,,,,,,,,,,,,,,,,,,,,,,,,,,,,,,,,,,,,,,,,,,,,,,,,,,,,,,328.8034,335.4762,-0.267606337,-0.058853692,1.0,0.0,0.0,0.6681,compass,0.0,17.0,17.0,28.0,1.0,SoundStimuli/IWantToHoldYourHand_TheBeatles_Cover5S.wav,,,,,,,,,,,,,,,,,,,,,,,,,,,,,,,,,,,,,,,,,,,,,,,,,,,
,,,,,560951,1,2024-07-12_17h38.52.125,experiment,2024.1.5,MacIntel,64.1025641,6691931c2c63981b064e1f0c,6691b0571030406d5f22485f,,,,,,,,,,,,,,,,,,,,,,,,,,,,,,,,,,,,,,,,,,,,,,,,,,,,,,,,,,,,335.4929,342.3924,0.137787204,-0.009879557,1.0,0.0,0.0,0.884,compass,0.0,18.0,18.0,0.0,1.0,SoundStimuli/GimmeShelter_RollingStones_Cover5S.wav,,,,,,,,,,,,,,,,,,,,,,,,,,,,,,,,,,,,,,,,,,,,,,,,,,,
,,,,,560951,1,2024-07-12_17h38.52.125,experiment,2024.1.5,MacIntel,64.1025641,6691931c2c63981b064e1f0c,6691b0571030406d5f22485f,,,,,,,,,,,,,,,,,,,,,,,,,,,,,,,,,,,,,,,,,,,,,,,,,,,,,,,,,,,,342.4078,349.0759,0.285877075,0.285580851,1.0,0.0,0.0,0.667,compass,0.0,19.0,19.0,6.0,1.0,SoundStimuli/SaveYourTears_TheWeekndArianaGrande_Original5S.wav,,,,,,,,,,,,,,,,,,,,,,,,,,,,,,,,,,,,,,,,,,,,,,,,,,,
,,,,,560951,1,2024-07-12_17h38.52.125,experiment,2024.1.5,MacIntel,64.1025641,6691931c2c63981b064e1f0c,6691b0571030406d5f22485f,,,,,,,,,,,,,,,,,,,,,,,,,,,,,,,,,,,,,,,,,,,,,,,,,,,,,,,,,,,,349.0905,356.1606,0.271516995,0.268528765,1.0,0.0,0.0,1.0664,compass,0.0,20.0,20.0,22.0,1.0,SoundStimuli/Happy_PharellWilliams_Cover5S.wav,,,,,,,,,,,,,,,,,,,,,,,,,,,,,,,,,,,,,,,,,,,,,,,,,,,
,,,,,560951,1,2024-07-12_17h38.52.125,experiment,2024.1.5,MacIntel,64.1025641,6691931c2c63981b064e1f0c,6691b0571030406d5f22485f,,,,,,,,,,,,,,,,,,,,,,,,,,,,,,,,,,,,,,,,,,,,,,,,,,,,,,,,,,,,356.1761,362.5933,0.243745524,-0.054450412,1.0,0.0,0.0,0.4006,compass,0.0,21.0,21.0,32.0,1.0,SoundStimuli/Dilemma_NellyKellyRowland_Original5S.wav,,,,,,,,,,,,,,,,,,,,,,,,,,,,,,,,,,,,,,,,,,,,,,,,,,,
,,,,,560951,1,2024-07-12_17h38.52.125,experiment,2024.1.5,MacIntel,64.1025641,6691931c2c63981b064e1f0c,6691b0571030406d5f22485f,,,,,,,,,,,,,,,,,,,,,,,,,,,,,,,,,,,,,,,,,,,,,,,,,,,,,,,,,,,,362.6059,371.5949,0.178316447,-0.115388319,1.0,0.0,0.0,2.9831,compass,0.0,22.0,22.0,13.0,1.0,SoundStimuli/Perfect_EdSheeran_Original5S.wav,,,,,,,,,,,,,,,,,,,,,,,,,,,,,,,,,,,,,,,,,,,,,,,,,,,
,,,,,560951,1,2024-07-12_17h38.52.125,experiment,2024.1.5,MacIntel,64.1025641,6691931c2c63981b064e1f0c,6691b0571030406d5f22485f,,,,,,,,,,,,,,,,,,,,,,,,,,,,,,,,,,,,,,,,,,,,,,,,,,,,,,,,,,,,371.6104,378.0613,0.136423272,0.079517822,1.0,0.0,0.0,0.4502,compass,0.0,23.0,23.0,15.0,1.0,SoundStimuli/CrazyInLove_BeyonceFtJayZ_Original5S.wav,,,,,,,,,,,,,,,,,,,,,,,,,,,,,,,,,,,,,,,,,,,,,,,,,,,
,,,,,560951,1,2024-07-12_17h38.52.125,experiment,2024.1.5,MacIntel,64.1025641,6691931c2c63981b064e1f0c,6691b0571030406d5f22485f,,,,,,,,,,,,,,,,,,,,,,,,,,,,,,,,,,,,,,,,,,,,,,,,,,,,,,,,,,,,378.0758,385.2437,0.242705349,0.23122701,1.0,0.0,0.0,1.1664,compass,0.0,24.0,24.0,27.0,1.0,SoundStimuli/EyeOfTheTiger_Survivor_Original5S.wav,,,,,,,,,,,,,,,,,,,,,,,,,,,,,,,,,,,,,,,,,,,,,,,,,,,
,,,,,560951,1,2024-07-12_17h38.52.125,experiment,2024.1.5,MacIntel,64.1025641,6691931c2c63981b064e1f0c,6691b0571030406d5f22485f,,,,,,,,,,,,,,,,,,,,,,,,,,,,,,,,,,,,,,,,,,,,,,,,,,,,,,,,,,,,385.2555,392.1784,0.098992106,0.182177599,1.0,0.0,0.0,0.9165,compass,0.0,25.0,25.0,11.0,1.0,SoundStimuli/BlurredLines_RobinThicke_Original5S.wav,,,,,,,,,,,,,,,,,,,,,,,,,,,,,,,,,,,,,,,,,,,,,,,,,,,
,,,,,560951,1,2024-07-12_17h38.52.125,experiment,2024.1.5,MacIntel,64.1025641,6691931c2c63981b064e1f0c,6691b0571030406d5f22485f,,,,,,,,,,,,,,,,,,,,,,,,,,,,,,,,,,,,,,,,,,,,,,,,,,,,,,,,,,,,392.1899,399.7787,0.043337809,0.02848626,1.0,0.0,0.0,1.5824,compass,0.0,26.0,26.0,5.0,1.0,SoundStimuli/JoyToTheWorld_ThreeDogNight_Cover5S.wav,,,,,,,,,,,,,,,,,,,,,,,,,,,,,,,,,,,,,,,,,,,,,,,,,,,
,,,,,560951,1,2024-07-12_17h38.52.125,experiment,2024.1.5,MacIntel,64.1025641,6691931c2c63981b064e1f0c,6691b0571030406d5f22485f,,,,,,,,,,,,,,,,,,,,,,,,,,,,,,,,,,,,,,,,,,,,,,,,,,,,,,,,,,,,399.7967,407.2123,0.068336995,0.02423367,1.0,0.0,0.0,1.3991,compass,0.0,27.0,27.0,20.0,1.0,SoundStimuli/FlashdanceWhatAFeeling_IreneCara_Cover5S.wav,,,,,,,,,,,,,,,,,,,,,,,,,,,,,,,,,,,,,,,,,,,,,,,,,,,
,,,,,560951,1,2024-07-12_17h38.52.125,experiment,2024.1.5,MacIntel,64.1025641,6691931c2c63981b064e1f0c,6691b0571030406d5f22485f,,,,,,,,,,,,,,,,,,,,,,,,,,,,,,,,,,,,,,,,,,,,,,,,,,,,,,,,,,,,407.2246,415.6138,0.165956692,0.080340034,1.0,0.0,0.0,2.3836,compass,0.0,28.0,28.0,10.0,1.0,SoundStimuli/LeFreak_Chic_Original5S.wav,,,,,,,,,,,,,,,,,,,,,,,,,,,,,,,,,,,,,,,,,,,,,,,,,,,
,,,,,560951,1,2024-07-12_17h38.52.125,experiment,2024.1.5,MacIntel,64.1025641,6691931c2c63981b064e1f0c,6691b0571030406d5f22485f,,,,,,,,,,,,,,,,,,,,,,,,,,,,,,,,,,,,,,,,,,,,,,,,,,,,,,,,,,,,415.6254,421.9822,0.180362074,-0.04436381,1.0,0.0,0.0,0.3502,compass,0.0,29.0,29.0,29.0,1.0,SoundStimuli/BetteDavisEyes_KimCarnes_Cover5S.wav,,,,,,,,,,,,,,,,,,,,,,,,,,,,,,,,,,,,,,,,,,,,,,,,,,,
,,,,,560951,1,2024-07-12_17h38.52.125,experiment,2024.1.5,MacIntel,64.1025641,6691931c2c63981b064e1f0c,6691b0571030406d5f22485f,,,,,,,,,,,,,,,,,,,,,,,,,,,,,,,,,,,,,,,,,,,,,,,,,,,,,,,,,,,,421.9975,429.7152,-0.254022963,-0.129091933,1.0,0.0,0.0,1.7169,compass,0.0,30.0,30.0,17.0,1.0,SoundStimuli/IWannaDanceWithSomebody_WhitneyHouston_Cover5S.wav,,,,,,,,,,,,,,,,,,,,,,,,,,,,,,,,,,,,,,,,,,,,,,,,,,,
,,,,,560951,1,2024-07-12_17h38.52.125,experiment,2024.1.5,MacIntel,64.1025641,6691931c2c63981b064e1f0c,6691b0571030406d5f22485f,,,,,,,,,,,,,,,,,,,,,,,,,,,,,,,,,,,,,,,,,,,,,,,,,,,,,,,,,,,,429.7285,438.6987,-0.060449015,0.043892721,1.0,0.0,0.0,2.9667,compass,0.0,31.0,31.0,19.0,1.0,SoundStimuli/YouLightUpMyLife_DebbyBoone_Cover5S.wav,,,,,,,,,,,,,,,,,,,,,,,,,,,,,,,,,,,,,,,,,,,,,,,,,,,
,,,,,560951,1,2024-07-12_17h38.52.125,experiment,2024.1.5,MacIntel,64.1025641,6691931c2c63981b064e1f0c,6691b0571030406d5f22485f,,,,,,,,,,,,,,,,,,,,,,,,,,,,,,,,,,,,,,,,,,,,,,,,,,,,,,,,,,,,438.711,445.1165,0.131574436,0.101972521,1.0,0.0,0.0,0.401,compass,0.0,32.0,32.0,12.0,1.0,SoundStimuli/UnbreakMyHeart_ToniBraxton_Cover5S.wav,,,,,,,,,,,,,,,,,,,,,,,,,,,,,,,,,,,,,,,,,,,,,,,,,,,
,,,,,560951,1,2024-07-12_17h38.52.125,experiment,2024.1.5,MacIntel,64.1025641,6691931c2c63981b064e1f0c,6691b0571030406d5f22485f,,,,,,,,,,,,,,,,,,,,,,,,,,,,,,,,,,,,,,,,,,,,,,,,,,,,,,,,,,,,445.1307,451.7843,0.165950792,0.171781345,1.0,0.0,0.0,0.6512,compass,0.0,33.0,33.0,25.0,1.0,SoundStimuli/IllMakeLoveToYou_BoyzIIMen_Original5S.wav,,,,,,,,,,,,,,,,,,,,,,,,,,,,,,,,,,,,,,,,,,,,,,,,,,,
,,,,,560951,1,2024-07-12_17h38.52.125,experiment,2024.1.5,MacIntel,64.1025641,6691931c2c63981b064e1f0c,6691b0571030406d5f22485f,,,,,,,,,,,,,,,,,,,,,,,,,,,,,,,,,,,,,,,,,,,,,,,,,,,,,,,,,,,,451.7971,458.0326,0.118640951,-0.018457811,1.0,0.0,0.0,0.2321,compass,0.0,34.0,34.0,18.0,1.0,SoundStimuli/Weak_SWV_Original5S.wav,,,,,,,,,,,,,,,,,,,,,,,,,,,,,,,,,,,,,,,,,,,,,,,,,,,
,,,,,560951,1,2024-07-12_17h38.52.125,experiment,2024.1.5,MacIntel,64.1025641,6691931c2c63981b064e1f0c,6691b0571030406d5f22485f,,,,,,,,,,,,,,,,,,,,,,,,,,,,,,,,,,,,,,,,,,,,,,,,,,,,,,,,,,,,,,,,,,,,,,,,,,,458.0463,468.0184,space,9.9596,,468.0185,473.1032,right,5.0722,,0.0,0.0,0.0,0.0,1.0,block_order/blockB.xlsx,,,,,,,,,,,,,,,,,,,,,,,,,,,,,,,,,,,
,,,,,560951,1,2024-07-12_17h38.52.125,experiment,2024.1.5,MacIntel,64.1025641,6691931c2c63981b064e1f0c,6691b0571030406d5f22485f,,,,,,,,,,,,,,,,,,,,,,,,,,,,,,,,,,,,,,,,,,,,,,,,,,,,,,,,,,,,473.1232,479.7506,0.258237712,0.261949785,1.0,0.0,0.0,0.6159,compass,0.0,0.0,0.0,15.0,1.0,SoundStimuli/TikTok_Kesha_Original5S.wav,,,,,,,,,,,,,,,,,,,,,,,,,,,,,,,,,,,,,,,,,,,,,,,,,,,
,,,,,560951,1,2024-07-12_17h38.52.125,experiment,2024.1.5,MacIntel,64.1025641,6691931c2c63981b064e1f0c,6691b0571030406d5f22485f,,,,,,,,,,,,,,,,,,,,,,,,,,,,,,,,,,,,,,,,,,,,,,,,,,,,,,,,,,,,479.7701,486.319,0.056434869,-0.10158237,1.0,0.0,0.0,0.533,compass,0.0,1.0,1.0,33.0,1.0,SoundStimuli/StandByMe_BenEKing_Original5S.wav,,,,,,,,,,,,,,,,,,,,,,,,,,,,,,,,,,,,,,,,,,,,,,,,,,,
,,,,,560951,1,2024-07-12_17h38.52.125,experiment,2024.1.5,MacIntel,64.1025641,6691931c2c63981b064e1f0c,6691b0571030406d5f22485f,,,,,,,,,,,,,,,,,,,,,,,,,,,,,,,,,,,,,,,,,,,,,,,,,,,,,,,,,,,,486.3318,492.8701,0.020747884,0.030194872,1.0,0.0,0.0,0.5352,compass,0.0,2.0,2.0,11.0,1.0,SoundStimuli/Superstition_StevieWonder_Original5S.wav,,,,,,,,,,,,,,,,,,,,,,,,,,,,,,,,,,,,,,,,,,,,,,,,,,,
,,,,,560951,1,2024-07-12_17h38.52.125,experiment,2024.1.5,MacIntel,64.1025641,6691931c2c63981b064e1f0c,6691b0571030406d5f22485f,,,,,,,,,,,,,,,,,,,,,,,,,,,,,,,,,,,,,,,,,,,,,,,,,,,,,,,,,,,,492.8853,499.553,0.288437636,0.273770311,1.0,0.0,0.0,0.6662,compass,0.0,3.0,3.0,9.0,1.0,SoundStimuli/Despacito_LuisFonsiDaddyYankee_Original5S.wav,,,,,,,,,,,,,,,,,,,,,,,,,,,,,,,,,,,,,,,,,,,,,,,,,,,
,,,,,560951,1,2024-07-12_17h38.52.125,experiment,2024.1.5,MacIntel,64.1025641,6691931c2c63981b064e1f0c,6691b0571030406d5f22485f,,,,,,,,,,,,,,,,,,,,,,,,,,,,,,,,,,,,,,,,,,,,,,,,,,,,,,,,,,,,499.5676,506.1367,0.015628187,0.017194892,1.0,0.0,0.0,0.5663,compass,0.0,4.0,4.0,4.0,1.0,SoundStimuli/GetUrFreakOn_MissyElliot_Cover5S.wav,,,,,,,,,,,,,,,,,,,,,,,,,,,,,,,,,,,,,,,,,,,,,,,,,,,
,,,,,560951,1,2024-07-12_17h38.52.125,experiment,2024.1.5,MacIntel,64.1025641,6691931c2c63981b064e1f0c,6691b0571030406d5f22485f,,,,,,,,,,,,,,,,,,,,,,,,,,,,,,,,,,,,,,,,,,,,,,,,,,,,,,,,,,,,506.1508,512.6539,0.218082275,0.130231323,1.0,0.0,0.0,0.4997,compass,0.0,5.0,5.0,6.0,1.0,SoundStimuli/Levitating_DuaLipa_Original5S.wav,,,,,,,,,,,,,,,,,,,,,,,,,,,,,,,,,,,,,,,,,,,,,,,,,,,
,,,,,560951,1,2024-07-12_17h38.52.125,experiment,2024.1.5,MacIntel,64.1025641,6691931c2c63981b064e1f0c,6691b0571030406d5f22485f,,,,,,,,,,,,,,,,,,,,,,,,,,,,,,,,,,,,,,,,,,,,,,,,,,,,,,,,,,,,512.6677,522.0606,0.046967909,0.148007134,1.0,0.0,0.0,3.3889,compass,0.0,6.0,6.0,30.0,1.0,SoundStimuli/PokerFace_LadyGaga_Cover5S.wav,,,,,,,,,,,,,,,,,,,,,,,,,,,,,,,,,,,,,,,,,,,,,,,,,,,
,,,,,560951,1,2024-07-12_17h38.52.125,experiment,2024.1.5,MacIntel,64.1025641,6691931c2c63981b064e1f0c,6691b0571030406d5f22485f,,,,,,,,,,,,,,,,,,,,,,,,,,,,,,,,,,,,,,,,,,,,,,,,,,,,,,,,,,,,522.0744,528.7215,-0.056523234,-0.060192057,1.0,0.0,0.0,0.633,compass,0.0,7.0,7.0,13.0,1.0,SoundStimuli/GodOnlyKnows_TheBeachBoys_Original5S.wav,,,,,,,,,,,,,,,,,,,,,,,,,,,,,,,,,,,,,,,,,,,,,,,,,,,
,,,,,560951,1,2024-07-12_17h38.52.125,experiment,2024.1.5,MacIntel,64.1025641,6691931c2c63981b064e1f0c,6691b0571030406d5f22485f,,,,,,,,,,,,,,,,,,,,,,,,,,,,,,,,,,,,,,,,,,,,,,,,,,,,,,,,,,,,528.7345,535.9384,-0.113820801,-0.165930176,1.0,0.0,0.0,1.1994,compass,0.0,8.0,8.0,29.0,1.0,SoundStimuli/OldTownRoad_LilNasX_Cover5S.wav,,,,,,,,,,,,,,,,,,,,,,,,,,,,,,,,,,,,,,,,,,,,,,,,,,,
,,,,,560951,1,2024-07-12_17h38.52.125,experiment,2024.1.5,MacIntel,64.1025641,6691931c2c63981b064e1f0c,6691b0571030406d5f22485f,,,,,,,,,,,,,,,,,,,,,,,,,,,,,,,,,,,,,,,,,,,,,,,,,,,,,,,,,,,,535.9507,542.739,0.092623155,0.092487725,1.0,0.0,0.0,0.7827,compass,0.0,9.0,9.0,24.0,1.0,SoundStimuli/UptownFunk_MarkRonson_Cover5S.wav,,,,,,,,,,,,,,,,,,,,,,,,,,,,,,,,,,,,,,,,,,,,,,,,,,,
,,,,,560951,1,2024-07-12_17h38.52.125,experiment,2024.1.5,MacIntel,64.1025641,6691931c2c63981b064e1f0c,6691b0571030406d5f22485f,,,,,,,,,,,,,,,,,,,,,,,,,,,,,,,,,,,,,,,,,,,,,,,,,,,,,,,,,,,,542.7527,550.1276,0.026999376,-0.117177734,1.0,0.0,0.0,1.3714,compass,0.0,10.0,10.0,18.0,1.0,SoundStimuli/AnotherOneBitesTheDust_Queen_Cover5S.wav,,,,,,,,,,,,,,,,,,,,,,,,,,,,,,,,,,,,,,,,,,,,,,,,,,,
,,,,,560951,1,2024-07-12_17h38.52.125,experiment,2024.1.5,MacIntel,64.1025641,6691931c2c63981b064e1f0c,6691b0571030406d5f22485f,,,,,,,,,,,,,,,,,,,,,,,,,,,,,,,,,,,,,,,,,,,,,,,,,,,,,,,,,,,,550.1403,556.8393,0.181884969,-0.173924154,1.0,0.0,0.0,0.6988,compass,0.0,11.0,11.0,34.0,1.0,SoundStimuli/AChangeIsGonnaCome_SamCooke_Original5S.wav,,,,,,,,,,,,,,,,,,,,,,,,,,,,,,,,,,,,,,,,,,,,,,,,,,,
,,,,,560951,1,2024-07-12_17h38.52.125,experiment,2024.1.5,MacIntel,64.1025641,6691931c2c63981b064e1f0c,6691b0571030406d5f22485f,,,,,,,,,,,,,,,,,,,,,,,,,,,,,,,,,,,,,,,,,,,,,,,,,,,,,,,,,,,,556.8519,563.807,-0.181599053,0.191697083,1.0,0.0,0.0,0.9498,compass,0.0,12.0,12.0,25.0,1.0,SoundStimuli/Respect_ArethaFranklin_Cover5S.wav,,,,,,,,,,,,,,,,,,,,,,,,,,,,,,,,,,,,,,,,,,,,,,,,,,,
,,,,,560951,1,2024-07-12_17h38.52.125,experiment,2024.1.5,MacIntel,64.1025641,6691931c2c63981b064e1f0c,6691b0571030406d5f22485f,,,,,,,,,,,,,,,,,,,,,,,,,,,,,,,,,,,,,,,,,,,,,,,,,,,,,,,,,,,,563.8192,570.3413,0.282052273,0.304756029,1.0,0.0,0.0,0.5154,compass,0.0,13.0,13.0,26.0,1.0,SoundStimuli/LivinOnAPrayer_BonJovi_Original5S.wav,,,,,,,,,,,,,,,,,,,,,,,,,,,,,,,,,,,,,,,,,,,,,,,,,,,
,,,,,560951,1,2024-07-12_17h38.52.125,experiment,2024.1.5,MacIntel,64.1025641,6691931c2c63981b064e1f0c,6691b0571030406d5f22485f,,,,,,,,,,,,,,,,,,,,,,,,,,,,,,,,,,,,,,,,,,,,,,,,,,,,,,,,,,,,570.3535,576.7749,0.060647312,-0.066452467,1.0,0.0,0.0,0.4167,compass,0.0,14.0,14.0,2.0,1.0,SoundStimuli/Mood_24kGoldnianndior_Original5S.wav,,,,,,,,,,,,,,,,,,,,,,,,,,,,,,,,,,,,,,,,,,,,,,,,,,,
,,,,,560951,1,2024-07-12_17h38.52.125,experiment,2024.1.5,MacIntel,64.1025641,6691931c2c63981b064e1f0c,6691b0571030406d5f22485f,,,,,,,,,,,,,,,,,,,,,,,,,,,,,,,,,,,,,,,,,,,,,,,,,,,,,,,,,,,,576.789,584.1087,-0.000930379,-0.002860175,1.0,0.0,0.0,1.3164,compass,0.0,15.0,15.0,1.0,1.0,SoundStimuli/Stronger_KanyeWest_Cover5S.wav,,,,,,,,,,,,,,,,,,,,,,,,,,,,,,,,,,,,,,,,,,,,,,,,,,,
,,,,,560951,1,2024-07-12_17h38.52.125,experiment,2024.1.5,MacIntel,64.1025641,6691931c2c63981b064e1f0c,6691b0571030406d5f22485f,,,,,,,,,,,,,,,,,,,,,,,,,,,,,,,,,,,,,,,,,,,,,,,,,,,,,,,,,,,,584.1215,590.4432,-0.01318807,0.237053833,1.0,0.0,0.0,0.3172,compass,0.0,16.0,16.0,23.0,1.0,SoundStimuli/StrawberryFieldsForever_TheBeatles_Cover5S.wav,,,,,,,,,,,,,,,,,,,,,,,,,,,,,,,,,,,,,,,,,,,,,,,,,,,
,,,,,560951,1,2024-07-12_17h38.52.125,experiment,2024.1.5,MacIntel,64.1025641,6691931c2c63981b064e1f0c,6691b0571030406d5f22485f,,,,,,,,,,,,,,,,,,,,,,,,,,,,,,,,,,,,,,,,,,,,,,,,,,,,,,,,,,,,590.4583,597.3589,0.015837402,-0.115705363,1.0,0.0,0.0,0.8993,compass,0.0,17.0,17.0,3.0,1.0,SoundStimuli/NoScrubs_TLC_Cover5S.wav,,,,,,,,,,,,,,,,,,,,,,,,,,,,,,,,,,,,,,,,,,,,,,,,,,,
,,,,,560951,1,2024-07-12_17h38.52.125,experiment,2024.1.5,MacIntel,64.1025641,6691931c2c63981b064e1f0c,6691b0571030406d5f22485f,,,,,,,,,,,,,,,,,,,,,,,,,,,,,,,,,,,,,,,,,,,,,,,,,,,,,,,,,,,,597.371,603.5768,0.016882867,0.032265116,1.0,0.0,0.0,0.2005,compass,0.0,18.0,18.0,0.0,1.0,SoundStimuli/StayinAlive_BeeGees_Cover5S.wav,,,,,,,,,,,,,,,,,,,,,,,,,,,,,,,,,,,,,,,,,,,,,,,,,,,
,,,,,560951,1,2024-07-12_17h38.52.125,experiment,2024.1.5,MacIntel,64.1025641,6691931c2c63981b064e1f0c,6691b0571030406d5f22485f,,,,,,,,,,,,,,,,,,,,,,,,,,,,,,,,,,,,,,,,,,,,,,,,,,,,,,,,,,,,603.5903,610.1783,0.222073839,0.245312636,1.0,0.0,0.0,0.585,compass,0.0,19.0,19.0,20.0,1.0,SoundStimuli/HeyYa_Outkast_Original5S.wav,,,,,,,,,,,,,,,,,,,,,,,,,,,,,,,,,,,,,,,,,,,,,,,,,,,
,,,,,560951,1,2024-07-12_17h38.52.125,experiment,2024.1.5,MacIntel,64.1025641,6691931c2c63981b064e1f0c,6691b0571030406d5f22485f,,,,,,,,,,,,,,,,,,,,,,,,,,,,,,,,,,,,,,,,,,,,,,,,,,,,,,,,,,,,610.1916,617.7439,0.180197483,-0.039775865,1.0,0.0,0.0,1.5506,compass,0.0,20.0,20.0,14.0,1.0,SoundStimuli/BlindingLights_TheWeeknd_Cover5S.wav,,,,,,,,,,,,,,,,,,,,,,,,,,,,,,,,,,,,,,,,,,,,,,,,,,,
,,,,,560951,1,2024-07-12_17h38.52.125,experiment,2024.1.5,MacIntel,64.1025641,6691931c2c63981b064e1f0c,6691b0571030406d5f22485f,,,,,,,,,,,,,,,,,,,,,,,,,,,,,,,,,,,,,,,,,,,,,,,,,,,,,,,,,,,,617.7571,625.1781,-0.269235704,-0.022179159,1.0,0.0,0.0,1.4172,compass,0.0,21.0,21.0,12.0,1.0,SoundStimuli/IWillAlwaysLoveYou_WhitneyHouston_Original5S.wav,,,,,,,,,,,,,,,,,,,,,,,,,,,,,,,,,,,,,,,,,,,,,,,,,,,
,,,,,560951,1,2024-07-12_17h38.52.125,experiment,2024.1.5,MacIntel,64.1025641,6691931c2c63981b064e1f0c,6691b0571030406d5f22485f,,,,,,,,,,,,,,,,,,,,,,,,,,,,,,,,,,,,,,,,,,,,,,,,,,,,,,,,,,,,625.191,631.4611,0.022669746,0.226984507,1.0,0.0,0.0,0.2654,compass,0.0,22.0,22.0,28.0,1.0,SoundStimuli/ComeAndGetYourLove_Redbone_Cover5S.wav,,,,,,,,,,,,,,,,,,,,,,,,,,,,,,,,,,,,,,,,,,,,,,,,,,,
,,,,,560951,1,2024-07-12_17h38.52.125,experiment,2024.1.5,MacIntel,64.1025641,6691931c2c63981b064e1f0c,6691b0571030406d5f22485f,,,,,,,,,,,,,,,,,,,,,,,,,,,,,,,,,,,,,,,,,,,,,,,,,,,,,,,,,,,,631.4755,639.0294,0.227259657,-0.063334893,1.0,0.0,0.0,1.5503,compass,0.0,23.0,23.0,27.0,1.0,SoundStimuli/ShapeofYou_EdSheeran_Cover5S.wav,,,,,,,,,,,,,,,,,,,,,,,,,,,,,,,,,,,,,,,,,,,,,,,,,,,
,,,,,560951,1,2024-07-12_17h38.52.125,experiment,2024.1.5,MacIntel,64.1025641,6691931c2c63981b064e1f0c,6691b0571030406d5f22485f,,,,,,,,,,,,,,,,,,,,,,,,,,,,,,,,,,,,,,,,,,,,,,,,,,,,,,,,,,,,639.0438,645.4795,0.044460178,0.042555678,1.0,0.0,0.0,0.4341,compass,0.0,24.0,24.0,21.0,1.0,SoundStimuli/GoodGollyMissMolly_LittleRichard_Original5S.wav,,,,,,,,,,,,,,,,,,,,,,,,,,,,,,,,,,,,,,,,,,,,,,,,,,,
,,,,,560951,1,2024-07-12_17h38.52.125,experiment,2024.1.5,MacIntel,64.1025641,6691931c2c63981b064e1f0c,6691b0571030406d5f22485f,,,,,,,,,,,,,,,,,,,,,,,,,,,,,,,,,,,,,,,,,,,,,,,,,,,,,,,,,,,,645.4916,651.8468,-0.334024217,-0.329703301,1.0,0.0,0.0,0.3495,compass,0.0,25.0,25.0,10.0,1.0,SoundStimuli/BadDay_DanielPowter_Original5S.wav,,,,,,,,,,,,,,,,,,,,,,,,,,,,,,,,,,,,,,,,,,,,,,,,,,,
,,,,,560951,1,2024-07-12_17h38.52.125,experiment,2024.1.5,MacIntel,64.1025641,6691931c2c63981b064e1f0c,6691b0571030406d5f22485f,,,,,,,,,,,,,,,,,,,,,,,,,,,,,,,,,,,,,,,,,,,,,,,,,,,,,,,,,,,,651.8607,658.3971,0.119343126,0.071225857,1.0,0.0,0.0,0.533,compass,0.0,26.0,26.0,32.0,1.0,SoundStimuli/HeatWaves_GlassAnimals_Cover5S.wav,,,,,,,,,,,,,,,,,,,,,,,,,,,,,,,,,,,,,,,,,,,,,,,,,,,
,,,,,560951,1,2024-07-12_17h38.52.125,experiment,2024.1.5,MacIntel,64.1025641,6691931c2c63981b064e1f0c,6691b0571030406d5f22485f,,,,,,,,,,,,,,,,,,,,,,,,,,,,,,,,,,,,,,,,,,,,,,,,,,,,,,,,,,,,658.409,665.132,0.044263102,-0.031793349,1.0,0.0,0.0,0.7178,compass,0.0,27.0,27.0,22.0,1.0,SoundStimuli/RockWithYou_MichaelJackson_Cover5S.wav,,,,,,,,,,,,,,,,,,,,,,,,,,,,,,,,,,,,,,,,,,,,,,,,,,,
,,,,,560951,1,2024-07-12_17h38.52.125,experiment,2024.1.5,MacIntel,64.1025641,6691931c2c63981b064e1f0c,6691b0571030406d5f22485f,,,,,,,,,,,,,,,,,,,,,,,,,,,,,,,,,,,,,,,,,,,,,,,,,,,,,,,,,,,,665.1479,672.3646,0.208833889,0.017947998,1.0,0.0,0.0,1.2163,compass,0.0,28.0,28.0,17.0,1.0,SoundStimuli/Fallin_AliciaKeys_Cover5S.wav,,,,,,,,,,,,,,,,,,,,,,,,,,,,,,,,,,,,,,,,,,,,,,,,,,,
,,,,,560951,1,2024-07-12_17h38.52.125,experiment,2024.1.5,MacIntel,64.1025641,6691931c2c63981b064e1f0c,6691b0571030406d5f22485f,,,,,,,,,,,,,,,,,,,,,,,,,,,,,,,,,,,,,,,,,,,,,,,,,,,,,,,,,,,,672.3769,680.8142,0.031862454,0.03630778,1.0,0.0,0.0,2.4322,compass,0.0,29.0,29.0,16.0,1.0,SoundStimuli/BohemianRhapsody_Queen_Cover5S.wav,,,,,,,,,,,,,,,,,,,,,,,,,,,,,,,,,,,,,,,,,,,,,,,,,,,
,,,,,560951,1,2024-07-12_17h38.52.125,experiment,2024.1.5,MacIntel,64.1025641,6691931c2c63981b064e1f0c,6691b0571030406d5f22485f,,,,,,,,,,,,,,,,,,,,,,,,,,,,,,,,,,,,,,,,,,,,,,,,,,,,,,,,,,,,680.8265,687.4503,-0.026236708,-0.14966451,1.0,0.0,0.0,0.6178,compass,0.0,30.0,30.0,5.0,1.0,SoundStimuli/MyGirl_TheTemptations_Cover5S.wav,,,,,,,,,,,,,,,,,,,,,,,,,,,,,,,,,,,,,,,,,,,,,,,,,,,
,,,,,560951,1,2024-07-12_17h38.52.125,experiment,2024.1.5,MacIntel,64.1025641,6691931c2c63981b064e1f0c,6691b0571030406d5f22485f,,,,,,,,,,,,,,,,,,,,,,,,,,,,,,,,,,,,,,,,,,,,,,,,,,,,,,,,,,,,687.4666,694.7835,0.162584093,0.128105265,1.0,0.0,0.0,1.3016,compass,0.0,31.0,31.0,8.0,1.0,SoundStimuli/LikeAPrayer_Madonna_Cover5S.wav,,,,,,,,,,,,,,,,,,,,,,,,,,,,,,,,,,,,,,,,,,,,,,,,,,,
,,,,,560951,1,2024-07-12_17h38.52.125,experiment,2024.1.5,MacIntel,64.1025641,6691931c2c63981b064e1f0c,6691b0571030406d5f22485f,,,,,,,,,,,,,,,,,,,,,,,,,,,,,,,,,,,,,,,,,,,,,,,,,,,,,,,,,,,,694.7991,701.4843,-0.029363742,-0.033876411,1.0,0.0,0.0,0.6831,compass,0.0,32.0,32.0,31.0,1.0,SoundStimuli/TheBattleOfNewOrleans_JohnnyHorton_Original5S.wav,,,,,,,,,,,,,,,,,,,,,,,,,,,,,,,,,,,,,,,,,,,,,,,,,,,
,,,,,560951,1,2024-07-12_17h38.52.125,experiment,2024.1.5,MacIntel,64.1025641,6691931c2c63981b064e1f0c,6691b0571030406d5f22485f,,,,,,,,,,,,,,,,,,,,,,,,,,,,,,,,,,,,,,,,,,,,,,,,,,,,,,,,,,,,701.4965,708.7671,0.196544393,-0.024547628,1.0,0.0,0.0,1.2669,compass,0.0,33.0,33.0,19.0,1.0,SoundStimuli/LetsGetItOn_MarvinGaye_Original5S.wav,,,,,,,,,,,,,,,,,,,,,,,,,,,,,,,,,,,,,,,,,,,,,,,,,,,
,,,,,560951,1,2024-07-12_17h38.52.125,experiment,2024.1.5,MacIntel,64.1025641,6691931c2c63981b064e1f0c,6691b0571030406d5f22485f,,,,,,,,,,,,,,,,,,,,,,,,,,,,,,,,,,,,,,,,,,,,,,,,,,,,,,,,,,,,708.7797,715.5345,0.182563341,0.28155699,1.0,0.0,0.0,0.75,compass,0.0,34.0,34.0,7.0,1.0,SoundStimuli/NoOne_AliciaKeys_Original5S.wav,,,,,,,,,,,,,,,,,,,,,,,,,,,,,,,,,,,,,,,,,,,,,,,,,,,
,,,,,560951,1,2024-07-12_17h38.52.125,experiment,2024.1.5,MacIntel,64.1025641,6691931c2c63981b064e1f0c,6691b0571030406d5f22485f,,,,,,,,,,,,,,,,,,,,,,,,,,,,,,,,,,,,,,,,,,,,,,,,,,,,,,,,,,,,,,,,,,,,,,,,,,,715.5351,717.068,space,1.5228,,717.0681,718.5513,right,1.4691,,0.0,1.0,1.0,1.0,1.0,block_order/blockC.xlsx,,,,,,,,,,,,,,,,,,,,,,,,,,,,,,,,,,,
,,,,,560951,1,2024-07-12_17h38.52.125,experiment,2024.1.5,MacIntel,64.1025641,6691931c2c63981b064e1f0c,6691b0571030406d5f22485f,,,,,,,,,,,,,,,,,,,,,,,,,,,,,,,,,,,,,,,,,,,,,,,,,,,,,,,,,,,,718.5705,725.7522,-0.029855143,-0.114752672,1.0,0.0,0.0,1.1672,compass,0.0,0.0,0.0,16.0,1.0,SoundStimuli/ItsAllInTheGame_TommyEdwards_Cover5S.wav,,,,,,,,,,,,,,,,,,,,,,,,,,,,,,,,,,,,,,,,,,,,,,,,,,,
,,,,,560951,1,2024-07-12_17h38.52.125,experiment,2024.1.5,MacIntel,64.1025641,6691931c2c63981b064e1f0c,6691b0571030406d5f22485f,,,,,,,,,,,,,,,,,,,,,,,,,,,,,,,,,,,,,,,,,,,,,,,,,,,,,,,,,,,,725.7635,735.6695,0.024291992,0.041702915,1.0,0.0,0.0,3.9007,compass,0.0,1.0,1.0,9.0,1.0,SoundStimuli/HowDoILive_LeAnnRimes_Cover5S.wav,,,,,,,,,,,,,,,,,,,,,,,,,,,,,,,,,,,,,,,,,,,,,,,,,,,
,,,,,560951,1,2024-07-12_17h38.52.125,experiment,2024.1.5,MacIntel,64.1025641,6691931c2c63981b064e1f0c,6691b0571030406d5f22485f,,,,,,,,,,,,,,,,,,,,,,,,,,,,,,,,,,,,,,,,,,,,,,,,,,,,,,,,,,,,735.6817,743.6018,0.019327528,-0.116526693,1.0,0.0,0.0,1.9167,compass,0.0,2.0,2.0,23.0,1.0,SoundStimuli/IWalkTheLine_JohnnyCash_Original5S.wav,,,,,,,,,,,,,,,,,,,,,,,,,,,,,,,,,,,,,,,,,,,,,,,,,,,
,,,,,560951,1,2024-07-12_17h38.52.125,experiment,2024.1.5,MacIntel,64.1025641,6691931c2c63981b064e1f0c,6691b0571030406d5f22485f,,,,,,,,,,,,,,,,,,,,,,,,,,,,,,,,,,,,,,,,,,,,,,,,,,,,,,,,,,,,743.6143,749.7856,-0.022526516,0.119218072,1.0,0.0,0.0,0.166,compass,0.0,3.0,3.0,10.0,1.0,SoundStimuli/LeFreak_Chic_Cover5S.wav,,,,,,,,,,,,,,,,,,,,,,,,,,,,,,,,,,,,,,,,,,,,,,,,,,,
,,,,,560951,1,2024-07-12_17h38.52.125,experiment,2024.1.5,MacIntel,64.1025641,6691931c2c63981b064e1f0c,6691b0571030406d5f22485f,,,,,,,,,,,,,,,,,,,,,,,,,,,,,,,,,,,,,,,,,,,,,,,,,,,,,,,,,,,,749.7966,756.2204,0.166410726,0.014387885,1.0,0.0,0.0,0.4165,compass,0.0,4.0,4.0,4.0,1.0,SoundStimuli/Dreams_FleetwoodMac_Original5S.wav,,,,,,,,,,,,,,,,,,,,,,,,,,,,,,,,,,,,,,,,,,,,,,,,,,,
,,,,,560951,1,2024-07-12_17h38.52.125,experiment,2024.1.5,MacIntel,64.1025641,6691931c2c63981b064e1f0c,6691b0571030406d5f22485f,,,,,,,,,,,,,,,,,,,,,,,,,,,,,,,,,,,,,,,,,,,,,,,,,,,,,,,,,,,,756.2365,762.2535,-0.263642917,-0.013872409,1.0,0.0,0.0,0.0152,compass,0.0,5.0,5.0,12.0,1.0,SoundStimuli/UnbreakMyHeart_ToniBraxton_Original5S.wav,,,,,,,,,,,,,,,,,,,,,,,,,,,,,,,,,,,,,,,,,,,,,,,,,,,
,,,,,560951,1,2024-07-12_17h38.52.125,experiment,2024.1.5,MacIntel,64.1025641,6691931c2c63981b064e1f0c,6691b0571030406d5f22485f,,,,,,,,,,,,,,,,,,,,,,,,,,,,,,,,,,,,,,,,,,,,,,,,,,,,,,,,,,,,762.2666,768.704,0.03667372,-0.067089674,1.0,0.0,0.0,0.4326,compass,0.0,6.0,6.0,32.0,1.0,SoundStimuli/Dilemma_NellyKellyRowland_Cover5S.wav,,,,,,,,,,,,,,,,,,,,,,,,,,,,,,,,,,,,,,,,,,,,,,,,,,,
,,,,,560951,1,2024-07-12_17h38.52.125,experiment,2024.1.5,MacIntel,64.1025641,6691931c2c63981b064e1f0c,6691b0571030406d5f22485f,,,,,,,,,,,,,,,,,,,,,,,,,,,,,,,,,,,,,,,,,,,,,,,,,,,,,,,,,,,,768.7187,775.2042,0.107491591,0.03734609,1.0,0.0,0.0,0.4834,compass,0.0,7.0,7.0,20.0,1.0,SoundStimuli/FlashdanceWhatAFeeling_IreneCara_Original5S.wav,,,,,,,,,,,,,,,,,,,,,,,,,,,,,,,,,,,,,,,,,,,,,,,,,,,
,,,,,560951,1,2024-07-12_17h38.52.125,experiment,2024.1.5,MacIntel,64.1025641,6691931c2c63981b064e1f0c,6691b0571030406d5f22485f,,,,,,,,,,,,,,,,,,,,,,,,,,,,,,,,,,,,,,,,,,,,,,,,,,,,,,,,,,,,775.2172,781.6391,0.112064073,0.217665931,1.0,0.0,0.0,0.4168,compass,0.0,8.0,8.0,15.0,1.0,SoundStimuli/CrazyInLove_BeyonceFtJayZ_Cover5S.wav,,,,,,,,,,,,,,,,,,,,,,,,,,,,,,,,,,,,,,,,,,,,,,,,,,,
,,,,,560951,1,2024-07-12_17h38.52.125,experiment,2024.1.5,MacIntel,64.1025641,6691931c2c63981b064e1f0c,6691b0571030406d5f22485f,,,,,,,,,,,,,,,,,,,,,,,,,,,,,,,,,,,,,,,,,,,,,,,,,,,,,,,,,,,,781.6545,788.0561,0.181981812,0.227952847,1.0,0.0,0.0,0.4,compass,0.0,9.0,9.0,11.0,1.0,SoundStimuli/BlurredLines_RobinThicke_Cover5S.wav,,,,,,,,,,,,,,,,,,,,,,,,,,,,,,,,,,,,,,,,,,,,,,,,,,,
,,,,,560951,1,2024-07-12_17h38.52.125,experiment,2024.1.5,MacIntel,64.1025641,6691931c2c63981b064e1f0c,6691b0571030406d5f22485f,,,,,,,,,,,,,,,,,,,,,,,,,,,,,,,,,,,,,,,,,,,,,,,,,,,,,,,,,,,,788.0697,794.6555,0.153637153,-0.01824707,1.0,0.0,0.0,0.5829,compass,0.0,10.0,10.0,8.0,1.0,SoundStimuli/EndlessLove_DianaRossLionelRichie_Cover5S.wav,,,,,,,,,,,,,,,,,,,,,,,,,,,,,,,,,,,,,,,,,,,,,,,,,,,
,,,,,560951,1,2024-07-12_17h38.52.125,experiment,2024.1.5,MacIntel,64.1025641,6691931c2c63981b064e1f0c,6691b0571030406d5f22485f,,,,,,,,,,,,,,,,,,,,,,,,,,,,,,,,,,,,,,,,,,,,,,,,,,,,,,,,,,,,794.6707,801.3064,-0.12756958,-0.054439223,1.0,0.0,0.0,0.6315,compass,0.0,11.0,11.0,30.0,1.0,SoundStimuli/SomebodyThatIUsedtoKnow_Gotye_Original5S.wav,,,,,,,,,,,,,,,,,,,,,,,,,,,,,,,,,,,,,,,,,,,,,,,,,,,
,,,,,560951,1,2024-07-12_17h38.52.125,experiment,2024.1.5,MacIntel,64.1025641,6691931c2c63981b064e1f0c,6691b0571030406d5f22485f,,,,,,,,,,,,,,,,,,,,,,,,,,,,,,,,,,,,,,,,,,,,,,,,,,,,,,,,,,,,801.3195,807.7253,-0.228312514,-0.137724881,1.0,0.0,0.0,0.4009,compass,0.0,12.0,12.0,6.0,1.0,SoundStimuli/SaveYourTears_TheWeekndArianaGrande_Cover5S.wav,,,,,,,,,,,,,,,,,,,,,,,,,,,,,,,,,,,,,,,,,,,,,,,,,,,
,,,,,560951,1,2024-07-12_17h38.52.125,experiment,2024.1.5,MacIntel,64.1025641,6691931c2c63981b064e1f0c,6691b0571030406d5f22485f,,,,,,,,,,,,,,,,,,,,,,,,,,,,,,,,,,,,,,,,,,,,,,,,,,,,,,,,,,,,807.7386,814.1419,0.275150553,-0.020305786,1.0,0.0,0.0,0.3988,compass,0.0,13.0,13.0,27.0,1.0,SoundStimuli/EyeOfTheTiger_Survivor_Cover5S.wav,,,,,,,,,,,,,,,,,,,,,,,,,,,,,,,,,,,,,,,,,,,,,,,,,,,
,,,,,560951,1,2024-07-12_17h38.52.125,experiment,2024.1.5,MacIntel,64.1025641,6691931c2c63981b064e1f0c,6691b0571030406d5f22485f,,,,,,,,,,,,,,,,,,,,,,,,,,,,,,,,,,,,,,,,,,,,,,,,,,,,,,,,,,,,814.1545,820.2926,0.333520779,0.206479696,1.0,0.0,0.0,0.134,compass,0.0,14.0,14.0,22.0,1.0,SoundStimuli/Happy_PharellWilliams_Original5S.wav,,,,,,,,,,,,,,,,,,,,,,,,,,,,,,,,,,,,,,,,,,,,,,,,,,,
,,,,,560951,1,2024-07-12_17h38.52.125,experiment,2024.1.5,MacIntel,64.1025641,6691931c2c63981b064e1f0c,6691b0571030406d5f22485f,,,,,,,,,,,,,,,,,,,,,,,,,,,,,,,,,,,,,,,,,,,,,,,,,,,,,,,,,,,,820.3046,826.3577,0.016960314,-0.085727675,1.0,0.0,0.0,0.049,compass,0.0,15.0,15.0,29.0,1.0,SoundStimuli/BetteDavisEyes_KimCarnes_Original5S.wav,,,,,,,,,,,,,,,,,,,,,,,,,,,,,,,,,,,,,,,,,,,,,,,,,,,
,,,,,560951,1,2024-07-12_17h38.52.125,experiment,2024.1.5,MacIntel,64.1025641,6691931c2c63981b064e1f0c,6691b0571030406d5f22485f,,,,,,,,,,,,,,,,,,,,,,,,,,,,,,,,,,,,,,,,,,,,,,,,,,,,,,,,,,,,826.3706,832.6919,-0.035491876,-0.175347222,1.0,0.0,0.0,0.316,compass,0.0,16.0,16.0,21.0,1.0,SoundStimuli/BridgeOverTroubledWater_SimonAndGarfunkel_Original5S.wav,,,,,,,,,,,,,,,,,,,,,,,,,,,,,,,,,,,,,,,,,,,,,,,,,,,
,,,,,560951,1,2024-07-12_17h38.52.125,experiment,2024.1.5,MacIntel,64.1025641,6691931c2c63981b064e1f0c,6691b0571030406d5f22485f,,,,,,,,,,,,,,,,,,,,,,,,,,,,,,,,,,,,,,,,,,,,,,,,,,,,,,,,,,,,832.7077,839.9608,0.235733032,-0.200023872,1.0,0.0,0.0,1.2506,compass,0.0,17.0,17.0,25.0,1.0,SoundStimuli/IllMakeLoveToYou_BoyzIIMen_Cover5S.wav,,,,,,,,,,,,,,,,,,,,,,,,,,,,,,,,,,,,,,,,,,,,,,,,,,,
,,,,,560951,1,2024-07-12_17h38.52.125,experiment,2024.1.5,MacIntel,64.1025641,6691931c2c63981b064e1f0c,6691b0571030406d5f22485f,,,,,,,,,,,,,,,,,,,,,,,,,,,,,,,,,,,,,,,,,,,,,,,,,,,,,,,,,,,,839.9732,846.9429,0.025610691,0.052004259,1.0,0.0,0.0,0.967,compass,0.0,18.0,18.0,33.0,1.0,SoundStimuli/TheBoyIsMine_BrandyMonica_Original5S.wav,,,,,,,,,,,,,,,,,,,,,,,,,,,,,,,,,,,,,,,,,,,,,,,,,,,
,,,,,560951,1,2024-07-12_17h38.52.125,experiment,2024.1.5,MacIntel,64.1025641,6691931c2c63981b064e1f0c,6691b0571030406d5f22485f,,,,,,,,,,,,,,,,,,,,,,,,,,,,,,,,,,,,,,,,,,,,,,,,,,,,,,,,,,,,846.9566,853.4622,-0.035236206,0.143320482,1.0,0.0,0.0,0.5017,compass,0.0,19.0,19.0,28.0,1.0,SoundStimuli/IWantToHoldYourHand_TheBeatles_Original5S.wav,,,,,,,,,,,,,,,,,,,,,,,,,,,,,,,,,,,,,,,,,,,,,,,,,,,
,,,,,560951,1,2024-07-12_17h38.52.125,experiment,2024.1.5,MacIntel,64.1025641,6691931c2c63981b064e1f0c,6691b0571030406d5f22485f,,,,,,,,,,,,,,,,,,,,,,,,,,,,,,,,,,,,,,,,,,,,,,,,,,,,,,,,,,,,853.4772,861.2613,0.271725057,-0.036062554,1.0,0.0,0.0,1.7833,compass,0.0,20.0,20.0,18.0,1.0,SoundStimuli/Weak_SWV_Cover5S.wav,,,,,,,,,,,,,,,,,,,,,,,,,,,,,,,,,,,,,,,,,,,,,,,,,,,
,,,,,560951,1,2024-07-12_17h38.52.125,experiment,2024.1.5,MacIntel,64.1025641,6691931c2c63981b064e1f0c,6691b0571030406d5f22485f,,,,,,,,,,,,,,,,,,,,,,,,,,,,,,,,,,,,,,,,,,,,,,,,,,,,,,,,,,,,861.2742,867.4285,0.303562758,0.303756934,1.0,0.0,0.0,0.151,compass,0.0,21.0,21.0,3.0,1.0,SoundStimuli/PartyRockAnthem_LMFAO_Original5S.wav,,,,,,,,,,,,,,,,,,,,,,,,,,,,,,,,,,,,,,,,,,,,,,,,,,,
,,,,,560951,1,2024-07-12_17h38.52.125,experiment,2024.1.5,MacIntel,64.1025641,6691931c2c63981b064e1f0c,6691b0571030406d5f22485f,,,,,,,,,,,,,,,,,,,,,,,,,,,,,,,,,,,,,,,,,,,,,,,,,,,,,,,,,,,,867.442,874.045,0.171288588,-0.031538968,1.0,0.0,0.0,0.5991,compass,0.0,22.0,22.0,34.0,1.0,SoundStimuli/Irreplaceable_Beyonce_Cover5S.wav,,,,,,,,,,,,,,,,,,,,,,,,,,,,,,,,,,,,,,,,,,,,,,,,,,,
,,,,,560951,1,2024-07-12_17h38.52.125,experiment,2024.1.5,MacIntel,64.1025641,6691931c2c63981b064e1f0c,6691b0571030406d5f22485f,,,,,,,,,,,,,,,,,,,,,,,,,,,,,,,,,,,,,,,,,,,,,,,,,,,,,,,,,,,,874.0621,880.8453,0.17873508,0.153077664,1.0,0.0,0.0,0.7827,compass,0.0,23.0,23.0,26.0,1.0,SoundStimuli/TheSign_AceOfBase_Cover5S.wav,,,,,,,,,,,,,,,,,,,,,,,,,,,,,,,,,,,,,,,,,,,,,,,,,,,
,,,,,560951,1,2024-07-12_17h38.52.125,experiment,2024.1.5,MacIntel,64.1025641,6691931c2c63981b064e1f0c,6691b0571030406d5f22485f,,,,,,,,,,,,,,,,,,,,,,,,,,,,,,,,,,,,,,,,,,,,,,,,,,,,,,,,,,,,880.8579,887.3627,0.070120036,0.219946035,1.0,0.0,0.0,0.5001,compass,0.0,24.0,24.0,1.0,1.0,SoundStimuli/Smooth_SantanaRobThomas_Original5S.wav,,,,,,,,,,,,,,,,,,,,,,,,,,,,,,,,,,,,,,,,,,,,,,,,,,,
,,,,,560951,1,2024-07-12_17h38.52.125,experiment,2024.1.5,MacIntel,64.1025641,6691931c2c63981b064e1f0c,6691b0571030406d5f22485f,,,,,,,,,,,,,,,,,,,,,,,,,,,,,,,,,,,,,,,,,,,,,,,,,,,,,,,,,,,,887.3747,894.9459,0.072009616,0.031574673,1.0,0.0,0.0,1.5668,compass,0.0,25.0,25.0,5.0,1.0,SoundStimuli/JoyToTheWorld_ThreeDogNight_Original5S.wav,,,,,,,,,,,,,,,,,,,,,,,,,,,,,,,,,,,,,,,,,,,,,,,,,,,
,,,,,560951,1,2024-07-12_17h38.52.125,experiment,2024.1.5,MacIntel,64.1025641,6691931c2c63981b064e1f0c,6691b0571030406d5f22485f,,,,,,,,,,,,,,,,,,,,,,,,,,,,,,,,,,,,,,,,,,,,,,,,,,,,,,,,,,,,894.9589,901.6799,0.320159505,0.319674242,1.0,0.0,0.0,0.7168,compass,0.0,26.0,26.0,17.0,1.0,SoundStimuli/IWannaDanceWithSomebody_WhitneyHouston_Original5S.wav,,,,,,,,,,,,,,,,,,,,,,,,,,,,,,,,,,,,,,,,,,,,,,,,,,,
,,,,,560951,1,2024-07-12_17h38.52.125,experiment,2024.1.5,MacIntel,64.1025641,6691931c2c63981b064e1f0c,6691b0571030406d5f22485f,,,,,,,,,,,,,,,,,,,,,,,,,,,,,,,,,,,,,,,,,,,,,,,,,,,,,,,,,,,,901.6916,908.2489,0.097311401,0.191000366,1.0,0.0,0.0,0.551,compass,0.0,27.0,27.0,2.0,1.0,SoundStimuli/SmellsLikeTeenSpirit_Nirvana_Original5S.wav,,,,,,,,,,,,,,,,,,,,,,,,,,,,,,,,,,,,,,,,,,,,,,,,,,,
,,,,,560951,1,2024-07-12_17h38.52.125,experiment,2024.1.5,MacIntel,64.1025641,6691931c2c63981b064e1f0c,6691b0571030406d5f22485f,,,,,,,,,,,,,,,,,,,,,,,,,,,,,,,,,,,,,,,,,,,,,,,,,,,,,,,,,,,,908.2628,914.5985,0.042226427,-0.030207316,1.0,0.0,0.0,0.3336,compass,0.0,28.0,28.0,24.0,1.0,SoundStimuli/Kiss_Prince_Cover5S.wav,,,,,,,,,,,,,,,,,,,,,,,,,,,,,,,,,,,,,,,,,,,,,,,,,,,
,,,,,560951,1,2024-07-12_17h38.52.125,experiment,2024.1.5,MacIntel,64.1025641,6691931c2c63981b064e1f0c,6691b0571030406d5f22485f,,,,,,,,,,,,,,,,,,,,,,,,,,,,,,,,,,,,,,,,,,,,,,,,,,,,,,,,,,,,914.6127,922.1157,0.029823812,0.016674533,1.0,0.0,0.0,1.5001,compass,0.0,29.0,29.0,0.0,1.0,SoundStimuli/GimmeShelter_RollingStones_Original5S.wav,,,,,,,,,,,,,,,,,,,,,,,,,,,,,,,,,,,,,,,,,,,,,,,,,,,
,,,,,560951,1,2024-07-12_17h38.52.125,experiment,2024.1.5,MacIntel,64.1025641,6691931c2c63981b064e1f0c,6691b0571030406d5f22485f,,,,,,,,,,,,,,,,,,,,,,,,,,,,,,,,,,,,,,,,,,,,,,,,,,,,,,,,,,,,922.1273,928.6646,0.054390734,-0.057186279,1.0,0.0,0.0,0.5323,compass,0.0,30.0,30.0,19.0,1.0,SoundStimuli/YouLightUpMyLife_DebbyBoone_Original5S.wav,,,,,,,,,,,,,,,,,,,,,,,,,,,,,,,,,,,,,,,,,,,,,,,,,,,
,,,,,560951,1,2024-07-12_17h38.52.125,experiment,2024.1.5,MacIntel,64.1025641,6691931c2c63981b064e1f0c,6691b0571030406d5f22485f,,,,,,,,,,,,,,,,,,,,,,,,,,,,,,,,,,,,,,,,,,,,,,,,,,,,,,,,,,,,928.6772,935.0989,0.128960368,0.096853434,1.0,0.0,0.0,0.4154,compass,0.0,31.0,31.0,31.0,1.0,SoundStimuli/TossinAndTurnin_BobbyLewis_Original5S.wav,,,,,,,,,,,,,,,,,,,,,,,,,,,,,,,,,,,,,,,,,,,,,,,,,,,
,,,,,560951,1,2024-07-12_17h38.52.125,experiment,2024.1.5,MacIntel,64.1025641,6691931c2c63981b064e1f0c,6691b0571030406d5f22485f,,,,,,,,,,,,,,,,,,,,,,,,,,,,,,,,,,,,,,,,,,,,,,,,,,,,,,,,,,,,935.1112,941.7992,0.014414537,-0.26041626,1.0,0.0,0.0,0.6822,compass,0.0,32.0,32.0,13.0,1.0,SoundStimuli/Perfect_EdSheeran_Cover5S.wav,,,,,,,,,,,,,,,,,,,,,,,,,,,,,,,,,,,,,,,,,,,,,,,,,,,
,,,,,560951,1,2024-07-12_17h38.52.125,experiment,2024.1.5,MacIntel,64.1025641,6691931c2c63981b064e1f0c,6691b0571030406d5f22485f,,,,,,,,,,,,,,,,,,,,,,,,,,,,,,,,,,,,,,,,,,,,,,,,,,,,,,,,,,,,941.8107,949.4847,-0.033916762,0.02240804,1.0,0.0,0.0,1.6686,compass,0.0,33.0,33.0,7.0,1.0,SoundStimuli/MackTheKnife_BobbyDarin_Cover5S.wav,,,,,,,,,,,,,,,,,,,,,,,,,,,,,,,,,,,,,,,,,,,,,,,,,,,
,,,,,560951,1,2024-07-12_17h38.52.125,experiment,2024.1.5,MacIntel,64.1025641,6691931c2c63981b064e1f0c,6691b0571030406d5f22485f,,,,,,,,,,,,,,,,,,,,,,,,,,,,,,,,,,,,,,,,,,,,,,,,,,,,,,,,,,,,949.4987,955.8837,0.139756402,-0.026882935,1.0,0.0,0.0,0.3837,compass,0.0,34.0,34.0,14.0,1.0,SoundStimuli/LikeARollingStone_BobDylan_Original5S.wav,,,,,,,,,,,,,,,,,,,,,,,,,,,,,,,,,,,,,,,,,,,,,,,,,,,
,,,,,560951,1,2024-07-12_17h38.52.125,experiment,2024.1.5,MacIntel,64.1025641,6691931c2c63981b064e1f0c,6691b0571030406d5f22485f,,,,,,,,,,,,,,,,,,,,,,,,,,,,,,,,,,,,,,,,,,,,,,,,,,,,,,,,,,,,,,,,,,,,,,,,,,,955.8838,957.2007,space,1.3096,,957.2008,957.9845,right,0.7695,,0.0,2.0,2.0,2.0,1.0,block_order/blockD.xlsx,,,,,,,,,,,,,,,,,,,,,,,,,,,,,,,,,,,
,,,,,560951,1,2024-07-12_17h38.52.125,experiment,2024.1.5,MacIntel,64.1025641,6691931c2c63981b064e1f0c,6691b0571030406d5f22485f,,,,,,,,,,,,,,,,,,,,,,,,,,,,,,,,,,,,,,,,,,,,,,,,,,,,,,,,,,,,958.0116,965.6848,-0.033821552,0.025871298,1.0,0.0,0.0,1.6671,compass,0.0,0.0,0.0,16.0,1.0,SoundStimuli/BohemianRhapsody_Queen_Original5S.wav,,,,,,,,,,,,,,,,,,,,,,,,,,,,,,,,,,,,,,,,,,,,,,,,,,,
,,,,,560951,1,2024-07-12_17h38.52.125,experiment,2024.1.5,MacIntel,64.1025641,6691931c2c63981b064e1f0c,6691b0571030406d5f22485f,,,,,,,,,,,,,,,,,,,,,,,,,,,,,,,,,,,,,,,,,,,,,,,,,,,,,,,,,,,,965.6852,972.4526,0.327739832,0.327852573,1.0,0.0,0.0,0.7511,compass,0.0,1.0,1.0,30.0,1.0,SoundStimuli/PokerFace_LadyGaga_Original5S.wav,,,,,,,,,,,,,,,,,,,,,,,,,,,,,,,,,,,,,,,,,,,,,,,,,,,
,,,,,560951,1,2024-07-12_17h38.52.125,experiment,2024.1.5,MacIntel,64.1025641,6691931c2c63981b064e1f0c,6691b0571030406d5f22485f,,,,,,,,,,,,,,,,,,,,,,,,,,,,,,,,,,,,,,,,,,,,,,,,,,,,,,,,,,,,972.4674,979.0521,0.0445702,0.135545141,1.0,0.0,0.0,0.5821,compass,0.0,2.0,2.0,7.0,1.0,SoundStimuli/NoOne_AliciaKeys_Cover5S.wav,,,,,,,,,,,,,,,,,,,,,,,,,,,,,,,,,,,,,,,,,,,,,,,,,,,
,,,,,560951,1,2024-07-12_17h38.52.125,experiment,2024.1.5,MacIntel,64.1025641,6691931c2c63981b064e1f0c,6691b0571030406d5f22485f,,,,,,,,,,,,,,,,,,,,,,,,,,,,,,,,,,,,,,,,,,,,,,,,,,,,,,,,,,,,979.0641,987.1532,-0.146044548,-0.210051385,1.0,0.0,0.0,2.0838,compass,0.0,3.0,3.0,12.0,1.0,SoundStimuli/IWillAlwaysLoveYou_WhitneyHouston_Cover5S.wav,,,,,,,,,,,,,,,,,,,,,,,,,,,,,,,,,,,,,,,,,,,,,,,,,,,
,,,,,560951,1,2024-07-12_17h38.52.125,experiment,2024.1.5,MacIntel,64.1025641,6691931c2c63981b064e1f0c,6691b0571030406d5f22485f,,,,,,,,,,,,,,,,,,,,,,,,,,,,,,,,,,,,,,,,,,,,,,,,,,,,,,,,,,,,987.1656,993.4029,0.286940211,0.293089758,1.0,0.0,0.0,0.232,compass,0.0,4.0,4.0,14.0,1.0,SoundStimuli/BlindingLights_TheWeeknd_Original5S.wav,,,,,,,,,,,,,,,,,,,,,,,,,,,,,,,,,,,,,,,,,,,,,,,,,,,
,,,,,560951,1,2024-07-12_17h38.52.125,experiment,2024.1.5,MacIntel,64.1025641,6691931c2c63981b064e1f0c,6691b0571030406d5f22485f,,,,,,,,,,,,,,,,,,,,,,,,,,,,,,,,,,,,,,,,,,,,,,,,,,,,,,,,,,,,993.4174,1000.1378,0.040830904,0.024786139,1.0,0.0,0.0,0.7176,compass,0.0,5.0,5.0,29.0,1.0,SoundStimuli/OldTownRoad_LilNasX_Original5S.wav,,,,,,,,,,,,,,,,,,,,,,,,,,,,,,,,,,,,,,,,,,,,,,,,,,,
,,,,,560951,1,2024-07-12_17h38.52.125,experiment,2024.1.5,MacIntel,64.1025641,6691931c2c63981b064e1f0c,6691b0571030406d5f22485f,,,,,,,,,,,,,,,,,,,,,,,,,,,,,,,,,,,,,,,,,,,,,,,,,,,,,,,,,,,,1000.1499,1007.0372,0.092702371,-0.027567319,1.0,0.0,0.0,0.8809,compass,0.0,6.0,6.0,4.0,1.0,SoundStimuli/GetUrFreakOn_MissyElliot_Original5S.wav,,,,,,,,,,,,,,,,,,,,,,,,,,,,,,,,,,,,,,,,,,,,,,,,,,,
,,,,,560951,1,2024-07-12_17h38.52.125,experiment,2024.1.5,MacIntel,64.1025641,6691931c2c63981b064e1f0c,6691b0571030406d5f22485f,,,,,,,,,,,,,,,,,,,,,,,,,,,,,,,,,,,,,,,,,,,,,,,,,,,,,,,,,,,,1007.0493,1013.3877,-0.037221244,-0.312885508,1.0,0.0,0.0,0.3338,compass,0.0,7.0,7.0,2.0,1.0,SoundStimuli/Mood_24kGoldnianndior_Cover5S.wav,,,,,,,,,,,,,,,,,,,,,,,,,,,,,,,,,,,,,,,,,,,,,,,,,,,
,,,,,560951,1,2024-07-12_17h38.52.125,experiment,2024.1.5,MacIntel,64.1025641,6691931c2c63981b064e1f0c,6691b0571030406d5f22485f,,,,,,,,,,,,,,,,,,,,,,,,,,,,,,,,,,,,,,,,,,,,,,,,,,,,,,,,,,,,1013.4024,1020.1726,0.207713008,0.096162759,1.0,0.0,0.0,0.7669,compass,0.0,8.0,8.0,6.0,1.0,SoundStimuli/Levitating_DuaLipa_Cover5S.wav,,,,,,,,,,,,,,,,,,,,,,,,,,,,,,,,,,,,,,,,,,,,,,,,,,,
,,,,,560951,1,2024-07-12_17h38.52.125,experiment,2024.1.5,MacIntel,64.1025641,6691931c2c63981b064e1f0c,6691b0571030406d5f22485f,,,,,,,,,,,,,,,,,,,,,,,,,,,,,,,,,,,,,,,,,,,,,,,,,,,,,,,,,,,,1020.1846,1027.2893,0.156025921,0.079423995,1.0,0.0,0.0,1.0991,compass,0.0,9.0,9.0,8.0,1.0,SoundStimuli/LikeAPrayer_Madonna_Original5S.wav,,,,,,,,,,,,,,,,,,,,,,,,,,,,,,,,,,,,,,,,,,,,,,,,,,,
,,,,,560951,1,2024-07-12_17h38.52.125,experiment,2024.1.5,MacIntel,64.1025641,6691931c2c63981b064e1f0c,6691b0571030406d5f22485f,,,,,,,,,,,,,,,,,,,,,,,,,,,,,,,,,,,,,,,,,,,,,,,,,,,,,,,,,,,,1027.3017,1033.6565,0.033776583,-0.077020247,1.0,0.0,0.0,0.3489,compass,0.0,10.0,10.0,11.0,1.0,SoundStimuli/Superstition_StevieWonder_Cover5S.wav,,,,,,,,,,,,,,,,,,,,,,,,,,,,,,,,,,,,,,,,,,,,,,,,,,,
,,,,,560951,1,2024-07-12_17h38.52.125,experiment,2024.1.5,MacIntel,64.1025641,6691931c2c63981b064e1f0c,6691b0571030406d5f22485f,,,,,,,,,,,,,,,,,,,,,,,,,,,,,,,,,,,,,,,,,,,,,,,,,,,,,,,,,,,,1033.6696,1040.7065,0.225513851,0.234808367,1.0,0.0,0.0,1.0327,compass,0.0,11.0,11.0,24.0,1.0,SoundStimuli/UptownFunk_MarkRonson_Original5S.wav,,,,,,,,,,,,,,,,,,,,,,,,,,,,,,,,,,,,,,,,,,,,,,,,,,,
,,,,,560951,1,2024-07-12_17h38.52.125,experiment,2024.1.5,MacIntel,64.1025641,6691931c2c63981b064e1f0c,6691b0571030406d5f22485f,,,,,,,,,,,,,,,,,,,,,,,,,,,,,,,,,,,,,,,,,,,,,,,,,,,,,,,,,,,,1040.7191,1046.7574,-0.037374427,0.030624092,1.0,0.0,0.0,0.0333,compass,0.0,12.0,12.0,18.0,1.0,SoundStimuli/AnotherOneBitesTheDust_Queen_Original5S.wav,,,,,,,,,,,,,,,,,,,,,,,,,,,,,,,,,,,,,,,,,,,,,,,,,,,
,,,,,560951,1,2024-07-12_17h38.52.125,experiment,2024.1.5,MacIntel,64.1025641,6691931c2c63981b064e1f0c,6691b0571030406d5f22485f,,,,,,,,,,,,,,,,,,,,,,,,,,,,,,,,,,,,,,,,,,,,,,,,,,,,,,,,,,,,1046.7698,1054.391,0.030013146,0.119316632,1.0,0.0,0.0,1.6161,compass,0.0,13.0,13.0,21.0,1.0,SoundStimuli/GoodGollyMissMolly_LittleRichard_Cover5S.wav,,,,,,,,,,,,,,,,,,,,,,,,,,,,,,,,,,,,,,,,,,,,,,,,,,,
,,,,,560951,1,2024-07-12_17h38.52.125,experiment,2024.1.5,MacIntel,64.1025641,6691931c2c63981b064e1f0c,6691b0571030406d5f22485f,,,,,,,,,,,,,,,,,,,,,,,,,,,,,,,,,,,,,,,,,,,,,,,,,,,,,,,,,,,,1054.4064,1060.9916,-0.263775584,-0.213137826,1.0,0.0,0.0,0.583,compass,0.0,14.0,14.0,13.0,1.0,SoundStimuli/GodOnlyKnows_TheBeachBoys_Cover5S.wav,,,,,,,,,,,,,,,,,,,,,,,,,,,,,,,,,,,,,,,,,,,,,,,,,,,
,,,,,560951,1,2024-07-12_17h38.52.125,experiment,2024.1.5,MacIntel,64.1025641,6691931c2c63981b064e1f0c,6691b0571030406d5f22485f,,,,,,,,,,,,,,,,,,,,,,,,,,,,,,,,,,,,,,,,,,,,,,,,,,,,,,,,,,,,1061.0044,1067.8756,0.085333864,-0.241002585,1.0,0.0,0.0,0.867,compass,0.0,15.0,15.0,19.0,1.0,SoundStimuli/LetsGetItOn_MarvinGaye_Cover5S.wav,,,,,,,,,,,,,,,,,,,,,,,,,,,,,,,,,,,,,,,,,,,,,,,,,,,
,,,,,560951,1,2024-07-12_17h38.52.125,experiment,2024.1.5,MacIntel,64.1025641,6691931c2c63981b064e1f0c,6691b0571030406d5f22485f,,,,,,,,,,,,,,,,,,,,,,,,,,,,,,,,,,,,,,,,,,,,,,,,,,,,,,,,,,,,1067.8912,1075.0414,0.160304928,-0.022663807,1.0,0.0,0.0,1.149,compass,0.0,16.0,16.0,20.0,1.0,SoundStimuli/HeyYa_Outkast_Cover5S.wav,,,,,,,,,,,,,,,,,,,,,,,,,,,,,,,,,,,,,,,,,,,,,,,,,,,
,,,,,560951,1,2024-07-12_17h38.52.125,experiment,2024.1.5,MacIntel,64.1025641,6691931c2c63981b064e1f0c,6691b0571030406d5f22485f,,,,,,,,,,,,,,,,,,,,,,,,,,,,,,,,,,,,,,,,,,,,,,,,,,,,,,,,,,,,1075.054,1082.9931,0.002834649,-0.00079554,1.0,0.0,0.0,1.9342,compass,0.0,17.0,17.0,31.0,1.0,SoundStimuli/TheBattleOfNewOrleans_JohnnyHorton_Cover5S.wav,,,,,,,,,,,,,,,,,,,,,,,,,,,,,,,,,,,,,,,,,,,,,,,,,,,
,,,,,560951,1,2024-07-12_17h38.52.125,experiment,2024.1.5,MacIntel,64.1025641,6691931c2c63981b064e1f0c,6691b0571030406d5f22485f,,,,,,,,,,,,,,,,,,,,,,,,,,,,,,,,,,,,,,,,,,,,,,,,,,,,,,,,,,,,1083.0055,1089.509,0.254279432,0.270461356,1.0,0.0,0.0,0.4988,compass,0.0,18.0,18.0,32.0,1.0,SoundStimuli/HeatWaves_GlassAnimals_Original5S.wav,,,,,,,,,,,,,,,,,,,,,,,,,,,,,,,,,,,,,,,,,,,,,,,,,,,
,,,,,560951,1,2024-07-12_17h38.52.125,experiment,2024.1.5,MacIntel,64.1025641,6691931c2c63981b064e1f0c,6691b0571030406d5f22485f,,,,,,,,,,,,,,,,,,,,,,,,,,,,,,,,,,,,,,,,,,,,,,,,,,,,,,,,,,,,1089.5217,1096.6607,0.162241646,0.155848341,1.0,0.0,0.0,1.1344,compass,0.0,19.0,19.0,25.0,1.0,SoundStimuli/Respect_ArethaFranklin_Original5S.wav,,,,,,,,,,,,,,,,,,,,,,,,,,,,,,,,,,,,,,,,,,,,,,,,,,,
,,,,,560951,1,2024-07-12_17h38.52.125,experiment,2024.1.5,MacIntel,64.1025641,6691931c2c63981b064e1f0c,6691b0571030406d5f22485f,,,,,,,,,,,,,,,,,,,,,,,,,,,,,,,,,,,,,,,,,,,,,,,,,,,,,,,,,,,,1096.6745,1103.1775,0.110997447,0.156810622,1.0,0.0,0.0,0.5004,compass,0.0,20.0,20.0,34.0,1.0,SoundStimuli/AChangeIsGonnaCome_SamCooke_Cover5S.wav,,,,,,,,,,,,,,,,,,,,,,,,,,,,,,,,,,,,,,,,,,,,,,,,,,,
,,,,,560951,1,2024-07-12_17h38.52.125,experiment,2024.1.5,MacIntel,64.1025641,6691931c2c63981b064e1f0c,6691b0571030406d5f22485f,,,,,,,,,,,,,,,,,,,,,,,,,,,,,,,,,,,,,,,,,,,,,,,,,,,,,,,,,,,,1103.1924,1109.6949,0.269549952,-0.134886335,1.0,0.0,0.0,0.5008,compass,0.0,21.0,21.0,17.0,1.0,SoundStimuli/Fallin_AliciaKeys_Original5S.wav,,,,,,,,,,,,,,,,,,,,,,,,,,,,,,,,,,,,,,,,,,,,,,,,,,,
,,,,,560951,1,2024-07-12_17h38.52.125,experiment,2024.1.5,MacIntel,64.1025641,6691931c2c63981b064e1f0c,6691b0571030406d5f22485f,,,,,,,,,,,,,,,,,,,,,,,,,,,,,,,,,,,,,,,,,,,,,,,,,,,,,,,,,,,,1109.7066,1116.2113,-0.110765547,-0.020717525,1.0,0.0,0.0,0.4989,compass,0.0,22.0,22.0,9.0,1.0,SoundStimuli/Despacito_LuisFonsiDaddyYankee_Cover5S.wav,,,,,,,,,,,,,,,,,,,,,,,,,,,,,,,,,,,,,,,,,,,,,,,,,,,
,,,,,560951,1,2024-07-12_17h38.52.125,experiment,2024.1.5,MacIntel,64.1025641,6691931c2c63981b064e1f0c,6691b0571030406d5f22485f,,,,,,,,,,,,,,,,,,,,,,,,,,,,,,,,,,,,,,,,,,,,,,,,,,,,,,,,,,,,1116.2246,1122.7783,0.211838831,0.071337687,1.0,0.0,0.0,0.5492,compass,0.0,23.0,23.0,5.0,1.0,SoundStimuli/MyGirl_TheTemptations_Original5S.wav,,,,,,,,,,,,,,,,,,,,,,,,,,,,,,,,,,,,,,,,,,,,,,,,,,,
,,,,,560951,1,2024-07-12_17h38.52.125,experiment,2024.1.5,MacIntel,64.1025641,6691931c2c63981b064e1f0c,6691b0571030406d5f22485f,,,,,,,,,,,,,,,,,,,,,,,,,,,,,,,,,,,,,,,,,,,,,,,,,,,,,,,,,,,,1122.7912,1129.9954,0.167454712,0.181896497,1.0,0.0,0.0,1.1989,compass,0.0,24.0,24.0,0.0,1.0,SoundStimuli/StayinAlive_BeeGees_Original5S.wav,,,,,,,,,,,,,,,,,,,,,,,,,,,,,,,,,,,,,,,,,,,,,,,,,,,
,,,,,560951,1,2024-07-12_17h38.52.125,experiment,2024.1.5,MacIntel,64.1025641,6691931c2c63981b064e1f0c,6691b0571030406d5f22485f,,,,,,,,,,,,,,,,,,,,,,,,,,,,,,,,,,,,,,,,,,,,,,,,,,,,,,,,,,,,1130.011,1136.0473,0.084594472,0.062239113,1.0,0.0,0.0,0.0329,compass,0.0,25.0,25.0,22.0,1.0,SoundStimuli/RockWithYou_MichaelJackson_Original5S.wav,,,,,,,,,,,,,,,,,,,,,,,,,,,,,,,,,,,,,,,,,,,,,,,,,,,
,,,,,560951,1,2024-07-12_17h38.52.125,experiment,2024.1.5,MacIntel,64.1025641,6691931c2c63981b064e1f0c,6691b0571030406d5f22485f,,,,,,,,,,,,,,,,,,,,,,,,,,,,,,,,,,,,,,,,,,,,,,,,,,,,,,,,,,,,1136.0598,1142.9296,0.320615976,0.140455878,1.0,0.0,0.0,0.8666,compass,0.0,26.0,26.0,28.0,1.0,SoundStimuli/ComeAndGetYourLove_Redbone_Original5S.wav,,,,,,,,,,,,,,,,,,,,,,,,,,,,,,,,,,,,,,,,,,,,,,,,,,,
,,,,,560951,1,2024-07-12_17h38.52.125,experiment,2024.1.5,MacIntel,64.1025641,6691931c2c63981b064e1f0c,6691b0571030406d5f22485f,,,,,,,,,,,,,,,,,,,,,,,,,,,,,,,,,,,,,,,,,,,,,,,,,,,,,,,,,,,,1142.9431,1149.3976,-0.020821659,0.078580468,1.0,0.0,0.0,0.4499,compass,0.0,27.0,27.0,1.0,1.0,SoundStimuli/Stronger_KanyeWest_Original5S.wav,,,,,,,,,,,,,,,,,,,,,,,,,,,,,,,,,,,,,,,,,,,,,,,,,,,
,,,,,560951,1,2024-07-12_17h38.52.125,experiment,2024.1.5,MacIntel,64.1025641,6691931c2c63981b064e1f0c,6691b0571030406d5f22485f,,,,,,,,,,,,,,,,,,,,,,,,,,,,,,,,,,,,,,,,,,,,,,,,,,,,,,,,,,,,1149.4095,1156.3972,0.244226312,-0.03142996,1.0,0.0,0.0,0.9823,compass,0.0,28.0,28.0,3.0,1.0,SoundStimuli/NoScrubs_TLC_Original5S.wav,,,,,,,,,,,,,,,,,,,,,,,,,,,,,,,,,,,,,,,,,,,,,,,,,,,
,,,,,560951,1,2024-07-12_17h38.52.125,experiment,2024.1.5,MacIntel,64.1025641,6691931c2c63981b064e1f0c,6691b0571030406d5f22485f,,,,,,,,,,,,,,,,,,,,,,,,,,,,,,,,,,,,,,,,,,,,,,,,,,,,,,,,,,,,1156.4095,1163.8145,0.308165909,-0.116258031,1.0,0.0,0.0,1.3997,compass,0.0,29.0,29.0,27.0,1.0,SoundStimuli/ShapeofYou_EdSheeran_Original5S.wav,,,,,,,,,,,,,,,,,,,,,,,,,,,,,,,,,,,,,,,,,,,,,,,,,,,
,,,,,560951,1,2024-07-12_17h38.52.125,experiment,2024.1.5,MacIntel,64.1025641,6691931c2c63981b064e1f0c,6691b0571030406d5f22485f,,,,,,,,,,,,,,,,,,,,,,,,,,,,,,,,,,,,,,,,,,,,,,,,,,,,,,,,,,,,1163.8279,1170.5983,0.046383318,-0.086748809,1.0,0.0,0.0,0.7637,compass,0.0,30.0,30.0,33.0,1.0,SoundStimuli/StandByMe_BenEKing_Cover5S.wav,,,,,,,,,,,,,,,,,,,,,,,,,,,,,,,,,,,,,,,,,,,,,,,,,,,
,,,,,560951,1,2024-07-12_17h38.52.125,experiment,2024.1.5,MacIntel,64.1025641,6691931c2c63981b064e1f0c,6691b0571030406d5f22485f,,,,,,,,,,,,,,,,,,,,,,,,,,,,,,,,,,,,,,,,,,,,,,,,,,,,,,,,,,,,1170.6113,1177.3329,-0.166893154,-0.065535904,1.0,0.0,0.0,0.7168,compass,0.0,31.0,31.0,26.0,1.0,SoundStimuli/LivinOnAPrayer_BonJovi_Cover5S.wav,,,,,,,,,,,,,,,,,,,,,,,,,,,,,,,,,,,,,,,,,,,,,,,,,,,
,,,,,560951,1,2024-07-12_17h38.52.125,experiment,2024.1.5,MacIntel,64.1025641,6691931c2c63981b064e1f0c,6691b0571030406d5f22485f,,,,,,,,,,,,,,,,,,,,,,,,,,,,,,,,,,,,,,,,,,,,,,,,,,,,,,,,,,,,1177.3474,1183.816,-0.26397127,-0.128927417,1.0,0.0,0.0,0.4648,compass,0.0,32.0,32.0,15.0,1.0,SoundStimuli/TikTok_Kesha_Cover5S.wav,,,,,,,,,,,,,,,,,,,,,,,,,,,,,,,,,,,,,,,,,,,,,,,,,,,
,,,,,560951,1,2024-07-12_17h38.52.125,experiment,2024.1.5,MacIntel,64.1025641,6691931c2c63981b064e1f0c,6691b0571030406d5f22485f,,,,,,,,,,,,,,,,,,,,,,,,,,,,,,,,,,,,,,,,,,,,,,,,,,,,,,,,,,,,1183.8284,1190.2503,-0.322732994,-0.31540563,1.0,0.0,0.0,0.4173,compass,0.0,33.0,33.0,10.0,1.0,SoundStimuli/BadDay_DanielPowter_Cover5S.wav,,,,,,,,,,,,,,,,,,,,,,,,,,,,,,,,,,,,,,,,,,,,,,,,,,,
,,,,,560951,1,2024-07-12_17h38.52.125,experiment,2024.1.5,MacIntel,64.1025641,6691931c2c63981b064e1f0c,6691b0571030406d5f22485f,,,,,,,,,,,,,,,,,,,,,,,,,,,,,,,,,,,,,,,,,,,,,,,,,,,,,,,,,,,,1190.2631,1196.6171,-0.10321385,-0.028868524,1.0,0.0,0.0,0.3493,compass,0.0,34.0,34.0,23.0,1.0,SoundStimuli/StrawberryFieldsForever_TheBeatles_Original5S.wav,,,,,,,,,,,,,,,,,,,,,,,,,,,,,,,,,,,,,,,,,,,,,,,,,,,
,,,,,560951,1,2024-07-12_17h38.52.125,experiment,2024.1.5,MacIntel,64.1025641,6691931c2c63981b064e1f0c,6691b0571030406d5f22485f,,,,,,,,,,,,,,,,,,,,,,,,,,,,,,,,,,,,,,,,,,,,,,,,,,,,,,,,,,,,,,,,,,,,,,,,,,,1196.6173,1196.6175,,,,1196.6175,1196.6175,,,,0.0,3.0,3.0,3.0,1.0,block_order/blockA.xlsx,,,,,,,,,,,,,,,,,,,,,,,,,,,,,,,,,,,
,,,,,560951,1,2024-07-12_17h38.52.125,experiment,2024.1.5,MacIntel,64.1025641,6691931c2c63981b064e1f0c,6691b0571030406d5f22485f,,,,,,,,,,,,,,,,,,,,,,,,,,,,,,,,,,,,,,,,,,,,,,,,,,,,,,,,,,,,,,,,,,,,,,,,,,,,,,,,,,,,,,,,,,,26.0,Item 2,Not a musician,Item 3,Spotify,4.0,7.0,"Driving, folding laundry, exercising",Rarely,Rarely,Never,Never,Often,Never,Rarely,Never,Never,Rarely,Often,Never,Never,Never,Never,Sometimes,Pop,Country,Ambient,"Not really, they've remained pretty consistent over time",0.0,0.0,0.0,0.0,1.0,,
,,,,,560951,1,2024-07-12_17h38.52.125,experiment,2024.1.5,MacIntel,64.1025641,6691931c2c63981b064e1f0c,6691b0571030406d5f22485f,,,,,,,,,,,,,,,,,,,,,,,,,,,,,,,,,,,,,,,,,,,,,,,,,,,,,,,,,,,,,,,,,,,,,,,,,,,,,,,,,,,,,,,,,,,,,,,,,,,,,,,,,,,,,,,,,,,,,,,,,,,,1303.3627,1305.4419
