welcome.started,welcome.stopped,space_to_continue.keys,space_to_continue.rt,space_to_continue.duration,participant,session,date,expName,psychopyVersion,OS,frameRate,STUDY_ID,SESSION_ID,consent.consent,consent.consent_recontact,consent_check.started,consent_check.stopped,calibration_ready.started,calibration_ready.stopped,cal_ready.keys,cal_ready.rt,cal_ready.duration,calibration.started,calibration.stopped,mouse.x,mouse.y,mouse.leftButton,mouse.midButton,mouse.rightButton,mouse.time,mouse.clicked_name,move_on.keys,move_on.rt,move_on.duration,run_cal.thisRepN,run_cal.thisTrialN,run_cal.thisN,run_cal.thisIndex,run_cal.ran,emotion_training_ready.started,emotion_training_ready.stopped,training_move_on.keys,training_move_on.rt,training_move_on.duration,examples.started,examples.stopped,emotion_scale.started,emotion_scale.stopped,scale_next.keys,scale_next.rt,scale_next.duration,instructions.started,instructions.stopped,next.keys,next.rt,next.duration,practice_task.started,practice_task.stopped,mouse_rating_2.x,mouse_rating_2.y,mouse_rating_2.leftButton,mouse_rating_2.midButton,mouse_rating_2.rightButton,mouse_rating_2.time,mouse_rating_2.clicked_name,ready.started,ready.stopped,key_resp.keys,key_resp.rt,key_resp.duration,set_group.started,set_group.stopped,task.started,task.stopped,mouse_rating.x,mouse_rating.y,mouse_rating.leftButton,mouse_rating.midButton,mouse_rating.rightButton,mouse_rating.time,mouse_rating.clicked_name,trials.thisRepN,trials.thisTrialN,trials.thisN,trials.thisIndex,trials.ran,clip,short_break.started,short_break.stopped,space_to_move_on.keys,space_to_move_on.rt,space_to_move_on.duration,instruction_reminder.started,instruction_reminder.stopped,reminder_move_on.keys,reminder_move_on.rt,reminder_move_on.duration,blocks.thisRepN,blocks.thisTrialN,blocks.thisN,blocks.thisIndex,blocks.ran,block,post_survey.age,post_survey.musician,post_survey.music_making,post_survey.listen_time,post_survey.medium,post_survey.music_seeking,post_survey.music_choice,post_survey.activities,post_survey.question1.Ambient,post_survey.question1.Disco,post_survey.question1.Alternative rock,post_survey.question1.Jazz,post_survey.question1.Metal,post_survey.question1.Pop,post_survey.question1.A cappella,post_survey.question1.Reggae,post_survey.question1.Hip hop,post_survey.question1.Folk/indie,post_survey.question1.R&B,post_survey.question1.Electronic (EDM),post_survey.question1.Latin,post_survey.question1.Classical,post_survey.question1.Country,post_survey.question1.Classic rock,post_survey.other_genres,post_survey.genres_ranked.text1,post_survey.genres_ranked.text2,post_survey.genres_ranked.text3,post_survey.habit_change,post_survey.habits,show_exp.thisRepN,show_exp.thisTrialN,show_exp.thisN,show_exp.thisIndex,show_exp.ran,goodbye.started,goodbye.stopped
0.0004,2.1549,space,2.1337,,623673,1,2024-07-12_16h24.38.157,experiment,2024.1.5,Win32,59.88023952,6691931c2c63981b064e1f0c,6691babb13d74dc8ea841808,,,,,,,,,,,,,,,,,,,,,,,,,,,,,,,,,,,,,,,,,,,,,,,,,,,,,,,,,,,,,,,,,,,,,,,,,,,,,,,,,,,,,,,,,,,,,,,,,,,,,,,,,,,,,,,,,,,,,,,,,,,,,,,
,,,,,623673,1,2024-07-12_16h24.38.157,experiment,2024.1.5,Win32,59.88023952,6691931c2c63981b064e1f0c,6691babb13d74dc8ea841808,yes,yes,,,,,,,,,,,,,,,,,,,,,,,,,,,,,,,,,,,,,,,,,,,,,,,,,,,,,,,,,,,,,,,,,,,,,,,,,,,,,,,,,,,,,,,,,,,,,,,,,,,,,,,,,,,,,,,,,,,,,,,,,,,,,
,,,,,623673,1,2024-07-12_16h24.38.157,experiment,2024.1.5,Win32,59.88023952,6691931c2c63981b064e1f0c,6691babb13d74dc8ea841808,,,27.1907,27.191,,,,,,,,,,,,,,,,,,,,,,,,,,,,,,,,,,,,,,,,,,,,,,,,,,,,,,,,,,,,,,,,,,,,,,,,,,,,,,,,,,,,,,,,,,,,,,,,,,,,,,,,,,,,,,,,,,,,,,,,,,,
,,,,,623673,1,2024-07-12_16h24.38.157,experiment,2024.1.5,Win32,59.88023952,6691931c2c63981b064e1f0c,6691babb13d74dc8ea841808,,,,,27.1929,31.4166,space,4.1923,,31.4242,64.4541,"[-0.025925883540400752,-0.006481453224464699,-0.006481453224464699,0.04814819053367332]","[-0.4185185609040437,-0.4148148430718316,-0.4148148430718316,-0.14537041275589555]","[1,1,1,1]","[0,0,0,0]","[0,0,0,0]","[8.634100000001467,22.847400000005962,26.429800000004462,27.96290000000596]","[""play_button"",""play_button""]",y,31.9961,,0.0,0.0,0.0,0.0,1.0,,,,,,,,,,,,,,,,,,,,,,,,,,,,,,,,,,,,,,,,,,,,,,,,,,,,,,,,,,,,,,,,,,,,,,,,,,,,,,,,,,,,,,,,,,,,,,,,,,,,,
,,,,,623673,1,2024-07-12_16h24.38.157,experiment,2024.1.5,Win32,59.88023952,6691931c2c63981b064e1f0c,6691babb13d74dc8ea841808,,,,,,,,,,,,,,,,,,,,,,,,,,,64.4547,114.8785,space,50.4017,,114.8786,234.8881,234.8886,243.7601,right,5.3452,,243.7603,251.4354,space,7.6284,,251.4355,259.3839,0.156481496,-0.167592578,1.0,0.0,0.0,1.9329,compass_2,259.3842,261.6001,space,2.1917,,261.6002,261.6085,261.639,268.5826,0.14444443,-0.159259302,1.0,0.0,0.0,0.9335,compass,0.0,0.0,0.0,13.0,1.0,SoundStimuli/Perfect_EdSheeran_Original5S.wav,,,,,,,,,,,,,,,,,,,,,,,,,,,,,,,,,,,,,,,,,,,,,,,,,,,,,
,,,,,623673,1,2024-07-12_16h24.38.157,experiment,2024.1.5,Win32,59.88023952,6691931c2c63981b064e1f0c,6691babb13d74dc8ea841808,,,,,,,,,,,,,,,,,,,,,,,,,,,,,,,,,,,,,,,,,,,,,,,,,,,,,,,,,,,,268.5915,276.4149,0.168518561,0.185185185,1.0,0.0,0.0,1.8169,compass,0.0,1.0,1.0,3.0,1.0,SoundStimuli/PartyRockAnthem_LMFAO_Cover5S.wav,,,,,,,,,,,,,,,,,,,,,,,,,,,,,,,,,,,,,,,,,,,,,,,,,,,,,
,,,,,623673,1,2024-07-12_16h24.38.157,experiment,2024.1.5,Win32,59.88023952,6691931c2c63981b064e1f0c,6691babb13d74dc8ea841808,,,,,,,,,,,,,,,,,,,,,,,,,,,,,,,,,,,,,,,,,,,,,,,,,,,,,,,,,,,,276.4238,292.1124,0.163888931,0.186111097,1.0,0.0,0.0,9.6751,compass,0.0,2.0,2.0,30.0,1.0,SoundStimuli/SomebodyThatIUsedtoKnow_Gotye_Cover5S.wav,,,,,,,,,,,,,,,,,,,,,,,,,,,,,,,,,,,,,,,,,,,,,,,,,,,,,
,,,,,623673,1,2024-07-12_16h24.38.157,experiment,2024.1.5,Win32,59.88023952,6691931c2c63981b064e1f0c,6691babb13d74dc8ea841808,,,,,,,,,,,,,,,,,,,,,,,,,,,,,,,,,,,,,,,,,,,,,,,,,,,,,,,,,,,,292.1213,299.1114,-0.179629644,-0.185185185,1.0,0.0,0.0,0.9765,compass,0.0,3.0,3.0,9.0,1.0,SoundStimuli/HowDoILive_LeAnnRimes_Original5S.wav,,,,,,,,,,,,,,,,,,,,,,,,,,,,,,,,,,,,,,,,,,,,,,,,,,,,,
,,,,,623673,1,2024-07-12_16h24.38.157,experiment,2024.1.5,Win32,59.88023952,6691931c2c63981b064e1f0c,6691babb13d74dc8ea841808,,,,,,,,,,,,,,,,,,,,,,,,,,,,,,,,,,,,,,,,,,,,,,,,,,,,,,,,,,,,299.1199,306.9338,0.163888931,-0.175925926,1.0,0.0,0.0,1.7998,compass,0.0,4.0,4.0,7.0,1.0,SoundStimuli/MackTheKnife_BobbyDarin_Original5S.wav,,,,,,,,,,,,,,,,,,,,,,,,,,,,,,,,,,,,,,,,,,,,,,,,,,,,,
,,,,,623673,1,2024-07-12_16h24.38.157,experiment,2024.1.5,Win32,59.88023952,6691931c2c63981b064e1f0c,6691babb13d74dc8ea841808,,,,,,,,,,,,,,,,,,,,,,,,,,,,,,,,,,,,,,,,,,,,,,,,,,,,,,,,,,,,306.9428,315.4259,0.163888931,-0.175925926,1.0,0.0,0.0,2.4764,compass,0.0,5.0,5.0,23.0,1.0,SoundStimuli/IWalkTheLine_JohnnyCash_Cover5S.wav,,,,,,,,,,,,,,,,,,,,,,,,,,,,,,,,,,,,,,,,,,,,,,,,,,,,,
,,,,,623673,1,2024-07-12_16h24.38.157,experiment,2024.1.5,Win32,59.88023952,6691931c2c63981b064e1f0c,6691babb13d74dc8ea841808,,,,,,,,,,,,,,,,,,,,,,,,,,,,,,,,,,,,,,,,,,,,,,,,,,,,,,,,,,,,315.4353,322.4818,-0.178703661,0.198148127,1.0,0.0,0.0,1.0404,compass,0.0,6.0,6.0,2.0,1.0,SoundStimuli/SmellsLikeTeenSpirit_Nirvana_Cover5S.wav,,,,,,,,,,,,,,,,,,,,,,,,,,,,,,,,,,,,,,,,,,,,,,,,,,,,,
,,,,,623673,1,2024-07-12_16h24.38.157,experiment,2024.1.5,Win32,59.88023952,6691931c2c63981b064e1f0c,6691babb13d74dc8ea841808,,,,,,,,,,,,,,,,,,,,,,,,,,,,,,,,,,,,,,,,,,,,,,,,,,,,,,,,,,,,322.4902,330.7748,0.168518561,0.200925933,1.0,0.0,0.0,2.2844,compass,0.0,7.0,7.0,27.0,1.0,SoundStimuli/EyeOfTheTiger_Survivor_Original5S.wav,,,,,,,,,,,,,,,,,,,,,,,,,,,,,,,,,,,,,,,,,,,,,,,,,,,,,
,,,,,623673,1,2024-07-12_16h24.38.157,experiment,2024.1.5,Win32,59.88023952,6691931c2c63981b064e1f0c,6691babb13d74dc8ea841808,,,,,,,,,,,,,,,,,,,,,,,,,,,,,,,,,,,,,,,,,,,,,,,,,,,,,,,,,,,,330.7836,339.3391,0.162037037,0.182407414,1.0,0.0,0.0,2.5431,compass,0.0,8.0,8.0,31.0,1.0,SoundStimuli/TossinAndTurnin_BobbyLewis_Cover5S.wav,,,,,,,,,,,,,,,,,,,,,,,,,,,,,,,,,,,,,,,,,,,,,,,,,,,,,
,,,,,623673,1,2024-07-12_16h24.38.157,experiment,2024.1.5,Win32,59.88023952,6691931c2c63981b064e1f0c,6691babb13d74dc8ea841808,,,,,,,,,,,,,,,,,,,,,,,,,,,,,,,,,,,,,,,,,,,,,,,,,,,,,,,,,,,,339.3482,347.8543,0.173148191,-0.175925926,1.0,0.0,0.0,2.4931,compass,0.0,9.0,9.0,17.0,1.0,SoundStimuli/IWannaDanceWithSomebody_WhitneyHouston_Cover5S.wav,,,,,,,,,,,,,,,,,,,,,,,,,,,,,,,,,,,,,,,,,,,,,,,,,,,,,
,,,,,623673,1,2024-07-12_16h24.38.157,experiment,2024.1.5,Win32,59.88023952,6691931c2c63981b064e1f0c,6691babb13d74dc8ea841808,,,,,,,,,,,,,,,,,,,,,,,,,,,,,,,,,,,,,,,,,,,,,,,,,,,,,,,,,,,,347.8633,357.6863,0.350926011,0.350925922,1.0,0.0,0.0,2.2264,compass,0.0,10.0,10.0,22.0,1.0,SoundStimuli/Happy_PharellWilliams_Cover5S.wav,,,,,,,,,,,,,,,,,,,,,,,,,,,,,,,,,,,,,,,,,,,,,,,,,,,,,
,,,,,623673,1,2024-07-12_16h24.38.157,experiment,2024.1.5,Win32,59.88023952,6691931c2c63981b064e1f0c,6691babb13d74dc8ea841808,,,,,,,,,,,,,,,,,,,,,,,,,,,,,,,,,,,,,,,,,,,,,,,,,,,,,,,,,,,,357.6957,364.9852,0.154629672,-0.164814843,1.0,0.0,0.0,1.2765,compass,0.0,11.0,11.0,4.0,1.0,SoundStimuli/Dreams_FleetwoodMac_Cover5S.wav,,,,,,,,,,,,,,,,,,,,,,,,,,,,,,,,,,,,,,,,,,,,,,,,,,,,,
,,,,,623673,1,2024-07-12_16h24.38.157,experiment,2024.1.5,Win32,59.88023952,6691931c2c63981b064e1f0c,6691babb13d74dc8ea841808,,,,,,,,,,,,,,,,,,,,,,,,,,,,,,,,,,,,,,,,,,,,,,,,,,,,,,,,,,,,364.9938,374.1076,0.167592578,0.160185178,1.0,0.0,0.0,3.1002,compass,0.0,12.0,12.0,5.0,1.0,SoundStimuli/JoyToTheWorld_ThreeDogNight_Cover5S.wav,,,,,,,,,,,,,,,,,,,,,,,,,,,,,,,,,,,,,,,,,,,,,,,,,,,,,
,,,,,623673,1,2024-07-12_16h24.38.157,experiment,2024.1.5,Win32,59.88023952,6691931c2c63981b064e1f0c,6691babb13d74dc8ea841808,,,,,,,,,,,,,,,,,,,,,,,,,,,,,,,,,,,,,,,,,,,,,,,,,,,,,,,,,,,,374.116,381.4829,-0.223148134,-0.202777792,1.0,0.0,0.0,1.3596,compass,0.0,13.0,13.0,20.0,1.0,SoundStimuli/FlashdanceWhatAFeeling_IreneCara_Cover5S.wav,,,,,,,,,,,,,,,,,,,,,,,,,,,,,,,,,,,,,,,,,,,,,,,,,,,,,
,,,,,623673,1,2024-07-12_16h24.38.157,experiment,2024.1.5,Win32,59.88023952,6691931c2c63981b064e1f0c,6691babb13d74dc8ea841808,,,,,,,,,,,,,,,,,,,,,,,,,,,,,,,,,,,,,,,,,,,,,,,,,,,,,,,,,,,,381.4917,388.089,0.156481496,0.177777785,1.0,0.0,0.0,0.5833,compass,0.0,14.0,14.0,11.0,1.0,SoundStimuli/BlurredLines_RobinThicke_Original5S.wav,,,,,,,,,,,,,,,,,,,,,,,,,,,,,,,,,,,,,,,,,,,,,,,,,,,,,
,,,,,623673,1,2024-07-12_16h24.38.157,experiment,2024.1.5,Win32,59.88023952,6691931c2c63981b064e1f0c,6691babb13d74dc8ea841808,,,,,,,,,,,,,,,,,,,,,,,,,,,,,,,,,,,,,,,,,,,,,,,,,,,,,,,,,,,,388.0971,397.3376,0.156481496,0.177777785,1.0,0.0,0.0,3.233,compass,0.0,15.0,15.0,26.0,1.0,SoundStimuli/TheSign_AceOfBase_Original5S.wav,,,,,,,,,,,,,,,,,,,,,,,,,,,,,,,,,,,,,,,,,,,,,,,,,,,,,
,,,,,623673,1,2024-07-12_16h24.38.157,experiment,2024.1.5,Win32,59.88023952,6691931c2c63981b064e1f0c,6691babb13d74dc8ea841808,,,,,,,,,,,,,,,,,,,,,,,,,,,,,,,,,,,,,,,,,,,,,,,,,,,,,,,,,,,,397.3463,406.9302,-0.176851838,0.16574072,1.0,0.0,0.0,3.5834,compass,0.0,16.0,16.0,1.0,1.0,SoundStimuli/Smooth_SantanaRobThomas_Cover5S.wav,,,,,,,,,,,,,,,,,,,,,,,,,,,,,,,,,,,,,,,,,,,,,,,,,,,,,
,,,,,623673,1,2024-07-12_16h24.38.157,experiment,2024.1.5,Win32,59.88023952,6691931c2c63981b064e1f0c,6691babb13d74dc8ea841808,,,,,,,,,,,,,,,,,,,,,,,,,,,,,,,,,,,,,,,,,,,,,,,,,,,,,,,,,,,,406.9387,415.2452,-0.154629601,-0.164814843,1.0,0.0,0.0,2.2932,compass,0.0,17.0,17.0,21.0,1.0,SoundStimuli/BridgeOverTroubledWater_SimonAndGarfunkel_Cover5S.wav,,,,,,,,,,,,,,,,,,,,,,,,,,,,,,,,,,,,,,,,,,,,,,,,,,,,,
,,,,,623673,1,2024-07-12_16h24.38.157,experiment,2024.1.5,Win32,59.88023952,6691931c2c63981b064e1f0c,6691babb13d74dc8ea841808,,,,,,,,,,,,,,,,,,,,,,,,,,,,,,,,,,,,,,,,,,,,,,,,,,,,,,,,,,,,415.2541,421.7772,0.156481496,-0.162037037,1.0,0.0,0.0,0.5101,compass,0.0,18.0,18.0,18.0,1.0,SoundStimuli/Weak_SWV_Original5S.wav,,,,,,,,,,,,,,,,,,,,,,,,,,,,,,,,,,,,,,,,,,,,,,,,,,,,,
,,,,,623673,1,2024-07-12_16h24.38.157,experiment,2024.1.5,Win32,59.88023952,6691931c2c63981b064e1f0c,6691babb13d74dc8ea841808,,,,,,,,,,,,,,,,,,,,,,,,,,,,,,,,,,,,,,,,,,,,,,,,,,,,,,,,,,,,421.7865,428.5165,0.156481496,-0.162037037,1.0,0.0,0.0,0.7169,compass,0.0,19.0,19.0,19.0,1.0,SoundStimuli/YouLightUpMyLife_DebbyBoone_Cover5S.wav,,,,,,,,,,,,,,,,,,,,,,,,,,,,,,,,,,,,,,,,,,,,,,,,,,,,,
,,,,,623673,1,2024-07-12_16h24.38.157,experiment,2024.1.5,Win32,59.88023952,6691931c2c63981b064e1f0c,6691babb13d74dc8ea841808,,,,,,,,,,,,,,,,,,,,,,,,,,,,,,,,,,,,,,,,,,,,,,,,,,,,,,,,,,,,428.5247,435.5321,-0.240740741,-0.14907406,1.0,0.0,0.0,1.0002,compass,0.0,20.0,20.0,29.0,1.0,SoundStimuli/BetteDavisEyes_KimCarnes_Cover5S.wav,,,,,,,,,,,,,,,,,,,,,,,,,,,,,,,,,,,,,,,,,,,,,,,,,,,,,
,,,,,623673,1,2024-07-12_16h24.38.157,experiment,2024.1.5,Win32,59.88023952,6691931c2c63981b064e1f0c,6691babb13d74dc8ea841808,,,,,,,,,,,,,,,,,,,,,,,,,,,,,,,,,,,,,,,,,,,,,,,,,,,,,,,,,,,,435.5402,444.2239,0.146296325,-0.141666695,1.0,0.0,0.0,2.6829,compass,0.0,21.0,21.0,8.0,1.0,SoundStimuli/EndlessLove_DianaRossLionelRichie_Original5S.wav,,,,,,,,,,,,,,,,,,,,,,,,,,,,,,,,,,,,,,,,,,,,,,,,,,,,,
,,,,,623673,1,2024-07-12_16h24.38.157,experiment,2024.1.5,Win32,59.88023952,6691931c2c63981b064e1f0c,6691babb13d74dc8ea841808,,,,,,,,,,,,,,,,,,,,,,,,,,,,,,,,,,,,,,,,,,,,,,,,,,,,,,,,,,,,444.2326,451.0395,0.151851866,0.176851838,1.0,0.0,0.0,0.7934,compass,0.0,22.0,22.0,24.0,1.0,SoundStimuli/Kiss_Prince_Original5S.wav,,,,,,,,,,,,,,,,,,,,,,,,,,,,,,,,,,,,,,,,,,,,,,,,,,,,,
,,,,,623673,1,2024-07-12_16h24.38.157,experiment,2024.1.5,Win32,59.88023952,6691931c2c63981b064e1f0c,6691babb13d74dc8ea841808,,,,,,,,,,,,,,,,,,,,,,,,,,,,,,,,,,,,,,,,,,,,,,,,,,,,,,,,,,,,451.0479,459.9785,-0.187037009,0.193518497,1.0,0.0,0.0,2.9165,compass,0.0,23.0,23.0,34.0,1.0,SoundStimuli/Irreplaceable_Beyonce_Original5S.wav,,,,,,,,,,,,,,,,,,,,,,,,,,,,,,,,,,,,,,,,,,,,,,,,,,,,,
,,,,,623673,1,2024-07-12_16h24.38.157,experiment,2024.1.5,Win32,59.88023952,6691931c2c63981b064e1f0c,6691babb13d74dc8ea841808,,,,,,,,,,,,,,,,,,,,,,,,,,,,,,,,,,,,,,,,,,,,,,,,,,,,,,,,,,,,459.987,466.4375,0.171296296,0.180555556,1.0,0.0,0.0,0.4501,compass,0.0,24.0,24.0,15.0,1.0,SoundStimuli/CrazyInLove_BeyonceFtJayZ_Original5S.wav,,,,,,,,,,,,,,,,,,,,,,,,,,,,,,,,,,,,,,,,,,,,,,,,,,,,,
,,,,,623673,1,2024-07-12_16h24.38.157,experiment,2024.1.5,Win32,59.88023952,6691931c2c63981b064e1f0c,6691babb13d74dc8ea841808,,,,,,,,,,,,,,,,,,,,,,,,,,,,,,,,,,,,,,,,,,,,,,,,,,,,,,,,,,,,466.4464,473.3769,-0.141666624,0.221296293,1.0,0.0,0.0,0.917,compass,0.0,25.0,25.0,6.0,1.0,SoundStimuli/SaveYourTears_TheWeekndArianaGrande_Original5S.wav,,,,,,,,,,,,,,,,,,,,,,,,,,,,,,,,,,,,,,,,,,,,,,,,,,,,,
,,,,,623673,1,2024-07-12_16h24.38.157,experiment,2024.1.5,Win32,59.88023952,6691931c2c63981b064e1f0c,6691babb13d74dc8ea841808,,,,,,,,,,,,,,,,,,,,,,,,,,,,,,,,,,,,,,,,,,,,,,,,,,,,,,,,,,,,473.3852,480.3354,-0.338888875,-0.341666681,1.0,0.0,0.0,0.9427,compass,0.0,26.0,26.0,28.0,1.0,SoundStimuli/IWantToHoldYourHand_TheBeatles_Cover5S.wav,,,,,,,,,,,,,,,,,,,,,,,,,,,,,,,,,,,,,,,,,,,,,,,,,,,,,
,,,,,623673,1,2024-07-12_16h24.38.157,experiment,2024.1.5,Win32,59.88023952,6691931c2c63981b064e1f0c,6691babb13d74dc8ea841808,,,,,,,,,,,,,,,,,,,,,,,,,,,,,,,,,,,,,,,,,,,,,,,,,,,,,,,,,,,,480.3443,488.8175,-0.140740712,0.12962963,1.0,0.0,0.0,2.4599,compass,0.0,27.0,27.0,12.0,1.0,SoundStimuli/UnbreakMyHeart_ToniBraxton_Cover5S.wav,,,,,,,,,,,,,,,,,,,,,,,,,,,,,,,,,,,,,,,,,,,,,,,,,,,,,
,,,,,623673,1,2024-07-12_16h24.38.157,experiment,2024.1.5,Win32,59.88023952,6691931c2c63981b064e1f0c,6691babb13d74dc8ea841808,,,,,,,,,,,,,,,,,,,,,,,,,,,,,,,,,,,,,,,,,,,,,,,,,,,,,,,,,,,,488.8266,495.2904,-0.196296268,0.184259238,1.0,0.0,0.0,0.4571,compass,0.0,28.0,28.0,33.0,1.0,SoundStimuli/TheBoyIsMine_BrandyMonica_Cover5S.wav,,,,,,,,,,,,,,,,,,,,,,,,,,,,,,,,,,,,,,,,,,,,,,,,,,,,,
,,,,,623673,1,2024-07-12_16h24.38.157,experiment,2024.1.5,Win32,59.88023952,6691931c2c63981b064e1f0c,6691babb13d74dc8ea841808,,,,,,,,,,,,,,,,,,,,,,,,,,,,,,,,,,,,,,,,,,,,,,,,,,,,,,,,,,,,495.2988,501.8726,0.173148191,0.188888868,1.0,0.0,0.0,0.57,compass,0.0,29.0,29.0,10.0,1.0,SoundStimuli/LeFreak_Chic_Original5S.wav,,,,,,,,,,,,,,,,,,,,,,,,,,,,,,,,,,,,,,,,,,,,,,,,,,,,,
,,,,,623673,1,2024-07-12_16h24.38.157,experiment,2024.1.5,Win32,59.88023952,6691931c2c63981b064e1f0c,6691babb13d74dc8ea841808,,,,,,,,,,,,,,,,,,,,,,,,,,,,,,,,,,,,,,,,,,,,,,,,,,,,,,,,,,,,501.8809,510.038,-0.184259273,-0.17777782,1.0,0.0,0.0,2.1564,compass,0.0,30.0,30.0,16.0,1.0,SoundStimuli/ItsAllInTheGame_TommyEdwards_Original5S.wav,,,,,,,,,,,,,,,,,,,,,,,,,,,,,,,,,,,,,,,,,,,,,,,,,,,,,
,,,,,623673,1,2024-07-12_16h24.38.157,experiment,2024.1.5,Win32,59.88023952,6691931c2c63981b064e1f0c,6691babb13d74dc8ea841808,,,,,,,,,,,,,,,,,,,,,,,,,,,,,,,,,,,,,,,,,,,,,,,,,,,,,,,,,,,,510.0463,516.6037,-0.179629644,-0.160185213,1.0,0.0,0.0,0.5571,compass,0.0,31.0,31.0,25.0,1.0,SoundStimuli/IllMakeLoveToYou_BoyzIIMen_Original5S.wav,,,,,,,,,,,,,,,,,,,,,,,,,,,,,,,,,,,,,,,,,,,,,,,,,,,,,
,,,,,623673,1,2024-07-12_16h24.38.157,experiment,2024.1.5,Win32,59.88023952,6691931c2c63981b064e1f0c,6691babb13d74dc8ea841808,,,,,,,,,,,,,,,,,,,,,,,,,,,,,,,,,,,,,,,,,,,,,,,,,,,,,,,,,,,,516.612,523.5365,-0.162037037,0.204629633,1.0,0.0,0.0,0.9169,compass,0.0,32.0,32.0,32.0,1.0,SoundStimuli/Dilemma_NellyKellyRowland_Original5S.wav,,,,,,,,,,,,,,,,,,,,,,,,,,,,,,,,,,,,,,,,,,,,,,,,,,,,,
,,,,,623673,1,2024-07-12_16h24.38.157,experiment,2024.1.5,Win32,59.88023952,6691931c2c63981b064e1f0c,6691babb13d74dc8ea841808,,,,,,,,,,,,,,,,,,,,,,,,,,,,,,,,,,,,,,,,,,,,,,,,,,,,,,,,,,,,523.5451,530.3851,0.155555584,-0.178703732,1.0,0.0,0.0,0.8332,compass,0.0,33.0,33.0,14.0,1.0,SoundStimuli/LikeARollingStone_BobDylan_Cover5S.wav,,,,,,,,,,,,,,,,,,,,,,,,,,,,,,,,,,,,,,,,,,,,,,,,,,,,,
,,,,,623673,1,2024-07-12_16h24.38.157,experiment,2024.1.5,Win32,59.88023952,6691931c2c63981b064e1f0c,6691babb13d74dc8ea841808,,,,,,,,,,,,,,,,,,,,,,,,,,,,,,,,,,,,,,,,,,,,,,,,,,,,,,,,,,,,530.3934,538.5441,-0.186111097,0.14907406,1.0,0.0,0.0,2.1498,compass,0.0,34.0,34.0,0.0,1.0,SoundStimuli/GimmeShelter_RollingStones_Cover5S.wav,,,,,,,,,,,,,,,,,,,,,,,,,,,,,,,,,,,,,,,,,,,,,,,,,,,,,
,,,,,623673,1,2024-07-12_16h24.38.157,experiment,2024.1.5,Win32,59.88023952,6691931c2c63981b064e1f0c,6691babb13d74dc8ea841808,,,,,,,,,,,,,,,,,,,,,,,,,,,,,,,,,,,,,,,,,,,,,,,,,,,,,,,,,,,,,,,,,,,,,,,,,,,538.553,554.8754,space,16.2975,,554.8756,563.4475,right,8.5481,,0.0,0.0,0.0,0.0,1.0,block_order/blockB.xlsx,,,,,,,,,,,,,,,,,,,,,,,,,,,,,,,,,,,,,
,,,,,623673,1,2024-07-12_16h24.38.157,experiment,2024.1.5,Win32,59.88023952,6691931c2c63981b064e1f0c,6691babb13d74dc8ea841808,,,,,,,,,,,,,,,,,,,,,,,,,,,,,,,,,,,,,,,,,,,,,,,,,,,,,,,,,,,,563.4611,572.3126,0.190740727,-0.222222222,1.0,0.0,0.0,2.8335,compass,0.0,0.0,0.0,19.0,1.0,SoundStimuli/LetsGetItOn_MarvinGaye_Original5S.wav,,,,,,,,,,,,,,,,,,,,,,,,,,,,,,,,,,,,,,,,,,,,,,,,,,,,,
,,,,,623673,1,2024-07-12_16h24.38.157,experiment,2024.1.5,Win32,59.88023952,6691931c2c63981b064e1f0c,6691babb13d74dc8ea841808,,,,,,,,,,,,,,,,,,,,,,,,,,,,,,,,,,,,,,,,,,,,,,,,,,,,,,,,,,,,572.3212,578.4282,0.337962963,0.337962963,1.0,0.0,0.0,0.0903,compass,0.0,1.0,1.0,15.0,1.0,SoundStimuli/TikTok_Kesha_Original5S.wav,,,,,,,,,,,,,,,,,,,,,,,,,,,,,,,,,,,,,,,,,,,,,,,,,,,,,
,,,,,623673,1,2024-07-12_16h24.38.157,experiment,2024.1.5,Win32,59.88023952,6691931c2c63981b064e1f0c,6691babb13d74dc8ea841808,,,,,,,,,,,,,,,,,,,,,,,,,,,,,,,,,,,,,,,,,,,,,,,,,,,,,,,,,,,,578.4365,585.2038,-0.169444402,0.168518526,1.0,0.0,0.0,0.7592,compass,0.0,2.0,2.0,2.0,1.0,SoundStimuli/Mood_24kGoldnianndior_Original5S.wav,,,,,,,,,,,,,,,,,,,,,,,,,,,,,,,,,,,,,,,,,,,,,,,,,,,,,
,,,,,623673,1,2024-07-12_16h24.38.157,experiment,2024.1.5,Win32,59.88023952,6691931c2c63981b064e1f0c,6691babb13d74dc8ea841808,,,,,,,,,,,,,,,,,,,,,,,,,,,,,,,,,,,,,,,,,,,,,,,,,,,,,,,,,,,,585.2129,591.8929,0.161111125,0.169444437,1.0,0.0,0.0,0.667,compass,0.0,3.0,3.0,30.0,1.0,SoundStimuli/PokerFace_LadyGaga_Cover5S.wav,,,,,,,,,,,,,,,,,,,,,,,,,,,,,,,,,,,,,,,,,,,,,,,,,,,,,
,,,,,623673,1,2024-07-12_16h24.38.157,experiment,2024.1.5,Win32,59.88023952,6691931c2c63981b064e1f0c,6691babb13d74dc8ea841808,,,,,,,,,,,,,,,,,,,,,,,,,,,,,,,,,,,,,,,,,,,,,,,,,,,,,,,,,,,,591.9016,598.6518,-0.186111097,0.16574072,1.0,0.0,0.0,0.7489,compass,0.0,4.0,4.0,3.0,1.0,SoundStimuli/NoScrubs_TLC_Cover5S.wav,,,,,,,,,,,,,,,,,,,,,,,,,,,,,,,,,,,,,,,,,,,,,,,,,,,,,
,,,,,623673,1,2024-07-12_16h24.38.157,experiment,2024.1.5,Win32,59.88023952,6691931c2c63981b064e1f0c,6691babb13d74dc8ea841808,,,,,,,,,,,,,,,,,,,,,,,,,,,,,,,,,,,,,,,,,,,,,,,,,,,,,,,,,,,,598.6603,605.3676,-0.186111097,0.16574072,1.0,0.0,0.0,0.6932,compass,0.0,5.0,5.0,23.0,1.0,SoundStimuli/StrawberryFieldsForever_TheBeatles_Cover5S.wav,,,,,,,,,,,,,,,,,,,,,,,,,,,,,,,,,,,,,,,,,,,,,,,,,,,,,
,,,,,623673,1,2024-07-12_16h24.38.157,experiment,2024.1.5,Win32,59.88023952,6691931c2c63981b064e1f0c,6691babb13d74dc8ea841808,,,,,,,,,,,,,,,,,,,,,,,,,,,,,,,,,,,,,,,,,,,,,,,,,,,,,,,,,,,,605.3767,613.5065,-0.185185185,-0.165740755,1.0,0.0,0.0,2.1164,compass,0.0,6.0,6.0,18.0,1.0,SoundStimuli/AnotherOneBitesTheDust_Queen_Cover5S.wav,,,,,,,,,,,,,,,,,,,,,,,,,,,,,,,,,,,,,,,,,,,,,,,,,,,,,
,,,,,623673,1,2024-07-12_16h24.38.157,experiment,2024.1.5,Win32,59.88023952,6691931c2c63981b064e1f0c,6691babb13d74dc8ea841808,,,,,,,,,,,,,,,,,,,,,,,,,,,,,,,,,,,,,,,,,,,,,,,,,,,,,,,,,,,,613.5151,621.0057,-0.185185185,-0.165740755,1.0,0.0,0.0,1.4832,compass,0.0,7.0,7.0,5.0,1.0,SoundStimuli/MyGirl_TheTemptations_Cover5S.wav,,,,,,,,,,,,,,,,,,,,,,,,,,,,,,,,,,,,,,,,,,,,,,,,,,,,,
,,,,,623673,1,2024-07-12_16h24.38.157,experiment,2024.1.5,Win32,59.88023952,6691931c2c63981b064e1f0c,6691babb13d74dc8ea841808,,,,,,,,,,,,,,,,,,,,,,,,,,,,,,,,,,,,,,,,,,,,,,,,,,,,,,,,,,,,621.0139,630.5473,0.162037037,0.191666674,1.0,0.0,0.0,3.5264,compass,0.0,8.0,8.0,22.0,1.0,SoundStimuli/RockWithYou_MichaelJackson_Cover5S.wav,,,,,,,,,,,,,,,,,,,,,,,,,,,,,,,,,,,,,,,,,,,,,,,,,,,,,
,,,,,623673,1,2024-07-12_16h24.38.157,experiment,2024.1.5,Win32,59.88023952,6691931c2c63981b064e1f0c,6691babb13d74dc8ea841808,,,,,,,,,,,,,,,,,,,,,,,,,,,,,,,,,,,,,,,,,,,,,,,,,,,,,,,,,,,,630.5562,637.0199,-0.187962921,0.204629633,1.0,0.0,0.0,0.4503,compass,0.0,9.0,9.0,28.0,1.0,SoundStimuli/ComeAndGetYourLove_Redbone_Cover5S.wav,,,,,,,,,,,,,,,,,,,,,,,,,,,,,,,,,,,,,,,,,,,,,,,,,,,,,
,,,,,623673,1,2024-07-12_16h24.38.157,experiment,2024.1.5,Win32,59.88023952,6691931c2c63981b064e1f0c,6691babb13d74dc8ea841808,,,,,,,,,,,,,,,,,,,,,,,,,,,,,,,,,,,,,,,,,,,,,,,,,,,,,,,,,,,,637.0281,643.5787,0.160185213,0.189814815,1.0,0.0,0.0,0.5433,compass,0.0,10.0,10.0,1.0,1.0,SoundStimuli/Stronger_KanyeWest_Cover5S.wav,,,,,,,,,,,,,,,,,,,,,,,,,,,,,,,,,,,,,,,,,,,,,,,,,,,,,
,,,,,623673,1,2024-07-12_16h24.38.157,experiment,2024.1.5,Win32,59.88023952,6691931c2c63981b064e1f0c,6691babb13d74dc8ea841808,,,,,,,,,,,,,,,,,,,,,,,,,,,,,,,,,,,,,,,,,,,,,,,,,,,,,,,,,,,,643.5873,651.0848,0.168518561,0.186111097,1.0,0.0,0.0,1.4829,compass,0.0,11.0,11.0,16.0,1.0,SoundStimuli/BohemianRhapsody_Queen_Cover5S.wav,,,,,,,,,,,,,,,,,,,,,,,,,,,,,,,,,,,,,,,,,,,,,,,,,,,,,
,,,,,623673,1,2024-07-12_16h24.38.157,experiment,2024.1.5,Win32,59.88023952,6691931c2c63981b064e1f0c,6691babb13d74dc8ea841808,,,,,,,,,,,,,,,,,,,,,,,,,,,,,,,,,,,,,,,,,,,,,,,,,,,,,,,,,,,,651.0932,657.5003,0.168518561,0.186111097,1.0,0.0,0.0,0.4069,compass,0.0,12.0,12.0,6.0,1.0,SoundStimuli/Levitating_DuaLipa_Original5S.wav,,,,,,,,,,,,,,,,,,,,,,,,,,,,,,,,,,,,,,,,,,,,,,,,,,,,,
,,,,,623673,1,2024-07-12_16h24.38.157,experiment,2024.1.5,Win32,59.88023952,6691931c2c63981b064e1f0c,6691babb13d74dc8ea841808,,,,,,,,,,,,,,,,,,,,,,,,,,,,,,,,,,,,,,,,,,,,,,,,,,,,,,,,,,,,657.5085,663.943,0.170370384,-0.187962991,1.0,0.0,0.0,0.4337,compass,0.0,13.0,13.0,27.0,1.0,SoundStimuli/ShapeofYou_EdSheeran_Cover5S.wav,,,,,,,,,,,,,,,,,,,,,,,,,,,,,,,,,,,,,,,,,,,,,,,,,,,,,
,,,,,623673,1,2024-07-12_16h24.38.157,experiment,2024.1.5,Win32,59.88023952,6691931c2c63981b064e1f0c,6691babb13d74dc8ea841808,,,,,,,,,,,,,,,,,,,,,,,,,,,,,,,,,,,,,,,,,,,,,,,,,,,,,,,,,,,,663.952,671.3652,0.167592578,0.201851845,1.0,0.0,0.0,1.4003,compass,0.0,14.0,14.0,24.0,1.0,SoundStimuli/UptownFunk_MarkRonson_Cover5S.wav,,,,,,,,,,,,,,,,,,,,,,,,,,,,,,,,,,,,,,,,,,,,,,,,,,,,,
,,,,,623673,1,2024-07-12_16h24.38.157,experiment,2024.1.5,Win32,59.88023952,6691931c2c63981b064e1f0c,6691babb13d74dc8ea841808,,,,,,,,,,,,,,,,,,,,,,,,,,,,,,,,,,,,,,,,,,,,,,,,,,,,,,,,,,,,671.3737,678.981,0.160185213,0.242592582,1.0,0.0,0.0,1.584,compass,0.0,15.0,15.0,31.0,1.0,SoundStimuli/TheBattleOfNewOrleans_JohnnyHorton_Original5S.wav,,,,,,,,,,,,,,,,,,,,,,,,,,,,,,,,,,,,,,,,,,,,,,,,,,,,,
,,,,,623673,1,2024-07-12_16h24.38.157,experiment,2024.1.5,Win32,59.88023952,6691931c2c63981b064e1f0c,6691babb13d74dc8ea841808,,,,,,,,,,,,,,,,,,,,,,,,,,,,,,,,,,,,,,,,,,,,,,,,,,,,,,,,,,,,678.9901,685.5394,0.332407492,0.332407404,1.0,0.0,0.0,0.527,compass,0.0,16.0,16.0,20.0,1.0,SoundStimuli/HeyYa_Outkast_Original5S.wav,,,,,,,,,,,,,,,,,,,,,,,,,,,,,,,,,,,,,,,,,,,,,,,,,,,,,
,,,,,623673,1,2024-07-12_16h24.38.157,experiment,2024.1.5,Win32,59.88023952,6691931c2c63981b064e1f0c,6691babb13d74dc8ea841808,,,,,,,,,,,,,,,,,,,,,,,,,,,,,,,,,,,,,,,,,,,,,,,,,,,,,,,,,,,,685.5477,692.0052,0.204629616,0.249074071,1.0,0.0,0.0,0.4435,compass,0.0,17.0,17.0,11.0,1.0,SoundStimuli/Superstition_StevieWonder_Original5S.wav,,,,,,,,,,,,,,,,,,,,,,,,,,,,,,,,,,,,,,,,,,,,,,,,,,,,,
,,,,,623673,1,2024-07-12_16h24.38.157,experiment,2024.1.5,Win32,59.88023952,6691931c2c63981b064e1f0c,6691babb13d74dc8ea841808,,,,,,,,,,,,,,,,,,,,,,,,,,,,,,,,,,,,,,,,,,,,,,,,,,,,,,,,,,,,692.0136,698.4943,0.19722225,0.224074063,1.0,0.0,0.0,0.467,compass,0.0,18.0,18.0,4.0,1.0,SoundStimuli/GetUrFreakOn_MissyElliot_Cover5S.wav,,,,,,,,,,,,,,,,,,,,,,,,,,,,,,,,,,,,,,,,,,,,,,,,,,,,,
,,,,,623673,1,2024-07-12_16h24.38.157,experiment,2024.1.5,Win32,59.88023952,6691931c2c63981b064e1f0c,6691babb13d74dc8ea841808,,,,,,,,,,,,,,,,,,,,,,,,,,,,,,,,,,,,,,,,,,,,,,,,,,,,,,,,,,,,698.5026,705.8531,-0.247222194,0.237037041,1.0,0.0,0.0,1.3498,compass,0.0,19.0,19.0,12.0,1.0,SoundStimuli/IWillAlwaysLoveYou_WhitneyHouston_Original5S.wav,,,,,,,,,,,,,,,,,,,,,,,,,,,,,,,,,,,,,,,,,,,,,,,,,,,,,
,,,,,623673,1,2024-07-12_16h24.38.157,experiment,2024.1.5,Win32,59.88023952,6691931c2c63981b064e1f0c,6691babb13d74dc8ea841808,,,,,,,,,,,,,,,,,,,,,,,,,,,,,,,,,,,,,,,,,,,,,,,,,,,,,,,,,,,,705.8618,712.2593,0.174074102,0.206481474,1.0,0.0,0.0,0.3838,compass,0.0,20.0,20.0,33.0,1.0,SoundStimuli/StandByMe_BenEKing_Original5S.wav,,,,,,,,,,,,,,,,,,,,,,,,,,,,,,,,,,,,,,,,,,,,,,,,,,,,,
,,,,,623673,1,2024-07-12_16h24.38.157,experiment,2024.1.5,Win32,59.88023952,6691931c2c63981b064e1f0c,6691babb13d74dc8ea841808,,,,,,,,,,,,,,,,,,,,,,,,,,,,,,,,,,,,,,,,,,,,,,,,,,,,,,,,,,,,712.2677,719.8682,-0.202777792,0.187037044,1.0,0.0,0.0,1.5931,compass,0.0,21.0,21.0,10.0,1.0,SoundStimuli/BadDay_DanielPowter_Original5S.wav,,,,,,,,,,,,,,,,,,,,,,,,,,,,,,,,,,,,,,,,,,,,,,,,,,,,,
,,,,,623673,1,2024-07-12_16h24.38.157,experiment,2024.1.5,Win32,59.88023952,6691931c2c63981b064e1f0c,6691babb13d74dc8ea841808,,,,,,,,,,,,,,,,,,,,,,,,,,,,,,,,,,,,,,,,,,,,,,,,,,,,,,,,,,,,719.8778,728.6001,0.14907406,0.194444444,1.0,0.0,0.0,2.7097,compass,0.0,22.0,22.0,17.0,1.0,SoundStimuli/Fallin_AliciaKeys_Cover5S.wav,,,,,,,,,,,,,,,,,,,,,,,,,,,,,,,,,,,,,,,,,,,,,,,,,,,,,
,,,,,623673,1,2024-07-12_16h24.38.157,experiment,2024.1.5,Win32,59.88023952,6691931c2c63981b064e1f0c,6691babb13d74dc8ea841808,,,,,,,,,,,,,,,,,,,,,,,,,,,,,,,,,,,,,,,,,,,,,,,,,,,,,,,,,,,,728.6092,737.6889,0.165740755,-0.169444473,1.0,0.0,0.0,3.0666,compass,0.0,23.0,23.0,13.0,1.0,SoundStimuli/GodOnlyKnows_TheBeachBoys_Original5S.wav,,,,,,,,,,,,,,,,,,,,,,,,,,,,,,,,,,,,,,,,,,,,,,,,,,,,,
,,,,,623673,1,2024-07-12_16h24.38.157,experiment,2024.1.5,Win32,59.88023952,6691931c2c63981b064e1f0c,6691babb13d74dc8ea841808,,,,,,,,,,,,,,,,,,,,,,,,,,,,,,,,,,,,,,,,,,,,,,,,,,,,,,,,,,,,737.6973,745.3216,0.159259302,0.162037037,1.0,0.0,0.0,1.6239,compass,0.0,24.0,24.0,9.0,1.0,SoundStimuli/Despacito_LuisFonsiDaddyYankee_Original5S.wav,,,,,,,,,,,,,,,,,,,,,,,,,,,,,,,,,,,,,,,,,,,,,,,,,,,,,
,,,,,623673,1,2024-07-12_16h24.38.157,experiment,2024.1.5,Win32,59.88023952,6691931c2c63981b064e1f0c,6691babb13d74dc8ea841808,,,,,,,,,,,,,,,,,,,,,,,,,,,,,,,,,,,,,,,,,,,,,,,,,,,,,,,,,,,,745.3307,752.5632,0.169444473,0.196296303,1.0,0.0,0.0,1.21,compass,0.0,25.0,25.0,26.0,1.0,SoundStimuli/LivinOnAPrayer_BonJovi_Original5S.wav,,,,,,,,,,,,,,,,,,,,,,,,,,,,,,,,,,,,,,,,,,,,,,,,,,,,,
,,,,,623673,1,2024-07-12_16h24.38.157,experiment,2024.1.5,Win32,59.88023952,6691931c2c63981b064e1f0c,6691babb13d74dc8ea841808,,,,,,,,,,,,,,,,,,,,,,,,,,,,,,,,,,,,,,,,,,,,,,,,,,,,,,,,,,,,752.5728,759.0691,0.169444473,0.196296303,1.0,0.0,0.0,0.4833,compass,0.0,26.0,26.0,0.0,1.0,SoundStimuli/StayinAlive_BeeGees_Cover5S.wav,,,,,,,,,,,,,,,,,,,,,,,,,,,,,,,,,,,,,,,,,,,,,,,,,,,,,
,,,,,623673,1,2024-07-12_16h24.38.157,experiment,2024.1.5,Win32,59.88023952,6691931c2c63981b064e1f0c,6691babb13d74dc8ea841808,,,,,,,,,,,,,,,,,,,,,,,,,,,,,,,,,,,,,,,,,,,,,,,,,,,,,,,,,,,,759.0775,765.8683,-0.206481439,0.204629633,1.0,0.0,0.0,0.7839,compass,0.0,27.0,27.0,25.0,1.0,SoundStimuli/Respect_ArethaFranklin_Cover5S.wav,,,,,,,,,,,,,,,,,,,,,,,,,,,,,,,,,,,,,,,,,,,,,,,,,,,,,
,,,,,623673,1,2024-07-12_16h24.38.157,experiment,2024.1.5,Win32,59.88023952,6691931c2c63981b064e1f0c,6691babb13d74dc8ea841808,,,,,,,,,,,,,,,,,,,,,,,,,,,,,,,,,,,,,,,,,,,,,,,,,,,,,,,,,,,,765.8766,772.9936,-0.187037009,-0.150000042,1.0,0.0,0.0,1.1096,compass,0.0,28.0,28.0,29.0,1.0,SoundStimuli/OldTownRoad_LilNasX_Cover5S.wav,,,,,,,,,,,,,,,,,,,,,,,,,,,,,,,,,,,,,,,,,,,,,,,,,,,,,
,,,,,623673,1,2024-07-12_16h24.38.157,experiment,2024.1.5,Win32,59.88023952,6691931c2c63981b064e1f0c,6691babb13d74dc8ea841808,,,,,,,,,,,,,,,,,,,,,,,,,,,,,,,,,,,,,,,,,,,,,,,,,,,,,,,,,,,,773.0022,780.5928,-0.187037009,-0.150000042,1.0,0.0,0.0,1.5835,compass,0.0,29.0,29.0,34.0,1.0,SoundStimuli/AChangeIsGonnaCome_SamCooke_Original5S.wav,,,,,,,,,,,,,,,,,,,,,,,,,,,,,,,,,,,,,,,,,,,,,,,,,,,,,
,,,,,623673,1,2024-07-12_16h24.38.157,experiment,2024.1.5,Win32,59.88023952,6691931c2c63981b064e1f0c,6691babb13d74dc8ea841808,,,,,,,,,,,,,,,,,,,,,,,,,,,,,,,,,,,,,,,,,,,,,,,,,,,,,,,,,,,,780.6019,788.058,0.14444443,-0.151851866,1.0,0.0,0.0,1.4498,compass,0.0,30.0,30.0,14.0,1.0,SoundStimuli/BlindingLights_TheWeeknd_Cover5S.wav,,,,,,,,,,,,,,,,,,,,,,,,,,,,,,,,,,,,,,,,,,,,,,,,,,,,,
,,,,,623673,1,2024-07-12_16h24.38.157,experiment,2024.1.5,Win32,59.88023952,6691931c2c63981b064e1f0c,6691babb13d74dc8ea841808,,,,,,,,,,,,,,,,,,,,,,,,,,,,,,,,,,,,,,,,,,,,,,,,,,,,,,,,,,,,788.0671,796.6737,0.174074102,0.185185185,1.0,0.0,0.0,2.5934,compass,0.0,31.0,31.0,8.0,1.0,SoundStimuli/LikeAPrayer_Madonna_Cover5S.wav,,,,,,,,,,,,,,,,,,,,,,,,,,,,,,,,,,,,,,,,,,,,,,,,,,,,,
,,,,,623673,1,2024-07-12_16h24.38.157,experiment,2024.1.5,Win32,59.88023952,6691931c2c63981b064e1f0c,6691babb13d74dc8ea841808,,,,,,,,,,,,,,,,,,,,,,,,,,,,,,,,,,,,,,,,,,,,,,,,,,,,,,,,,,,,796.6822,806.279,0.164814843,0.195370356,1.0,0.0,0.0,3.5865,compass,0.0,32.0,32.0,32.0,1.0,SoundStimuli/HeatWaves_GlassAnimals_Cover5S.wav,,,,,,,,,,,,,,,,,,,,,,,,,,,,,,,,,,,,,,,,,,,,,,,,,,,,,
,,,,,623673,1,2024-07-12_16h24.38.157,experiment,2024.1.5,Win32,59.88023952,6691931c2c63981b064e1f0c,6691babb13d74dc8ea841808,,,,,,,,,,,,,,,,,,,,,,,,,,,,,,,,,,,,,,,,,,,,,,,,,,,,,,,,,,,,806.2875,813.5449,0.313888974,0.334259263,1.0,0.0,0.0,1.257,compass,0.0,33.0,33.0,21.0,1.0,SoundStimuli/GoodGollyMissMolly_LittleRichard_Original5S.wav,,,,,,,,,,,,,,,,,,,,,,,,,,,,,,,,,,,,,,,,,,,,,,,,,,,,,
,,,,,623673,1,2024-07-12_16h24.38.157,experiment,2024.1.5,Win32,59.88023952,6691931c2c63981b064e1f0c,6691babb13d74dc8ea841808,,,,,,,,,,,,,,,,,,,,,,,,,,,,,,,,,,,,,,,,,,,,,,,,,,,,,,,,,,,,813.5534,820.454,-0.186111097,0.197222215,1.0,0.0,0.0,0.894,compass,0.0,34.0,34.0,7.0,1.0,SoundStimuli/NoOne_AliciaKeys_Original5S.wav,,,,,,,,,,,,,,,,,,,,,,,,,,,,,,,,,,,,,,,,,,,,,,,,,,,,,
,,,,,623673,1,2024-07-12_16h24.38.157,experiment,2024.1.5,Win32,59.88023952,6691931c2c63981b064e1f0c,6691babb13d74dc8ea841808,,,,,,,,,,,,,,,,,,,,,,,,,,,,,,,,,,,,,,,,,,,,,,,,,,,,,,,,,,,,,,,,,,,,,,,,,,,820.4542,827.0695,space,6.5842,,827.0695,828.8689,right,1.7746,,0.0,1.0,1.0,1.0,1.0,block_order/blockC.xlsx,,,,,,,,,,,,,,,,,,,,,,,,,,,,,,,,,,,,,
,,,,,623673,1,2024-07-12_16h24.38.157,experiment,2024.1.5,Win32,59.88023952,6691931c2c63981b064e1f0c,6691babb13d74dc8ea841808,,,,,,,,,,,,,,,,,,,,,,,,,,,,,,,,,,,,,,,,,,,,,,,,,,,,,,,,,,,,828.8822,835.8915,-0.174074032,-0.121296282,1.0,0.0,0.0,0.9999,compass,0.0,0.0,0.0,18.0,1.0,SoundStimuli/Weak_SWV_Cover5S.wav,,,,,,,,,,,,,,,,,,,,,,,,,,,,,,,,,,,,,,,,,,,,,,,,,,,,,
,,,,,623673,1,2024-07-12_16h24.38.157,experiment,2024.1.5,Win32,59.88023952,6691931c2c63981b064e1f0c,6691babb13d74dc8ea841808,,,,,,,,,,,,,,,,,,,,,,,,,,,,,,,,,,,,,,,,,,,,,,,,,,,,,,,,,,,,835.9001,842.6005,-0.315740727,-0.323148162,1.0,0.0,0.0,0.6936,compass,0.0,1.0,1.0,12.0,1.0,SoundStimuli/UnbreakMyHeart_ToniBraxton_Original5S.wav,,,,,,,,,,,,,,,,,,,,,,,,,,,,,,,,,,,,,,,,,,,,,,,,,,,,,
,,,,,623673,1,2024-07-12_16h24.38.157,experiment,2024.1.5,Win32,59.88023952,6691931c2c63981b064e1f0c,6691babb13d74dc8ea841808,,,,,,,,,,,,,,,,,,,,,,,,,,,,,,,,,,,,,,,,,,,,,,,,,,,,,,,,,,,,842.6089,849.0896,-0.183333291,0.201851845,1.0,0.0,0.0,0.4666,compass,0.0,2.0,2.0,23.0,1.0,SoundStimuli/IWalkTheLine_JohnnyCash_Original5S.wav,,,,,,,,,,,,,,,,,,,,,,,,,,,,,,,,,,,,,,,,,,,,,,,,,,,,,
,,,,,623673,1,2024-07-12_16h24.38.157,experiment,2024.1.5,Win32,59.88023952,6691931c2c63981b064e1f0c,6691babb13d74dc8ea841808,,,,,,,,,,,,,,,,,,,,,,,,,,,,,,,,,,,,,,,,,,,,,,,,,,,,,,,,,,,,849.0982,857.5816,0.162962949,0.187037044,1.0,0.0,0.0,2.4758,compass,0.0,3.0,3.0,10.0,1.0,SoundStimuli/LeFreak_Chic_Cover5S.wav,,,,,,,,,,,,,,,,,,,,,,,,,,,,,,,,,,,,,,,,,,,,,,,,,,,,,
,,,,,623673,1,2024-07-12_16h24.38.157,experiment,2024.1.5,Win32,59.88023952,6691931c2c63981b064e1f0c,6691babb13d74dc8ea841808,,,,,,,,,,,,,,,,,,,,,,,,,,,,,,,,,,,,,,,,,,,,,,,,,,,,,,,,,,,,857.5903,864.014,0.325925898,0.327777774,1.0,0.0,0.0,0.4097,compass,0.0,4.0,4.0,28.0,1.0,SoundStimuli/IWantToHoldYourHand_TheBeatles_Original5S.wav,,,,,,,,,,,,,,,,,,,,,,,,,,,,,,,,,,,,,,,,,,,,,,,,,,,,,
,,,,,623673,1,2024-07-12_16h24.38.157,experiment,2024.1.5,Win32,59.88023952,6691931c2c63981b064e1f0c,6691babb13d74dc8ea841808,,,,,,,,,,,,,,,,,,,,,,,,,,,,,,,,,,,,,,,,,,,,,,,,,,,,,,,,,,,,864.0224,870.1001,0.332407492,0.335185175,1.0,0.0,0.0,0.0639,compass,0.0,5.0,5.0,17.0,1.0,SoundStimuli/IWannaDanceWithSomebody_WhitneyHouston_Original5S.wav,,,,,,,,,,,,,,,,,,,,,,,,,,,,,,,,,,,,,,,,,,,,,,,,,,,,,
,,,,,623673,1,2024-07-12_16h24.38.157,experiment,2024.1.5,Win32,59.88023952,6691931c2c63981b064e1f0c,6691babb13d74dc8ea841808,,,,,,,,,,,,,,,,,,,,,,,,,,,,,,,,,,,,,,,,,,,,,,,,,,,,,,,,,,,,870.1087,880.995,0.172222208,0.189814815,1.0,0.0,0.0,4.8762,compass,0.0,6.0,6.0,31.0,1.0,SoundStimuli/TossinAndTurnin_BobbyLewis_Original5S.wav,,,,,,,,,,,,,,,,,,,,,,,,,,,,,,,,,,,,,,,,,,,,,,,,,,,,,
,,,,,623673,1,2024-07-12_16h24.38.157,experiment,2024.1.5,Win32,59.88023952,6691931c2c63981b064e1f0c,6691babb13d74dc8ea841808,,,,,,,,,,,,,,,,,,,,,,,,,,,,,,,,,,,,,,,,,,,,,,,,,,,,,,,,,,,,881.0039,887.7942,-0.164814772,-0.164814843,1.0,0.0,0.0,0.7768,compass,0.0,7.0,7.0,30.0,1.0,SoundStimuli/SomebodyThatIUsedtoKnow_Gotye_Original5S.wav,,,,,,,,,,,,,,,,,,,,,,,,,,,,,,,,,,,,,,,,,,,,,,,,,,,,,
,,,,,623673,1,2024-07-12_16h24.38.157,experiment,2024.1.5,Win32,59.88023952,6691931c2c63981b064e1f0c,6691babb13d74dc8ea841808,,,,,,,,,,,,,,,,,,,,,,,,,,,,,,,,,,,,,,,,,,,,,,,,,,,,,,,,,,,,887.8031,894.7428,-0.196296268,0.194444444,1.0,0.0,0.0,0.9264,compass,0.0,8.0,8.0,0.0,1.0,SoundStimuli/GimmeShelter_RollingStones_Original5S.wav,,,,,,,,,,,,,,,,,,,,,,,,,,,,,,,,,,,,,,,,,,,,,,,,,,,,,
,,,,,623673,1,2024-07-12_16h24.38.157,experiment,2024.1.5,Win32,59.88023952,6691931c2c63981b064e1f0c,6691babb13d74dc8ea841808,,,,,,,,,,,,,,,,,,,,,,,,,,,,,,,,,,,,,,,,,,,,,,,,,,,,,,,,,,,,894.7514,905.3485,-0.171296296,0.116666653,1.0,0.0,0.0,4.5899,compass,0.0,9.0,9.0,15.0,1.0,SoundStimuli/CrazyInLove_BeyonceFtJayZ_Cover5S.wav,,,,,,,,,,,,,,,,,,,,,,,,,,,,,,,,,,,,,,,,,,,,,,,,,,,,,
,,,,,623673,1,2024-07-12_16h24.38.157,experiment,2024.1.5,Win32,59.88023952,6691931c2c63981b064e1f0c,6691babb13d74dc8ea841808,,,,,,,,,,,,,,,,,,,,,,,,,,,,,,,,,,,,,,,,,,,,,,,,,,,,,,,,,,,,905.3592,912.1141,-0.315740727,0.312037026,1.0,0.0,0.0,0.7501,compass,0.0,10.0,10.0,2.0,1.0,SoundStimuli/SmellsLikeTeenSpirit_Nirvana_Original5S.wav,,,,,,,,,,,,,,,,,,,,,,,,,,,,,,,,,,,,,,,,,,,,,,,,,,,,,
,,,,,623673,1,2024-07-12_16h24.38.157,experiment,2024.1.5,Win32,59.88023952,6691931c2c63981b064e1f0c,6691babb13d74dc8ea841808,,,,,,,,,,,,,,,,,,,,,,,,,,,,,,,,,,,,,,,,,,,,,,,,,,,,,,,,,,,,912.1225,918.6433,-0.157407407,-0.154629672,1.0,0.0,0.0,0.5204,compass,0.0,11.0,11.0,25.0,1.0,SoundStimuli/IllMakeLoveToYou_BoyzIIMen_Cover5S.wav,,,,,,,,,,,,,,,,,,,,,,,,,,,,,,,,,,,,,,,,,,,,,,,,,,,,,
,,,,,623673,1,2024-07-12_16h24.38.157,experiment,2024.1.5,Win32,59.88023952,6691931c2c63981b064e1f0c,6691babb13d74dc8ea841808,,,,,,,,,,,,,,,,,,,,,,,,,,,,,,,,,,,,,,,,,,,,,,,,,,,,,,,,,,,,918.6515,926.5053,0.319444444,0.334259263,1.0,0.0,0.0,1.8498,compass,0.0,12.0,12.0,27.0,1.0,SoundStimuli/EyeOfTheTiger_Survivor_Cover5S.wav,,,,,,,,,,,,,,,,,,,,,,,,,,,,,,,,,,,,,,,,,,,,,,,,,,,,,
,,,,,623673,1,2024-07-12_16h24.38.157,experiment,2024.1.5,Win32,59.88023952,6691931c2c63981b064e1f0c,6691babb13d74dc8ea841808,,,,,,,,,,,,,,,,,,,,,,,,,,,,,,,,,,,,,,,,,,,,,,,,,,,,,,,,,,,,926.5143,934.2705,-0.310185185,-0.325925968,1.0,0.0,0.0,1.7429,compass,0.0,13.0,13.0,6.0,1.0,SoundStimuli/SaveYourTears_TheWeekndArianaGrande_Cover5S.wav,,,,,,,,,,,,,,,,,,,,,,,,,,,,,,,,,,,,,,,,,,,,,,,,,,,,,
,,,,,623673,1,2024-07-12_16h24.38.157,experiment,2024.1.5,Win32,59.88023952,6691931c2c63981b064e1f0c,6691babb13d74dc8ea841808,,,,,,,,,,,,,,,,,,,,,,,,,,,,,,,,,,,,,,,,,,,,,,,,,,,,,,,,,,,,934.2778,942.423,-0.185185185,-0.116666653,1.0,0.0,0.0,2.13,compass,0.0,14.0,14.0,29.0,1.0,SoundStimuli/BetteDavisEyes_KimCarnes_Original5S.wav,,,,,,,,,,,,,,,,,,,,,,,,,,,,,,,,,,,,,,,,,,,,,,,,,,,,,
,,,,,623673,1,2024-07-12_16h24.38.157,experiment,2024.1.5,Win32,59.88023952,6691931c2c63981b064e1f0c,6691babb13d74dc8ea841808,,,,,,,,,,,,,,,,,,,,,,,,,,,,,,,,,,,,,,,,,,,,,,,,,,,,,,,,,,,,942.4317,949.8183,0.132407436,-0.122222265,1.0,0.0,0.0,1.383,compass,0.0,15.0,15.0,32.0,1.0,SoundStimuli/Dilemma_NellyKellyRowland_Cover5S.wav,,,,,,,,,,,,,,,,,,,,,,,,,,,,,,,,,,,,,,,,,,,,,,,,,,,,,
,,,,,623673,1,2024-07-12_16h24.38.157,experiment,2024.1.5,Win32,59.88023952,6691931c2c63981b064e1f0c,6691babb13d74dc8ea841808,,,,,,,,,,,,,,,,,,,,,,,,,,,,,,,,,,,,,,,,,,,,,,,,,,,,,,,,,,,,949.8274,957.1675,-0.139814801,0.127777771,1.0,0.0,0.0,1.3265,compass,0.0,16.0,16.0,14.0,1.0,SoundStimuli/LikeARollingStone_BobDylan_Original5S.wav,,,,,,,,,,,,,,,,,,,,,,,,,,,,,,,,,,,,,,,,,,,,,,,,,,,,,
,,,,,623673,1,2024-07-12_16h24.38.157,experiment,2024.1.5,Win32,59.88023952,6691931c2c63981b064e1f0c,6691babb13d74dc8ea841808,,,,,,,,,,,,,,,,,,,,,,,,,,,,,,,,,,,,,,,,,,,,,,,,,,,,,,,,,,,,957.176,963.6165,-0.157407407,0.160185178,1.0,0.0,0.0,0.4334,compass,0.0,17.0,17.0,33.0,1.0,SoundStimuli/TheBoyIsMine_BrandyMonica_Original5S.wav,,,,,,,,,,,,,,,,,,,,,,,,,,,,,,,,,,,,,,,,,,,,,,,,,,,,,
,,,,,623673,1,2024-07-12_16h24.38.157,experiment,2024.1.5,Win32,59.88023952,6691931c2c63981b064e1f0c,6691babb13d74dc8ea841808,,,,,,,,,,,,,,,,,,,,,,,,,,,,,,,,,,,,,,,,,,,,,,,,,,,,,,,,,,,,963.6249,970.1191,0.150925954,0.169444437,1.0,0.0,0.0,0.4805,compass,0.0,18.0,18.0,5.0,1.0,SoundStimuli/JoyToTheWorld_ThreeDogNight_Original5S.wav,,,,,,,,,,,,,,,,,,,,,,,,,,,,,,,,,,,,,,,,,,,,,,,,,,,,,
,,,,,623673,1,2024-07-12_16h24.38.157,experiment,2024.1.5,Win32,59.88023952,6691931c2c63981b064e1f0c,6691babb13d74dc8ea841808,,,,,,,,,,,,,,,,,,,,,,,,,,,,,,,,,,,,,,,,,,,,,,,,,,,,,,,,,,,,970.1276,976.9644,-0.210185157,-0.166666667,1.0,0.0,0.0,0.8331,compass,0.0,19.0,19.0,4.0,1.0,SoundStimuli/Dreams_FleetwoodMac_Original5S.wav,,,,,,,,,,,,,,,,,,,,,,,,,,,,,,,,,,,,,,,,,,,,,,,,,,,,,
,,,,,623673,1,2024-07-12_16h24.38.157,experiment,2024.1.5,Win32,59.88023952,6691931c2c63981b064e1f0c,6691babb13d74dc8ea841808,,,,,,,,,,,,,,,,,,,,,,,,,,,,,,,,,,,,,,,,,,,,,,,,,,,,,,,,,,,,976.9728,984.5501,-0.136111083,0.1324074,1.0,0.0,0.0,1.5633,compass,0.0,20.0,20.0,24.0,1.0,SoundStimuli/Kiss_Prince_Cover5S.wav,,,,,,,,,,,,,,,,,,,,,,,,,,,,,,,,,,,,,,,,,,,,,,,,,,,,,
,,,,,623673,1,2024-07-12_16h24.38.157,experiment,2024.1.5,Win32,59.88023952,6691931c2c63981b064e1f0c,6691babb13d74dc8ea841808,,,,,,,,,,,,,,,,,,,,,,,,,,,,,,,,,,,,,,,,,,,,,,,,,,,,,,,,,,,,984.5585,991.379,-0.152777778,0.174999979,1.0,0.0,0.0,0.8099,compass,0.0,21.0,21.0,7.0,1.0,SoundStimuli/MackTheKnife_BobbyDarin_Cover5S.wav,,,,,,,,,,,,,,,,,,,,,,,,,,,,,,,,,,,,,,,,,,,,,,,,,,,,,
,,,,,623673,1,2024-07-12_16h24.38.157,experiment,2024.1.5,Win32,59.88023952,6691931c2c63981b064e1f0c,6691babb13d74dc8ea841808,,,,,,,,,,,,,,,,,,,,,,,,,,,,,,,,,,,,,,,,,,,,,,,,,,,,,,,,,,,,991.3876,999.8112,-0.187962921,-0.193518533,1.0,0.0,0.0,2.4166,compass,0.0,22.0,22.0,21.0,1.0,SoundStimuli/BridgeOverTroubledWater_SimonAndGarfunkel_Original5S.wav,,,,,,,,,,,,,,,,,,,,,,,,,,,,,,,,,,,,,,,,,,,,,,,,,,,,,
,,,,,623673,1,2024-07-12_16h24.38.157,experiment,2024.1.5,Win32,59.88023952,6691931c2c63981b064e1f0c,6691babb13d74dc8ea841808,,,,,,,,,,,,,,,,,,,,,,,,,,,,,,,,,,,,,,,,,,,,,,,,,,,,,,,,,,,,999.8202,1007.3338,0.150000042,0.181481467,1.0,0.0,0.0,1.5001,compass,0.0,23.0,23.0,11.0,1.0,SoundStimuli/BlurredLines_RobinThicke_Cover5S.wav,,,,,,,,,,,,,,,,,,,,,,,,,,,,,,,,,,,,,,,,,,,,,,,,,,,,,
,,,,,623673,1,2024-07-12_16h24.38.157,experiment,2024.1.5,Win32,59.88023952,6691931c2c63981b064e1f0c,6691babb13d74dc8ea841808,,,,,,,,,,,,,,,,,,,,,,,,,,,,,,,,,,,,,,,,,,,,,,,,,,,,,,,,,,,,1007.3433,1014.3258,0.180555556,-0.176851838,1.0,0.0,0.0,0.9632,compass,0.0,24.0,24.0,19.0,1.0,SoundStimuli/YouLightUpMyLife_DebbyBoone_Original5S.wav,,,,,,,,,,,,,,,,,,,,,,,,,,,,,,,,,,,,,,,,,,,,,,,,,,,,,
,,,,,623673,1,2024-07-12_16h24.38.157,experiment,2024.1.5,Win32,59.88023952,6691931c2c63981b064e1f0c,6691babb13d74dc8ea841808,,,,,,,,,,,,,,,,,,,,,,,,,,,,,,,,,,,,,,,,,,,,,,,,,,,,,,,,,,,,1014.3344,1024.7147,-0.115740741,-0.125,1.0,0.0,0.0,4.3733,compass,0.0,25.0,25.0,9.0,1.0,SoundStimuli/HowDoILive_LeAnnRimes_Cover5S.wav,,,,,,,,,,,,,,,,,,,,,,,,,,,,,,,,,,,,,,,,,,,,,,,,,,,,,
,,,,,623673,1,2024-07-12_16h24.38.157,experiment,2024.1.5,Win32,59.88023952,6691931c2c63981b064e1f0c,6691babb13d74dc8ea841808,,,,,,,,,,,,,,,,,,,,,,,,,,,,,,,,,,,,,,,,,,,,,,,,,,,,,,,,,,,,1024.7235,1032.2136,0.335185157,0.330555545,1.0,0.0,0.0,1.4668,compass,0.0,26.0,26.0,22.0,1.0,SoundStimuli/Happy_PharellWilliams_Original5S.wav,,,,,,,,,,,,,,,,,,,,,,,,,,,,,,,,,,,,,,,,,,,,,,,,,,,,,
,,,,,623673,1,2024-07-12_16h24.38.157,experiment,2024.1.5,Win32,59.88023952,6691931c2c63981b064e1f0c,6691babb13d74dc8ea841808,,,,,,,,,,,,,,,,,,,,,,,,,,,,,,,,,,,,,,,,,,,,,,,,,,,,,,,,,,,,1032.2219,1046.7879,-0.158333319,0.157407407,1.0,0.0,0.0,8.5653,compass,0.0,27.0,27.0,20.0,1.0,SoundStimuli/FlashdanceWhatAFeeling_IreneCara_Original5S.wav,,,,,,,,,,,,,,,,,,,,,,,,,,,,,,,,,,,,,,,,,,,,,,,,,,,,,
,,,,,623673,1,2024-07-12_16h24.38.157,experiment,2024.1.5,Win32,59.88023952,6691931c2c63981b064e1f0c,6691babb13d74dc8ea841808,,,,,,,,,,,,,,,,,,,,,,,,,,,,,,,,,,,,,,,,,,,,,,,,,,,,,,,,,,,,1046.7972,1055.8533,0.339814787,0.334259263,1.0,0.0,0.0,3.043,compass,0.0,28.0,28.0,3.0,1.0,SoundStimuli/PartyRockAnthem_LMFAO_Original5S.wav,,,,,,,,,,,,,,,,,,,,,,,,,,,,,,,,,,,,,,,,,,,,,,,,,,,,,
,,,,,623673,1,2024-07-12_16h24.38.157,experiment,2024.1.5,Win32,59.88023952,6691931c2c63981b064e1f0c,6691babb13d74dc8ea841808,,,,,,,,,,,,,,,,,,,,,,,,,,,,,,,,,,,,,,,,,,,,,,,,,,,,,,,,,,,,1055.862,1063.4423,0.164814843,-0.199074074,1.0,0.0,0.0,1.5669,compass,0.0,29.0,29.0,8.0,1.0,SoundStimuli/EndlessLove_DianaRossLionelRichie_Cover5S.wav,,,,,,,,,,,,,,,,,,,,,,,,,,,,,,,,,,,,,,,,,,,,,,,,,,,,,
,,,,,623673,1,2024-07-12_16h24.38.157,experiment,2024.1.5,Win32,59.88023952,6691931c2c63981b064e1f0c,6691babb13d74dc8ea841808,,,,,,,,,,,,,,,,,,,,,,,,,,,,,,,,,,,,,,,,,,,,,,,,,,,,,,,,,,,,1063.4511,1072.2013,0.163888931,-0.170370384,1.0,0.0,0.0,2.7335,compass,0.0,30.0,30.0,16.0,1.0,SoundStimuli/ItsAllInTheGame_TommyEdwards_Cover5S.wav,,,,,,,,,,,,,,,,,,,,,,,,,,,,,,,,,,,,,,,,,,,,,,,,,,,,,
,,,,,623673,1,2024-07-12_16h24.38.157,experiment,2024.1.5,Win32,59.88023952,6691931c2c63981b064e1f0c,6691babb13d74dc8ea841808,,,,,,,,,,,,,,,,,,,,,,,,,,,,,,,,,,,,,,,,,,,,,,,,,,,,,,,,,,,,1072.2105,1080.9001,-0.231481481,0.210185175,1.0,0.0,0.0,2.6832,compass,0.0,31.0,31.0,1.0,1.0,SoundStimuli/Smooth_SantanaRobThomas_Original5S.wav,,,,,,,,,,,,,,,,,,,,,,,,,,,,,,,,,,,,,,,,,,,,,,,,,,,,,
,,,,,623673,1,2024-07-12_16h24.38.157,experiment,2024.1.5,Win32,59.88023952,6691931c2c63981b064e1f0c,6691babb13d74dc8ea841808,,,,,,,,,,,,,,,,,,,,,,,,,,,,,,,,,,,,,,,,,,,,,,,,,,,,,,,,,,,,1080.9093,1087.6487,-0.175925926,-0.14907406,1.0,0.0,0.0,0.7332,compass,0.0,32.0,32.0,34.0,1.0,SoundStimuli/Irreplaceable_Beyonce_Cover5S.wav,,,,,,,,,,,,,,,,,,,,,,,,,,,,,,,,,,,,,,,,,,,,,,,,,,,,,
,,,,,623673,1,2024-07-12_16h24.38.157,experiment,2024.1.5,Win32,59.88023952,6691931c2c63981b064e1f0c,6691babb13d74dc8ea841808,,,,,,,,,,,,,,,,,,,,,,,,,,,,,,,,,,,,,,,,,,,,,,,,,,,,,,,,,,,,1087.6578,1094.381,0.168518561,-0.168518561,1.0,0.0,0.0,0.7164,compass,0.0,33.0,33.0,13.0,1.0,SoundStimuli/Perfect_EdSheeran_Cover5S.wav,,,,,,,,,,,,,,,,,,,,,,,,,,,,,,,,,,,,,,,,,,,,,,,,,,,,,
,,,,,623673,1,2024-07-12_16h24.38.157,experiment,2024.1.5,Win32,59.88023952,6691931c2c63981b064e1f0c,6691babb13d74dc8ea841808,,,,,,,,,,,,,,,,,,,,,,,,,,,,,,,,,,,,,,,,,,,,,,,,,,,,,,,,,,,,1094.3896,1103.5033,0.140740783,0.188888868,1.0,0.0,0.0,3.0999,compass,0.0,34.0,34.0,26.0,1.0,SoundStimuli/TheSign_AceOfBase_Cover5S.wav,,,,,,,,,,,,,,,,,,,,,,,,,,,,,,,,,,,,,,,,,,,,,,,,,,,,,
,,,,,623673,1,2024-07-12_16h24.38.157,experiment,2024.1.5,Win32,59.88023952,6691931c2c63981b064e1f0c,6691babb13d74dc8ea841808,,,,,,,,,,,,,,,,,,,,,,,,,,,,,,,,,,,,,,,,,,,,,,,,,,,,,,,,,,,,,,,,,,,,,,,,,,,1103.5035,1112.229,space,8.7005,,1112.229,1114.1317,right,1.8801,,0.0,2.0,2.0,2.0,1.0,block_order/blockD.xlsx,,,,,,,,,,,,,,,,,,,,,,,,,,,,,,,,,,,,,
,,,,,623673,1,2024-07-12_16h24.38.157,experiment,2024.1.5,Win32,59.88023952,6691931c2c63981b064e1f0c,6691babb13d74dc8ea841808,,,,,,,,,,,,,,,,,,,,,,,,,,,,,,,,,,,,,,,,,,,,,,,,,,,,,,,,,,,,1114.1458,1121.1607,0.174074102,0.202777757,1.0,0.0,0.0,1.0101,compass,0.0,0.0,0.0,30.0,1.0,SoundStimuli/PokerFace_LadyGaga_Original5S.wav,,,,,,,,,,,,,,,,,,,,,,,,,,,,,,,,,,,,,,,,,,,,,,,,,,,,,
,,,,,623673,1,2024-07-12_16h24.38.157,experiment,2024.1.5,Win32,59.88023952,6691931c2c63981b064e1f0c,6691babb13d74dc8ea841808,,,,,,,,,,,,,,,,,,,,,,,,,,,,,,,,,,,,,,,,,,,,,,,,,,,,,,,,,,,,1121.1692,1127.8095,0.175925926,-0.178703732,1.0,0.0,0.0,0.6263,compass,0.0,1.0,1.0,23.0,1.0,SoundStimuli/StrawberryFieldsForever_TheBeatles_Original5S.wav,,,,,,,,,,,,,,,,,,,,,,,,,,,,,,,,,,,,,,,,,,,,,,,,,,,,,
,,,,,623673,1,2024-07-12_16h24.38.157,experiment,2024.1.5,Win32,59.88023952,6691931c2c63981b064e1f0c,6691babb13d74dc8ea841808,,,,,,,,,,,,,,,,,,,,,,,,,,,,,,,,,,,,,,,,,,,,,,,,,,,,,,,,,,,,1127.8181,1134.242,0.164814843,0.184259238,1.0,0.0,0.0,0.4102,compass,0.0,2.0,2.0,22.0,1.0,SoundStimuli/RockWithYou_MichaelJackson_Original5S.wav,,,,,,,,,,,,,,,,,,,,,,,,,,,,,,,,,,,,,,,,,,,,,,,,,,,,,
,,,,,623673,1,2024-07-12_16h24.38.157,experiment,2024.1.5,Win32,59.88023952,6691931c2c63981b064e1f0c,6691babb13d74dc8ea841808,,,,,,,,,,,,,,,,,,,,,,,,,,,,,,,,,,,,,,,,,,,,,,,,,,,,,,,,,,,,1134.2511,1140.748,0.169444473,-0.175925926,1.0,0.0,0.0,0.4837,compass,0.0,3.0,3.0,26.0,1.0,SoundStimuli/LivinOnAPrayer_BonJovi_Cover5S.wav,,,,,,,,,,,,,,,,,,,,,,,,,,,,,,,,,,,,,,,,,,,,,,,,,,,,,
,,,,,623673,1,2024-07-12_16h24.38.157,experiment,2024.1.5,Win32,59.88023952,6691931c2c63981b064e1f0c,6691babb13d74dc8ea841808,,,,,,,,,,,,,,,,,,,,,,,,,,,,,,,,,,,,,,,,,,,,,,,,,,,,,,,,,,,,1140.7564,1150.53,-0.337037016,0.344444434,1.0,0.0,0.0,3.7664,compass,0.0,4.0,4.0,16.0,1.0,SoundStimuli/BohemianRhapsody_Queen_Original5S.wav,,,,,,,,,,,,,,,,,,,,,,,,,,,,,,,,,,,,,,,,,,,,,,,,,,,,,
,,,,,623673,1,2024-07-12_16h24.38.157,experiment,2024.1.5,Win32,59.88023952,6691931c2c63981b064e1f0c,6691babb13d74dc8ea841808,,,,,,,,,,,,,,,,,,,,,,,,,,,,,,,,,,,,,,,,,,,,,,,,,,,,,,,,,,,,1150.5405,1156.9222,0.162962949,0.187037044,1.0,0.0,0.0,0.3615,compass,0.0,5.0,5.0,21.0,1.0,SoundStimuli/GoodGollyMissMolly_LittleRichard_Cover5S.wav,,,,,,,,,,,,,,,,,,,,,,,,,,,,,,,,,,,,,,,,,,,,,,,,,,,,,
,,,,,623673,1,2024-07-12_16h24.38.157,experiment,2024.1.5,Win32,59.88023952,6691931c2c63981b064e1f0c,6691babb13d74dc8ea841808,,,,,,,,,,,,,,,,,,,,,,,,,,,,,,,,,,,,,,,,,,,,,,,,,,,,,,,,,,,,1156.9307,1163.778,-0.176851838,0.202777757,1.0,0.0,0.0,0.8403,compass,0.0,6.0,6.0,29.0,1.0,SoundStimuli/OldTownRoad_LilNasX_Original5S.wav,,,,,,,,,,,,,,,,,,,,,,,,,,,,,,,,,,,,,,,,,,,,,,,,,,,,,
,,,,,623673,1,2024-07-12_16h24.38.157,experiment,2024.1.5,Win32,59.88023952,6691931c2c63981b064e1f0c,6691babb13d74dc8ea841808,,,,,,,,,,,,,,,,,,,,,,,,,,,,,,,,,,,,,,,,,,,,,,,,,,,,,,,,,,,,1163.7865,1170.6436,0.166666667,0.177777785,1.0,0.0,0.0,0.8564,compass,0.0,7.0,7.0,27.0,1.0,SoundStimuli/ShapeofYou_EdSheeran_Original5S.wav,,,,,,,,,,,,,,,,,,,,,,,,,,,,,,,,,,,,,,,,,,,,,,,,,,,,,
,,,,,623673,1,2024-07-12_16h24.38.157,experiment,2024.1.5,Win32,59.88023952,6691931c2c63981b064e1f0c,6691babb13d74dc8ea841808,,,,,,,,,,,,,,,,,,,,,,,,,,,,,,,,,,,,,,,,,,,,,,,,,,,,,,,,,,,,1170.6524,1178.1928,-0.191666638,0.173148155,1.0,0.0,0.0,1.5339,compass,0.0,8.0,8.0,32.0,1.0,SoundStimuli/HeatWaves_GlassAnimals_Original5S.wav,,,,,,,,,,,,,,,,,,,,,,,,,,,,,,,,,,,,,,,,,,,,,,,,,,,,,
,,,,,623673,1,2024-07-12_16h24.38.157,experiment,2024.1.5,Win32,59.88023952,6691931c2c63981b064e1f0c,6691babb13d74dc8ea841808,,,,,,,,,,,,,,,,,,,,,,,,,,,,,,,,,,,,,,,,,,,,,,,,,,,,,,,,,,,,1178.2011,1184.6019,0.341666751,0.346296293,1.0,0.0,0.0,0.3999,compass,0.0,9.0,9.0,25.0,1.0,SoundStimuli/Respect_ArethaFranklin_Original5S.wav,,,,,,,,,,,,,,,,,,,,,,,,,,,,,,,,,,,,,,,,,,,,,,,,,,,,,
,,,,,623673,1,2024-07-12_16h24.38.157,experiment,2024.1.5,Win32,59.88023952,6691931c2c63981b064e1f0c,6691babb13d74dc8ea841808,,,,,,,,,,,,,,,,,,,,,,,,,,,,,,,,,,,,,,,,,,,,,,,,,,,,,,,,,,,,1184.6104,1192.9072,0.146296325,-0.161111125,1.0,0.0,0.0,2.2831,compass,0.0,10.0,10.0,15.0,1.0,SoundStimuli/TikTok_Kesha_Cover5S.wav,,,,,,,,,,,,,,,,,,,,,,,,,,,,,,,,,,,,,,,,,,,,,,,,,,,,,
,,,,,623673,1,2024-07-12_16h24.38.157,experiment,2024.1.5,Win32,59.88023952,6691931c2c63981b064e1f0c,6691babb13d74dc8ea841808,,,,,,,,,,,,,,,,,,,,,,,,,,,,,,,,,,,,,,,,,,,,,,,,,,,,,,,,,,,,1192.9162,1199.6731,-0.187037009,0.186111097,1.0,0.0,0.0,0.7502,compass,0.0,11.0,11.0,3.0,1.0,SoundStimuli/NoScrubs_TLC_Original5S.wav,,,,,,,,,,,,,,,,,,,,,,,,,,,,,,,,,,,,,,,,,,,,,,,,,,,,,
,,,,,623673,1,2024-07-12_16h24.38.157,experiment,2024.1.5,Win32,59.88023952,6691931c2c63981b064e1f0c,6691babb13d74dc8ea841808,,,,,,,,,,,,,,,,,,,,,,,,,,,,,,,,,,,,,,,,,,,,,,,,,,,,,,,,,,,,1199.6815,1206.4316,-0.199999986,0.199074074,1.0,0.0,0.0,0.7431,compass,0.0,12.0,12.0,18.0,1.0,SoundStimuli/AnotherOneBitesTheDust_Queen_Original5S.wav,,,,,,,,,,,,,,,,,,,,,,,,,,,,,,,,,,,,,,,,,,,,,,,,,,,,,
,,,,,623673,1,2024-07-12_16h24.38.157,experiment,2024.1.5,Win32,59.88023952,6691931c2c63981b064e1f0c,6691babb13d74dc8ea841808,,,,,,,,,,,,,,,,,,,,,,,,,,,,,,,,,,,,,,,,,,,,,,,,,,,,,,,,,,,,1206.4395,1213.1044,0.340740769,0.338888892,1.0,0.0,0.0,0.6568,compass,0.0,13.0,13.0,0.0,1.0,SoundStimuli/StayinAlive_BeeGees_Original5S.wav,,,,,,,,,,,,,,,,,,,,,,,,,,,,,,,,,,,,,,,,,,,,,,,,,,,,,
,,,,,623673,1,2024-07-12_16h24.38.157,experiment,2024.1.5,Win32,59.88023952,6691931c2c63981b064e1f0c,6691babb13d74dc8ea841808,,,,,,,,,,,,,,,,,,,,,,,,,,,,,,,,,,,,,,,,,,,,,,,,,,,,,,,,,,,,1213.1127,1219.7297,-0.187962921,0.185185185,1.0,0.0,0.0,0.6095,compass,0.0,14.0,14.0,1.0,1.0,SoundStimuli/Stronger_KanyeWest_Original5S.wav,,,,,,,,,,,,,,,,,,,,,,,,,,,,,,,,,,,,,,,,,,,,,,,,,,,,,
,,,,,623673,1,2024-07-12_16h24.38.157,experiment,2024.1.5,Win32,59.88023952,6691931c2c63981b064e1f0c,6691babb13d74dc8ea841808,,,,,,,,,,,,,,,,,,,,,,,,,,,,,,,,,,,,,,,,,,,,,,,,,,,,,,,,,,,,1219.738,1226.8791,-0.182407379,-0.151851866,1.0,0.0,0.0,1.1268,compass,0.0,15.0,15.0,11.0,1.0,SoundStimuli/Superstition_StevieWonder_Cover5S.wav,,,,,,,,,,,,,,,,,,,,,,,,,,,,,,,,,,,,,,,,,,,,,,,,,,,,,
,,,,,623673,1,2024-07-12_16h24.38.157,experiment,2024.1.5,Win32,59.88023952,6691931c2c63981b064e1f0c,6691babb13d74dc8ea841808,,,,,,,,,,,,,,,,,,,,,,,,,,,,,,,,,,,,,,,,,,,,,,,,,,,,,,,,,,,,1226.8874,1234.6445,0.162037037,0.175925926,1.0,0.0,0.0,1.7433,compass,0.0,16.0,16.0,34.0,1.0,SoundStimuli/AChangeIsGonnaCome_SamCooke_Cover5S.wav,,,,,,,,,,,,,,,,,,,,,,,,,,,,,,,,,,,,,,,,,,,,,,,,,,,,,
,,,,,623673,1,2024-07-12_16h24.38.157,experiment,2024.1.5,Win32,59.88023952,6691931c2c63981b064e1f0c,6691babb13d74dc8ea841808,,,,,,,,,,,,,,,,,,,,,,,,,,,,,,,,,,,,,,,,,,,,,,,,,,,,,,,,,,,,1234.6531,1242.843,0.183333362,0.105555534,1.0,0.0,0.0,2.1757,compass,0.0,17.0,17.0,5.0,1.0,SoundStimuli/MyGirl_TheTemptations_Original5S.wav,,,,,,,,,,,,,,,,,,,,,,,,,,,,,,,,,,,,,,,,,,,,,,,,,,,,,
,,,,,623673,1,2024-07-12_16h24.38.157,experiment,2024.1.5,Win32,59.88023952,6691931c2c63981b064e1f0c,6691babb13d74dc8ea841808,,,,,,,,,,,,,,,,,,,,,,,,,,,,,,,,,,,,,,,,,,,,,,,,,,,,,,,,,,,,1242.8515,1249.5423,-0.187037009,-0.154629672,1.0,0.0,0.0,0.6766,compass,0.0,18.0,18.0,20.0,1.0,SoundStimuli/HeyYa_Outkast_Cover5S.wav,,,,,,,,,,,,,,,,,,,,,,,,,,,,,,,,,,,,,,,,,,,,,,,,,,,,,
,,,,,623673,1,2024-07-12_16h24.38.157,experiment,2024.1.5,Win32,59.88023952,6691931c2c63981b064e1f0c,6691babb13d74dc8ea841808,,,,,,,,,,,,,,,,,,,,,,,,,,,,,,,,,,,,,,,,,,,,,,,,,,,,,,,,,,,,1249.5514,1257.041,0.158333319,-0.154629672,1.0,0.0,0.0,1.4763,compass,0.0,19.0,19.0,19.0,1.0,SoundStimuli/LetsGetItOn_MarvinGaye_Cover5S.wav,,,,,,,,,,,,,,,,,,,,,,,,,,,,,,,,,,,,,,,,,,,,,,,,,,,,,
,,,,,623673,1,2024-07-12_16h24.38.157,experiment,2024.1.5,Win32,59.88023952,6691931c2c63981b064e1f0c,6691babb13d74dc8ea841808,,,,,,,,,,,,,,,,,,,,,,,,,,,,,,,,,,,,,,,,,,,,,,,,,,,,,,,,,,,,1257.0494,1263.3737,-0.176851838,0.181481467,1.0,0.0,0.0,0.3099,compass,0.0,20.0,20.0,6.0,1.0,SoundStimuli/Levitating_DuaLipa_Cover5S.wav,,,,,,,,,,,,,,,,,,,,,,,,,,,,,,,,,,,,,,,,,,,,,,,,,,,,,
,,,,,623673,1,2024-07-12_16h24.38.157,experiment,2024.1.5,Win32,59.88023952,6691931c2c63981b064e1f0c,6691babb13d74dc8ea841808,,,,,,,,,,,,,,,,,,,,,,,,,,,,,,,,,,,,,,,,,,,,,,,,,,,,,,,,,,,,1263.3823,1271.0561,-0.339814822,-0.342592593,1.0,0.0,0.0,1.6601,compass,0.0,21.0,21.0,31.0,1.0,SoundStimuli/TheBattleOfNewOrleans_JohnnyHorton_Cover5S.wav,,,,,,,,,,,,,,,,,,,,,,,,,,,,,,,,,,,,,,,,,,,,,,,,,,,,,
,,,,,623673,1,2024-07-12_16h24.38.157,experiment,2024.1.5,Win32,59.88023952,6691931c2c63981b064e1f0c,6691babb13d74dc8ea841808,,,,,,,,,,,,,,,,,,,,,,,,,,,,,,,,,,,,,,,,,,,,,,,,,,,,,,,,,,,,1271.0648,1278.8047,-0.200925898,-0.186111097,1.0,0.0,0.0,1.7266,compass,0.0,22.0,22.0,2.0,1.0,SoundStimuli/Mood_24kGoldnianndior_Cover5S.wav,,,,,,,,,,,,,,,,,,,,,,,,,,,,,,,,,,,,,,,,,,,,,,,,,,,,,
,,,,,623673,1,2024-07-12_16h24.38.157,experiment,2024.1.5,Win32,59.88023952,6691931c2c63981b064e1f0c,6691babb13d74dc8ea841808,,,,,,,,,,,,,,,,,,,,,,,,,,,,,,,,,,,,,,,,,,,,,,,,,,,,,,,,,,,,1278.8131,1285.8272,-0.187037009,0.194444444,1.0,0.0,0.0,1.0002,compass,0.0,23.0,23.0,12.0,1.0,SoundStimuli/IWillAlwaysLoveYou_WhitneyHouston_Cover5S.wav,,,,,,,,,,,,,,,,,,,,,,,,,,,,,,,,,,,,,,,,,,,,,,,,,,,,,
,,,,,623673,1,2024-07-12_16h24.38.157,experiment,2024.1.5,Win32,59.88023952,6691931c2c63981b064e1f0c,6691babb13d74dc8ea841808,,,,,,,,,,,,,,,,,,,,,,,,,,,,,,,,,,,,,,,,,,,,,,,,,,,,,,,,,,,,1285.8356,1292.4096,-0.172222208,-0.156481496,1.0,0.0,0.0,0.5735,compass,0.0,24.0,24.0,10.0,1.0,SoundStimuli/BadDay_DanielPowter_Cover5S.wav,,,,,,,,,,,,,,,,,,,,,,,,,,,,,,,,,,,,,,,,,,,,,,,,,,,,,
,,,,,623673,1,2024-07-12_16h24.38.157,experiment,2024.1.5,Win32,59.88023952,6691931c2c63981b064e1f0c,6691babb13d74dc8ea841808,,,,,,,,,,,,,,,,,,,,,,,,,,,,,,,,,,,,,,,,,,,,,,,,,,,,,,,,,,,,1292.4182,1299.0353,0.159259302,0.176851838,1.0,0.0,0.0,0.6104,compass,0.0,25.0,25.0,33.0,1.0,SoundStimuli/StandByMe_BenEKing_Cover5S.wav,,,,,,,,,,,,,,,,,,,,,,,,,,,,,,,,,,,,,,,,,,,,,,,,,,,,,
,,,,,623673,1,2024-07-12_16h24.38.157,experiment,2024.1.5,Win32,59.88023952,6691931c2c63981b064e1f0c,6691babb13d74dc8ea841808,,,,,,,,,,,,,,,,,,,,,,,,,,,,,,,,,,,,,,,,,,,,,,,,,,,,,,,,,,,,1299.0441,1305.8841,0.159259302,0.176851838,1.0,0.0,0.0,0.8301,compass,0.0,26.0,26.0,17.0,1.0,SoundStimuli/Fallin_AliciaKeys_Original5S.wav,,,,,,,,,,,,,,,,,,,,,,,,,,,,,,,,,,,,,,,,,,,,,,,,,,,,,
,,,,,623673,1,2024-07-12_16h24.38.157,experiment,2024.1.5,Win32,59.88023952,6691931c2c63981b064e1f0c,6691babb13d74dc8ea841808,,,,,,,,,,,,,,,,,,,,,,,,,,,,,,,,,,,,,,,,,,,,,,,,,,,,,,,,,,,,1305.8928,1314.9864,0.350926011,0.342592593,1.0,0.0,0.0,1.4204,compass,0.0,27.0,27.0,7.0,1.0,SoundStimuli/NoOne_AliciaKeys_Cover5S.wav,,,,,,,,,,,,,,,,,,,,,,,,,,,,,,,,,,,,,,,,,,,,,,,,,,,,,
,,,,,623673,1,2024-07-12_16h24.38.157,experiment,2024.1.5,Win32,59.88023952,6691931c2c63981b064e1f0c,6691babb13d74dc8ea841808,,,,,,,,,,,,,,,,,,,,,,,,,,,,,,,,,,,,,,,,,,,,,,,,,,,,,,,,,,,,1314.9947,1323.0222,0.324074074,0.327777774,1.0,0.0,0.0,2.017,compass,0.0,28.0,28.0,14.0,1.0,SoundStimuli/BlindingLights_TheWeeknd_Original5S.wav,,,,,,,,,,,,,,,,,,,,,,,,,,,,,,,,,,,,,,,,,,,,,,,,,,,,,
,,,,,623673,1,2024-07-12_16h24.38.157,experiment,2024.1.5,Win32,59.88023952,6691931c2c63981b064e1f0c,6691babb13d74dc8ea841808,,,,,,,,,,,,,,,,,,,,,,,,,,,,,,,,,,,,,,,,,,,,,,,,,,,,,,,,,,,,1323.0305,1329.6346,-0.211111069,0.207407404,1.0,0.0,0.0,0.5971,compass,0.0,29.0,29.0,9.0,1.0,SoundStimuli/Despacito_LuisFonsiDaddyYankee_Cover5S.wav,,,,,,,,,,,,,,,,,,,,,,,,,,,,,,,,,,,,,,,,,,,,,,,,,,,,,
,,,,,623673,1,2024-07-12_16h24.38.157,experiment,2024.1.5,Win32,59.88023952,6691931c2c63981b064e1f0c,6691babb13d74dc8ea841808,,,,,,,,,,,,,,,,,,,,,,,,,,,,,,,,,,,,,,,,,,,,,,,,,,,,,,,,,,,,1329.6427,1337.713,0.336111139,0.336111104,1.0,0.0,0.0,2.066,compass,0.0,30.0,30.0,8.0,1.0,SoundStimuli/LikeAPrayer_Madonna_Original5S.wav,,,,,,,,,,,,,,,,,,,,,,,,,,,,,,,,,,,,,,,,,,,,,,,,,,,,,
,,,,,623673,1,2024-07-12_16h24.38.157,experiment,2024.1.5,Win32,59.88023952,6691931c2c63981b064e1f0c,6691babb13d74dc8ea841808,,,,,,,,,,,,,,,,,,,,,,,,,,,,,,,,,,,,,,,,,,,,,,,,,,,,,,,,,,,,1337.7223,1344.3523,0.340740769,0.339814804,1.0,0.0,0.0,0.6169,compass,0.0,31.0,31.0,28.0,1.0,SoundStimuli/ComeAndGetYourLove_Redbone_Original5S.wav,,,,,,,,,,,,,,,,,,,,,,,,,,,,,,,,,,,,,,,,,,,,,,,,,,,,,
,,,,,623673,1,2024-07-12_16h24.38.157,experiment,2024.1.5,Win32,59.88023952,6691931c2c63981b064e1f0c,6691babb13d74dc8ea841808,,,,,,,,,,,,,,,,,,,,,,,,,,,,,,,,,,,,,,,,,,,,,,,,,,,,,,,,,,,,1344.3605,1351.6946,-0.184259273,0.192592586,1.0,0.0,0.0,1.3268,compass,0.0,32.0,32.0,4.0,1.0,SoundStimuli/GetUrFreakOn_MissyElliot_Original5S.wav,,,,,,,,,,,,,,,,,,,,,,,,,,,,,,,,,,,,,,,,,,,,,,,,,,,,,
,,,,,623673,1,2024-07-12_16h24.38.157,experiment,2024.1.5,Win32,59.88023952,6691931c2c63981b064e1f0c,6691babb13d74dc8ea841808,,,,,,,,,,,,,,,,,,,,,,,,,,,,,,,,,,,,,,,,,,,,,,,,,,,,,,,,,,,,1351.7034,1358.3765,0.329629686,0.333333333,1.0,0.0,0.0,0.6667,compass,0.0,33.0,33.0,24.0,1.0,SoundStimuli/UptownFunk_MarkRonson_Original5S.wav,,,,,,,,,,,,,,,,,,,,,,,,,,,,,,,,,,,,,,,,,,,,,,,,,,,,,
,,,,,623673,1,2024-07-12_16h24.38.157,experiment,2024.1.5,Win32,59.88023952,6691931c2c63981b064e1f0c,6691babb13d74dc8ea841808,,,,,,,,,,,,,,,,,,,,,,,,,,,,,,,,,,,,,,,,,,,,,,,,,,,,,,,,,,,,1358.3857,1365.8758,-0.339814822,-0.330555598,1.0,0.0,0.0,1.4767,compass,0.0,34.0,34.0,13.0,1.0,SoundStimuli/GodOnlyKnows_TheBeachBoys_Cover5S.wav,,,,,,,,,,,,,,,,,,,,,,,,,,,,,,,,,,,,,,,,,,,,,,,,,,,,,
,,,,,623673,1,2024-07-12_16h24.38.157,experiment,2024.1.5,Win32,59.88023952,6691931c2c63981b064e1f0c,6691babb13d74dc8ea841808,,,,,,,,,,,,,,,,,,,,,,,,,,,,,,,,,,,,,,,,,,,,,,,,,,,,,,,,,,,,,,,,,,,,,,,,,,,1365.8759,1365.876,,,,1365.876,1365.8761,,,,0.0,3.0,3.0,3.0,1.0,block_order/blockA.xlsx,,,,,,,,,,,,,,,,,,,,,,,,,,,,,,,,,,,,,
,,,,,623673,1,2024-07-12_16h24.38.157,experiment,2024.1.5,Win32,59.88023952,6691931c2c63981b064e1f0c,6691babb13d74dc8ea841808,,,,,,,,,,,,,,,,,,,,,,,,,,,,,,,,,,,,,,,,,,,,,,,,,,,,,,,,,,,,,,,,,,,,,,,,,,,,,,,,,,,,,,,,,,,40.0,Item 4,"I studied violin from the ages of 11-18 both in school and through private lessons. I performed with a local chamber quintet for 6 years. I also played with my local community college orchestra (I was not a music or performance major) for two seasons. I am a self-taught acousitc guitarist. I began learning around the age of 14. I was a member of a girl's madrigal choir in high school. In my mid twenties I began singing with several  fold-punk groups and ran a small, but sucessful underground venue. At around 23 I began working at a music store (Guitar Center). I managed that music store for 9 years, during which time I gained a lot of knowledge about music and the industry in general. ",Item 3,"YouTube, Pangora, and Spotify",2.0,5.0,"cleaning/dishes, playing videogames, crafting",Often,Never,Sometimes,Often,Never,Never,Never,Never,Never,Sometimes,Never,Rarely,Never,Sometimes,Never,Rarely,noise,ambient,jazz,noise,Yes. I tend to listen to music with more complicated instrumentals or sound scapes. When I was younger I paid more attention to lyrics and vocals. ,none. Thank you. This was really interesting.,0.0,0.0,0.0,0.0,1.0,,
,,,,,623673,1,2024-07-12_16h24.38.157,experiment,2024.1.5,Win32,59.88023952,6691931c2c63981b064e1f0c,6691babb13d74dc8ea841808,,,,,,,,,,,,,,,,,,,,,,,,,,,,,,,,,,,,,,,,,,,,,,,,,,,,,,,,,,,,,,,,,,,,,,,,,,,,,,,,,,,,,,,,,,,,,,,,,,,,,,,,,,,,,,,,,,,,,,,,,,,,,,1879.5815,1881.7854
