welcome.started,welcome.stopped,space_to_continue.keys,space_to_continue.rt,space_to_continue.duration,participant,session,date,expName,psychopyVersion,OS,frameRate,STUDY_ID,SESSION_ID,consent.consent,consent.consent_recontact,consent_check.started,consent_check.stopped,calibration_ready.started,calibration_ready.stopped,cal_ready.keys,cal_ready.rt,cal_ready.duration,calibration.started,calibration.stopped,mouse.x,mouse.y,mouse.leftButton,mouse.midButton,mouse.rightButton,mouse.time,mouse.clicked_name,move_on.keys,move_on.rt,move_on.duration,run_cal.thisRepN,run_cal.thisTrialN,run_cal.thisN,run_cal.thisIndex,run_cal.ran,emotion_training_ready.started,emotion_training_ready.stopped,training_move_on.keys,training_move_on.rt,training_move_on.duration,examples.started,examples.stopped,emotion_scale.started,emotion_scale.stopped,scale_next.keys,scale_next.rt,scale_next.duration,instructions.started,instructions.stopped,next.keys,next.rt,next.duration,practice_task.started,practice_task.stopped,mouse_rating_2.x,mouse_rating_2.y,mouse_rating_2.leftButton,mouse_rating_2.midButton,mouse_rating_2.rightButton,mouse_rating_2.time,mouse_rating_2.clicked_name,ready.started,ready.stopped,key_resp.keys,key_resp.rt,key_resp.duration,set_group.started,set_group.stopped,task.started,task.stopped,mouse_rating.x,mouse_rating.y,mouse_rating.leftButton,mouse_rating.midButton,mouse_rating.rightButton,mouse_rating.time,mouse_rating.clicked_name,trials.thisRepN,trials.thisTrialN,trials.thisN,trials.thisIndex,trials.ran,clip,short_break.started,short_break.stopped,space_to_move_on.keys,space_to_move_on.rt,space_to_move_on.duration,instruction_reminder.started,instruction_reminder.stopped,reminder_move_on.keys,reminder_move_on.rt,reminder_move_on.duration,blocks.thisRepN,blocks.thisTrialN,blocks.thisN,blocks.thisIndex,blocks.ran,block,post_survey.age,post_survey.musician,post_survey.music_making,post_survey.listen_time,post_survey.medium,post_survey.music_seeking,post_survey.music_choice,post_survey.activities,post_survey.question1.Hip hop,post_survey.question1.Alternative rock,post_survey.question1.Jazz,post_survey.question1.Folk/indie,post_survey.question1.R&B,post_survey.question1.A cappella,post_survey.question1.Classical,post_survey.question1.Metal,post_survey.question1.Ambient,post_survey.question1.Disco,post_survey.question1.Electronic (EDM),post_survey.question1.Reggae,post_survey.question1.Country,post_survey.question1.Classic rock,post_survey.question1.Pop,post_survey.question1.Latin,post_survey.other_genres,post_survey.genres_ranked.text1,post_survey.genres_ranked.text2,post_survey.genres_ranked.text3,post_survey.habit_change,post_survey.habits,show_exp.thisRepN,show_exp.thisTrialN,show_exp.thisN,show_exp.thisIndex,show_exp.ran,goodbye.started,goodbye.stopped
0.0003,2.0304,space,2.0058,,644490,1,2024-07-12_15h21.28.900,experiment,2024.1.5,Linux x86_64,59.52380952,6691931c2c63981b064e1f0c,6691ac1e307be77b81175761,,,,,,,,,,,,,,,,,,,,,,,,,,,,,,,,,,,,,,,,,,,,,,,,,,,,,,,,,,,,,,,,,,,,,,,,,,,,,,,,,,,,,,,,,,,,,,,,,,,,,,,,,,,,,,,,,,,,,,,,,,,,,,,
,,,,,644490,1,2024-07-12_15h21.28.900,experiment,2024.1.5,Linux x86_64,59.52380952,6691931c2c63981b064e1f0c,6691ac1e307be77b81175761,yes,yes,,,,,,,,,,,,,,,,,,,,,,,,,,,,,,,,,,,,,,,,,,,,,,,,,,,,,,,,,,,,,,,,,,,,,,,,,,,,,,,,,,,,,,,,,,,,,,,,,,,,,,,,,,,,,,,,,,,,,,,,,,,,,
,,,,,644490,1,2024-07-12_15h21.28.900,experiment,2024.1.5,Linux x86_64,59.52380952,6691931c2c63981b064e1f0c,6691ac1e307be77b81175761,,,60.4889,60.4897,,,,,,,,,,,,,,,,,,,,,,,,,,,,,,,,,,,,,,,,,,,,,,,,,,,,,,,,,,,,,,,,,,,,,,,,,,,,,,,,,,,,,,,,,,,,,,,,,,,,,,,,,,,,,,,,,,,,,,,,,,,
,,,,,644490,1,2024-07-12_15h21.28.900,experiment,2024.1.5,Linux x86_64,59.52380952,6691931c2c63981b064e1f0c,6691ac1e307be77b81175761,,,,,60.4978,67.3064,space,6.7796,,67.3427,96.8701,"[-0.024748908148871526,-0.02751967818648727,-0.02751967818648727]","[-0.39502795184100115,-0.4411793461552373,-0.4411793461552373]","[1,1,1]","[0,0,0]","[0,0,0]","[17.83729999999983,20.147399999999436,20.33250000000001]","[""play_button"",""play_button""]",y,28.4424,,0.0,0.0,0.0,0.0,1.0,,,,,,,,,,,,,,,,,,,,,,,,,,,,,,,,,,,,,,,,,,,,,,,,,,,,,,,,,,,,,,,,,,,,,,,,,,,,,,,,,,,,,,,,,,,,,,,,,,,,,
,,,,,644490,1,2024-07-12_15h21.28.900,experiment,2024.1.5,Linux x86_64,59.52380952,6691931c2c63981b064e1f0c,6691ac1e307be77b81175761,,,,,,,,,,,,,,,,,,,,,,,,,,,96.8719,116.6008,space,19.6952,,116.6013,236.6197,236.6212,245.7182,right,5.5427,,245.7185,253.434,space,7.6726,,253.4348,260.1808,0.320314421,-0.052141938,1.0,0.0,0.0,0.7333,compass_2,260.1816,263.612,space,3.4106,,263.6121,263.629,263.6691,272.7136,0.274127762,-0.104280316,1.0,0.0,0.0,3.034,compass,0.0,0.0,0.0,28.0,1.0,SoundStimuli/ComeAndGetYourLove_Redbone_Original5S.wav,,,,,,,,,,,,,,,,,,,,,,,,,,,,,,,,,,,,,,,,,,,,,,,,,,,,,
,,,,,644490,1,2024-07-12_15h21.28.900,experiment,2024.1.5,Linux x86_64,59.52380952,6691931c2c63981b064e1f0c,6691ac1e307be77b81175761,,,,,,,,,,,,,,,,,,,,,,,,,,,,,,,,,,,,,,,,,,,,,,,,,,,,,,,,,,,,272.752,279.1105,0.252305773,-0.148269032,1.0,0.0,0.0,0.3494,compass,0.0,1.0,1.0,26.0,1.0,SoundStimuli/LivinOnAPrayer_BonJovi_Cover5S.wav,,,,,,,,,,,,,,,,,,,,,,,,,,,,,,,,,,,,,,,,,,,,,,,,,,,,,
,,,,,644490,1,2024-07-12_15h21.28.900,experiment,2024.1.5,Linux x86_64,59.52380952,6691931c2c63981b064e1f0c,6691ac1e307be77b81175761,,,,,,,,,,,,,,,,,,,,,,,,,,,,,,,,,,,,,,,,,,,,,,,,,,,,,,,,,,,,279.1427,288.2096,0.20049981,-0.039286296,1.0,0.0,0.0,3.0634,compass,0.0,2.0,2.0,34.0,1.0,SoundStimuli/AChangeIsGonnaCome_SamCooke_Cover5S.wav,,,,,,,,,,,,,,,,,,,,,,,,,,,,,,,,,,,,,,,,,,,,,,,,,,,,,
,,,,,644490,1,2024-07-12_15h21.28.900,experiment,2024.1.5,Linux x86_64,59.52380952,6691931c2c63981b064e1f0c,6691ac1e307be77b81175761,,,,,,,,,,,,,,,,,,,,,,,,,,,,,,,,,,,,,,,,,,,,,,,,,,,,,,,,,,,,288.2395,297.9919,0.31353059,0.326762249,1.0,0.0,0.0,3.7487,compass,0.0,3.0,3.0,12.0,1.0,SoundStimuli/IWillAlwaysLoveYou_WhitneyHouston_Cover5S.wav,,,,,,,,,,,,,,,,,,,,,,,,,,,,,,,,,,,,,,,,,,,,,,,,,,,,,
,,,,,644490,1,2024-07-12_15h21.28.900,experiment,2024.1.5,Linux x86_64,59.52380952,6691931c2c63981b064e1f0c,6691ac1e307be77b81175761,,,,,,,,,,,,,,,,,,,,,,,,,,,,,,,,,,,,,,,,,,,,,,,,,,,,,,,,,,,,298.0266,304.2594,-0.034489102,0.32440567,1.0,0.0,0.0,0.2178,compass,0.0,4.0,4.0,6.0,1.0,SoundStimuli/Levitating_DuaLipa_Cover5S.wav,,,,,,,,,,,,,,,,,,,,,,,,,,,,,,,,,,,,,,,,,,,,,,,,,,,,,
,,,,,644490,1,2024-07-12_15h21.28.900,experiment,2024.1.5,Linux x86_64,59.52380952,6691931c2c63981b064e1f0c,6691ac1e307be77b81175761,,,,,,,,,,,,,,,,,,,,,,,,,,,,,,,,,,,,,,,,,,,,,,,,,,,,,,,,,,,,304.2918,310.5239,0.260924163,-0.049978355,1.0,0.0,0.0,0.2101,compass,0.0,5.0,5.0,15.0,1.0,SoundStimuli/TikTok_Kesha_Cover5S.wav,,,,,,,,,,,,,,,,,,,,,,,,,,,,,,,,,,,,,,,,,,,,,,,,,,,,,
,,,,,644490,1,2024-07-12_15h21.28.900,experiment,2024.1.5,Linux x86_64,59.52380952,6691931c2c63981b064e1f0c,6691ac1e307be77b81175761,,,,,,,,,,,,,,,,,,,,,,,,,,,,,,,,,,,,,,,,,,,,,,,,,,,,,,,,,,,,310.558,316.8061,0.314171572,0.32912414,1.0,0.0,0.0,0.2335,compass,0.0,6.0,6.0,16.0,1.0,SoundStimuli/BohemianRhapsody_Queen_Original5S.wav,,,,,,,,,,,,,,,,,,,,,,,,,,,,,,,,,,,,,,,,,,,,,,,,,,,,,
,,,,,644490,1,2024-07-12_15h21.28.900,experiment,2024.1.5,Linux x86_64,59.52380952,6691931c2c63981b064e1f0c,6691ac1e307be77b81175761,,,,,,,,,,,,,,,,,,,,,,,,,,,,,,,,,,,,,,,,,,,,,,,,,,,,,,,,,,,,316.8405,327.9552,0.22505448,-0.258438789,1.0,0.0,0.0,5.1001,compass,0.0,7.0,7.0,29.0,1.0,SoundStimuli/OldTownRoad_LilNasX_Original5S.wav,,,,,,,,,,,,,,,,,,,,,,,,,,,,,,,,,,,,,,,,,,,,,,,,,,,,,
,,,,,644490,1,2024-07-12_15h21.28.900,experiment,2024.1.5,Linux x86_64,59.52380952,6691931c2c63981b064e1f0c,6691ac1e307be77b81175761,,,,,,,,,,,,,,,,,,,,,,,,,,,,,,,,,,,,,,,,,,,,,,,,,,,,,,,,,,,,327.9893,336.0222,0.272399676,0.307680497,1.0,0.0,0.0,2.0172,compass,0.0,8.0,8.0,8.0,1.0,SoundStimuli/LikeAPrayer_Madonna_Original5S.wav,,,,,,,,,,,,,,,,,,,,,,,,,,,,,,,,,,,,,,,,,,,,,,,,,,,,,
,,,,,644490,1,2024-07-12_15h21.28.900,experiment,2024.1.5,Linux x86_64,59.52380952,6691931c2c63981b064e1f0c,6691ac1e307be77b81175761,,,,,,,,,,,,,,,,,,,,,,,,,,,,,,,,,,,,,,,,,,,,,,,,,,,,,,,,,,,,336.0558,343.1522,0.276003576,-0.030979693,1.0,0.0,0.0,1.0823,compass,0.0,9.0,9.0,21.0,1.0,SoundStimuli/GoodGollyMissMolly_LittleRichard_Cover5S.wav,,,,,,,,,,,,,,,,,,,,,,,,,,,,,,,,,,,,,,,,,,,,,,,,,,,,,
,,,,,644490,1,2024-07-12_15h21.28.900,experiment,2024.1.5,Linux x86_64,59.52380952,6691931c2c63981b064e1f0c,6691ac1e307be77b81175761,,,,,,,,,,,,,,,,,,,,,,,,,,,,,,,,,,,,,,,,,,,,,,,,,,,,,,,,,,,,343.1814,352.5184,0.314020341,-0.024177043,1.0,0.0,0.0,3.3327,compass,0.0,10.0,10.0,17.0,1.0,SoundStimuli/Fallin_AliciaKeys_Original5S.wav,,,,,,,,,,,,,,,,,,,,,,,,,,,,,,,,,,,,,,,,,,,,,,,,,,,,,
,,,,,644490,1,2024-07-12_15h21.28.900,experiment,2024.1.5,Linux x86_64,59.52380952,6691931c2c63981b064e1f0c,6691ac1e307be77b81175761,,,,,,,,,,,,,,,,,,,,,,,,,,,,,,,,,,,,,,,,,,,,,,,,,,,,,,,,,,,,352.5487,361.4518,0.017085436,-0.33825921,1.0,0.0,0.0,2.9006,compass,0.0,11.0,11.0,31.0,1.0,SoundStimuli/TheBattleOfNewOrleans_JohnnyHorton_Cover5S.wav,,,,,,,,,,,,,,,,,,,,,,,,,,,,,,,,,,,,,,,,,,,,,,,,,,,,,
,,,,,644490,1,2024-07-12_15h21.28.900,experiment,2024.1.5,Linux x86_64,59.52380952,6691931c2c63981b064e1f0c,6691ac1e307be77b81175761,,,,,,,,,,,,,,,,,,,,,,,,,,,,,,,,,,,,,,,,,,,,,,,,,,,,,,,,,,,,361.5043,370.4865,0.013193823,-0.341896114,1.0,0.0,0.0,2.9684,compass,0.0,12.0,12.0,9.0,1.0,SoundStimuli/Despacito_LuisFonsiDaddyYankee_Cover5S.wav,,,,,,,,,,,,,,,,,,,,,,,,,,,,,,,,,,,,,,,,,,,,,,,,,,,,,
,,,,,644490,1,2024-07-12_15h21.28.900,experiment,2024.1.5,Linux x86_64,59.52380952,6691931c2c63981b064e1f0c,6691ac1e307be77b81175761,,,,,,,,,,,,,,,,,,,,,,,,,,,,,,,,,,,,,,,,,,,,,,,,,,,,,,,,,,,,370.5252,385.531,-0.001576629,-0.000755988,1.0,0.0,0.0,8.9993,compass,0.0,13.0,13.0,0.0,1.0,SoundStimuli/StayinAlive_BeeGees_Original5S.wav,,,,,,,,,,,,,,,,,,,,,,,,,,,,,,,,,,,,,,,,,,,,,,,,,,,,,
,,,,,644490,1,2024-07-12_15h21.28.900,experiment,2024.1.5,Linux x86_64,59.52380952,6691931c2c63981b064e1f0c,6691ac1e307be77b81175761,,,,,,,,,,,,,,,,,,,,,,,,,,,,,,,,,,,,,,,,,,,,,,,,,,,,,,,,,,,,385.5709,392.7465,0.056302615,-0.326383011,1.0,0.0,0.0,1.167,compass,0.0,14.0,14.0,19.0,1.0,SoundStimuli/LetsGetItOn_MarvinGaye_Cover5S.wav,,,,,,,,,,,,,,,,,,,,,,,,,,,,,,,,,,,,,,,,,,,,,,,,,,,,,
,,,,,644490,1,2024-07-12_15h21.28.900,experiment,2024.1.5,Linux x86_64,59.52380952,6691931c2c63981b064e1f0c,6691ac1e307be77b81175761,,,,,,,,,,,,,,,,,,,,,,,,,,,,,,,,,,,,,,,,,,,,,,,,,,,,,,,,,,,,392.7775,404.7355,0.000575426,0.000494498,1.0,0.0,0.0,5.9484,compass,0.0,15.0,15.0,22.0,1.0,SoundStimuli/RockWithYou_MichaelJackson_Original5S.wav,,,,,,,,,,,,,,,,,,,,,,,,,,,,,,,,,,,,,,,,,,,,,,,,,,,,,
,,,,,644490,1,2024-07-12_15h21.28.900,experiment,2024.1.5,Linux x86_64,59.52380952,6691931c2c63981b064e1f0c,6691ac1e307be77b81175761,,,,,,,,,,,,,,,,,,,,,,,,,,,,,,,,,,,,,,,,,,,,,,,,,,,,,,,,,,,,404.7466,413.127,0.328009485,0.335425087,1.0,0.0,0.0,2.3666,compass,0.0,16.0,16.0,25.0,1.0,SoundStimuli/Respect_ArethaFranklin_Original5S.wav,,,,,,,,,,,,,,,,,,,,,,,,,,,,,,,,,,,,,,,,,,,,,,,,,,,,,
,,,,,644490,1,2024-07-12_15h21.28.900,experiment,2024.1.5,Linux x86_64,59.52380952,6691931c2c63981b064e1f0c,6691ac1e307be77b81175761,,,,,,,,,,,,,,,,,,,,,,,,,,,,,,,,,,,,,,,,,,,,,,,,,,,,,,,,,,,,413.1624,424.4836,0.311222218,0.33193892,1.0,0.0,0.0,5.3078,compass,0.0,17.0,17.0,14.0,1.0,SoundStimuli/BlindingLights_TheWeeknd_Original5S.wav,,,,,,,,,,,,,,,,,,,,,,,,,,,,,,,,,,,,,,,,,,,,,,,,,,,,,
,,,,,644490,1,2024-07-12_15h21.28.900,experiment,2024.1.5,Linux x86_64,59.52380952,6691931c2c63981b064e1f0c,6691ac1e307be77b81175761,,,,,,,,,,,,,,,,,,,,,,,,,,,,,,,,,,,,,,,,,,,,,,,,,,,,,,,,,,,,424.5213,436.6075,0.327223375,-0.018676588,1.0,0.0,0.0,6.0821,compass,0.0,18.0,18.0,32.0,1.0,SoundStimuli/HeatWaves_GlassAnimals_Original5S.wav,,,,,,,,,,,,,,,,,,,,,,,,,,,,,,,,,,,,,,,,,,,,,,,,,,,,,
,,,,,644490,1,2024-07-12_15h21.28.900,experiment,2024.1.5,Linux x86_64,59.52380952,6691931c2c63981b064e1f0c,6691ac1e307be77b81175761,,,,,,,,,,,,,,,,,,,,,,,,,,,,,,,,,,,,,,,,,,,,,,,,,,,,,,,,,,,,436.6445,443.6564,0.325008929,-0.019066196,1.0,0.0,0.0,0.9989,compass,0.0,19.0,19.0,5.0,1.0,SoundStimuli/MyGirl_TheTemptations_Original5S.wav,,,,,,,,,,,,,,,,,,,,,,,,,,,,,,,,,,,,,,,,,,,,,,,,,,,,,
,,,,,644490,1,2024-07-12_15h21.28.900,experiment,2024.1.5,Linux x86_64,59.52380952,6691931c2c63981b064e1f0c,6691ac1e307be77b81175761,,,,,,,,,,,,,,,,,,,,,,,,,,,,,,,,,,,,,,,,,,,,,,,,,,,,,,,,,,,,443.6876,457.2051,0.322058218,0.306468893,1.0,0.0,0.0,7.5157,compass,0.0,20.0,20.0,18.0,1.0,SoundStimuli/AnotherOneBitesTheDust_Queen_Original5S.wav,,,,,,,,,,,,,,,,,,,,,,,,,,,,,,,,,,,,,,,,,,,,,,,,,,,,,
,,,,,644490,1,2024-07-12_15h21.28.900,experiment,2024.1.5,Linux x86_64,59.52380952,6691931c2c63981b064e1f0c,6691ac1e307be77b81175761,,,,,,,,,,,,,,,,,,,,,,,,,,,,,,,,,,,,,,,,,,,,,,,,,,,,,,,,,,,,457.2417,463.2877,0.332731685,-0.01459328,1.0,0.0,0.0,0.0339,compass,0.0,21.0,21.0,23.0,1.0,SoundStimuli/StrawberryFieldsForever_TheBeatles_Original5S.wav,,,,,,,,,,,,,,,,,,,,,,,,,,,,,,,,,,,,,,,,,,,,,,,,,,,,,
,,,,,644490,1,2024-07-12_15h21.28.900,experiment,2024.1.5,Linux x86_64,59.52380952,6691931c2c63981b064e1f0c,6691ac1e307be77b81175761,,,,,,,,,,,,,,,,,,,,,,,,,,,,,,,,,,,,,,,,,,,,,,,,,,,,,,,,,,,,463.3197,473.5038,0.016804165,-0.340754643,1.0,0.0,0.0,4.1818,compass,0.0,22.0,22.0,2.0,1.0,SoundStimuli/Mood_24kGoldnianndior_Cover5S.wav,,,,,,,,,,,,,,,,,,,,,,,,,,,,,,,,,,,,,,,,,,,,,,,,,,,,,
,,,,,644490,1,2024-07-12_15h21.28.900,experiment,2024.1.5,Linux x86_64,59.52380952,6691931c2c63981b064e1f0c,6691ac1e307be77b81175761,,,,,,,,,,,,,,,,,,,,,,,,,,,,,,,,,,,,,,,,,,,,,,,,,,,,,,,,,,,,473.5361,480.1197,0.016597324,-0.338065592,1.0,0.0,0.0,0.5666,compass,0.0,23.0,23.0,13.0,1.0,SoundStimuli/GodOnlyKnows_TheBeachBoys_Cover5S.wav,,,,,,,,,,,,,,,,,,,,,,,,,,,,,,,,,,,,,,,,,,,,,,,,,,,,,
,,,,,644490,1,2024-07-12_15h21.28.900,experiment,2024.1.5,Linux x86_64,59.52380952,6691931c2c63981b064e1f0c,6691ac1e307be77b81175761,,,,,,,,,,,,,,,,,,,,,,,,,,,,,,,,,,,,,,,,,,,,,,,,,,,,,,,,,,,,480.1572,493.8185,0.296044696,-0.014780172,1.0,0.0,0.0,7.6503,compass,0.0,24.0,24.0,3.0,1.0,SoundStimuli/NoScrubs_TLC_Original5S.wav,,,,,,,,,,,,,,,,,,,,,,,,,,,,,,,,,,,,,,,,,,,,,,,,,,,,,
,,,,,644490,1,2024-07-12_15h21.28.900,experiment,2024.1.5,Linux x86_64,59.52380952,6691931c2c63981b064e1f0c,6691ac1e307be77b81175761,,,,,,,,,,,,,,,,,,,,,,,,,,,,,,,,,,,,,,,,,,,,,,,,,,,,,,,,,,,,493.8539,502.6505,0.00063081,-0.00033445,1.0,0.0,0.0,2.784,compass,0.0,25.0,25.0,1.0,1.0,SoundStimuli/Stronger_KanyeWest_Original5S.wav,,,,,,,,,,,,,,,,,,,,,,,,,,,,,,,,,,,,,,,,,,,,,,,,,,,,,
,,,,,644490,1,2024-07-12_15h21.28.900,experiment,2024.1.5,Linux x86_64,59.52380952,6691931c2c63981b064e1f0c,6691ac1e307be77b81175761,,,,,,,,,,,,,,,,,,,,,,,,,,,,,,,,,,,,,,,,,,,,,,,,,,,,,,,,,,,,502.6862,510.2982,0.0956977,0.012065351,1.0,0.0,0.0,1.599,compass,0.0,26.0,26.0,7.0,1.0,SoundStimuli/NoOne_AliciaKeys_Cover5S.wav,,,,,,,,,,,,,,,,,,,,,,,,,,,,,,,,,,,,,,,,,,,,,,,,,,,,,
,,,,,644490,1,2024-07-12_15h21.28.900,experiment,2024.1.5,Linux x86_64,59.52380952,6691931c2c63981b064e1f0c,6691ac1e307be77b81175761,,,,,,,,,,,,,,,,,,,,,,,,,,,,,,,,,,,,,,,,,,,,,,,,,,,,,,,,,,,,510.33,518.4649,0.326870615,0.331626383,1.0,0.0,0.0,2.1181,compass,0.0,27.0,27.0,4.0,1.0,SoundStimuli/GetUrFreakOn_MissyElliot_Original5S.wav,,,,,,,,,,,,,,,,,,,,,,,,,,,,,,,,,,,,,,,,,,,,,,,,,,,,,
,,,,,644490,1,2024-07-12_15h21.28.900,experiment,2024.1.5,Linux x86_64,59.52380952,6691931c2c63981b064e1f0c,6691ac1e307be77b81175761,,,,,,,,,,,,,,,,,,,,,,,,,,,,,,,,,,,,,,,,,,,,,,,,,,,,,,,,,,,,518.5025,525.2137,0.24074594,-0.236934521,1.0,0.0,0.0,0.7003,compass,0.0,28.0,28.0,11.0,1.0,SoundStimuli/Superstition_StevieWonder_Cover5S.wav,,,,,,,,,,,,,,,,,,,,,,,,,,,,,,,,,,,,,,,,,,,,,,,,,,,,,
,,,,,644490,1,2024-07-12_15h21.28.900,experiment,2024.1.5,Linux x86_64,59.52380952,6691931c2c63981b064e1f0c,6691ac1e307be77b81175761,,,,,,,,,,,,,,,,,,,,,,,,,,,,,,,,,,,,,,,,,,,,,,,,,,,,,,,,,,,,525.2529,532.4784,0.109584441,-0.305739622,1.0,0.0,0.0,1.2165,compass,0.0,29.0,29.0,10.0,1.0,SoundStimuli/BadDay_DanielPowter_Cover5S.wav,,,,,,,,,,,,,,,,,,,,,,,,,,,,,,,,,,,,,,,,,,,,,,,,,,,,,
,,,,,644490,1,2024-07-12_15h21.28.900,experiment,2024.1.5,Linux x86_64,59.52380952,6691931c2c63981b064e1f0c,6691ac1e307be77b81175761,,,,,,,,,,,,,,,,,,,,,,,,,,,,,,,,,,,,,,,,,,,,,,,,,,,,,,,,,,,,532.5105,543.1768,0.270286051,0.321342002,1.0,0.0,0.0,4.6481,compass,0.0,30.0,30.0,27.0,1.0,SoundStimuli/ShapeofYou_EdSheeran_Original5S.wav,,,,,,,,,,,,,,,,,,,,,,,,,,,,,,,,,,,,,,,,,,,,,,,,,,,,,
,,,,,644490,1,2024-07-12_15h21.28.900,experiment,2024.1.5,Linux x86_64,59.52380952,6691931c2c63981b064e1f0c,6691ac1e307be77b81175761,,,,,,,,,,,,,,,,,,,,,,,,,,,,,,,,,,,,,,,,,,,,,,,,,,,,,,,,,,,,543.2065,555.8082,0.252544149,-0.176476316,1.0,0.0,0.0,6.5987,compass,0.0,31.0,31.0,33.0,1.0,SoundStimuli/StandByMe_BenEKing_Cover5S.wav,,,,,,,,,,,,,,,,,,,,,,,,,,,,,,,,,,,,,,,,,,,,,,,,,,,,,
,,,,,644490,1,2024-07-12_15h21.28.900,experiment,2024.1.5,Linux x86_64,59.52380952,6691931c2c63981b064e1f0c,6691ac1e307be77b81175761,,,,,,,,,,,,,,,,,,,,,,,,,,,,,,,,,,,,,,,,,,,,,,,,,,,,,,,,,,,,555.8434,563.2754,0.316840956,0.31072382,1.0,0.0,0.0,1.4164,compass,0.0,32.0,32.0,30.0,1.0,SoundStimuli/PokerFace_LadyGaga_Original5S.wav,,,,,,,,,,,,,,,,,,,,,,,,,,,,,,,,,,,,,,,,,,,,,,,,,,,,,
,,,,,644490,1,2024-07-12_15h21.28.900,experiment,2024.1.5,Linux x86_64,59.52380952,6691931c2c63981b064e1f0c,6691ac1e307be77b81175761,,,,,,,,,,,,,,,,,,,,,,,,,,,,,,,,,,,,,,,,,,,,,,,,,,,,,,,,,,,,563.3139,570.5425,0.245700299,-0.261680603,1.0,0.0,0.0,1.2182,compass,0.0,33.0,33.0,20.0,1.0,SoundStimuli/HeyYa_Outkast_Cover5S.wav,,,,,,,,,,,,,,,,,,,,,,,,,,,,,,,,,,,,,,,,,,,,,,,,,,,,,
,,,,,644490,1,2024-07-12_15h21.28.900,experiment,2024.1.5,Linux x86_64,59.52380952,6691931c2c63981b064e1f0c,6691ac1e307be77b81175761,,,,,,,,,,,,,,,,,,,,,,,,,,,,,,,,,,,,,,,,,,,,,,,,,,,,,,,,,,,,570.571,576.7145,0.30782968,0.336318645,1.0,0.0,0.0,0.1338,compass,0.0,34.0,34.0,24.0,1.0,SoundStimuli/UptownFunk_MarkRonson_Original5S.wav,,,,,,,,,,,,,,,,,,,,,,,,,,,,,,,,,,,,,,,,,,,,,,,,,,,,,
,,,,,644490,1,2024-07-12_15h21.28.900,experiment,2024.1.5,Linux x86_64,59.52380952,6691931c2c63981b064e1f0c,6691ac1e307be77b81175761,,,,,,,,,,,,,,,,,,,,,,,,,,,,,,,,,,,,,,,,,,,,,,,,,,,,,,,,,,,,,,,,,,,,,,,,,,,576.746,579.9734,space,3.1864,,579.9754,587.4728,right,7.4676,,0.0,0.0,0.0,0.0,1.0,block_order/blockA.xlsx,,,,,,,,,,,,,,,,,,,,,,,,,,,,,,,,,,,,,
,,,,,644490,1,2024-07-12_15h21.28.900,experiment,2024.1.5,Linux x86_64,59.52380952,6691931c2c63981b064e1f0c,6691ac1e307be77b81175761,,,,,,,,,,,,,,,,,,,,,,,,,,,,,,,,,,,,,,,,,,,,,,,,,,,,,,,,,,,,587.5436,594.6438,0.275333772,-0.017035421,1.0,0.0,0.0,1.0903,compass,0.0,0.0,0.0,23.0,1.0,SoundStimuli/IWalkTheLine_JohnnyCash_Original5S.wav,,,,,,,,,,,,,,,,,,,,,,,,,,,,,,,,,,,,,,,,,,,,,,,,,,,,,
,,,,,644490,1,2024-07-12_15h21.28.900,experiment,2024.1.5,Linux x86_64,59.52380952,6691931c2c63981b064e1f0c,6691ac1e307be77b81175761,,,,,,,,,,,,,,,,,,,,,,,,,,,,,,,,,,,,,,,,,,,,,,,,,,,,,,,,,,,,594.6766,604.4199,0.307875005,0.047230925,1.0,0.0,0.0,3.7335,compass,0.0,1.0,1.0,20.0,1.0,SoundStimuli/FlashdanceWhatAFeeling_IreneCara_Original5S.wav,,,,,,,,,,,,,,,,,,,,,,,,,,,,,,,,,,,,,,,,,,,,,,,,,,,,,
,,,,,644490,1,2024-07-12_15h21.28.900,experiment,2024.1.5,Linux x86_64,59.52380952,6691931c2c63981b064e1f0c,6691ac1e307be77b81175761,,,,,,,,,,,,,,,,,,,,,,,,,,,,,,,,,,,,,,,,,,,,,,,,,,,,,,,,,,,,604.454,611.5703,0.33579678,-0.008772504,1.0,0.0,0.0,1.1011,compass,0.0,2.0,2.0,4.0,1.0,SoundStimuli/Dreams_FleetwoodMac_Original5S.wav,,,,,,,,,,,,,,,,,,,,,,,,,,,,,,,,,,,,,,,,,,,,,,,,,,,,,
,,,,,644490,1,2024-07-12_15h21.28.900,experiment,2024.1.5,Linux x86_64,59.52380952,6691931c2c63981b064e1f0c,6691ac1e307be77b81175761,,,,,,,,,,,,,,,,,,,,,,,,,,,,,,,,,,,,,,,,,,,,,,,,,,,,,,,,,,,,611.6003,620.2168,0.328543995,-0.020122613,1.0,0.0,0.0,2.6001,compass,0.0,3.0,3.0,14.0,1.0,SoundStimuli/LikeARollingStone_BobDylan_Original5S.wav,,,,,,,,,,,,,,,,,,,,,,,,,,,,,,,,,,,,,,,,,,,,,,,,,,,,,
,,,,,644490,1,2024-07-12_15h21.28.900,experiment,2024.1.5,Linux x86_64,59.52380952,6691931c2c63981b064e1f0c,6691ac1e307be77b81175761,,,,,,,,,,,,,,,,,,,,,,,,,,,,,,,,,,,,,,,,,,,,,,,,,,,,,,,,,,,,620.2513,626.7167,0.308519604,-0.262329497,1.0,0.0,0.0,0.4493,compass,0.0,4.0,4.0,18.0,1.0,SoundStimuli/Weak_SWV_Cover5S.wav,,,,,,,,,,,,,,,,,,,,,,,,,,,,,,,,,,,,,,,,,,,,,,,,,,,,,
,,,,,644490,1,2024-07-12_15h21.28.900,experiment,2024.1.5,Linux x86_64,59.52380952,6691931c2c63981b064e1f0c,6691ac1e307be77b81175761,,,,,,,,,,,,,,,,,,,,,,,,,,,,,,,,,,,,,,,,,,,,,,,,,,,,,,,,,,,,626.7591,634.9821,0.326256759,-0.018288337,1.0,0.0,0.0,2.217,compass,0.0,5.0,5.0,21.0,1.0,SoundStimuli/BridgeOverTroubledWater_SimonAndGarfunkel_Original5S.wav,,,,,,,,,,,,,,,,,,,,,,,,,,,,,,,,,,,,,,,,,,,,,,,,,,,,,
,,,,,644490,1,2024-07-12_15h21.28.900,experiment,2024.1.5,Linux x86_64,59.52380952,6691931c2c63981b064e1f0c,6691ac1e307be77b81175761,,,,,,,,,,,,,,,,,,,,,,,,,,,,,,,,,,,,,,,,,,,,,,,,,,,,,,,,,,,,635.0156,643.3973,0.325222552,-0.016943868,1.0,0.0,0.0,2.3665,compass,0.0,6.0,6.0,33.0,1.0,SoundStimuli/TheBoyIsMine_BrandyMonica_Original5S.wav,,,,,,,,,,,,,,,,,,,,,,,,,,,,,,,,,,,,,,,,,,,,,,,,,,,,,
,,,,,644490,1,2024-07-12_15h21.28.900,experiment,2024.1.5,Linux x86_64,59.52380952,6691931c2c63981b064e1f0c,6691ac1e307be77b81175761,,,,,,,,,,,,,,,,,,,,,,,,,,,,,,,,,,,,,,,,,,,,,,,,,,,,,,,,,,,,643.4261,651.496,0.327351323,0.330134936,1.0,0.0,0.0,2.0651,compass,0.0,7.0,7.0,5.0,1.0,SoundStimuli/JoyToTheWorld_ThreeDogNight_Original5S.wav,,,,,,,,,,,,,,,,,,,,,,,,,,,,,,,,,,,,,,,,,,,,,,,,,,,,,
,,,,,644490,1,2024-07-12_15h21.28.900,experiment,2024.1.5,Linux x86_64,59.52380952,6691931c2c63981b064e1f0c,6691ac1e307be77b81175761,,,,,,,,,,,,,,,,,,,,,,,,,,,,,,,,,,,,,,,,,,,,,,,,,,,,,,,,,,,,651.5264,658.362,0.330299208,-0.022721015,1.0,0.0,0.0,0.8332,compass,0.0,8.0,8.0,9.0,1.0,SoundStimuli/HowDoILive_LeAnnRimes_Cover5S.wav,,,,,,,,,,,,,,,,,,,,,,,,,,,,,,,,,,,,,,,,,,,,,,,,,,,,,
,,,,,644490,1,2024-07-12_15h21.28.900,experiment,2024.1.5,Linux x86_64,59.52380952,6691931c2c63981b064e1f0c,6691ac1e307be77b81175761,,,,,,,,,,,,,,,,,,,,,,,,,,,,,,,,,,,,,,,,,,,,,,,,,,,,,,,,,,,,658.3894,665.7447,0.278122626,-0.213965296,1.0,0.0,0.0,1.3498,compass,0.0,9.0,9.0,19.0,1.0,SoundStimuli/YouLightUpMyLife_DebbyBoone_Original5S.wav,,,,,,,,,,,,,,,,,,,,,,,,,,,,,,,,,,,,,,,,,,,,,,,,,,,,,
,,,,,644490,1,2024-07-12_15h21.28.900,experiment,2024.1.5,Linux x86_64,59.52380952,6691931c2c63981b064e1f0c,6691ac1e307be77b81175761,,,,,,,,,,,,,,,,,,,,,,,,,,,,,,,,,,,,,,,,,,,,,,,,,,,,,,,,,,,,665.7782,676.2612,0.333782394,0.306606674,1.0,0.0,0.0,4.4682,compass,0.0,10.0,10.0,10.0,1.0,SoundStimuli/LeFreak_Chic_Cover5S.wav,,,,,,,,,,,,,,,,,,,,,,,,,,,,,,,,,,,,,,,,,,,,,,,,,,,,,
,,,,,644490,1,2024-07-12_15h21.28.900,experiment,2024.1.5,Linux x86_64,59.52380952,6691931c2c63981b064e1f0c,6691ac1e307be77b81175761,,,,,,,,,,,,,,,,,,,,,,,,,,,,,,,,,,,,,,,,,,,,,,,,,,,,,,,,,,,,676.2959,682.3935,0.333782394,0.30743411,1.0,0.0,0.0,0.0832,compass,0.0,11.0,11.0,26.0,1.0,SoundStimuli/TheSign_AceOfBase_Cover5S.wav,,,,,,,,,,,,,,,,,,,,,,,,,,,,,,,,,,,,,,,,,,,,,,,,,,,,,
,,,,,644490,1,2024-07-12_15h21.28.900,experiment,2024.1.5,Linux x86_64,59.52380952,6691931c2c63981b064e1f0c,6691ac1e307be77b81175761,,,,,,,,,,,,,,,,,,,,,,,,,,,,,,,,,,,,,,,,,,,,,,,,,,,,,,,,,,,,682.4252,688.8915,0.333782394,0.30743411,1.0,0.0,0.0,0.4502,compass,0.0,12.0,12.0,2.0,1.0,SoundStimuli/SmellsLikeTeenSpirit_Nirvana_Original5S.wav,,,,,,,,,,,,,,,,,,,,,,,,,,,,,,,,,,,,,,,,,,,,,,,,,,,,,
,,,,,644490,1,2024-07-12_15h21.28.900,experiment,2024.1.5,Linux x86_64,59.52380952,6691931c2c63981b064e1f0c,6691ac1e307be77b81175761,,,,,,,,,,,,,,,,,,,,,,,,,,,,,,,,,,,,,,,,,,,,,,,,,,,,,,,,,,,,688.9248,699.4239,0.333782394,0.30743411,1.0,0.0,0.0,4.483,compass,0.0,13.0,13.0,24.0,1.0,SoundStimuli/Kiss_Prince_Cover5S.wav,,,,,,,,,,,,,,,,,,,,,,,,,,,,,,,,,,,,,,,,,,,,,,,,,,,,,
,,,,,644490,1,2024-07-12_15h21.28.900,experiment,2024.1.5,Linux x86_64,59.52380952,6691931c2c63981b064e1f0c,6691ac1e307be77b81175761,,,,,,,,,,,,,,,,,,,,,,,,,,,,,,,,,,,,,,,,,,,,,,,,,,,,,,,,,,,,699.4622,705.5733,0.333782394,0.30743411,1.0,0.0,0.0,0.1003,compass,0.0,14.0,14.0,3.0,1.0,SoundStimuli/PartyRockAnthem_LMFAO_Original5S.wav,,,,,,,,,,,,,,,,,,,,,,,,,,,,,,,,,,,,,,,,,,,,,,,,,,,,,
,,,,,644490,1,2024-07-12_15h21.28.900,experiment,2024.1.5,Linux x86_64,59.52380952,6691931c2c63981b064e1f0c,6691ac1e307be77b81175761,,,,,,,,,,,,,,,,,,,,,,,,,,,,,,,,,,,,,,,,,,,,,,,,,,,,,,,,,,,,705.6109,717.9884,0.308888527,-0.021312629,1.0,0.0,0.0,6.3667,compass,0.0,15.0,15.0,13.0,1.0,SoundStimuli/Perfect_EdSheeran_Cover5S.wav,,,,,,,,,,,,,,,,,,,,,,,,,,,,,,,,,,,,,,,,,,,,,,,,,,,,,
,,,,,644490,1,2024-07-12_15h21.28.900,experiment,2024.1.5,Linux x86_64,59.52380952,6691931c2c63981b064e1f0c,6691ac1e307be77b81175761,,,,,,,,,,,,,,,,,,,,,,,,,,,,,,,,,,,,,,,,,,,,,,,,,,,,,,,,,,,,718.0213,725.3537,0.128885453,-0.301795677,1.0,0.0,0.0,1.3169,compass,0.0,16.0,16.0,8.0,1.0,SoundStimuli/EndlessLove_DianaRossLionelRichie_Cover5S.wav,,,,,,,,,,,,,,,,,,,,,,,,,,,,,,,,,,,,,,,,,,,,,,,,,,,,,
,,,,,644490,1,2024-07-12_15h21.28.900,experiment,2024.1.5,Linux x86_64,59.52380952,6691931c2c63981b064e1f0c,6691ac1e307be77b81175761,,,,,,,,,,,,,,,,,,,,,,,,,,,,,,,,,,,,,,,,,,,,,,,,,,,,,,,,,,,,725.3862,731.5528,0.207947908,-0.161930678,1.0,0.0,0.0,0.1506,compass,0.0,17.0,17.0,12.0,1.0,SoundStimuli/UnbreakMyHeart_ToniBraxton_Original5S.wav,,,,,,,,,,,,,,,,,,,,,,,,,,,,,,,,,,,,,,,,,,,,,,,,,,,,,
,,,,,644490,1,2024-07-12_15h21.28.900,experiment,2024.1.5,Linux x86_64,59.52380952,6691931c2c63981b064e1f0c,6691ac1e307be77b81175761,,,,,,,,,,,,,,,,,,,,,,,,,,,,,,,,,,,,,,,,,,,,,,,,,,,,,,,,,,,,731.5823,738.4188,0.204955829,-0.230945163,1.0,0.0,0.0,0.8335,compass,0.0,18.0,18.0,16.0,1.0,SoundStimuli/ItsAllInTheGame_TommyEdwards_Cover5S.wav,,,,,,,,,,,,,,,,,,,,,,,,,,,,,,,,,,,,,,,,,,,,,,,,,,,,,
,,,,,644490,1,2024-07-12_15h21.28.900,experiment,2024.1.5,Linux x86_64,59.52380952,6691931c2c63981b064e1f0c,6691ac1e307be77b81175761,,,,,,,,,,,,,,,,,,,,,,,,,,,,,,,,,,,,,,,,,,,,,,,,,,,,,,,,,,,,738.4499,744.5842,0.176196628,-0.2245506,1.0,0.0,0.0,0.1327,compass,0.0,19.0,19.0,6.0,1.0,SoundStimuli/SaveYourTears_TheWeekndArianaGrande_Cover5S.wav,,,,,,,,,,,,,,,,,,,,,,,,,,,,,,,,,,,,,,,,,,,,,,,,,,,,,
,,,,,644490,1,2024-07-12_15h21.28.900,experiment,2024.1.5,Linux x86_64,59.52380952,6691931c2c63981b064e1f0c,6691ac1e307be77b81175761,,,,,,,,,,,,,,,,,,,,,,,,,,,,,,,,,,,,,,,,,,,,,,,,,,,,,,,,,,,,744.6164,753.4673,0.233809747,-0.1362559,1.0,0.0,0.0,2.85,compass,0.0,20.0,20.0,32.0,1.0,SoundStimuli/Dilemma_NellyKellyRowland_Cover5S.wav,,,,,,,,,,,,,,,,,,,,,,,,,,,,,,,,,,,,,,,,,,,,,,,,,,,,,
,,,,,644490,1,2024-07-12_15h21.28.900,experiment,2024.1.5,Linux x86_64,59.52380952,6691931c2c63981b064e1f0c,6691ac1e307be77b81175761,,,,,,,,,,,,,,,,,,,,,,,,,,,,,,,,,,,,,,,,,,,,,,,,,,,,,,,,,,,,753.5022,759.5822,0.188537824,0.012399801,1.0,0.0,0.0,0.0664,compass,0.0,21.0,21.0,11.0,1.0,SoundStimuli/BlurredLines_RobinThicke_Cover5S.wav,,,,,,,,,,,,,,,,,,,,,,,,,,,,,,,,,,,,,,,,,,,,,,,,,,,,,
,,,,,644490,1,2024-07-12_15h21.28.900,experiment,2024.1.5,Linux x86_64,59.52380952,6691931c2c63981b064e1f0c,6691ac1e307be77b81175761,,,,,,,,,,,,,,,,,,,,,,,,,,,,,,,,,,,,,,,,,,,,,,,,,,,,,,,,,,,,759.6119,768.315,0.188721833,-0.014772316,1.0,0.0,0.0,2.6992,compass,0.0,22.0,22.0,34.0,1.0,SoundStimuli/Irreplaceable_Beyonce_Cover5S.wav,,,,,,,,,,,,,,,,,,,,,,,,,,,,,,,,,,,,,,,,,,,,,,,,,,,,,
,,,,,644490,1,2024-07-12_15h21.28.900,experiment,2024.1.5,Linux x86_64,59.52380952,6691931c2c63981b064e1f0c,6691ac1e307be77b81175761,,,,,,,,,,,,,,,,,,,,,,,,,,,,,,,,,,,,,,,,,,,,,,,,,,,,,,,,,,,,768.3472,780.8645,0.190732151,0.035789122,1.0,0.0,0.0,6.5007,compass,0.0,23.0,23.0,0.0,1.0,SoundStimuli/GimmeShelter_RollingStones_Original5S.wav,,,,,,,,,,,,,,,,,,,,,,,,,,,,,,,,,,,,,,,,,,,,,,,,,,,,,
,,,,,644490,1,2024-07-12_15h21.28.900,experiment,2024.1.5,Linux x86_64,59.52380952,6691931c2c63981b064e1f0c,6691ac1e307be77b81175761,,,,,,,,,,,,,,,,,,,,,,,,,,,,,,,,,,,,,,,,,,,,,,,,,,,,,,,,,,,,780.9053,787.5637,0.255680678,0.312866409,1.0,0.0,0.0,0.651,compass,0.0,24.0,24.0,31.0,1.0,SoundStimuli/TossinAndTurnin_BobbyLewis_Original5S.wav,,,,,,,,,,,,,,,,,,,,,,,,,,,,,,,,,,,,,,,,,,,,,,,,,,,,,
,,,,,644490,1,2024-07-12_15h21.28.900,experiment,2024.1.5,Linux x86_64,59.52380952,6691931c2c63981b064e1f0c,6691ac1e307be77b81175761,,,,,,,,,,,,,,,,,,,,,,,,,,,,,,,,,,,,,,,,,,,,,,,,,,,,,,,,,,,,787.5959,796.0792,0.218810131,0.200598681,1.0,0.0,0.0,2.4648,compass,0.0,25.0,25.0,15.0,1.0,SoundStimuli/CrazyInLove_BeyonceFtJayZ_Cover5S.wav,,,,,,,,,,,,,,,,,,,,,,,,,,,,,,,,,,,,,,,,,,,,,,,,,,,,,
,,,,,644490,1,2024-07-12_15h21.28.900,experiment,2024.1.5,Linux x86_64,59.52380952,6691931c2c63981b064e1f0c,6691ac1e307be77b81175761,,,,,,,,,,,,,,,,,,,,,,,,,,,,,,,,,,,,,,,,,,,,,,,,,,,,,,,,,,,,796.1138,806.7436,-0.521935216,0.436892933,1.0,0.0,0.0,2.2669,compass,0.0,26.0,26.0,28.0,1.0,SoundStimuli/IWantToHoldYourHand_TheBeatles_Original5S.wav,,,,,,,,,,,,,,,,,,,,,,,,,,,,,,,,,,,,,,,,,,,,,,,,,,,,,
,,,,,644490,1,2024-07-12_15h21.28.900,experiment,2024.1.5,Linux x86_64,59.52380952,6691931c2c63981b064e1f0c,6691ac1e307be77b81175761,,,,,,,,,,,,,,,,,,,,,,,,,,,,,,,,,,,,,,,,,,,,,,,,,,,,,,,,,,,,806.7829,812.8096,0.219851459,-0.261795327,1.0,0.0,0.0,0.0164,compass,0.0,27.0,27.0,29.0,1.0,SoundStimuli/BetteDavisEyes_KimCarnes_Original5S.wav,,,,,,,,,,,,,,,,,,,,,,,,,,,,,,,,,,,,,,,,,,,,,,,,,,,,,
,,,,,644490,1,2024-07-12_15h21.28.900,experiment,2024.1.5,Linux x86_64,59.52380952,6691931c2c63981b064e1f0c,6691ac1e307be77b81175761,,,,,,,,,,,,,,,,,,,,,,,,,,,,,,,,,,,,,,,,,,,,,,,,,,,,,,,,,,,,812.8446,819.0249,0.229511402,0.044306776,1.0,0.0,0.0,0.1661,compass,0.0,28.0,28.0,27.0,1.0,SoundStimuli/EyeOfTheTiger_Survivor_Cover5S.wav,,,,,,,,,,,,,,,,,,,,,,,,,,,,,,,,,,,,,,,,,,,,,,,,,,,,,
,,,,,644490,1,2024-07-12_15h21.28.900,experiment,2024.1.5,Linux x86_64,59.52380952,6691931c2c63981b064e1f0c,6691ac1e307be77b81175761,,,,,,,,,,,,,,,,,,,,,,,,,,,,,,,,,,,,,,,,,,,,,,,,,,,,,,,,,,,,819.0602,826.3576,0.229511402,0.044306776,1.0,0.0,0.0,1.2836,compass,0.0,29.0,29.0,30.0,1.0,SoundStimuli/SomebodyThatIUsedtoKnow_Gotye_Original5S.wav,,,,,,,,,,,,,,,,,,,,,,,,,,,,,,,,,,,,,,,,,,,,,,,,,,,,,
,,,,,644490,1,2024-07-12_15h21.28.900,experiment,2024.1.5,Linux x86_64,59.52380952,6691931c2c63981b064e1f0c,6691ac1e307be77b81175761,,,,,,,,,,,,,,,,,,,,,,,,,,,,,,,,,,,,,,,,,,,,,,,,,,,,,,,,,,,,826.395,835.1729,0.289694892,0.302784545,1.0,0.0,0.0,2.7665,compass,0.0,30.0,30.0,17.0,1.0,SoundStimuli/IWannaDanceWithSomebody_WhitneyHouston_Original5S.wav,,,,,,,,,,,,,,,,,,,,,,,,,,,,,,,,,,,,,,,,,,,,,,,,,,,,,
,,,,,644490,1,2024-07-12_15h21.28.900,experiment,2024.1.5,Linux x86_64,59.52380952,6691931c2c63981b064e1f0c,6691ac1e307be77b81175761,,,,,,,,,,,,,,,,,,,,,,,,,,,,,,,,,,,,,,,,,,,,,,,,,,,,,,,,,,,,835.2062,841.3905,0.289901733,0.301957109,1.0,0.0,0.0,0.1683,compass,0.0,31.0,31.0,1.0,1.0,SoundStimuli/Smooth_SantanaRobThomas_Original5S.wav,,,,,,,,,,,,,,,,,,,,,,,,,,,,,,,,,,,,,,,,,,,,,,,,,,,,,
,,,,,644490,1,2024-07-12_15h21.28.900,experiment,2024.1.5,Linux x86_64,59.52380952,6691931c2c63981b064e1f0c,6691ac1e307be77b81175761,,,,,,,,,,,,,,,,,,,,,,,,,,,,,,,,,,,,,,,,,,,,,,,,,,,,,,,,,,,,841.4236,847.888,0.284615637,-0.097993526,1.0,0.0,0.0,0.4496,compass,0.0,32.0,32.0,25.0,1.0,SoundStimuli/IllMakeLoveToYou_BoyzIIMen_Cover5S.wav,,,,,,,,,,,,,,,,,,,,,,,,,,,,,,,,,,,,,,,,,,,,,,,,,,,,,
,,,,,644490,1,2024-07-12_15h21.28.900,experiment,2024.1.5,Linux x86_64,59.52380952,6691931c2c63981b064e1f0c,6691ac1e307be77b81175761,,,,,,,,,,,,,,,,,,,,,,,,,,,,,,,,,,,,,,,,,,,,,,,,,,,,,,,,,,,,847.9213,856.6547,0.291368838,0.312050925,1.0,0.0,0.0,2.7176,compass,0.0,33.0,33.0,22.0,1.0,SoundStimuli/Happy_PharellWilliams_Original5S.wav,,,,,,,,,,,,,,,,,,,,,,,,,,,,,,,,,,,,,,,,,,,,,,,,,,,,,
,,,,,644490,1,2024-07-12_15h21.28.900,experiment,2024.1.5,Linux x86_64,59.52380952,6691931c2c63981b064e1f0c,6691ac1e307be77b81175761,,,,,,,,,,,,,,,,,,,,,,,,,,,,,,,,,,,,,,,,,,,,,,,,,,,,,,,,,,,,856.6876,863.8716,0.311326204,-0.032183838,1.0,0.0,0.0,1.1692,compass,0.0,34.0,34.0,7.0,1.0,SoundStimuli/MackTheKnife_BobbyDarin_Cover5S.wav,,,,,,,,,,,,,,,,,,,,,,,,,,,,,,,,,,,,,,,,,,,,,,,,,,,,,
,,,,,644490,1,2024-07-12_15h21.28.900,experiment,2024.1.5,Linux x86_64,59.52380952,6691931c2c63981b064e1f0c,6691ac1e307be77b81175761,,,,,,,,,,,,,,,,,,,,,,,,,,,,,,,,,,,,,,,,,,,,,,,,,,,,,,,,,,,,,,,,,,,,,,,,,,,863.872,865.8352,space,1.9417,,865.8353,877.7019,right,11.8544,,0.0,1.0,1.0,1.0,1.0,block_order/blockD.xlsx,,,,,,,,,,,,,,,,,,,,,,,,,,,,,,,,,,,,,
,,,,,644490,1,2024-07-12_15h21.28.900,experiment,2024.1.5,Linux x86_64,59.52380952,6691931c2c63981b064e1f0c,6691ac1e307be77b81175761,,,,,,,,,,,,,,,,,,,,,,,,,,,,,,,,,,,,,,,,,,,,,,,,,,,,,,,,,,,,877.7567,884.2673,0.108683607,-0.120590832,1.0,0.0,0.0,0.4982,compass,0.0,0.0,0.0,29.0,1.0,SoundStimuli/OldTownRoad_LilNasX_Cover5S.wav,,,,,,,,,,,,,,,,,,,,,,,,,,,,,,,,,,,,,,,,,,,,,,,,,,,,,
,,,,,644490,1,2024-07-12_15h21.28.900,experiment,2024.1.5,Linux x86_64,59.52380952,6691931c2c63981b064e1f0c,6691ac1e307be77b81175761,,,,,,,,,,,,,,,,,,,,,,,,,,,,,,,,,,,,,,,,,,,,,,,,,,,,,,,,,,,,884.2964,892.7655,0.104908696,0.286621108,1.0,0.0,0.0,2.4655,compass,0.0,1.0,1.0,4.0,1.0,SoundStimuli/GetUrFreakOn_MissyElliot_Cover5S.wav,,,,,,,,,,,,,,,,,,,,,,,,,,,,,,,,,,,,,,,,,,,,,,,,,,,,,
,,,,,644490,1,2024-07-12_15h21.28.900,experiment,2024.1.5,Linux x86_64,59.52380952,6691931c2c63981b064e1f0c,6691ac1e307be77b81175761,,,,,,,,,,,,,,,,,,,,,,,,,,,,,,,,,,,,,,,,,,,,,,,,,,,,,,,,,,,,892.7993,903.4976,0.141733014,0.280144204,1.0,0.0,0.0,4.6832,compass,0.0,2.0,2.0,28.0,1.0,SoundStimuli/ComeAndGetYourLove_Redbone_Cover5S.wav,,,,,,,,,,,,,,,,,,,,,,,,,,,,,,,,,,,,,,,,,,,,,,,,,,,,,
,,,,,644490,1,2024-07-12_15h21.28.900,experiment,2024.1.5,Linux x86_64,59.52380952,6691931c2c63981b064e1f0c,6691ac1e307be77b81175761,,,,,,,,,,,,,,,,,,,,,,,,,,,,,,,,,,,,,,,,,,,,,,,,,,,,,,,,,,,,903.532,909.9468,0.195307527,-0.070866338,1.0,0.0,0.0,0.3999,compass,0.0,3.0,3.0,1.0,1.0,SoundStimuli/Stronger_KanyeWest_Cover5S.wav,,,,,,,,,,,,,,,,,,,,,,,,,,,,,,,,,,,,,,,,,,,,,,,,,,,,,
,,,,,644490,1,2024-07-12_15h21.28.900,experiment,2024.1.5,Linux x86_64,59.52380952,6691931c2c63981b064e1f0c,6691ac1e307be77b81175761,,,,,,,,,,,,,,,,,,,,,,,,,,,,,,,,,,,,,,,,,,,,,,,,,,,,,,,,,,,,909.9762,919.3626,0.116381384,0.249259779,1.0,0.0,0.0,3.3824,compass,0.0,4.0,4.0,6.0,1.0,SoundStimuli/Levitating_DuaLipa_Original5S.wav,,,,,,,,,,,,,,,,,,,,,,,,,,,,,,,,,,,,,,,,,,,,,,,,,,,,,
,,,,,644490,1,2024-07-12_15h21.28.900,experiment,2024.1.5,Linux x86_64,59.52380952,6691931c2c63981b064e1f0c,6691ac1e307be77b81175761,,,,,,,,,,,,,,,,,,,,,,,,,,,,,,,,,,,,,,,,,,,,,,,,,,,,,,,,,,,,919.3979,925.5278,-0.130512548,-0.206565292,1.0,0.0,0.0,0.1161,compass,0.0,5.0,5.0,18.0,1.0,SoundStimuli/AnotherOneBitesTheDust_Queen_Cover5S.wav,,,,,,,,,,,,,,,,,,,,,,,,,,,,,,,,,,,,,,,,,,,,,,,,,,,,,
,,,,,644490,1,2024-07-12_15h21.28.900,experiment,2024.1.5,Linux x86_64,59.52380952,6691931c2c63981b064e1f0c,6691ac1e307be77b81175761,,,,,,,,,,,,,,,,,,,,,,,,,,,,,,,,,,,,,,,,,,,,,,,,,,,,,,,,,,,,925.5389,931.762,-0.130202286,-0.206565292,1.0,0.0,0.0,0.218,compass,0.0,6.0,6.0,2.0,1.0,SoundStimuli/Mood_24kGoldnianndior_Original5S.wav,,,,,,,,,,,,,,,,,,,,,,,,,,,,,,,,,,,,,,,,,,,,,,,,,,,,,
,,,,,644490,1,2024-07-12_15h21.28.900,experiment,2024.1.5,Linux x86_64,59.52380952,6691931c2c63981b064e1f0c,6691ac1e307be77b81175761,,,,,,,,,,,,,,,,,,,,,,,,,,,,,,,,,,,,,,,,,,,,,,,,,,,,,,,,,,,,931.7961,938.9265,-0.11946835,0.171503533,1.0,0.0,0.0,1.1171,compass,0.0,7.0,7.0,16.0,1.0,SoundStimuli/BohemianRhapsody_Queen_Cover5S.wav,,,,,,,,,,,,,,,,,,,,,,,,,,,,,,,,,,,,,,,,,,,,,,,,,,,,,
,,,,,644490,1,2024-07-12_15h21.28.900,experiment,2024.1.5,Linux x86_64,59.52380952,6691931c2c63981b064e1f0c,6691ac1e307be77b81175761,,,,,,,,,,,,,,,,,,,,,,,,,,,,,,,,,,,,,,,,,,,,,,,,,,,,,,,,,,,,938.9612,945.4256,0.04054232,-0.111984705,1.0,0.0,0.0,0.4495,compass,0.0,8.0,8.0,30.0,1.0,SoundStimuli/PokerFace_LadyGaga_Cover5S.wav,,,,,,,,,,,,,,,,,,,,,,,,,,,,,,,,,,,,,,,,,,,,,,,,,,,,,
,,,,,644490,1,2024-07-12_15h21.28.900,experiment,2024.1.5,Linux x86_64,59.52380952,6691931c2c63981b064e1f0c,6691ac1e307be77b81175761,,,,,,,,,,,,,,,,,,,,,,,,,,,,,,,,,,,,,,,,,,,,,,,,,,,,,,,,,,,,945.4612,956.7243,0.191132044,0.128693107,1.0,0.0,0.0,5.2499,compass,0.0,9.0,9.0,11.0,1.0,SoundStimuli/Superstition_StevieWonder_Original5S.wav,,,,,,,,,,,,,,,,,,,,,,,,,,,,,,,,,,,,,,,,,,,,,,,,,,,,,
,,,,,644490,1,2024-07-12_15h21.28.900,experiment,2024.1.5,Linux x86_64,59.52380952,6691931c2c63981b064e1f0c,6691ac1e307be77b81175761,,,,,,,,,,,,,,,,,,,,,,,,,,,,,,,,,,,,,,,,,,,,,,,,,,,,,,,,,,,,956.7578,962.9906,0.177320466,-0.150854888,1.0,0.0,0.0,0.2176,compass,0.0,10.0,10.0,32.0,1.0,SoundStimuli/HeatWaves_GlassAnimals_Cover5S.wav,,,,,,,,,,,,,,,,,,,,,,,,,,,,,,,,,,,,,,,,,,,,,,,,,,,,,
,,,,,644490,1,2024-07-12_15h21.28.900,experiment,2024.1.5,Linux x86_64,59.52380952,6691931c2c63981b064e1f0c,6691ac1e307be77b81175761,,,,,,,,,,,,,,,,,,,,,,,,,,,,,,,,,,,,,,,,,,,,,,,,,,,,,,,,,,,,963.0243,973.4069,-0.061947349,-0.155272703,1.0,0.0,0.0,4.3674,compass,0.0,11.0,11.0,8.0,1.0,SoundStimuli/LikeAPrayer_Madonna_Cover5S.wav,,,,,,,,,,,,,,,,,,,,,,,,,,,,,,,,,,,,,,,,,,,,,,,,,,,,,
,,,,,644490,1,2024-07-12_15h21.28.900,experiment,2024.1.5,Linux x86_64,59.52380952,6691931c2c63981b064e1f0c,6691ac1e307be77b81175761,,,,,,,,,,,,,,,,,,,,,,,,,,,,,,,,,,,,,,,,,,,,,,,,,,,,,,,,,,,,973.4378,980.6545,0.095206593,0.203790651,1.0,0.0,0.0,1.2001,compass,0.0,12.0,12.0,25.0,1.0,SoundStimuli/Respect_ArethaFranklin_Cover5S.wav,,,,,,,,,,,,,,,,,,,,,,,,,,,,,,,,,,,,,,,,,,,,,,,,,,,,,
,,,,,644490,1,2024-07-12_15h21.28.900,experiment,2024.1.5,Linux x86_64,59.52380952,6691931c2c63981b064e1f0c,6691ac1e307be77b81175761,,,,,,,,,,,,,,,,,,,,,,,,,,,,,,,,,,,,,,,,,,,,,,,,,,,,,,,,,,,,980.6866,990.5201,0.176452298,0.262688192,1.0,0.0,0.0,3.8169,compass,0.0,13.0,13.0,24.0,1.0,SoundStimuli/UptownFunk_MarkRonson_Cover5S.wav,,,,,,,,,,,,,,,,,,,,,,,,,,,,,,,,,,,,,,,,,,,,,,,,,,,,,
,,,,,644490,1,2024-07-12_15h21.28.900,experiment,2024.1.5,Linux x86_64,59.52380952,6691931c2c63981b064e1f0c,6691ac1e307be77b81175761,,,,,,,,,,,,,,,,,,,,,,,,,,,,,,,,,,,,,,,,,,,,,,,,,,,,,,,,,,,,990.5506,1000.1217,-0.101035563,-0.163817455,1.0,0.0,0.0,3.5668,compass,0.0,14.0,14.0,3.0,1.0,SoundStimuli/NoScrubs_TLC_Cover5S.wav,,,,,,,,,,,,,,,,,,,,,,,,,,,,,,,,,,,,,,,,,,,,,,,,,,,,,
,,,,,644490,1,2024-07-12_15h21.28.900,experiment,2024.1.5,Linux x86_64,59.52380952,6691931c2c63981b064e1f0c,6691ac1e307be77b81175761,,,,,,,,,,,,,,,,,,,,,,,,,,,,,,,,,,,,,,,,,,,,,,,,,,,,,,,,,,,,1000.1543,1011.0175,0.166265869,-0.093805723,1.0,0.0,0.0,4.8492,compass,0.0,15.0,15.0,19.0,1.0,SoundStimuli/LetsGetItOn_MarvinGaye_Original5S.wav,,,,,,,,,,,,,,,,,,,,,,,,,,,,,,,,,,,,,,,,,,,,,,,,,,,,,
,,,,,644490,1,2024-07-12_15h21.28.900,experiment,2024.1.5,Linux x86_64,59.52380952,6691931c2c63981b064e1f0c,6691ac1e307be77b81175761,,,,,,,,,,,,,,,,,,,,,,,,,,,,,,,,,,,,,,,,,,,,,,,,,,,,,,,,,,,,1011.0555,1022.0013,0.213997509,0.30234974,1.0,0.0,0.0,4.9339,compass,0.0,16.0,16.0,12.0,1.0,SoundStimuli/IWillAlwaysLoveYou_WhitneyHouston_Original5S.wav,,,,,,,,,,,,,,,,,,,,,,,,,,,,,,,,,,,,,,,,,,,,,,,,,,,,,
,,,,,644490,1,2024-07-12_15h21.28.900,experiment,2024.1.5,Linux x86_64,59.52380952,6691931c2c63981b064e1f0c,6691ac1e307be77b81175761,,,,,,,,,,,,,,,,,,,,,,,,,,,,,,,,,,,,,,,,,,,,,,,,,,,,,,,,,,,,1022.0354,1032.414,0.207434308,-0.009730756,1.0,0.0,0.0,4.3661,compass,0.0,17.0,17.0,5.0,1.0,SoundStimuli/MyGirl_TheTemptations_Cover5S.wav,,,,,,,,,,,,,,,,,,,,,,,,,,,,,,,,,,,,,,,,,,,,,,,,,,,,,
,,,,,644490,1,2024-07-12_15h21.28.900,experiment,2024.1.5,Linux x86_64,59.52380952,6691931c2c63981b064e1f0c,6691ac1e307be77b81175761,,,,,,,,,,,,,,,,,,,,,,,,,,,,,,,,,,,,,,,,,,,,,,,,,,,,,,,,,,,,1032.4435,1038.9808,-0.182144674,-0.317854535,1.0,0.0,0.0,0.5334,compass,0.0,18.0,18.0,13.0,1.0,SoundStimuli/GodOnlyKnows_TheBeachBoys_Original5S.wav,,,,,,,,,,,,,,,,,,,,,,,,,,,,,,,,,,,,,,,,,,,,,,,,,,,,,
,,,,,644490,1,2024-07-12_15h21.28.900,experiment,2024.1.5,Linux x86_64,59.52380952,6691931c2c63981b064e1f0c,6691ac1e307be77b81175761,,,,,,,,,,,,,,,,,,,,,,,,,,,,,,,,,,,,,,,,,,,,,,,,,,,,,,,,,,,,1039.0149,1047.0985,0.136926948,0.1836432,1.0,0.0,0.0,2.0695,compass,0.0,19.0,19.0,20.0,1.0,SoundStimuli/HeyYa_Outkast_Original5S.wav,,,,,,,,,,,,,,,,,,,,,,,,,,,,,,,,,,,,,,,,,,,,,,,,,,,,,
,,,,,644490,1,2024-07-12_15h21.28.900,experiment,2024.1.5,Linux x86_64,59.52380952,6691931c2c63981b064e1f0c,6691ac1e307be77b81175761,,,,,,,,,,,,,,,,,,,,,,,,,,,,,,,,,,,,,,,,,,,,,,,,,,,,,,,,,,,,1047.1467,1053.478,0.268133432,0.292995354,1.0,0.0,0.0,0.3159,compass,0.0,20.0,20.0,15.0,1.0,SoundStimuli/TikTok_Kesha_Original5S.wav,,,,,,,,,,,,,,,,,,,,,,,,,,,,,,,,,,,,,,,,,,,,,,,,,,,,,
,,,,,644490,1,2024-07-12_15h21.28.900,experiment,2024.1.5,Linux x86_64,59.52380952,6691931c2c63981b064e1f0c,6691ac1e307be77b81175761,,,,,,,,,,,,,,,,,,,,,,,,,,,,,,,,,,,,,,,,,,,,,,,,,,,,,,,,,,,,1053.5063,1064.3455,0.304582836,-0.045317473,1.0,0.0,0.0,4.8347,compass,0.0,21.0,21.0,9.0,1.0,SoundStimuli/Despacito_LuisFonsiDaddyYankee_Original5S.wav,,,,,,,,,,,,,,,,,,,,,,,,,,,,,,,,,,,,,,,,,,,,,,,,,,,,,
,,,,,644490,1,2024-07-12_15h21.28.900,experiment,2024.1.5,Linux x86_64,59.52380952,6691931c2c63981b064e1f0c,6691ac1e307be77b81175761,,,,,,,,,,,,,,,,,,,,,,,,,,,,,,,,,,,,,,,,,,,,,,,,,,,,,,,,,,,,1064.3788,1073.2423,0.304582836,-0.045317473,1.0,0.0,0.0,2.8494,compass,0.0,22.0,22.0,23.0,1.0,SoundStimuli/StrawberryFieldsForever_TheBeatles_Cover5S.wav,,,,,,,,,,,,,,,,,,,,,,,,,,,,,,,,,,,,,,,,,,,,,,,,,,,,,
,,,,,644490,1,2024-07-12_15h21.28.900,experiment,2024.1.5,Linux x86_64,59.52380952,6691931c2c63981b064e1f0c,6691ac1e307be77b81175761,,,,,,,,,,,,,,,,,,,,,,,,,,,,,,,,,,,,,,,,,,,,,,,,,,,,,,,,,,,,1073.2792,1084.2748,0.166175447,-0.195840172,1.0,0.0,0.0,4.9833,compass,0.0,23.0,23.0,17.0,1.0,SoundStimuli/Fallin_AliciaKeys_Cover5S.wav,,,,,,,,,,,,,,,,,,,,,,,,,,,,,,,,,,,,,,,,,,,,,,,,,,,,,
,,,,,644490,1,2024-07-12_15h21.28.900,experiment,2024.1.5,Linux x86_64,59.52380952,6691931c2c63981b064e1f0c,6691ac1e307be77b81175761,,,,,,,,,,,,,,,,,,,,,,,,,,,,,,,,,,,,,,,,,,,,,,,,,,,,,,,,,,,,1084.3127,1094.8901,0.223234502,0.254477494,1.0,0.0,0.0,4.5654,compass,0.0,24.0,24.0,26.0,1.0,SoundStimuli/LivinOnAPrayer_BonJovi_Original5S.wav,,,,,,,,,,,,,,,,,,,,,,,,,,,,,,,,,,,,,,,,,,,,,,,,,,,,,
,,,,,644490,1,2024-07-12_15h21.28.900,experiment,2024.1.5,Linux x86_64,59.52380952,6691931c2c63981b064e1f0c,6691ac1e307be77b81175761,,,,,,,,,,,,,,,,,,,,,,,,,,,,,,,,,,,,,,,,,,,,,,,,,,,,,,,,,,,,1094.9289,1101.4558,0.223234502,0.254477494,1.0,0.0,0.0,0.5171,compass,0.0,25.0,25.0,0.0,1.0,SoundStimuli/StayinAlive_BeeGees_Cover5S.wav,,,,,,,,,,,,,,,,,,,,,,,,,,,,,,,,,,,,,,,,,,,,,,,,,,,,,
,,,,,644490,1,2024-07-12_15h21.28.900,experiment,2024.1.5,Linux x86_64,59.52380952,6691931c2c63981b064e1f0c,6691ac1e307be77b81175761,,,,,,,,,,,,,,,,,,,,,,,,,,,,,,,,,,,,,,,,,,,,,,,,,,,,,,,,,,,,1101.488,1112.6547,0.231223099,-0.231667356,1.0,0.0,0.0,5.15,compass,0.0,26.0,26.0,27.0,1.0,SoundStimuli/ShapeofYou_EdSheeran_Cover5S.wav,,,,,,,,,,,,,,,,,,,,,,,,,,,,,,,,,,,,,,,,,,,,,,,,,,,,,
,,,,,644490,1,2024-07-12_15h21.28.900,experiment,2024.1.5,Linux x86_64,59.52380952,6691931c2c63981b064e1f0c,6691ac1e307be77b81175761,,,,,,,,,,,,,,,,,,,,,,,,,,,,,,,,,,,,,,,,,,,,,,,,,,,,,,,,,,,,1112.6871,1118.9035,-0.196304265,-0.207945308,1.0,0.0,0.0,0.1996,compass,0.0,27.0,27.0,10.0,1.0,SoundStimuli/BadDay_DanielPowter_Original5S.wav,,,,,,,,,,,,,,,,,,,,,,,,,,,,,,,,,,,,,,,,,,,,,,,,,,,,,
,,,,,644490,1,2024-07-12_15h21.28.900,experiment,2024.1.5,Linux x86_64,59.52380952,6691931c2c63981b064e1f0c,6691ac1e307be77b81175761,,,,,,,,,,,,,,,,,,,,,,,,,,,,,,,,,,,,,,,,,,,,,,,,,,,,,,,,,,,,1118.9355,1124.9686,0.117974175,-0.17300432,1.0,0.0,0.0,0.0165,compass,0.0,28.0,28.0,31.0,1.0,SoundStimuli/TheBattleOfNewOrleans_JohnnyHorton_Original5S.wav,,,,,,,,,,,,,,,,,,,,,,,,,,,,,,,,,,,,,,,,,,,,,,,,,,,,,
,,,,,644490,1,2024-07-12_15h21.28.900,experiment,2024.1.5,Linux x86_64,59.52380952,6691931c2c63981b064e1f0c,6691ac1e307be77b81175761,,,,,,,,,,,,,,,,,,,,,,,,,,,,,,,,,,,,,,,,,,,,,,,,,,,,,,,,,,,,1125.0006,1136.5846,0.118387858,-0.170426093,1.0,0.0,0.0,5.5831,compass,0.0,29.0,29.0,7.0,1.0,SoundStimuli/NoOne_AliciaKeys_Original5S.wav,,,,,,,,,,,,,,,,,,,,,,,,,,,,,,,,,,,,,,,,,,,,,,,,,,,,,
,,,,,644490,1,2024-07-12_15h21.28.900,experiment,2024.1.5,Linux x86_64,59.52380952,6691931c2c63981b064e1f0c,6691ac1e307be77b81175761,,,,,,,,,,,,,,,,,,,,,,,,,,,,,,,,,,,,,,,,,,,,,,,,,,,,,,,,,,,,1136.6178,1144.1005,0.157374629,-0.163041913,1.0,0.0,0.0,1.4668,compass,0.0,30.0,30.0,34.0,1.0,SoundStimuli/AChangeIsGonnaCome_SamCooke_Original5S.wav,,,,,,,,,,,,,,,,,,,,,,,,,,,,,,,,,,,,,,,,,,,,,,,,,,,,,
,,,,,644490,1,2024-07-12_15h21.28.900,experiment,2024.1.5,Linux x86_64,59.52380952,6691931c2c63981b064e1f0c,6691ac1e307be77b81175761,,,,,,,,,,,,,,,,,,,,,,,,,,,,,,,,,,,,,,,,,,,,,,,,,,,,,,,,,,,,1144.132,1152.2327,0.118343777,0.244565384,1.0,0.0,0.0,2.083,compass,0.0,31.0,31.0,21.0,1.0,SoundStimuli/GoodGollyMissMolly_LittleRichard_Original5S.wav,,,,,,,,,,,,,,,,,,,,,,,,,,,,,,,,,,,,,,,,,,,,,,,,,,,,,
,,,,,644490,1,2024-07-12_15h21.28.900,experiment,2024.1.5,Linux x86_64,59.52380952,6691931c2c63981b064e1f0c,6691ac1e307be77b81175761,,,,,,,,,,,,,,,,,,,,,,,,,,,,,,,,,,,,,,,,,,,,,,,,,,,,,,,,,,,,1152.2678,1160.8155,0.21322711,-0.191922449,1.0,0.0,0.0,2.5333,compass,0.0,32.0,32.0,33.0,1.0,SoundStimuli/StandByMe_BenEKing_Original5S.wav,,,,,,,,,,,,,,,,,,,,,,,,,,,,,,,,,,,,,,,,,,,,,,,,,,,,,
,,,,,644490,1,2024-07-12_15h21.28.900,experiment,2024.1.5,Linux x86_64,59.52380952,6691931c2c63981b064e1f0c,6691ac1e307be77b81175761,,,,,,,,,,,,,,,,,,,,,,,,,,,,,,,,,,,,,,,,,,,,,,,,,,,,,,,,,,,,1160.8495,1167.8142,0.240902258,-0.108551421,1.0,0.0,0.0,0.9502,compass,0.0,33.0,33.0,22.0,1.0,SoundStimuli/RockWithYou_MichaelJackson_Cover5S.wav,,,,,,,,,,,,,,,,,,,,,,,,,,,,,,,,,,,,,,,,,,,,,,,,,,,,,
,,,,,644490,1,2024-07-12_15h21.28.900,experiment,2024.1.5,Linux x86_64,59.52380952,6691931c2c63981b064e1f0c,6691ac1e307be77b81175761,,,,,,,,,,,,,,,,,,,,,,,,,,,,,,,,,,,,,,,,,,,,,,,,,,,,,,,,,,,,1167.8499,1174.5293,0.291612074,0.269059923,1.0,0.0,0.0,0.6669,compass,0.0,34.0,34.0,14.0,1.0,SoundStimuli/BlindingLights_TheWeeknd_Cover5S.wav,,,,,,,,,,,,,,,,,,,,,,,,,,,,,,,,,,,,,,,,,,,,,,,,,,,,,
,,,,,644490,1,2024-07-12_15h21.28.900,experiment,2024.1.5,Linux x86_64,59.52380952,6691931c2c63981b064e1f0c,6691ac1e307be77b81175761,,,,,,,,,,,,,,,,,,,,,,,,,,,,,,,,,,,,,,,,,,,,,,,,,,,,,,,,,,,,,,,,,,,,,,,,,,,1174.5297,1175.9953,space,1.4512,,1175.9955,1178.5285,right,2.5156,,0.0,2.0,2.0,2.0,1.0,block_order/blockC.xlsx,,,,,,,,,,,,,,,,,,,,,,,,,,,,,,,,,,,,,
,,,,,644490,1,2024-07-12_15h21.28.900,experiment,2024.1.5,Linux x86_64,59.52380952,6691931c2c63981b064e1f0c,6691ac1e307be77b81175761,,,,,,,,,,,,,,,,,,,,,,,,,,,,,,,,,,,,,,,,,,,,,,,,,,,,,,,,,,,,1178.5822,1187.3295,-0.125294777,-0.083205103,1.0,0.0,0.0,2.7349,compass,0.0,0.0,0.0,33.0,1.0,SoundStimuli/TheBoyIsMine_BrandyMonica_Cover5S.wav,,,,,,,,,,,,,,,,,,,,,,,,,,,,,,,,,,,,,,,,,,,,,,,,,,,,,
,,,,,644490,1,2024-07-12_15h21.28.900,experiment,2024.1.5,Linux x86_64,59.52380952,6691931c2c63981b064e1f0c,6691ac1e307be77b81175761,,,,,,,,,,,,,,,,,,,,,,,,,,,,,,,,,,,,,,,,,,,,,,,,,,,,,,,,,,,,1187.3664,1193.4272,-0.104796346,-0.12480887,1.0,0.0,0.0,0.0494,compass,0.0,1.0,1.0,14.0,1.0,SoundStimuli/LikeARollingStone_BobDylan_Cover5S.wav,,,,,,,,,,,,,,,,,,,,,,,,,,,,,,,,,,,,,,,,,,,,,,,,,,,,,
,,,,,644490,1,2024-07-12_15h21.28.900,experiment,2024.1.5,Linux x86_64,59.52380952,6691931c2c63981b064e1f0c,6691ac1e307be77b81175761,,,,,,,,,,,,,,,,,,,,,,,,,,,,,,,,,,,,,,,,,,,,,,,,,,,,,,,,,,,,1193.4591,1202.2431,0.188327478,-0.157830811,1.0,0.0,0.0,2.7827,compass,0.0,2.0,2.0,19.0,1.0,SoundStimuli/YouLightUpMyLife_DebbyBoone_Cover5S.wav,,,,,,,,,,,,,,,,,,,,,,,,,,,,,,,,,,,,,,,,,,,,,,,,,,,,,
,,,,,644490,1,2024-07-12_15h21.28.900,experiment,2024.1.5,Linux x86_64,59.52380952,6691931c2c63981b064e1f0c,6691ac1e307be77b81175761,,,,,,,,,,,,,,,,,,,,,,,,,,,,,,,,,,,,,,,,,,,,,,,,,,,,,,,,,,,,1202.2814,1209.2082,0.188741161,-0.158037652,1.0,0.0,0.0,0.9162,compass,0.0,3.0,3.0,25.0,1.0,SoundStimuli/IllMakeLoveToYou_BoyzIIMen_Original5S.wav,,,,,,,,,,,,,,,,,,,,,,,,,,,,,,,,,,,,,,,,,,,,,,,,,,,,,
,,,,,644490,1,2024-07-12_15h21.28.900,experiment,2024.1.5,Linux x86_64,59.52380952,6691931c2c63981b064e1f0c,6691ac1e307be77b81175761,,,,,,,,,,,,,,,,,,,,,,,,,,,,,,,,,,,,,,,,,,,,,,,,,,,,,,,,,,,,1209.2406,1215.4764,0.18853432,-0.158658176,1.0,0.0,0.0,0.2191,compass,0.0,4.0,4.0,18.0,1.0,SoundStimuli/Weak_SWV_Original5S.wav,,,,,,,,,,,,,,,,,,,,,,,,,,,,,,,,,,,,,,,,,,,,,,,,,,,,,
,,,,,644490,1,2024-07-12_15h21.28.900,experiment,2024.1.5,Linux x86_64,59.52380952,6691931c2c63981b064e1f0c,6691ac1e307be77b81175761,,,,,,,,,,,,,,,,,,,,,,,,,,,,,,,,,,,,,,,,,,,,,,,,,,,,,,,,,,,,1215.5088,1221.5566,0.18853432,-0.158658176,1.0,0.0,0.0,0.0328,compass,0.0,5.0,5.0,17.0,1.0,SoundStimuli/IWannaDanceWithSomebody_WhitneyHouston_Cover5S.wav,,,,,,,,,,,,,,,,,,,,,,,,,,,,,,,,,,,,,,,,,,,,,,,,,,,,,
,,,,,644490,1,2024-07-12_15h21.28.900,experiment,2024.1.5,Linux x86_64,59.52380952,6691931c2c63981b064e1f0c,6691ac1e307be77b81175761,,,,,,,,,,,,,,,,,,,,,,,,,,,,,,,,,,,,,,,,,,,,,,,,,,,,,,,,,,,,1221.5894,1227.7557,0.164068717,0.190183145,1.0,0.0,0.0,0.1655,compass,0.0,6.0,6.0,31.0,1.0,SoundStimuli/TossinAndTurnin_BobbyLewis_Cover5S.wav,,,,,,,,,,,,,,,,,,,,,,,,,,,,,,,,,,,,,,,,,,,,,,,,,,,,,
,,,,,644490,1,2024-07-12_15h21.28.900,experiment,2024.1.5,Linux x86_64,59.52380952,6691931c2c63981b064e1f0c,6691ac1e307be77b81175761,,,,,,,,,,,,,,,,,,,,,,,,,,,,,,,,,,,,,,,,,,,,,,,,,,,,,,,,,,,,1227.7874,1233.9894,0.274052712,0.258182045,1.0,0.0,0.0,0.2011,compass,0.0,7.0,7.0,3.0,1.0,SoundStimuli/PartyRockAnthem_LMFAO_Cover5S.wav,,,,,,,,,,,,,,,,,,,,,,,,,,,,,,,,,,,,,,,,,,,,,,,,,,,,,
,,,,,644490,1,2024-07-12_15h21.28.900,experiment,2024.1.5,Linux x86_64,59.52380952,6691931c2c63981b064e1f0c,6691ac1e307be77b81175761,,,,,,,,,,,,,,,,,,,,,,,,,,,,,,,,,,,,,,,,,,,,,,,,,,,,,,,,,,,,1234.0208,1241.1208,0.274052712,0.258182045,1.0,0.0,0.0,1.0829,compass,0.0,8.0,8.0,1.0,1.0,SoundStimuli/Smooth_SantanaRobThomas_Cover5S.wav,,,,,,,,,,,,,,,,,,,,,,,,,,,,,,,,,,,,,,,,,,,,,,,,,,,,,
,,,,,644490,1,2024-07-12_15h21.28.900,experiment,2024.1.5,Linux x86_64,59.52380952,6691931c2c63981b064e1f0c,6691ac1e307be77b81175761,,,,,,,,,,,,,,,,,,,,,,,,,,,,,,,,,,,,,,,,,,,,,,,,,,,,,,,,,,,,1241.154,1248.17,0.191143912,-0.101533,1.0,0.0,0.0,1.0003,compass,0.0,9.0,9.0,16.0,1.0,SoundStimuli/ItsAllInTheGame_TommyEdwards_Original5S.wav,,,,,,,,,,,,,,,,,,,,,,,,,,,,,,,,,,,,,,,,,,,,,,,,,,,,,
,,,,,644490,1,2024-07-12_15h21.28.900,experiment,2024.1.5,Linux x86_64,59.52380952,6691931c2c63981b064e1f0c,6691ac1e307be77b81175761,,,,,,,,,,,,,,,,,,,,,,,,,,,,,,,,,,,,,,,,,,,,,,,,,,,,,,,,,,,,1248.2044,1261.4517,-0.161741412,-0.192390272,1.0,0.0,0.0,7.2321,compass,0.0,10.0,10.0,2.0,1.0,SoundStimuli/SmellsLikeTeenSpirit_Nirvana_Cover5S.wav,,,,,,,,,,,,,,,,,,,,,,,,,,,,,,,,,,,,,,,,,,,,,,,,,,,,,
,,,,,644490,1,2024-07-12_15h21.28.900,experiment,2024.1.5,Linux x86_64,59.52380952,6691931c2c63981b064e1f0c,6691ac1e307be77b81175761,,,,,,,,,,,,,,,,,,,,,,,,,,,,,,,,,,,,,,,,,,,,,,,,,,,,,,,,,,,,1261.4869,1267.6873,0.077527421,-0.149559021,1.0,0.0,0.0,0.1846,compass,0.0,11.0,11.0,13.0,1.0,SoundStimuli/Perfect_EdSheeran_Original5S.wav,,,,,,,,,,,,,,,,,,,,,,,,,,,,,,,,,,,,,,,,,,,,,,,,,,,,,
,,,,,644490,1,2024-07-12_15h21.28.900,experiment,2024.1.5,Linux x86_64,59.52380952,6691931c2c63981b064e1f0c,6691ac1e307be77b81175761,,,,,,,,,,,,,,,,,,,,,,,,,,,,,,,,,,,,,,,,,,,,,,,,,,,,,,,,,,,,1267.7116,1274.5347,0.306221065,0.310779204,1.0,0.0,0.0,0.8174,compass,0.0,12.0,12.0,22.0,1.0,SoundStimuli/Happy_PharellWilliams_Cover5S.wav,,,,,,,,,,,,,,,,,,,,,,,,,,,,,,,,,,,,,,,,,,,,,,,,,,,,,
,,,,,644490,1,2024-07-12_15h21.28.900,experiment,2024.1.5,Linux x86_64,59.52380952,6691931c2c63981b064e1f0c,6691ac1e307be77b81175761,,,,,,,,,,,,,,,,,,,,,,,,,,,,,,,,,,,,,,,,,,,,,,,,,,,,,,,,,,,,1274.5675,1281.2175,0.225443409,0.320988705,1.0,0.0,0.0,0.635,compass,0.0,13.0,13.0,6.0,1.0,SoundStimuli/SaveYourTears_TheWeekndArianaGrande_Original5S.wav,,,,,,,,,,,,,,,,,,,,,,,,,,,,,,,,,,,,,,,,,,,,,,,,,,,,,
,,,,,644490,1,2024-07-12_15h21.28.900,experiment,2024.1.5,Linux x86_64,59.52380952,6691931c2c63981b064e1f0c,6691ac1e307be77b81175761,,,,,,,,,,,,,,,,,,,,,,,,,,,,,,,,,,,,,,,,,,,,,,,,,,,,,,,,,,,,1281.2508,1290.6485,0.225857092,0.318506467,1.0,0.0,0.0,3.3835,compass,0.0,14.0,14.0,20.0,1.0,SoundStimuli/FlashdanceWhatAFeeling_IreneCara_Cover5S.wav,,,,,,,,,,,,,,,,,,,,,,,,,,,,,,,,,,,,,,,,,,,,,,,,,,,,,
,,,,,644490,1,2024-07-12_15h21.28.900,experiment,2024.1.5,Linux x86_64,59.52380952,6691931c2c63981b064e1f0c,6691ac1e307be77b81175761,,,,,,,,,,,,,,,,,,,,,,,,,,,,,,,,,,,,,,,,,,,,,,,,,,,,,,,,,,,,1290.6845,1296.7643,0.22554683,0.318092742,1.0,0.0,0.0,0.0674,compass,0.0,15.0,15.0,32.0,1.0,SoundStimuli/Dilemma_NellyKellyRowland_Original5S.wav,,,,,,,,,,,,,,,,,,,,,,,,,,,,,,,,,,,,,,,,,,,,,,,,,,,,,
,,,,,644490,1,2024-07-12_15h21.28.900,experiment,2024.1.5,Linux x86_64,59.52380952,6691931c2c63981b064e1f0c,6691ac1e307be77b81175761,,,,,,,,,,,,,,,,,,,,,,,,,,,,,,,,,,,,,,,,,,,,,,,,,,,,,,,,,,,,1296.7968,1303.196,0.264036164,-0.080499381,1.0,0.0,0.0,0.3827,compass,0.0,16.0,16.0,21.0,1.0,SoundStimuli/BridgeOverTroubledWater_SimonAndGarfunkel_Cover5S.wav,,,,,,,,,,,,,,,,,,,,,,,,,,,,,,,,,,,,,,,,,,,,,,,,,,,,,
,,,,,644490,1,2024-07-12_15h21.28.900,experiment,2024.1.5,Linux x86_64,59.52380952,6691931c2c63981b064e1f0c,6691ac1e307be77b81175761,,,,,,,,,,,,,,,,,,,,,,,,,,,,,,,,,,,,,,,,,,,,,,,,,,,,,,,,,,,,1303.2299,1309.6797,0.242499344,-0.288541271,1.0,0.0,0.0,0.4339,compass,0.0,17.0,17.0,28.0,1.0,SoundStimuli/IWantToHoldYourHand_TheBeatles_Cover5S.wav,,,,,,,,,,,,,,,,,,,,,,,,,,,,,,,,,,,,,,,,,,,,,,,,,,,,,
,,,,,644490,1,2024-07-12_15h21.28.900,experiment,2024.1.5,Linux x86_64,59.52380952,6691931c2c63981b064e1f0c,6691ac1e307be77b81175761,,,,,,,,,,,,,,,,,,,,,,,,,,,,,,,,,,,,,,,,,,,,,,,,,,,,,,,,,,,,1309.7119,1318.5609,0.253064982,-0.234015966,1.0,0.0,0.0,2.8312,compass,0.0,18.0,18.0,23.0,1.0,SoundStimuli/IWalkTheLine_JohnnyCash_Cover5S.wav,,,,,,,,,,,,,,,,,,,,,,,,,,,,,,,,,,,,,,,,,,,,,,,,,,,,,
,,,,,644490,1,2024-07-12_15h21.28.900,experiment,2024.1.5,Linux x86_64,59.52380952,6691931c2c63981b064e1f0c,6691ac1e307be77b81175761,,,,,,,,,,,,,,,,,,,,,,,,,,,,,,,,,,,,,,,,,,,,,,,,,,,,,,,,,,,,1318.6021,1325.5767,0.300562541,0.226753857,1.0,0.0,0.0,0.9667,compass,0.0,19.0,19.0,7.0,1.0,SoundStimuli/MackTheKnife_BobbyDarin_Original5S.wav,,,,,,,,,,,,,,,,,,,,,,,,,,,,,,,,,,,,,,,,,,,,,,,,,,,,,
,,,,,644490,1,2024-07-12_15h21.28.900,experiment,2024.1.5,Linux x86_64,59.52380952,6691931c2c63981b064e1f0c,6691ac1e307be77b81175761,,,,,,,,,,,,,,,,,,,,,,,,,,,,,,,,,,,,,,,,,,,,,,,,,,,,,,,,,,,,1325.609,1331.6929,0.300252279,0.224685132,1.0,0.0,0.0,0.0823,compass,0.0,20.0,20.0,10.0,1.0,SoundStimuli/LeFreak_Chic_Original5S.wav,,,,,,,,,,,,,,,,,,,,,,,,,,,,,,,,,,,,,,,,,,,,,,,,,,,,,
,,,,,644490,1,2024-07-12_15h21.28.900,experiment,2024.1.5,Linux x86_64,59.52380952,6691931c2c63981b064e1f0c,6691ac1e307be77b81175761,,,,,,,,,,,,,,,,,,,,,,,,,,,,,,,,,,,,,,,,,,,,,,,,,,,,,,,,,,,,1331.7269,1337.9584,0.264597123,-0.109878201,1.0,0.0,0.0,0.2156,compass,0.0,21.0,21.0,8.0,1.0,SoundStimuli/EndlessLove_DianaRossLionelRichie_Original5S.wav,,,,,,,,,,,,,,,,,,,,,,,,,,,,,,,,,,,,,,,,,,,,,,,,,,,,,
,,,,,644490,1,2024-07-12_15h21.28.900,experiment,2024.1.5,Linux x86_64,59.52380952,6691931c2c63981b064e1f0c,6691ac1e307be77b81175761,,,,,,,,,,,,,,,,,,,,,,,,,,,,,,,,,,,,,,,,,,,,,,,,,,,,,,,,,,,,1337.9936,1348.2736,-0.087319212,-0.017878101,1.0,0.0,0.0,4.2659,compass,0.0,22.0,22.0,30.0,1.0,SoundStimuli/SomebodyThatIUsedtoKnow_Gotye_Cover5S.wav,,,,,,,,,,,,,,,,,,,,,,,,,,,,,,,,,,,,,,,,,,,,,,,,,,,,,
,,,,,644490,1,2024-07-12_15h21.28.900,experiment,2024.1.5,Linux x86_64,59.52380952,6691931c2c63981b064e1f0c,6691ac1e307be77b81175761,,,,,,,,,,,,,,,,,,,,,,,,,,,,,,,,,,,,,,,,,,,,,,,,,,,,,,,,,,,,1348.3122,1357.2226,0.089634535,-0.268121507,1.0,0.0,0.0,2.9,compass,0.0,23.0,23.0,9.0,1.0,SoundStimuli/HowDoILive_LeAnnRimes_Original5S.wav,,,,,,,,,,,,,,,,,,,,,,,,,,,,,,,,,,,,,,,,,,,,,,,,,,,,,
,,,,,644490,1,2024-07-12_15h21.28.900,experiment,2024.1.5,Linux x86_64,59.52380952,6691931c2c63981b064e1f0c,6691ac1e307be77b81175761,,,,,,,,,,,,,,,,,,,,,,,,,,,,,,,,,,,,,,,,,,,,,,,,,,,,,,,,,,,,1357.2595,1364.6276,-0.106865381,-0.264616507,1.0,0.0,0.0,1.3558,compass,0.0,24.0,24.0,34.0,1.0,SoundStimuli/Irreplaceable_Beyonce_Original5S.wav,,,,,,,,,,,,,,,,,,,,,,,,,,,,,,,,,,,,,,,,,,,,,,,,,,,,,
,,,,,644490,1,2024-07-12_15h21.28.900,experiment,2024.1.5,Linux x86_64,59.52380952,6691931c2c63981b064e1f0c,6691ac1e307be77b81175761,,,,,,,,,,,,,,,,,,,,,,,,,,,,,,,,,,,,,,,,,,,,,,,,,,,,,,,,,,,,1364.6724,1370.8878,0.29906944,0.27145082,1.0,0.0,0.0,0.1998,compass,0.0,25.0,25.0,5.0,1.0,SoundStimuli/JoyToTheWorld_ThreeDogNight_Cover5S.wav,,,,,,,,,,,,,,,,,,,,,,,,,,,,,,,,,,,,,,,,,,,,,,,,,,,,,
,,,,,644490,1,2024-07-12_15h21.28.900,experiment,2024.1.5,Linux x86_64,59.52380952,6691931c2c63981b064e1f0c,6691ac1e307be77b81175761,,,,,,,,,,,,,,,,,,,,,,,,,,,,,,,,,,,,,,,,,,,,,,,,,,,,,,,,,,,,1370.926,1378.8714,0.292864086,0.256246355,1.0,0.0,0.0,1.9347,compass,0.0,26.0,26.0,0.0,1.0,SoundStimuli/GimmeShelter_RollingStones_Cover5S.wav,,,,,,,,,,,,,,,,,,,,,,,,,,,,,,,,,,,,,,,,,,,,,,,,,,,,,
,,,,,644490,1,2024-07-12_15h21.28.900,experiment,2024.1.5,Linux x86_64,59.52380952,6691931c2c63981b064e1f0c,6691ac1e307be77b81175761,,,,,,,,,,,,,,,,,,,,,,,,,,,,,,,,,,,,,,,,,,,,,,,,,,,,,,,,,,,,1378.9066,1386.9519,-0.044350518,0.068325467,1.0,0.0,0.0,2.0329,compass,0.0,27.0,27.0,12.0,1.0,SoundStimuli/UnbreakMyHeart_ToniBraxton_Cover5S.wav,,,,,,,,,,,,,,,,,,,,,,,,,,,,,,,,,,,,,,,,,,,,,,,,,,,,,
,,,,,644490,1,2024-07-12_15h21.28.900,experiment,2024.1.5,Linux x86_64,59.52380952,6691931c2c63981b064e1f0c,6691ac1e307be77b81175761,,,,,,,,,,,,,,,,,,,,,,,,,,,,,,,,,,,,,,,,,,,,,,,,,,,,,,,,,,,,1386.986,1394.3677,-0.032494778,-0.066146003,1.0,0.0,0.0,1.3666,compass,0.0,28.0,28.0,4.0,1.0,SoundStimuli/Dreams_FleetwoodMac_Cover5S.wav,,,,,,,,,,,,,,,,,,,,,,,,,,,,,,,,,,,,,,,,,,,,,,,,,,,,,
,,,,,644490,1,2024-07-12_15h21.28.900,experiment,2024.1.5,Linux x86_64,59.52380952,6691931c2c63981b064e1f0c,6691ac1e307be77b81175761,,,,,,,,,,,,,,,,,,,,,,,,,,,,,,,,,,,,,,,,,,,,,,,,,,,,,,,,,,,,1394.3974,1403.2856,0.205572284,0.311650651,1.0,0.0,0.0,2.884,compass,0.0,29.0,29.0,11.0,1.0,SoundStimuli/BlurredLines_RobinThicke_Original5S.wav,,,,,,,,,,,,,,,,,,,,,,,,,,,,,,,,,,,,,,,,,,,,,,,,,,,,,
,,,,,644490,1,2024-07-12_15h21.28.900,experiment,2024.1.5,Linux x86_64,59.52380952,6691931c2c63981b064e1f0c,6691ac1e307be77b81175761,,,,,,,,,,,,,,,,,,,,,,,,,,,,,,,,,,,,,,,,,,,,,,,,,,,,,,,,,,,,1403.3205,1410.0326,0.135871379,0.211139396,1.0,0.0,0.0,0.6995,compass,0.0,30.0,30.0,15.0,1.0,SoundStimuli/CrazyInLove_BeyonceFtJayZ_Original5S.wav,,,,,,,,,,,,,,,,,,,,,,,,,,,,,,,,,,,,,,,,,,,,,,,,,,,,,
,,,,,644490,1,2024-07-12_15h21.28.900,experiment,2024.1.5,Linux x86_64,59.52380952,6691931c2c63981b064e1f0c,6691ac1e307be77b81175761,,,,,,,,,,,,,,,,,,,,,,,,,,,,,,,,,,,,,,,,,,,,,,,,,,,,,,,,,,,,1410.0657,1417.7148,0.268640928,0.276729075,1.0,0.0,0.0,1.6332,compass,0.0,31.0,31.0,27.0,1.0,SoundStimuli/EyeOfTheTiger_Survivor_Original5S.wav,,,,,,,,,,,,,,,,,,,,,,,,,,,,,,,,,,,,,,,,,,,,,,,,,,,,,
,,,,,644490,1,2024-07-12_15h21.28.900,experiment,2024.1.5,Linux x86_64,59.52380952,6691931c2c63981b064e1f0c,6691ac1e307be77b81175761,,,,,,,,,,,,,,,,,,,,,,,,,,,,,,,,,,,,,,,,,,,,,,,,,,,,,,,,,,,,1417.7477,1424.8477,0.268537507,0.276729075,1.0,0.0,0.0,1.0835,compass,0.0,32.0,32.0,24.0,1.0,SoundStimuli/Kiss_Prince_Original5S.wav,,,,,,,,,,,,,,,,,,,,,,,,,,,,,,,,,,,,,,,,,,,,,,,,,,,,,
,,,,,644490,1,2024-07-12_15h21.28.900,experiment,2024.1.5,Linux x86_64,59.52380952,6691931c2c63981b064e1f0c,6691ac1e307be77b81175761,,,,,,,,,,,,,,,,,,,,,,,,,,,,,,,,,,,,,,,,,,,,,,,,,,,,,,,,,,,,1424.8823,1430.9649,0.236136542,-0.058619294,1.0,0.0,0.0,0.0681,compass,0.0,33.0,33.0,29.0,1.0,SoundStimuli/BetteDavisEyes_KimCarnes_Cover5S.wav,,,,,,,,,,,,,,,,,,,,,,,,,,,,,,,,,,,,,,,,,,,,,,,,,,,,,
,,,,,644490,1,2024-07-12_15h21.28.900,experiment,2024.1.5,Linux x86_64,59.52380952,6691931c2c63981b064e1f0c,6691ac1e307be77b81175761,,,,,,,,,,,,,,,,,,,,,,,,,,,,,,,,,,,,,,,,,,,,,,,,,,,,,,,,,,,,1430.9999,1438.6962,0.234740081,0.038728361,1.0,0.0,0.0,1.6839,compass,0.0,34.0,34.0,26.0,1.0,SoundStimuli/TheSign_AceOfBase_Original5S.wav,,,,,,,,,,,,,,,,,,,,,,,,,,,,,,,,,,,,,,,,,,,,,,,,,,,,,
,,,,,644490,1,2024-07-12_15h21.28.900,experiment,2024.1.5,Linux x86_64,59.52380952,6691931c2c63981b064e1f0c,6691ac1e307be77b81175761,,,,,,,,,,,,,,,,,,,,,,,,,,,,,,,,,,,,,,,,,,,,,,,,,,,,,,,,,,,,,,,,,,,,,,,,,,,1438.6972,1438.6978,,,,1438.6979,1438.6981,,,,0.0,3.0,3.0,3.0,1.0,block_order/blockB.xlsx,,,,,,,,,,,,,,,,,,,,,,,,,,,,,,,,,,,,,
,,,,,644490,1,2024-07-12_15h21.28.900,experiment,2024.1.5,Linux x86_64,59.52380952,6691931c2c63981b064e1f0c,6691ac1e307be77b81175761,,,,,,,,,,,,,,,,,,,,,,,,,,,,,,,,,,,,,,,,,,,,,,,,,,,,,,,,,,,,,,,,,,,,,,,,,,,,,,,,,,,,,,,,,,,39.0,Item 2,Not a musician but I love all genres of music and could not live life without it.,Item 6,Youtube and itunes mostly.,4.0,5.0,"Driving, exercising, cleaning, cooking at work, karaoke often.",Often,Often,Often,Sometimes,Often,Sometimes,Sometimes,Sometimes,Sometimes,Often,Sometimes,Often,Sometimes,Often,Often,Sometimes,K-pop,R&B,Disco,K-pop,I always find a new band and go crazy listening to their whole catalog.  I also jumped into K-pop and haven't turned away.,"Jungle! Tame Impala! BTS!!! Lounge music, low-fi playlists. ",0.0,0.0,0.0,0.0,1.0,,
,,,,,644490,1,2024-07-12_15h21.28.900,experiment,2024.1.5,Linux x86_64,59.52380952,6691931c2c63981b064e1f0c,6691ac1e307be77b81175761,,,,,,,,,,,,,,,,,,,,,,,,,,,,,,,,,,,,,,,,,,,,,,,,,,,,,,,,,,,,,,,,,,,,,,,,,,,,,,,,,,,,,,,,,,,,,,,,,,,,,,,,,,,,,,,,,,,,,,,,,,,,,,1725.7686,1727.8254
