welcome.started,welcome.stopped,space_to_continue.keys,space_to_continue.rt,space_to_continue.duration,participant,session,date,expName,psychopyVersion,OS,frameRate,STUDY_ID,SESSION_ID,consent.consent,consent.consent_recontact,consent_check.started,consent_check.stopped,calibration_ready.started,calibration_ready.stopped,cal_ready.keys,cal_ready.rt,cal_ready.duration,calibration.started,calibration.stopped,mouse.x,mouse.y,mouse.leftButton,mouse.midButton,mouse.rightButton,mouse.time,mouse.clicked_name,move_on.keys,move_on.rt,move_on.duration,run_cal.thisRepN,run_cal.thisTrialN,run_cal.thisN,run_cal.thisIndex,run_cal.ran,emotion_training_ready.started,emotion_training_ready.stopped,training_move_on.keys,training_move_on.rt,training_move_on.duration,examples.started,examples.stopped,emotion_scale.started,emotion_scale.stopped,scale_next.keys,scale_next.rt,scale_next.duration,instructions.started,instructions.stopped,next.keys,next.rt,next.duration,practice_task.started,practice_task.stopped,mouse_rating_2.x,mouse_rating_2.y,mouse_rating_2.leftButton,mouse_rating_2.midButton,mouse_rating_2.rightButton,mouse_rating_2.time,mouse_rating_2.clicked_name,ready.started,ready.stopped,key_resp.keys,key_resp.rt,key_resp.duration,set_group.started,set_group.stopped,task.started,task.stopped,mouse_rating.x,mouse_rating.y,mouse_rating.leftButton,mouse_rating.midButton,mouse_rating.rightButton,mouse_rating.time,mouse_rating.clicked_name,trials.thisRepN,trials.thisTrialN,trials.thisN,trials.thisIndex,trials.ran,clip,short_break.started,short_break.stopped,space_to_move_on.keys,space_to_move_on.rt,space_to_move_on.duration,instruction_reminder.started,instruction_reminder.stopped,reminder_move_on.keys,reminder_move_on.rt,reminder_move_on.duration,blocks.thisRepN,blocks.thisTrialN,blocks.thisN,blocks.thisIndex,blocks.ran,block,post_survey.age,post_survey.musician,post_survey.music_making,post_survey.listen_time,post_survey.medium,post_survey.music_seeking,post_survey.music_choice,post_survey.activities,post_survey.question1.Country,post_survey.question1.Electronic (EDM),post_survey.question1.Classic rock,post_survey.question1.Ambient,post_survey.question1.Folk/indie,post_survey.question1.Jazz,post_survey.question1.Disco,post_survey.question1.Alternative rock,post_survey.question1.Pop,post_survey.question1.Classical,post_survey.question1.R&B,post_survey.question1.Reggae,post_survey.question1.Latin,post_survey.question1.Hip hop,post_survey.question1.Metal,post_survey.question1.A cappella,post_survey.other_genres,post_survey.genres_ranked.text1,post_survey.genres_ranked.text2,post_survey.genres_ranked.text3,post_survey.habit_change,post_survey.habits,show_exp.thisRepN,show_exp.thisTrialN,show_exp.thisN,show_exp.thisIndex,show_exp.ran,goodbye.started,goodbye.stopped
0.0003,2.8471,space,2.8292,,651433,1,2024-07-12_19h24.32.249,experiment,2024.1.5,MacIntel,59.52380952,6691931c2c63981b064e1f0c,6691bb0a4f768257df25a267,,,,,,,,,,,,,,,,,,,,,,,,,,,,,,,,,,,,,,,,,,,,,,,,,,,,,,,,,,,,,,,,,,,,,,,,,,,,,,,,,,,,,,,,,,,,,,,,,,,,,,,,,,,,,,,,,,,,,,,,,,,,,,,
,,,,,651433,1,2024-07-12_19h24.32.249,experiment,2024.1.5,MacIntel,59.52380952,6691931c2c63981b064e1f0c,6691bb0a4f768257df25a267,yes,no,,,,,,,,,,,,,,,,,,,,,,,,,,,,,,,,,,,,,,,,,,,,,,,,,,,,,,,,,,,,,,,,,,,,,,,,,,,,,,,,,,,,,,,,,,,,,,,,,,,,,,,,,,,,,,,,,,,,,,,,,,,,,
,,,,,651433,1,2024-07-12_19h24.32.249,experiment,2024.1.5,MacIntel,59.52380952,6691931c2c63981b064e1f0c,6691bb0a4f768257df25a267,,,102.1714,102.1717,,,,,,,,,,,,,,,,,,,,,,,,,,,,,,,,,,,,,,,,,,,,,,,,,,,,,,,,,,,,,,,,,,,,,,,,,,,,,,,,,,,,,,,,,,,,,,,,,,,,,,,,,,,,,,,,,,,,,,,,,,,
,,,,,651433,1,2024-07-12_19h24.32.249,experiment,2024.1.5,MacIntel,59.52380952,6691931c2c63981b064e1f0c,6691bb0a4f768257df25a267,,,,,102.1752,108.2273,space,6.0283,,108.244,161.1594,"[-0.0061892361111111115,-0.0061892361111111115,-0.0061892361111111115,-0.018024088541666667]","[-0.4260906304253472,-0.4260906304253472,-0.4260906304253472,-0.4027981906467014]","[1,1,1,1]","[0,0,0,0]","[0,0,0,0]","[19.114300000004476,41.49140000000597,43.616800000004474,45.17890000000597]","[""play_button"",""play_button"",""play_button""]",n,51.8762,,0.0,0.0,0.0,0.0,1.0,,,,,,,,,,,,,,,,,,,,,,,,,,,,,,,,,,,,,,,,,,,,,,,,,,,,,,,,,,,,,,,,,,,,,,,,,,,,,,,,,,,,,,,,,,,,,,,,,,,,,
,,,,,651433,1,2024-07-12_19h24.32.249,experiment,2024.1.5,MacIntel,59.52380952,6691931c2c63981b064e1f0c,6691bb0a4f768257df25a267,,,,,,,,,,161.177,184.7001,[-0.006728854709201389],[-0.41740485297309027],[1],[0],[0],[0.8576999999955319],"[""play_button""]",y,22.4817,,1.0,0.0,1.0,0.0,1.0,,,,,,,,,,,,,,,,,,,,,,,,,,,,,,,,,,,,,,,,,,,,,,,,,,,,,,,,,,,,,,,,,,,,,,,,,,,,,,,,,,,,,,,,,,,,,,,,,,,,,
,,,,,651433,1,2024-07-12_19h24.32.249,experiment,2024.1.5,MacIntel,59.52380952,6691931c2c63981b064e1f0c,6691bb0a4f768257df25a267,,,,,,,,,,,,,,,,,,,,,,,,,,,184.7011,213.8317,space,29.1035,,213.832,333.85,333.8515,349.6357,right,12.2559,,349.6358,360.2264,space,10.5534,,360.2266,367.3477,0.172252197,-0.167755195,1.0,0.0,0.0,1.1081,compass_2,367.348,370.7074,space,3.3315,,370.7075,370.7253,370.762,377.2559,0.160295817,-0.158548787,1.0,0.0,0.0,0.4758,compass,0.0,0.0,0.0,34.0,1.0,SoundStimuli/AChangeIsGonnaCome_SamCooke_Original5S.wav,,,,,,,,,,,,,,,,,,,,,,,,,,,,,,,,,,,,,,,,,,,,,,,,,,,,,
,,,,,651433,1,2024-07-12_19h24.32.249,experiment,2024.1.5,MacIntel,59.52380952,6691931c2c63981b064e1f0c,6691bb0a4f768257df25a267,,,,,,,,,,,,,,,,,,,,,,,,,,,,,,,,,,,,,,,,,,,,,,,,,,,,,,,,,,,,377.2776,383.6934,0.173878581,0.100111491,1.0,0.0,0.0,0.4108,compass,0.0,1.0,1.0,31.0,1.0,SoundStimuli/TheBattleOfNewOrleans_JohnnyHorton_Original5S.wav,,,,,,,,,,,,,,,,,,,,,,,,,,,,,,,,,,,,,,,,,,,,,,,,,,,,,
,,,,,651433,1,2024-07-12_19h24.32.249,experiment,2024.1.5,MacIntel,59.52380952,6691931c2c63981b064e1f0c,6691bb0a4f768257df25a267,,,,,,,,,,,,,,,,,,,,,,,,,,,,,,,,,,,,,,,,,,,,,,,,,,,,,,,,,,,,383.7156,389.884,0.103220215,0.118834025,1.0,0.0,0.0,0.1495,compass,0.0,2.0,2.0,11.0,1.0,SoundStimuli/Superstition_StevieWonder_Original5S.wav,,,,,,,,,,,,,,,,,,,,,,,,,,,,,,,,,,,,,,,,,,,,,,,,,,,,,
,,,,,651433,1,2024-07-12_19h24.32.249,experiment,2024.1.5,MacIntel,59.52380952,6691931c2c63981b064e1f0c,6691bb0a4f768257df25a267,,,,,,,,,,,,,,,,,,,,,,,,,,,,,,,,,,,,,,,,,,,,,,,,,,,,,,,,,,,,389.9026,396.0705,0.193488227,-0.13470459,1.0,0.0,0.0,0.1619,compass,0.0,3.0,3.0,5.0,1.0,SoundStimuli/MyGirl_TheTemptations_Cover5S.wav,,,,,,,,,,,,,,,,,,,,,,,,,,,,,,,,,,,,,,,,,,,,,,,,,,,,,
,,,,,651433,1,2024-07-12_19h24.32.249,experiment,2024.1.5,MacIntel,59.52380952,6691931c2c63981b064e1f0c,6691bb0a4f768257df25a267,,,,,,,,,,,,,,,,,,,,,,,,,,,,,,,,,,,,,,,,,,,,,,,,,,,,,,,,,,,,396.0895,405.1741,0.142283257,0.115497776,1.0,0.0,0.0,3.0825,compass,0.0,4.0,4.0,6.0,1.0,SoundStimuli/Levitating_DuaLipa_Original5S.wav,,,,,,,,,,,,,,,,,,,,,,,,,,,,,,,,,,,,,,,,,,,,,,,,,,,,,
,,,,,651433,1,2024-07-12_19h24.32.249,experiment,2024.1.5,MacIntel,59.52380952,6691931c2c63981b064e1f0c,6691bb0a4f768257df25a267,,,,,,,,,,,,,,,,,,,,,,,,,,,,,,,,,,,,,,,,,,,,,,,,,,,,,,,,,,,,405.1938,411.5597,0.142283257,0.115497776,1.0,0.0,0.0,0.3606,compass,0.0,5.0,5.0,22.0,1.0,SoundStimuli/RockWithYou_MichaelJackson_Cover5S.wav,,,,,,,,,,,,,,,,,,,,,,,,,,,,,,,,,,,,,,,,,,,,,,,,,,,,,
,,,,,651433,1,2024-07-12_19h24.32.249,experiment,2024.1.5,MacIntel,59.52380952,6691931c2c63981b064e1f0c,6691bb0a4f768257df25a267,,,,,,,,,,,,,,,,,,,,,,,,,,,,,,,,,,,,,,,,,,,,,,,,,,,,,,,,,,,,411.5784,423.3463,0.163154568,0.127361959,1.0,0.0,0.0,5.7494,compass,0.0,6.0,6.0,24.0,1.0,SoundStimuli/UptownFunk_MarkRonson_Cover5S.wav,,,,,,,,,,,,,,,,,,,,,,,,,,,,,,,,,,,,,,,,,,,,,,,,,,,,,
,,,,,651433,1,2024-07-12_19h24.32.249,experiment,2024.1.5,MacIntel,59.52380952,6691931c2c63981b064e1f0c,6691bb0a4f768257df25a267,,,,,,,,,,,,,,,,,,,,,,,,,,,,,,,,,,,,,,,,,,,,,,,,,,,,,,,,,,,,423.3684,429.7296,0.08442966,0.122208625,1.0,0.0,0.0,0.3484,compass,0.0,7.0,7.0,28.0,1.0,SoundStimuli/ComeAndGetYourLove_Redbone_Cover5S.wav,,,,,,,,,,,,,,,,,,,,,,,,,,,,,,,,,,,,,,,,,,,,,,,,,,,,,
,,,,,651433,1,2024-07-12_19h24.32.249,experiment,2024.1.5,MacIntel,59.52380952,6691931c2c63981b064e1f0c,6691bb0a4f768257df25a267,,,,,,,,,,,,,,,,,,,,,,,,,,,,,,,,,,,,,,,,,,,,,,,,,,,,,,,,,,,,429.7513,439.8131,0.074673326,0.052667372,1.0,0.0,0.0,4.0563,compass,0.0,8.0,8.0,27.0,1.0,SoundStimuli/ShapeofYou_EdSheeran_Cover5S.wav,,,,,,,,,,,,,,,,,,,,,,,,,,,,,,,,,,,,,,,,,,,,,,,,,,,,,
,,,,,651433,1,2024-07-12_19h24.32.249,experiment,2024.1.5,MacIntel,59.52380952,6691931c2c63981b064e1f0c,6691bb0a4f768257df25a267,,,,,,,,,,,,,,,,,,,,,,,,,,,,,,,,,,,,,,,,,,,,,,,,,,,,,,,,,,,,439.831,447.3995,-0.039605713,-0.200271674,1.0,0.0,0.0,1.5613,compass,0.0,9.0,9.0,32.0,1.0,SoundStimuli/HeatWaves_GlassAnimals_Cover5S.wav,,,,,,,,,,,,,,,,,,,,,,,,,,,,,,,,,,,,,,,,,,,,,,,,,,,,,
,,,,,651433,1,2024-07-12_19h24.32.249,experiment,2024.1.5,MacIntel,59.52380952,6691931c2c63981b064e1f0c,6691bb0a4f768257df25a267,,,,,,,,,,,,,,,,,,,,,,,,,,,,,,,,,,,,,,,,,,,,,,,,,,,,,,,,,,,,447.4183,453.5127,0.137605726,0.038156094,1.0,0.0,0.0,0.0926,compass,0.0,10.0,10.0,0.0,1.0,SoundStimuli/StayinAlive_BeeGees_Cover5S.wav,,,,,,,,,,,,,,,,,,,,,,,,,,,,,,,,,,,,,,,,,,,,,,,,,,,,,
,,,,,651433,1,2024-07-12_19h24.32.249,experiment,2024.1.5,MacIntel,59.52380952,6691931c2c63981b064e1f0c,6691bb0a4f768257df25a267,,,,,,,,,,,,,,,,,,,,,,,,,,,,,,,,,,,,,,,,,,,,,,,,,,,,,,,,,,,,453.5318,459.8836,0.108285997,0.013197428,1.0,0.0,0.0,0.3341,compass,0.0,11.0,11.0,17.0,1.0,SoundStimuli/Fallin_AliciaKeys_Cover5S.wav,,,,,,,,,,,,,,,,,,,,,,,,,,,,,,,,,,,,,,,,,,,,,,,,,,,,,
,,,,,651433,1,2024-07-12_19h24.32.249,experiment,2024.1.5,MacIntel,59.52380952,6691931c2c63981b064e1f0c,6691bb0a4f768257df25a267,,,,,,,,,,,,,,,,,,,,,,,,,,,,,,,,,,,,,,,,,,,,,,,,,,,,,,,,,,,,459.9011,468.5466,-0.095189752,0.031744249,1.0,0.0,0.0,2.6307,compass,0.0,12.0,12.0,16.0,1.0,SoundStimuli/BohemianRhapsody_Queen_Cover5S.wav,,,,,,,,,,,,,,,,,,,,,,,,,,,,,,,,,,,,,,,,,,,,,,,,,,,,,
,,,,,651433,1,2024-07-12_19h24.32.249,experiment,2024.1.5,MacIntel,59.52380952,6691931c2c63981b064e1f0c,6691bb0a4f768257df25a267,,,,,,,,,,,,,,,,,,,,,,,,,,,,,,,,,,,,,,,,,,,,,,,,,,,,,,,,,,,,468.5677,475.2338,-0.100661079,-0.084022624,1.0,0.0,0.0,0.6507,compass,0.0,13.0,13.0,2.0,1.0,SoundStimuli/Mood_24kGoldnianndior_Original5S.wav,,,,,,,,,,,,,,,,,,,,,,,,,,,,,,,,,,,,,,,,,,,,,,,,,,,,,
,,,,,651433,1,2024-07-12_19h24.32.249,experiment,2024.1.5,MacIntel,59.52380952,6691931c2c63981b064e1f0c,6691bb0a4f768257df25a267,,,,,,,,,,,,,,,,,,,,,,,,,,,,,,,,,,,,,,,,,,,,,,,,,,,,,,,,,,,,475.2524,481.5287,0.063846978,0.016871745,1.0,0.0,0.0,0.2722,compass,0.0,14.0,14.0,14.0,1.0,SoundStimuli/BlindingLights_TheWeeknd_Cover5S.wav,,,,,,,,,,,,,,,,,,,,,,,,,,,,,,,,,,,,,,,,,,,,,,,,,,,,,
,,,,,651433,1,2024-07-12_19h24.32.249,experiment,2024.1.5,MacIntel,59.52380952,6691931c2c63981b064e1f0c,6691bb0a4f768257df25a267,,,,,,,,,,,,,,,,,,,,,,,,,,,,,,,,,,,,,,,,,,,,,,,,,,,,,,,,,,,,481.546,487.8022,-0.009532878,0.060243937,1.0,0.0,0.0,0.2432,compass,0.0,15.0,15.0,26.0,1.0,SoundStimuli/LivinOnAPrayer_BonJovi_Original5S.wav,,,,,,,,,,,,,,,,,,,,,,,,,,,,,,,,,,,,,,,,,,,,,,,,,,,,,
,,,,,651433,1,2024-07-12_19h24.32.249,experiment,2024.1.5,MacIntel,59.52380952,6691931c2c63981b064e1f0c,6691bb0a4f768257df25a267,,,,,,,,,,,,,,,,,,,,,,,,,,,,,,,,,,,,,,,,,,,,,,,,,,,,,,,,,,,,487.8213,494.1377,-0.00077969,0.011777818,1.0,0.0,0.0,0.3129,compass,0.0,16.0,16.0,4.0,1.0,SoundStimuli/GetUrFreakOn_MissyElliot_Cover5S.wav,,,,,,,,,,,,,,,,,,,,,,,,,,,,,,,,,,,,,,,,,,,,,,,,,,,,,
,,,,,651433,1,2024-07-12_19h24.32.249,experiment,2024.1.5,MacIntel,59.52380952,6691931c2c63981b064e1f0c,6691bb0a4f768257df25a267,,,,,,,,,,,,,,,,,,,,,,,,,,,,,,,,,,,,,,,,,,,,,,,,,,,,,,,,,,,,494.1545,502.9645,0.11887424,0.072586466,1.0,0.0,0.0,2.7982,compass,0.0,17.0,17.0,8.0,1.0,SoundStimuli/LikeAPrayer_Madonna_Cover5S.wav,,,,,,,,,,,,,,,,,,,,,,,,,,,,,,,,,,,,,,,,,,,,,,,,,,,,,
,,,,,651433,1,2024-07-12_19h24.32.249,experiment,2024.1.5,MacIntel,59.52380952,6691931c2c63981b064e1f0c,6691bb0a4f768257df25a267,,,,,,,,,,,,,,,,,,,,,,,,,,,,,,,,,,,,,,,,,,,,,,,,,,,,,,,,,,,,502.9826,509.2784,0.102159017,0.054431288,1.0,0.0,0.0,0.2812,compass,0.0,18.0,18.0,9.0,1.0,SoundStimuli/Despacito_LuisFonsiDaddyYankee_Original5S.wav,,,,,,,,,,,,,,,,,,,,,,,,,,,,,,,,,,,,,,,,,,,,,,,,,,,,,
,,,,,651433,1,2024-07-12_19h24.32.249,experiment,2024.1.5,MacIntel,59.52380952,6691931c2c63981b064e1f0c,6691bb0a4f768257df25a267,,,,,,,,,,,,,,,,,,,,,,,,,,,,,,,,,,,,,,,,,,,,,,,,,,,,,,,,,,,,509.2988,519.1,-5.28971e-06,-0.002280273,1.0,0.0,0.0,3.7961,compass,0.0,19.0,19.0,18.0,1.0,SoundStimuli/AnotherOneBitesTheDust_Queen_Cover5S.wav,,,,,,,,,,,,,,,,,,,,,,,,,,,,,,,,,,,,,,,,,,,,,,,,,,,,,
,,,,,651433,1,2024-07-12_19h24.32.249,experiment,2024.1.5,MacIntel,59.52380952,6691931c2c63981b064e1f0c,6691bb0a4f768257df25a267,,,,,,,,,,,,,,,,,,,,,,,,,,,,,,,,,,,,,,,,,,,,,,,,,,,,,,,,,,,,519.1215,526.5857,0.11646464,-0.009474013,1.0,0.0,0.0,1.459,compass,0.0,20.0,20.0,7.0,1.0,SoundStimuli/NoOne_AliciaKeys_Original5S.wav,,,,,,,,,,,,,,,,,,,,,,,,,,,,,,,,,,,,,,,,,,,,,,,,,,,,,
,,,,,651433,1,2024-07-12_19h24.32.249,experiment,2024.1.5,MacIntel,59.52380952,6691931c2c63981b064e1f0c,6691bb0a4f768257df25a267,,,,,,,,,,,,,,,,,,,,,,,,,,,,,,,,,,,,,,,,,,,,,,,,,,,,,,,,,,,,526.6045,532.9114,0.074774441,-0.05610104,1.0,0.0,0.0,0.299,compass,0.0,21.0,21.0,29.0,1.0,SoundStimuli/OldTownRoad_LilNasX_Cover5S.wav,,,,,,,,,,,,,,,,,,,,,,,,,,,,,,,,,,,,,,,,,,,,,,,,,,,,,
,,,,,651433,1,2024-07-12_19h24.32.249,experiment,2024.1.5,MacIntel,59.52380952,6691931c2c63981b064e1f0c,6691bb0a4f768257df25a267,,,,,,,,,,,,,,,,,,,,,,,,,,,,,,,,,,,,,,,,,,,,,,,,,,,,,,,,,,,,532.9299,541.1074,0.073513116,-0.048110352,1.0,0.0,0.0,2.1768,compass,0.0,22.0,22.0,12.0,1.0,SoundStimuli/IWillAlwaysLoveYou_WhitneyHouston_Original5S.wav,,,,,,,,,,,,,,,,,,,,,,,,,,,,,,,,,,,,,,,,,,,,,,,,,,,,,
,,,,,651433,1,2024-07-12_19h24.32.249,experiment,2024.1.5,MacIntel,59.52380952,6691931c2c63981b064e1f0c,6691bb0a4f768257df25a267,,,,,,,,,,,,,,,,,,,,,,,,,,,,,,,,,,,,,,,,,,,,,,,,,,,,,,,,,,,,541.1256,549.9291,0.301214261,0.31838757,1.0,0.0,0.0,2.7998,compass,0.0,23.0,23.0,20.0,1.0,SoundStimuli/HeyYa_Outkast_Original5S.wav,,,,,,,,,,,,,,,,,,,,,,,,,,,,,,,,,,,,,,,,,,,,,,,,,,,,,
,,,,,651433,1,2024-07-12_19h24.32.249,experiment,2024.1.5,MacIntel,59.52380952,6691931c2c63981b064e1f0c,6691bb0a4f768257df25a267,,,,,,,,,,,,,,,,,,,,,,,,,,,,,,,,,,,,,,,,,,,,,,,,,,,,,,,,,,,,549.9459,558.2322,0.165824653,0.21156762,1.0,0.0,0.0,2.2856,compass,0.0,24.0,24.0,15.0,1.0,SoundStimuli/TikTok_Kesha_Original5S.wav,,,,,,,,,,,,,,,,,,,,,,,,,,,,,,,,,,,,,,,,,,,,,,,,,,,,,
,,,,,651433,1,2024-07-12_19h24.32.249,experiment,2024.1.5,MacIntel,59.52380952,6691931c2c63981b064e1f0c,6691bb0a4f768257df25a267,,,,,,,,,,,,,,,,,,,,,,,,,,,,,,,,,,,,,,,,,,,,,,,,,,,,,,,,,,,,558.2549,564.53,0.01446601,0.003796319,1.0,0.0,0.0,0.271,compass,0.0,25.0,25.0,30.0,1.0,SoundStimuli/PokerFace_LadyGaga_Cover5S.wav,,,,,,,,,,,,,,,,,,,,,,,,,,,,,,,,,,,,,,,,,,,,,,,,,,,,,
,,,,,651433,1,2024-07-12_19h24.32.249,experiment,2024.1.5,MacIntel,59.52380952,6691931c2c63981b064e1f0c,6691bb0a4f768257df25a267,,,,,,,,,,,,,,,,,,,,,,,,,,,,,,,,,,,,,,,,,,,,,,,,,,,,,,,,,,,,564.548,570.8123,0.032836982,-0.121207547,1.0,0.0,0.0,0.2524,compass,0.0,26.0,26.0,10.0,1.0,SoundStimuli/BadDay_DanielPowter_Original5S.wav,,,,,,,,,,,,,,,,,,,,,,,,,,,,,,,,,,,,,,,,,,,,,,,,,,,,,
,,,,,651433,1,2024-07-12_19h24.32.249,experiment,2024.1.5,MacIntel,59.52380952,6691931c2c63981b064e1f0c,6691bb0a4f768257df25a267,,,,,,,,,,,,,,,,,,,,,,,,,,,,,,,,,,,,,,,,,,,,,,,,,,,,,,,,,,,,570.8298,578.8992,0.069554443,0.022549879,1.0,0.0,0.0,2.0632,compass,0.0,27.0,27.0,21.0,1.0,SoundStimuli/GoodGollyMissMolly_LittleRichard_Original5S.wav,,,,,,,,,,,,,,,,,,,,,,,,,,,,,,,,,,,,,,,,,,,,,,,,,,,,,
,,,,,651433,1,2024-07-12_19h24.32.249,experiment,2024.1.5,MacIntel,59.52380952,6691931c2c63981b064e1f0c,6691bb0a4f768257df25a267,,,,,,,,,,,,,,,,,,,,,,,,,,,,,,,,,,,,,,,,,,,,,,,,,,,,,,,,,,,,578.9195,585.0796,-0.017505764,-0.03415212,1.0,0.0,0.0,0.1528,compass,0.0,28.0,28.0,13.0,1.0,SoundStimuli/GodOnlyKnows_TheBeachBoys_Original5S.wav,,,,,,,,,,,,,,,,,,,,,,,,,,,,,,,,,,,,,,,,,,,,,,,,,,,,,
,,,,,651433,1,2024-07-12_19h24.32.249,experiment,2024.1.5,MacIntel,59.52380952,6691931c2c63981b064e1f0c,6691bb0a4f768257df25a267,,,,,,,,,,,,,,,,,,,,,,,,,,,,,,,,,,,,,,,,,,,,,,,,,,,,,,,,,,,,585.0999,591.2033,-0.020385539,0.046044447,1.0,0.0,0.0,0.0907,compass,0.0,29.0,29.0,25.0,1.0,SoundStimuli/Respect_ArethaFranklin_Cover5S.wav,,,,,,,,,,,,,,,,,,,,,,,,,,,,,,,,,,,,,,,,,,,,,,,,,,,,,
,,,,,651433,1,2024-07-12_19h24.32.249,experiment,2024.1.5,MacIntel,59.52380952,6691931c2c63981b064e1f0c,6691bb0a4f768257df25a267,,,,,,,,,,,,,,,,,,,,,,,,,,,,,,,,,,,,,,,,,,,,,,,,,,,,,,,,,,,,591.222,598.9687,0.004356554,0.00400411,1.0,0.0,0.0,1.7223,compass,0.0,30.0,30.0,1.0,1.0,SoundStimuli/Stronger_KanyeWest_Cover5S.wav,,,,,,,,,,,,,,,,,,,,,,,,,,,,,,,,,,,,,,,,,,,,,,,,,,,,,
,,,,,651433,1,2024-07-12_19h24.32.249,experiment,2024.1.5,MacIntel,59.52380952,6691931c2c63981b064e1f0c,6691bb0a4f768257df25a267,,,,,,,,,,,,,,,,,,,,,,,,,,,,,,,,,,,,,,,,,,,,,,,,,,,,,,,,,,,,598.9874,605.1634,-0.006418796,-0.00657525,1.0,0.0,0.0,0.1736,compass,0.0,31.0,31.0,23.0,1.0,SoundStimuli/StrawberryFieldsForever_TheBeatles_Cover5S.wav,,,,,,,,,,,,,,,,,,,,,,,,,,,,,,,,,,,,,,,,,,,,,,,,,,,,,
,,,,,651433,1,2024-07-12_19h24.32.249,experiment,2024.1.5,MacIntel,59.52380952,6691931c2c63981b064e1f0c,6691bb0a4f768257df25a267,,,,,,,,,,,,,,,,,,,,,,,,,,,,,,,,,,,,,,,,,,,,,,,,,,,,,,,,,,,,605.1803,613.1703,0.129384766,-0.105231255,1.0,0.0,0.0,1.9888,compass,0.0,32.0,32.0,19.0,1.0,SoundStimuli/LetsGetItOn_MarvinGaye_Original5S.wav,,,,,,,,,,,,,,,,,,,,,,,,,,,,,,,,,,,,,,,,,,,,,,,,,,,,,
,,,,,651433,1,2024-07-12_19h24.32.249,experiment,2024.1.5,MacIntel,59.52380952,6691931c2c63981b064e1f0c,6691bb0a4f768257df25a267,,,,,,,,,,,,,,,,,,,,,,,,,,,,,,,,,,,,,,,,,,,,,,,,,,,,,,,,,,,,613.1914,619.4872,-0.083576253,-0.197736884,1.0,0.0,0.0,0.2909,compass,0.0,33.0,33.0,3.0,1.0,SoundStimuli/NoScrubs_TLC_Cover5S.wav,,,,,,,,,,,,,,,,,,,,,,,,,,,,,,,,,,,,,,,,,,,,,,,,,,,,,
,,,,,651433,1,2024-07-12_19h24.32.249,experiment,2024.1.5,MacIntel,59.52380952,6691931c2c63981b064e1f0c,6691bb0a4f768257df25a267,,,,,,,,,,,,,,,,,,,,,,,,,,,,,,,,,,,,,,,,,,,,,,,,,,,,,,,,,,,,619.5084,628.7332,0.154694214,-0.062746446,1.0,0.0,0.0,3.215,compass,0.0,34.0,34.0,33.0,1.0,SoundStimuli/StandByMe_BenEKing_Original5S.wav,,,,,,,,,,,,,,,,,,,,,,,,,,,,,,,,,,,,,,,,,,,,,,,,,,,,,
,,,,,651433,1,2024-07-12_19h24.32.249,experiment,2024.1.5,MacIntel,59.52380952,6691931c2c63981b064e1f0c,6691bb0a4f768257df25a267,,,,,,,,,,,,,,,,,,,,,,,,,,,,,,,,,,,,,,,,,,,,,,,,,,,,,,,,,,,,,,,,,,,,,,,,,,,628.7514,637.1963,space,8.4092,,637.1964,644.6052,right,7.3941,,0.0,0.0,0.0,0.0,1.0,block_order/blockC.xlsx,,,,,,,,,,,,,,,,,,,,,,,,,,,,,,,,,,,,,
,,,,,651433,1,2024-07-12_19h24.32.249,experiment,2024.1.5,MacIntel,59.52380952,6691931c2c63981b064e1f0c,6691bb0a4f768257df25a267,,,,,,,,,,,,,,,,,,,,,,,,,,,,,,,,,,,,,,,,,,,,,,,,,,,,,,,,,,,,644.635,653.348,-0.11416253,-0.097721625,1.0,0.0,0.0,2.7118,compass,0.0,0.0,0.0,9.0,1.0,SoundStimuli/HowDoILive_LeAnnRimes_Original5S.wav,,,,,,,,,,,,,,,,,,,,,,,,,,,,,,,,,,,,,,,,,,,,,,,,,,,,,
,,,,,651433,1,2024-07-12_19h24.32.249,experiment,2024.1.5,MacIntel,59.52380952,6691931c2c63981b064e1f0c,6691bb0a4f768257df25a267,,,,,,,,,,,,,,,,,,,,,,,,,,,,,,,,,,,,,,,,,,,,,,,,,,,,,,,,,,,,653.3657,660.0135,-0.069457262,0.023669501,1.0,0.0,0.0,0.6433,compass,0.0,1.0,1.0,17.0,1.0,SoundStimuli/IWannaDanceWithSomebody_WhitneyHouston_Cover5S.wav,,,,,,,,,,,,,,,,,,,,,,,,,,,,,,,,,,,,,,,,,,,,,,,,,,,,,
,,,,,651433,1,2024-07-12_19h24.32.249,experiment,2024.1.5,MacIntel,59.52380952,6691931c2c63981b064e1f0c,6691bb0a4f768257df25a267,,,,,,,,,,,,,,,,,,,,,,,,,,,,,,,,,,,,,,,,,,,,,,,,,,,,,,,,,,,,660.0325,667.3296,0.142869195,0.061262004,1.0,0.0,0.0,1.2887,compass,0.0,2.0,2.0,1.0,1.0,SoundStimuli/Smooth_SantanaRobThomas_Cover5S.wav,,,,,,,,,,,,,,,,,,,,,,,,,,,,,,,,,,,,,,,,,,,,,,,,,,,,,
,,,,,651433,1,2024-07-12_19h24.32.249,experiment,2024.1.5,MacIntel,59.52380952,6691931c2c63981b064e1f0c,6691bb0a4f768257df25a267,,,,,,,,,,,,,,,,,,,,,,,,,,,,,,,,,,,,,,,,,,,,,,,,,,,,,,,,,,,,667.3477,674.6156,0.12588623,-0.106315308,1.0,0.0,0.0,1.2569,compass,0.0,3.0,3.0,32.0,1.0,SoundStimuli/Dilemma_NellyKellyRowland_Original5S.wav,,,,,,,,,,,,,,,,,,,,,,,,,,,,,,,,,,,,,,,,,,,,,,,,,,,,,
,,,,,651433,1,2024-07-12_19h24.32.249,experiment,2024.1.5,MacIntel,59.52380952,6691931c2c63981b064e1f0c,6691bb0a4f768257df25a267,,,,,,,,,,,,,,,,,,,,,,,,,,,,,,,,,,,,,,,,,,,,,,,,,,,,,,,,,,,,674.6348,680.9807,-0.000639784,0.00098409,1.0,0.0,0.0,0.339,compass,0.0,4.0,4.0,7.0,1.0,SoundStimuli/MackTheKnife_BobbyDarin_Original5S.wav,,,,,,,,,,,,,,,,,,,,,,,,,,,,,,,,,,,,,,,,,,,,,,,,,,,,,
,,,,,651433,1,2024-07-12_19h24.32.249,experiment,2024.1.5,MacIntel,59.52380952,6691931c2c63981b064e1f0c,6691bb0a4f768257df25a267,,,,,,,,,,,,,,,,,,,,,,,,,,,,,,,,,,,,,,,,,,,,,,,,,,,,,,,,,,,,680.9994,687.5018,0.017484131,-0.046737705,1.0,0.0,0.0,0.5004,compass,0.0,5.0,5.0,21.0,1.0,SoundStimuli/BridgeOverTroubledWater_SimonAndGarfunkel_Cover5S.wav,,,,,,,,,,,,,,,,,,,,,,,,,,,,,,,,,,,,,,,,,,,,,,,,,,,,,
,,,,,651433,1,2024-07-12_19h24.32.249,experiment,2024.1.5,MacIntel,59.52380952,6691931c2c63981b064e1f0c,6691bb0a4f768257df25a267,,,,,,,,,,,,,,,,,,,,,,,,,,,,,,,,,,,,,,,,,,,,,,,,,,,,,,,,,,,,687.5188,693.6126,0.136411811,-0.183469645,1.0,0.0,0.0,0.0861,compass,0.0,6.0,6.0,19.0,1.0,SoundStimuli/YouLightUpMyLife_DebbyBoone_Cover5S.wav,,,,,,,,,,,,,,,,,,,,,,,,,,,,,,,,,,,,,,,,,,,,,,,,,,,,,
,,,,,651433,1,2024-07-12_19h24.32.249,experiment,2024.1.5,MacIntel,59.52380952,6691931c2c63981b064e1f0c,6691bb0a4f768257df25a267,,,,,,,,,,,,,,,,,,,,,,,,,,,,,,,,,,,,,,,,,,,,,,,,,,,,,,,,,,,,693.6294,704.6961,0.286352675,0.246947411,1.0,0.0,0.0,5.057,compass,0.0,7.0,7.0,20.0,1.0,SoundStimuli/FlashdanceWhatAFeeling_IreneCara_Cover5S.wav,,,,,,,,,,,,,,,,,,,,,,,,,,,,,,,,,,,,,,,,,,,,,,,,,,,,,
,,,,,651433,1,2024-07-12_19h24.32.249,experiment,2024.1.5,MacIntel,59.52380952,6691931c2c63981b064e1f0c,6691bb0a4f768257df25a267,,,,,,,,,,,,,,,,,,,,,,,,,,,,,,,,,,,,,,,,,,,,,,,,,,,,,,,,,,,,704.7163,711.8353,0.122198351,-0.100251872,1.0,0.0,0.0,1.0956,compass,0.0,8.0,8.0,8.0,1.0,SoundStimuli/EndlessLove_DianaRossLionelRichie_Original5S.wav,,,,,,,,,,,,,,,,,,,,,,,,,,,,,,,,,,,,,,,,,,,,,,,,,,,,,
,,,,,651433,1,2024-07-12_19h24.32.249,experiment,2024.1.5,MacIntel,59.52380952,6691931c2c63981b064e1f0c,6691bb0a4f768257df25a267,,,,,,,,,,,,,,,,,,,,,,,,,,,,,,,,,,,,,,,,,,,,,,,,,,,,,,,,,,,,711.8523,721.7197,0.303042942,0.295729167,1.0,0.0,0.0,3.8618,compass,0.0,9.0,9.0,26.0,1.0,SoundStimuli/TheSign_AceOfBase_Original5S.wav,,,,,,,,,,,,,,,,,,,,,,,,,,,,,,,,,,,,,,,,,,,,,,,,,,,,,
,,,,,651433,1,2024-07-12_19h24.32.249,experiment,2024.1.5,MacIntel,59.52380952,6691931c2c63981b064e1f0c,6691bb0a4f768257df25a267,,,,,,,,,,,,,,,,,,,,,,,,,,,,,,,,,,,,,,,,,,,,,,,,,,,,,,,,,,,,721.7369,728.014,0.194095052,0.101583523,1.0,0.0,0.0,0.2766,compass,0.0,10.0,10.0,24.0,1.0,SoundStimuli/Kiss_Prince_Original5S.wav,,,,,,,,,,,,,,,,,,,,,,,,,,,,,,,,,,,,,,,,,,,,,,,,,,,,,
,,,,,651433,1,2024-07-12_19h24.32.249,experiment,2024.1.5,MacIntel,59.52380952,6691931c2c63981b064e1f0c,6691bb0a4f768257df25a267,,,,,,,,,,,,,,,,,,,,,,,,,,,,,,,,,,,,,,,,,,,,,,,,,,,,,,,,,,,,728.0329,734.2463,0.187349582,-0.124782104,1.0,0.0,0.0,0.1928,compass,0.0,11.0,11.0,13.0,1.0,SoundStimuli/Perfect_EdSheeran_Original5S.wav,,,,,,,,,,,,,,,,,,,,,,,,,,,,,,,,,,,,,,,,,,,,,,,,,,,,,
,,,,,651433,1,2024-07-12_19h24.32.249,experiment,2024.1.5,MacIntel,59.52380952,6691931c2c63981b064e1f0c,6691bb0a4f768257df25a267,,,,,,,,,,,,,,,,,,,,,,,,,,,,,,,,,,,,,,,,,,,,,,,,,,,,,,,,,,,,734.2653,742.7768,-0.086707153,-0.088775838,1.0,0.0,0.0,2.5086,compass,0.0,12.0,12.0,34.0,1.0,SoundStimuli/Irreplaceable_Beyonce_Original5S.wav,,,,,,,,,,,,,,,,,,,,,,,,,,,,,,,,,,,,,,,,,,,,,,,,,,,,,
,,,,,651433,1,2024-07-12_19h24.32.249,experiment,2024.1.5,MacIntel,59.52380952,6691931c2c63981b064e1f0c,6691bb0a4f768257df25a267,,,,,,,,,,,,,,,,,,,,,,,,,,,,,,,,,,,,,,,,,,,,,,,,,,,,,,,,,,,,742.7956,749.0852,-0.006847805,-0.00691508,1.0,0.0,0.0,0.2815,compass,0.0,13.0,13.0,29.0,1.0,SoundStimuli/BetteDavisEyes_KimCarnes_Cover5S.wav,,,,,,,,,,,,,,,,,,,,,,,,,,,,,,,,,,,,,,,,,,,,,,,,,,,,,
,,,,,651433,1,2024-07-12_19h24.32.249,experiment,2024.1.5,MacIntel,59.52380952,6691931c2c63981b064e1f0c,6691bb0a4f768257df25a267,,,,,,,,,,,,,,,,,,,,,,,,,,,,,,,,,,,,,,,,,,,,,,,,,,,,,,,,,,,,749.1021,756.2572,-0.108932495,0.058823853,1.0,0.0,0.0,1.142,compass,0.0,14.0,14.0,2.0,1.0,SoundStimuli/SmellsLikeTeenSpirit_Nirvana_Cover5S.wav,,,,,,,,,,,,,,,,,,,,,,,,,,,,,,,,,,,,,,,,,,,,,,,,,,,,,
,,,,,651433,1,2024-07-12_19h24.32.249,experiment,2024.1.5,MacIntel,59.52380952,6691931c2c63981b064e1f0c,6691bb0a4f768257df25a267,,,,,,,,,,,,,,,,,,,,,,,,,,,,,,,,,,,,,,,,,,,,,,,,,,,,,,,,,,,,756.2757,762.4364,0.037833252,-0.046818373,1.0,0.0,0.0,0.1408,compass,0.0,15.0,15.0,28.0,1.0,SoundStimuli/IWantToHoldYourHand_TheBeatles_Cover5S.wav,,,,,,,,,,,,,,,,,,,,,,,,,,,,,,,,,,,,,,,,,,,,,,,,,,,,,
,,,,,651433,1,2024-07-12_19h24.32.249,experiment,2024.1.5,MacIntel,59.52380952,6691931c2c63981b064e1f0c,6691bb0a4f768257df25a267,,,,,,,,,,,,,,,,,,,,,,,,,,,,,,,,,,,,,,,,,,,,,,,,,,,,,,,,,,,,762.4543,772.4871,-0.172987467,-0.233627048,1.0,0.0,0.0,4.0276,compass,0.0,16.0,16.0,30.0,1.0,SoundStimuli/SomebodyThatIUsedtoKnow_Gotye_Cover5S.wav,,,,,,,,,,,,,,,,,,,,,,,,,,,,,,,,,,,,,,,,,,,,,,,,,,,,,
,,,,,651433,1,2024-07-12_19h24.32.249,experiment,2024.1.5,MacIntel,59.52380952,6691931c2c63981b064e1f0c,6691bb0a4f768257df25a267,,,,,,,,,,,,,,,,,,,,,,,,,,,,,,,,,,,,,,,,,,,,,,,,,,,,,,,,,,,,772.5052,780.6638,0.21833903,-0.005401747,1.0,0.0,0.0,2.1468,compass,0.0,17.0,17.0,3.0,1.0,SoundStimuli/PartyRockAnthem_LMFAO_Cover5S.wav,,,,,,,,,,,,,,,,,,,,,,,,,,,,,,,,,,,,,,,,,,,,,,,,,,,,,
,,,,,651433,1,2024-07-12_19h24.32.249,experiment,2024.1.5,MacIntel,59.52380952,6691931c2c63981b064e1f0c,6691bb0a4f768257df25a267,,,,,,,,,,,,,,,,,,,,,,,,,,,,,,,,,,,,,,,,,,,,,,,,,,,,,,,,,,,,780.6829,789.884,0.234387207,0.153348796,1.0,0.0,0.0,3.2004,compass,0.0,18.0,18.0,27.0,1.0,SoundStimuli/EyeOfTheTiger_Survivor_Original5S.wav,,,,,,,,,,,,,,,,,,,,,,,,,,,,,,,,,,,,,,,,,,,,,,,,,,,,,
,,,,,651433,1,2024-07-12_19h24.32.249,experiment,2024.1.5,MacIntel,59.52380952,6691931c2c63981b064e1f0c,6691bb0a4f768257df25a267,,,,,,,,,,,,,,,,,,,,,,,,,,,,,,,,,,,,,,,,,,,,,,,,,,,,,,,,,,,,789.9018,796.0225,0.001668972,-0.00158827,1.0,0.0,0.0,0.1177,compass,0.0,19.0,19.0,5.0,1.0,SoundStimuli/JoyToTheWorld_ThreeDogNight_Cover5S.wav,,,,,,,,,,,,,,,,,,,,,,,,,,,,,,,,,,,,,,,,,,,,,,,,,,,,,
,,,,,651433,1,2024-07-12_19h24.32.249,experiment,2024.1.5,MacIntel,59.52380952,6691931c2c63981b064e1f0c,6691bb0a4f768257df25a267,,,,,,,,,,,,,,,,,,,,,,,,,,,,,,,,,,,,,,,,,,,,,,,,,,,,,,,,,,,,796.0387,802.1726,0.207159966,-0.133026869,1.0,0.0,0.0,0.1283,compass,0.0,20.0,20.0,18.0,1.0,SoundStimuli/Weak_SWV_Original5S.wav,,,,,,,,,,,,,,,,,,,,,,,,,,,,,,,,,,,,,,,,,,,,,,,,,,,,,
,,,,,651433,1,2024-07-12_19h24.32.249,experiment,2024.1.5,MacIntel,59.52380952,6691931c2c63981b064e1f0c,6691bb0a4f768257df25a267,,,,,,,,,,,,,,,,,,,,,,,,,,,,,,,,,,,,,,,,,,,,,,,,,,,,,,,,,,,,802.1906,808.6781,-0.027266439,-0.089079861,1.0,0.0,0.0,0.4729,compass,0.0,21.0,21.0,4.0,1.0,SoundStimuli/Dreams_FleetwoodMac_Cover5S.wav,,,,,,,,,,,,,,,,,,,,,,,,,,,,,,,,,,,,,,,,,,,,,,,,,,,,,
,,,,,651433,1,2024-07-12_19h24.32.249,experiment,2024.1.5,MacIntel,59.52380952,6691931c2c63981b064e1f0c,6691bb0a4f768257df25a267,,,,,,,,,,,,,,,,,,,,,,,,,,,,,,,,,,,,,,,,,,,,,,,,,,,,,,,,,,,,808.6979,815.7872,0.020708279,-0.020407477,1.0,0.0,0.0,1.0881,compass,0.0,22.0,22.0,0.0,1.0,SoundStimuli/GimmeShelter_RollingStones_Cover5S.wav,,,,,,,,,,,,,,,,,,,,,,,,,,,,,,,,,,,,,,,,,,,,,,,,,,,,,
,,,,,651433,1,2024-07-12_19h24.32.249,experiment,2024.1.5,MacIntel,59.52380952,6691931c2c63981b064e1f0c,6691bb0a4f768257df25a267,,,,,,,,,,,,,,,,,,,,,,,,,,,,,,,,,,,,,,,,,,,,,,,,,,,,,,,,,,,,815.805,823.0102,0.308843791,0.305096469,1.0,0.0,0.0,1.2006,compass,0.0,23.0,23.0,22.0,1.0,SoundStimuli/Happy_PharellWilliams_Cover5S.wav,,,,,,,,,,,,,,,,,,,,,,,,,,,,,,,,,,,,,,,,,,,,,,,,,,,,,
,,,,,651433,1,2024-07-12_19h24.32.249,experiment,2024.1.5,MacIntel,59.52380952,6691931c2c63981b064e1f0c,6691bb0a4f768257df25a267,,,,,,,,,,,,,,,,,,,,,,,,,,,,,,,,,,,,,,,,,,,,,,,,,,,,,,,,,,,,823.0273,831.1339,-0.113703139,-0.184533285,1.0,0.0,0.0,2.0829,compass,0.0,24.0,24.0,33.0,1.0,SoundStimuli/TheBoyIsMine_BrandyMonica_Cover5S.wav,,,,,,,,,,,,,,,,,,,,,,,,,,,,,,,,,,,,,,,,,,,,,,,,,,,,,
,,,,,651433,1,2024-07-12_19h24.32.249,experiment,2024.1.5,MacIntel,59.52380952,6691931c2c63981b064e1f0c,6691bb0a4f768257df25a267,,,,,,,,,,,,,,,,,,,,,,,,,,,,,,,,,,,,,,,,,,,,,,,,,,,,,,,,,,,,831.1518,839.5956,-0.2222111,-0.234502428,1.0,0.0,0.0,2.4267,compass,0.0,25.0,25.0,6.0,1.0,SoundStimuli/SaveYourTears_TheWeekndArianaGrande_Original5S.wav,,,,,,,,,,,,,,,,,,,,,,,,,,,,,,,,,,,,,,,,,,,,,,,,,,,,,
,,,,,651433,1,2024-07-12_19h24.32.249,experiment,2024.1.5,MacIntel,59.52380952,6691931c2c63981b064e1f0c,6691bb0a4f768257df25a267,,,,,,,,,,,,,,,,,,,,,,,,,,,,,,,,,,,,,,,,,,,,,,,,,,,,,,,,,,,,839.6133,845.8542,0.000686306,-0.002030301,1.0,0.0,0.0,0.2323,compass,0.0,26.0,26.0,14.0,1.0,SoundStimuli/LikeARollingStone_BobDylan_Cover5S.wav,,,,,,,,,,,,,,,,,,,,,,,,,,,,,,,,,,,,,,,,,,,,,,,,,,,,,
,,,,,651433,1,2024-07-12_19h24.32.249,experiment,2024.1.5,MacIntel,59.52380952,6691931c2c63981b064e1f0c,6691bb0a4f768257df25a267,,,,,,,,,,,,,,,,,,,,,,,,,,,,,,,,,,,,,,,,,,,,,,,,,,,,,,,,,,,,845.8731,852.2427,0.059088203,0.169898885,1.0,0.0,0.0,0.3379,compass,0.0,27.0,27.0,31.0,1.0,SoundStimuli/TossinAndTurnin_BobbyLewis_Cover5S.wav,,,,,,,,,,,,,,,,,,,,,,,,,,,,,,,,,,,,,,,,,,,,,,,,,,,,,
,,,,,651433,1,2024-07-12_19h24.32.249,experiment,2024.1.5,MacIntel,59.52380952,6691931c2c63981b064e1f0c,6691bb0a4f768257df25a267,,,,,,,,,,,,,,,,,,,,,,,,,,,,,,,,,,,,,,,,,,,,,,,,,,,,,,,,,,,,852.2618,858.5905,0.021300049,-0.026748623,1.0,0.0,0.0,0.309,compass,0.0,28.0,28.0,23.0,1.0,SoundStimuli/IWalkTheLine_JohnnyCash_Cover5S.wav,,,,,,,,,,,,,,,,,,,,,,,,,,,,,,,,,,,,,,,,,,,,,,,,,,,,,
,,,,,651433,1,2024-07-12_19h24.32.249,experiment,2024.1.5,MacIntel,59.52380952,6691931c2c63981b064e1f0c,6691bb0a4f768257df25a267,,,,,,,,,,,,,,,,,,,,,,,,,,,,,,,,,,,,,,,,,,,,,,,,,,,,,,,,,,,,858.6085,868.0191,0.220268623,-0.149405178,1.0,0.0,0.0,3.3949,compass,0.0,29.0,29.0,25.0,1.0,SoundStimuli/IllMakeLoveToYou_BoyzIIMen_Original5S.wav,,,,,,,,,,,,,,,,,,,,,,,,,,,,,,,,,,,,,,,,,,,,,,,,,,,,,
,,,,,651433,1,2024-07-12_19h24.32.249,experiment,2024.1.5,MacIntel,59.52380952,6691931c2c63981b064e1f0c,6691bb0a4f768257df25a267,,,,,,,,,,,,,,,,,,,,,,,,,,,,,,,,,,,,,,,,,,,,,,,,,,,,,,,,,,,,868.0483,874.5473,-0.086184082,-0.1973074,1.0,0.0,0.0,0.492,compass,0.0,30.0,30.0,12.0,1.0,SoundStimuli/UnbreakMyHeart_ToniBraxton_Cover5S.wav,,,,,,,,,,,,,,,,,,,,,,,,,,,,,,,,,,,,,,,,,,,,,,,,,,,,,
,,,,,651433,1,2024-07-12_19h24.32.249,experiment,2024.1.5,MacIntel,59.52380952,6691931c2c63981b064e1f0c,6691bb0a4f768257df25a267,,,,,,,,,,,,,,,,,,,,,,,,,,,,,,,,,,,,,,,,,,,,,,,,,,,,,,,,,,,,874.5666,882.841,0.198880954,0.168823242,1.0,0.0,0.0,2.2593,compass,0.0,31.0,31.0,10.0,1.0,SoundStimuli/LeFreak_Chic_Original5S.wav,,,,,,,,,,,,,,,,,,,,,,,,,,,,,,,,,,,,,,,,,,,,,,,,,,,,,
,,,,,651433,1,2024-07-12_19h24.32.249,experiment,2024.1.5,MacIntel,59.52380952,6691931c2c63981b064e1f0c,6691bb0a4f768257df25a267,,,,,,,,,,,,,,,,,,,,,,,,,,,,,,,,,,,,,,,,,,,,,,,,,,,,,,,,,,,,882.8607,889.1572,0.094792548,-0.08724745,1.0,0.0,0.0,0.2687,compass,0.0,32.0,32.0,16.0,1.0,SoundStimuli/ItsAllInTheGame_TommyEdwards_Original5S.wav,,,,,,,,,,,,,,,,,,,,,,,,,,,,,,,,,,,,,,,,,,,,,,,,,,,,,
,,,,,651433,1,2024-07-12_19h24.32.249,experiment,2024.1.5,MacIntel,59.52380952,6691931c2c63981b064e1f0c,6691bb0a4f768257df25a267,,,,,,,,,,,,,,,,,,,,,,,,,,,,,,,,,,,,,,,,,,,,,,,,,,,,,,,,,,,,889.175,896.1611,0.203944499,0.203075833,1.0,0.0,0.0,0.973,compass,0.0,33.0,33.0,15.0,1.0,SoundStimuli/CrazyInLove_BeyonceFtJayZ_Original5S.wav,,,,,,,,,,,,,,,,,,,,,,,,,,,,,,,,,,,,,,,,,,,,,,,,,,,,,
,,,,,651433,1,2024-07-12_19h24.32.249,experiment,2024.1.5,MacIntel,59.52380952,6691931c2c63981b064e1f0c,6691bb0a4f768257df25a267,,,,,,,,,,,,,,,,,,,,,,,,,,,,,,,,,,,,,,,,,,,,,,,,,,,,,,,,,,,,896.1798,903.6492,0.174776272,0.175380283,1.0,0.0,0.0,1.4641,compass,0.0,34.0,34.0,11.0,1.0,SoundStimuli/BlurredLines_RobinThicke_Original5S.wav,,,,,,,,,,,,,,,,,,,,,,,,,,,,,,,,,,,,,,,,,,,,,,,,,,,,,
,,,,,651433,1,2024-07-12_19h24.32.249,experiment,2024.1.5,MacIntel,59.52380952,6691931c2c63981b064e1f0c,6691bb0a4f768257df25a267,,,,,,,,,,,,,,,,,,,,,,,,,,,,,,,,,,,,,,,,,,,,,,,,,,,,,,,,,,,,,,,,,,,,,,,,,,,903.6648,911.9019,space,8.2262,,911.9019,916.8756,right,4.9496,,0.0,1.0,1.0,1.0,1.0,block_order/blockB.xlsx,,,,,,,,,,,,,,,,,,,,,,,,,,,,,,,,,,,,,
,,,,,651433,1,2024-07-12_19h24.32.249,experiment,2024.1.5,MacIntel,59.52380952,6691931c2c63981b064e1f0c,6691bb0a4f768257df25a267,,,,,,,,,,,,,,,,,,,,,,,,,,,,,,,,,,,,,,,,,,,,,,,,,,,,,,,,,,,,916.9031,923.4863,0.224551256,-0.182069227,1.0,0.0,0.0,0.5815,compass,0.0,0.0,0.0,12.0,1.0,SoundStimuli/IWillAlwaysLoveYou_WhitneyHouston_Cover5S.wav,,,,,,,,,,,,,,,,,,,,,,,,,,,,,,,,,,,,,,,,,,,,,,,,,,,,,
,,,,,651433,1,2024-07-12_19h24.32.249,experiment,2024.1.5,MacIntel,59.52380952,6691931c2c63981b064e1f0c,6691bb0a4f768257df25a267,,,,,,,,,,,,,,,,,,,,,,,,,,,,,,,,,,,,,,,,,,,,,,,,,,,,,,,,,,,,923.5013,932.115,0.139364963,0.329976688,1.0,0.0,0.0,2.5919,compass,0.0,1.0,1.0,4.0,1.0,SoundStimuli/GetUrFreakOn_MissyElliot_Original5S.wav,,,,,,,,,,,,,,,,,,,,,,,,,,,,,,,,,,,,,,,,,,,,,,,,,,,,,
,,,,,651433,1,2024-07-12_19h24.32.249,experiment,2024.1.5,MacIntel,59.52380952,6691931c2c63981b064e1f0c,6691bb0a4f768257df25a267,,,,,,,,,,,,,,,,,,,,,,,,,,,,,,,,,,,,,,,,,,,,,,,,,,,,,,,,,,,,932.1332,939.1536,-0.169936252,-0.250294325,1.0,0.0,0.0,1.0013,compass,0.0,2.0,2.0,32.0,1.0,SoundStimuli/HeatWaves_GlassAnimals_Original5S.wav,,,,,,,,,,,,,,,,,,,,,,,,,,,,,,,,,,,,,,,,,,,,,,,,,,,,,
,,,,,651433,1,2024-07-12_19h24.32.249,experiment,2024.1.5,MacIntel,59.52380952,6691931c2c63981b064e1f0c,6691bb0a4f768257df25a267,,,,,,,,,,,,,,,,,,,,,,,,,,,,,,,,,,,,,,,,,,,,,,,,,,,,,,,,,,,,939.1731,945.319,-0.031268853,-0.147603353,1.0,0.0,0.0,0.1398,compass,0.0,3.0,3.0,10.0,1.0,SoundStimuli/BadDay_DanielPowter_Cover5S.wav,,,,,,,,,,,,,,,,,,,,,,,,,,,,,,,,,,,,,,,,,,,,,,,,,,,,,
,,,,,651433,1,2024-07-12_19h24.32.249,experiment,2024.1.5,MacIntel,59.52380952,6691931c2c63981b064e1f0c,6691bb0a4f768257df25a267,,,,,,,,,,,,,,,,,,,,,,,,,,,,,,,,,,,,,,,,,,,,,,,,,,,,,,,,,,,,945.3356,952.0798,-0.025129123,-0.183942329,1.0,0.0,0.0,0.7358,compass,0.0,4.0,4.0,13.0,1.0,SoundStimuli/GodOnlyKnows_TheBeachBoys_Cover5S.wav,,,,,,,,,,,,,,,,,,,,,,,,,,,,,,,,,,,,,,,,,,,,,,,,,,,,,
,,,,,651433,1,2024-07-12_19h24.32.249,experiment,2024.1.5,MacIntel,59.52380952,6691931c2c63981b064e1f0c,6691bb0a4f768257df25a267,,,,,,,,,,,,,,,,,,,,,,,,,,,,,,,,,,,,,,,,,,,,,,,,,,,,,,,,,,,,952.0981,959.9384,0.273059218,0.229456075,1.0,0.0,0.0,1.8307,compass,0.0,5.0,5.0,7.0,1.0,SoundStimuli/NoOne_AliciaKeys_Cover5S.wav,,,,,,,,,,,,,,,,,,,,,,,,,,,,,,,,,,,,,,,,,,,,,,,,,,,,,
,,,,,651433,1,2024-07-12_19h24.32.249,experiment,2024.1.5,MacIntel,59.52380952,6691931c2c63981b064e1f0c,6691bb0a4f768257df25a267,,,,,,,,,,,,,,,,,,,,,,,,,,,,,,,,,,,,,,,,,,,,,,,,,,,,,,,,,,,,959.9569,968.4065,0.200693224,-0.04139367,1.0,0.0,0.0,2.4462,compass,0.0,6.0,6.0,15.0,1.0,SoundStimuli/TikTok_Kesha_Cover5S.wav,,,,,,,,,,,,,,,,,,,,,,,,,,,,,,,,,,,,,,,,,,,,,,,,,,,,,
,,,,,651433,1,2024-07-12_19h24.32.249,experiment,2024.1.5,MacIntel,59.52380952,6691931c2c63981b064e1f0c,6691bb0a4f768257df25a267,,,,,,,,,,,,,,,,,,,,,,,,,,,,,,,,,,,,,,,,,,,,,,,,,,,,,,,,,,,,968.4251,974.6849,-0.035259738,0.0033923,1.0,0.0,0.0,0.2494,compass,0.0,7.0,7.0,25.0,1.0,SoundStimuli/Respect_ArethaFranklin_Original5S.wav,,,,,,,,,,,,,,,,,,,,,,,,,,,,,,,,,,,,,,,,,,,,,,,,,,,,,
,,,,,651433,1,2024-07-12_19h24.32.249,experiment,2024.1.5,MacIntel,59.52380952,6691931c2c63981b064e1f0c,6691bb0a4f768257df25a267,,,,,,,,,,,,,,,,,,,,,,,,,,,,,,,,,,,,,,,,,,,,,,,,,,,,,,,,,,,,974.7021,984.892,0.295359429,0.174423828,1.0,0.0,0.0,4.1881,compass,0.0,8.0,8.0,5.0,1.0,SoundStimuli/MyGirl_TheTemptations_Original5S.wav,,,,,,,,,,,,,,,,,,,,,,,,,,,,,,,,,,,,,,,,,,,,,,,,,,,,,
,,,,,651433,1,2024-07-12_19h24.32.249,experiment,2024.1.5,MacIntel,59.52380952,6691931c2c63981b064e1f0c,6691bb0a4f768257df25a267,,,,,,,,,,,,,,,,,,,,,,,,,,,,,,,,,,,,,,,,,,,,,,,,,,,,,,,,,,,,984.9095,991.2958,0.276928914,0.020864665,1.0,0.0,0.0,0.3798,compass,0.0,9.0,9.0,34.0,1.0,SoundStimuli/AChangeIsGonnaCome_SamCooke_Cover5S.wav,,,,,,,,,,,,,,,,,,,,,,,,,,,,,,,,,,,,,,,,,,,,,,,,,,,,,
,,,,,651433,1,2024-07-12_19h24.32.249,experiment,2024.1.5,MacIntel,59.52380952,6691931c2c63981b064e1f0c,6691bb0a4f768257df25a267,,,,,,,,,,,,,,,,,,,,,,,,,,,,,,,,,,,,,,,,,,,,,,,,,,,,,,,,,,,,991.3125,997.7904,-0.02021559,-0.012713725,1.0,0.0,0.0,0.4722,compass,0.0,10.0,10.0,20.0,1.0,SoundStimuli/HeyYa_Outkast_Cover5S.wav,,,,,,,,,,,,,,,,,,,,,,,,,,,,,,,,,,,,,,,,,,,,,,,,,,,,,
,,,,,651433,1,2024-07-12_19h24.32.249,experiment,2024.1.5,MacIntel,59.52380952,6691931c2c63981b064e1f0c,6691bb0a4f768257df25a267,,,,,,,,,,,,,,,,,,,,,,,,,,,,,,,,,,,,,,,,,,,,,,,,,,,,,,,,,,,,997.8074,1003.9867,-0.002956475,-0.001400553,1.0,0.0,0.0,0.1764,compass,0.0,11.0,11.0,29.0,1.0,SoundStimuli/OldTownRoad_LilNasX_Original5S.wav,,,,,,,,,,,,,,,,,,,,,,,,,,,,,,,,,,,,,,,,,,,,,,,,,,,,,
,,,,,651433,1,2024-07-12_19h24.32.249,experiment,2024.1.5,MacIntel,59.52380952,6691931c2c63981b064e1f0c,6691bb0a4f768257df25a267,,,,,,,,,,,,,,,,,,,,,,,,,,,,,,,,,,,,,,,,,,,,,,,,,,,,,,,,,,,,1004.0035,1010.0647,0.04133233,-0.015532362,1.0,0.0,0.0,0.0454,compass,0.0,12.0,12.0,26.0,1.0,SoundStimuli/LivinOnAPrayer_BonJovi_Cover5S.wav,,,,,,,,,,,,,,,,,,,,,,,,,,,,,,,,,,,,,,,,,,,,,,,,,,,,,
,,,,,651433,1,2024-07-12_19h24.32.249,experiment,2024.1.5,MacIntel,59.52380952,6691931c2c63981b064e1f0c,6691bb0a4f768257df25a267,,,,,,,,,,,,,,,,,,,,,,,,,,,,,,,,,,,,,,,,,,,,,,,,,,,,,,,,,,,,1010.0831,1016.2148,0.051437988,0.044203864,1.0,0.0,0.0,0.1235,compass,0.0,13.0,13.0,1.0,1.0,SoundStimuli/Stronger_KanyeWest_Original5S.wav,,,,,,,,,,,,,,,,,,,,,,,,,,,,,,,,,,,,,,,,,,,,,,,,,,,,,
,,,,,651433,1,2024-07-12_19h24.32.249,experiment,2024.1.5,MacIntel,59.52380952,6691931c2c63981b064e1f0c,6691bb0a4f768257df25a267,,,,,,,,,,,,,,,,,,,,,,,,,,,,,,,,,,,,,,,,,,,,,,,,,,,,,,,,,,,,1016.2317,1023.3381,-0.025032281,-0.007864956,1.0,0.0,0.0,1.0908,compass,0.0,14.0,14.0,19.0,1.0,SoundStimuli/LetsGetItOn_MarvinGaye_Cover5S.wav,,,,,,,,,,,,,,,,,,,,,,,,,,,,,,,,,,,,,,,,,,,,,,,,,,,,,
,,,,,651433,1,2024-07-12_19h24.32.249,experiment,2024.1.5,MacIntel,59.52380952,6691931c2c63981b064e1f0c,6691bb0a4f768257df25a267,,,,,,,,,,,,,,,,,,,,,,,,,,,,,,,,,,,,,,,,,,,,,,,,,,,,,,,,,,,,1023.3545,1029.4645,0.13239502,-0.042361281,1.0,0.0,0.0,0.091,compass,0.0,15.0,15.0,9.0,1.0,SoundStimuli/Despacito_LuisFonsiDaddyYankee_Cover5S.wav,,,,,,,,,,,,,,,,,,,,,,,,,,,,,,,,,,,,,,,,,,,,,,,,,,,,,
,,,,,651433,1,2024-07-12_19h24.32.249,experiment,2024.1.5,MacIntel,59.52380952,6691931c2c63981b064e1f0c,6691bb0a4f768257df25a267,,,,,,,,,,,,,,,,,,,,,,,,,,,,,,,,,,,,,,,,,,,,,,,,,,,,,,,,,,,,1029.4835,1042.4609,-0.712992367,0.463330875,1.0,0.0,0.0,5.5359,compass,0.0,16.0,16.0,31.0,1.0,SoundStimuli/TheBattleOfNewOrleans_JohnnyHorton_Cover5S.wav,,,,,,,,,,,,,,,,,,,,,,,,,,,,,,,,,,,,,,,,,,,,,,,,,,,,,
,,,,,651433,1,2024-07-12_19h24.32.249,experiment,2024.1.5,MacIntel,59.52380952,6691931c2c63981b064e1f0c,6691bb0a4f768257df25a267,,,,,,,,,,,,,,,,,,,,,,,,,,,,,,,,,,,,,,,,,,,,,,,,,,,,,,,,,,,,1042.478,1050.7205,-0.040159573,0.082847493,1.0,0.0,0.0,2.2318,compass,0.0,17.0,17.0,3.0,1.0,SoundStimuli/NoScrubs_TLC_Original5S.wav,,,,,,,,,,,,,,,,,,,,,,,,,,,,,,,,,,,,,,,,,,,,,,,,,,,,,
,,,,,651433,1,2024-07-12_19h24.32.249,experiment,2024.1.5,MacIntel,59.52380952,6691931c2c63981b064e1f0c,6691bb0a4f768257df25a267,,,,,,,,,,,,,,,,,,,,,,,,,,,,,,,,,,,,,,,,,,,,,,,,,,,,,,,,,,,,1050.7398,1056.8971,0.244762777,0.207253825,1.0,0.0,0.0,0.1394,compass,0.0,18.0,18.0,8.0,1.0,SoundStimuli/LikeAPrayer_Madonna_Original5S.wav,,,,,,,,,,,,,,,,,,,,,,,,,,,,,,,,,,,,,,,,,,,,,,,,,,,,,
,,,,,651433,1,2024-07-12_19h24.32.249,experiment,2024.1.5,MacIntel,59.52380952,6691931c2c63981b064e1f0c,6691bb0a4f768257df25a267,,,,,,,,,,,,,,,,,,,,,,,,,,,,,,,,,,,,,,,,,,,,,,,,,,,,,,,,,,,,1056.9183,1063.348,0.115571696,0.047178853,1.0,0.0,0.0,0.4215,compass,0.0,19.0,19.0,14.0,1.0,SoundStimuli/BlindingLights_TheWeeknd_Original5S.wav,,,,,,,,,,,,,,,,,,,,,,,,,,,,,,,,,,,,,,,,,,,,,,,,,,,,,
,,,,,651433,1,2024-07-12_19h24.32.249,experiment,2024.1.5,MacIntel,59.52380952,6691931c2c63981b064e1f0c,6691bb0a4f768257df25a267,,,,,,,,,,,,,,,,,,,,,,,,,,,,,,,,,,,,,,,,,,,,,,,,,,,,,,,,,,,,1063.3663,1069.9487,-0.001976047,0.002840305,1.0,0.0,0.0,0.5762,compass,0.0,20.0,20.0,6.0,1.0,SoundStimuli/Levitating_DuaLipa_Cover5S.wav,,,,,,,,,,,,,,,,,,,,,,,,,,,,,,,,,,,,,,,,,,,,,,,,,,,,,
,,,,,651433,1,2024-07-12_19h24.32.249,experiment,2024.1.5,MacIntel,59.52380952,6691931c2c63981b064e1f0c,6691bb0a4f768257df25a267,,,,,,,,,,,,,,,,,,,,,,,,,,,,,,,,,,,,,,,,,,,,,,,,,,,,,,,,,,,,1069.9648,1076.1758,-0.100341661,0.014779392,1.0,0.0,0.0,0.2068,compass,0.0,21.0,21.0,16.0,1.0,SoundStimuli/BohemianRhapsody_Queen_Original5S.wav,,,,,,,,,,,,,,,,,,,,,,,,,,,,,,,,,,,,,,,,,,,,,,,,,,,,,
,,,,,651433,1,2024-07-12_19h24.32.249,experiment,2024.1.5,MacIntel,59.52380952,6691931c2c63981b064e1f0c,6691bb0a4f768257df25a267,,,,,,,,,,,,,,,,,,,,,,,,,,,,,,,,,,,,,,,,,,,,,,,,,,,,,,,,,,,,1076.1946,1082.5584,0.001089545,0.007426724,1.0,0.0,0.0,0.3609,compass,0.0,22.0,22.0,21.0,1.0,SoundStimuli/GoodGollyMissMolly_LittleRichard_Cover5S.wav,,,,,,,,,,,,,,,,,,,,,,,,,,,,,,,,,,,,,,,,,,,,,,,,,,,,,
,,,,,651433,1,2024-07-12_19h24.32.249,experiment,2024.1.5,MacIntel,59.52380952,6691931c2c63981b064e1f0c,6691bb0a4f768257df25a267,,,,,,,,,,,,,,,,,,,,,,,,,,,,,,,,,,,,,,,,,,,,,,,,,,,,,,,,,,,,1082.5762,1089.745,0.001345554,0.006166721,1.0,0.0,0.0,1.1643,compass,0.0,23.0,23.0,2.0,1.0,SoundStimuli/Mood_24kGoldnianndior_Cover5S.wav,,,,,,,,,,,,,,,,,,,,,,,,,,,,,,,,,,,,,,,,,,,,,,,,,,,,,
,,,,,651433,1,2024-07-12_19h24.32.249,experiment,2024.1.5,MacIntel,59.52380952,6691931c2c63981b064e1f0c,6691bb0a4f768257df25a267,,,,,,,,,,,,,,,,,,,,,,,,,,,,,,,,,,,,,,,,,,,,,,,,,,,,,,,,,,,,1089.7635,1097.4374,0.126773546,0.203031345,1.0,0.0,0.0,1.6707,compass,0.0,24.0,24.0,30.0,1.0,SoundStimuli/PokerFace_LadyGaga_Original5S.wav,,,,,,,,,,,,,,,,,,,,,,,,,,,,,,,,,,,,,,,,,,,,,,,,,,,,,
,,,,,651433,1,2024-07-12_19h24.32.249,experiment,2024.1.5,MacIntel,59.52380952,6691931c2c63981b064e1f0c,6691bb0a4f768257df25a267,,,,,,,,,,,,,,,,,,,,,,,,,,,,,,,,,,,,,,,,,,,,,,,,,,,,,,,,,,,,1097.456,1103.7086,0.245580444,0.300297801,1.0,0.0,0.0,0.2509,compass,0.0,25.0,25.0,0.0,1.0,SoundStimuli/StayinAlive_BeeGees_Original5S.wav,,,,,,,,,,,,,,,,,,,,,,,,,,,,,,,,,,,,,,,,,,,,,,,,,,,,,
,,,,,651433,1,2024-07-12_19h24.32.249,experiment,2024.1.5,MacIntel,59.52380952,6691931c2c63981b064e1f0c,6691bb0a4f768257df25a267,,,,,,,,,,,,,,,,,,,,,,,,,,,,,,,,,,,,,,,,,,,,,,,,,,,,,,,,,,,,1103.7263,1110.0315,0.08171936,-0.043760512,1.0,0.0,0.0,0.2909,compass,0.0,26.0,26.0,17.0,1.0,SoundStimuli/Fallin_AliciaKeys_Original5S.wav,,,,,,,,,,,,,,,,,,,,,,,,,,,,,,,,,,,,,,,,,,,,,,,,,,,,,
,,,,,651433,1,2024-07-12_19h24.32.249,experiment,2024.1.5,MacIntel,59.52380952,6691931c2c63981b064e1f0c,6691bb0a4f768257df25a267,,,,,,,,,,,,,,,,,,,,,,,,,,,,,,,,,,,,,,,,,,,,,,,,,,,,,,,,,,,,1110.0484,1116.1126,0.028395725,-0.054355808,1.0,0.0,0.0,0.0525,compass,0.0,27.0,27.0,11.0,1.0,SoundStimuli/Superstition_StevieWonder_Cover5S.wav,,,,,,,,,,,,,,,,,,,,,,,,,,,,,,,,,,,,,,,,,,,,,,,,,,,,,
,,,,,651433,1,2024-07-12_19h24.32.249,experiment,2024.1.5,MacIntel,59.52380952,6691931c2c63981b064e1f0c,6691bb0a4f768257df25a267,,,,,,,,,,,,,,,,,,,,,,,,,,,,,,,,,,,,,,,,,,,,,,,,,,,,,,,,,,,,1116.1305,1128.9239,0.325529446,0.165416192,1.0,0.0,0.0,6.7662,compass,0.0,28.0,28.0,22.0,1.0,SoundStimuli/RockWithYou_MichaelJackson_Original5S.wav,,,,,,,,,,,,,,,,,,,,,,,,,,,,,,,,,,,,,,,,,,,,,,,,,,,,,
,,,,,651433,1,2024-07-12_19h24.32.249,experiment,2024.1.5,MacIntel,59.52380952,6691931c2c63981b064e1f0c,6691bb0a4f768257df25a267,,,,,,,,,,,,,,,,,,,,,,,,,,,,,,,,,,,,,,,,,,,,,,,,,,,,,,,,,,,,1128.9447,1139.5663,-0.066575385,0.016575521,1.0,0.0,0.0,4.6202,compass,0.0,29.0,29.0,18.0,1.0,SoundStimuli/AnotherOneBitesTheDust_Queen_Original5S.wav,,,,,,,,,,,,,,,,,,,,,,,,,,,,,,,,,,,,,,,,,,,,,,,,,,,,,
,,,,,651433,1,2024-07-12_19h24.32.249,experiment,2024.1.5,MacIntel,59.52380952,6691931c2c63981b064e1f0c,6691bb0a4f768257df25a267,,,,,,,,,,,,,,,,,,,,,,,,,,,,,,,,,,,,,,,,,,,,,,,,,,,,,,,,,,,,1139.5855,1146.9195,0.307544149,0.247620782,1.0,0.0,0.0,1.3281,compass,0.0,30.0,30.0,24.0,1.0,SoundStimuli/UptownFunk_MarkRonson_Original5S.wav,,,,,,,,,,,,,,,,,,,,,,,,,,,,,,,,,,,,,,,,,,,,,,,,,,,,,
,,,,,651433,1,2024-07-12_19h24.32.249,experiment,2024.1.5,MacIntel,59.52380952,6691931c2c63981b064e1f0c,6691bb0a4f768257df25a267,,,,,,,,,,,,,,,,,,,,,,,,,,,,,,,,,,,,,,,,,,,,,,,,,,,,,,,,,,,,1146.9367,1153.3391,-0.002537571,-0.001093004,1.0,0.0,0.0,0.3982,compass,0.0,31.0,31.0,23.0,1.0,SoundStimuli/StrawberryFieldsForever_TheBeatles_Original5S.wav,,,,,,,,,,,,,,,,,,,,,,,,,,,,,,,,,,,,,,,,,,,,,,,,,,,,,
,,,,,651433,1,2024-07-12_19h24.32.249,experiment,2024.1.5,MacIntel,59.52380952,6691931c2c63981b064e1f0c,6691bb0a4f768257df25a267,,,,,,,,,,,,,,,,,,,,,,,,,,,,,,,,,,,,,,,,,,,,,,,,,,,,,,,,,,,,1153.3589,1160.1947,0.26224962,0.235578376,1.0,0.0,0.0,0.8288,compass,0.0,32.0,32.0,27.0,1.0,SoundStimuli/ShapeofYou_EdSheeran_Original5S.wav,,,,,,,,,,,,,,,,,,,,,,,,,,,,,,,,,,,,,,,,,,,,,,,,,,,,,
,,,,,651433,1,2024-07-12_19h24.32.249,experiment,2024.1.5,MacIntel,59.52380952,6691931c2c63981b064e1f0c,6691bb0a4f768257df25a267,,,,,,,,,,,,,,,,,,,,,,,,,,,,,,,,,,,,,,,,,,,,,,,,,,,,,,,,,,,,1160.2137,1166.3748,0.302435167,0.079761929,1.0,0.0,0.0,0.144,compass,0.0,33.0,33.0,28.0,1.0,SoundStimuli/ComeAndGetYourLove_Redbone_Original5S.wav,,,,,,,,,,,,,,,,,,,,,,,,,,,,,,,,,,,,,,,,,,,,,,,,,,,,,
,,,,,651433,1,2024-07-12_19h24.32.249,experiment,2024.1.5,MacIntel,59.52380952,6691931c2c63981b064e1f0c,6691bb0a4f768257df25a267,,,,,,,,,,,,,,,,,,,,,,,,,,,,,,,,,,,,,,,,,,,,,,,,,,,,,,,,,,,,1166.3918,1172.8122,0.189782104,-0.025007731,1.0,0.0,0.0,0.4154,compass,0.0,34.0,34.0,33.0,1.0,SoundStimuli/StandByMe_BenEKing_Cover5S.wav,,,,,,,,,,,,,,,,,,,,,,,,,,,,,,,,,,,,,,,,,,,,,,,,,,,,,
,,,,,651433,1,2024-07-12_19h24.32.249,experiment,2024.1.5,MacIntel,59.52380952,6691931c2c63981b064e1f0c,6691bb0a4f768257df25a267,,,,,,,,,,,,,,,,,,,,,,,,,,,,,,,,,,,,,,,,,,,,,,,,,,,,,,,,,,,,,,,,,,,,,,,,,,,1172.8124,1175.5275,space,2.7034,,1175.5275,1181.0843,right,5.5394,,0.0,2.0,2.0,2.0,1.0,block_order/blockA.xlsx,,,,,,,,,,,,,,,,,,,,,,,,,,,,,,,,,,,,,
,,,,,651433,1,2024-07-12_19h24.32.249,experiment,2024.1.5,MacIntel,59.52380952,6691931c2c63981b064e1f0c,6691bb0a4f768257df25a267,,,,,,,,,,,,,,,,,,,,,,,,,,,,,,,,,,,,,,,,,,,,,,,,,,,,,,,,,,,,1181.1099,1188.3901,-0.037019314,-0.036299099,1.0,0.0,0.0,1.2644,compass,0.0,0.0,0.0,4.0,1.0,SoundStimuli/Dreams_FleetwoodMac_Original5S.wav,,,,,,,,,,,,,,,,,,,,,,,,,,,,,,,,,,,,,,,,,,,,,,,,,,,,,
,,,,,651433,1,2024-07-12_19h24.32.249,experiment,2024.1.5,MacIntel,59.52380952,6691931c2c63981b064e1f0c,6691bb0a4f768257df25a267,,,,,,,,,,,,,,,,,,,,,,,,,,,,,,,,,,,,,,,,,,,,,,,,,,,,,,,,,,,,1188.4086,1194.7322,-0.004532335,-0.002173191,1.0,0.0,0.0,0.3155,compass,0.0,1.0,1.0,14.0,1.0,SoundStimuli/LikeARollingStone_BobDylan_Original5S.wav,,,,,,,,,,,,,,,,,,,,,,,,,,,,,,,,,,,,,,,,,,,,,,,,,,,,,
,,,,,651433,1,2024-07-12_19h24.32.249,experiment,2024.1.5,MacIntel,59.52380952,6691931c2c63981b064e1f0c,6691bb0a4f768257df25a267,,,,,,,,,,,,,,,,,,,,,,,,,,,,,,,,,,,,,,,,,,,,,,,,,,,,,,,,,,,,1194.75,1202.4429,-0.00227573,-0.028781806,1.0,0.0,0.0,1.6793,compass,0.0,2.0,2.0,23.0,1.0,SoundStimuli/IWalkTheLine_JohnnyCash_Original5S.wav,,,,,,,,,,,,,,,,,,,,,,,,,,,,,,,,,,,,,,,,,,,,,,,,,,,,,
,,,,,651433,1,2024-07-12_19h24.32.249,experiment,2024.1.5,MacIntel,59.52380952,6691931c2c63981b064e1f0c,6691bb0a4f768257df25a267,,,,,,,,,,,,,,,,,,,,,,,,,,,,,,,,,,,,,,,,,,,,,,,,,,,,,,,,,,,,1202.4601,1211.4795,0.130526733,0.18740431,1.0,0.0,0.0,3.0149,compass,0.0,3.0,3.0,17.0,1.0,SoundStimuli/IWannaDanceWithSomebody_WhitneyHouston_Original5S.wav,,,,,,,,,,,,,,,,,,,,,,,,,,,,,,,,,,,,,,,,,,,,,,,,,,,,,
,,,,,651433,1,2024-07-12_19h24.32.249,experiment,2024.1.5,MacIntel,59.52380952,6691931c2c63981b064e1f0c,6691bb0a4f768257df25a267,,,,,,,,,,,,,,,,,,,,,,,,,,,,,,,,,,,,,,,,,,,,,,,,,,,,,,,,,,,,1211.4969,1220.4749,0.000777452,0.00183119,1.0,0.0,0.0,2.9691,compass,0.0,4.0,4.0,7.0,1.0,SoundStimuli/MackTheKnife_BobbyDarin_Cover5S.wav,,,,,,,,,,,,,,,,,,,,,,,,,,,,,,,,,,,,,,,,,,,,,,,,,,,,,
,,,,,651433,1,2024-07-12_19h24.32.249,experiment,2024.1.5,MacIntel,59.52380952,6691931c2c63981b064e1f0c,6691bb0a4f768257df25a267,,,,,,,,,,,,,,,,,,,,,,,,,,,,,,,,,,,,,,,,,,,,,,,,,,,,,,,,,,,,1220.4916,1230.1569,-0.000825602,0.010923326,1.0,0.0,0.0,3.6552,compass,0.0,5.0,5.0,24.0,1.0,SoundStimuli/Kiss_Prince_Cover5S.wav,,,,,,,,,,,,,,,,,,,,,,,,,,,,,,,,,,,,,,,,,,,,,,,,,,,,,
,,,,,651433,1,2024-07-12_19h24.32.249,experiment,2024.1.5,MacIntel,59.52380952,6691931c2c63981b064e1f0c,6691bb0a4f768257df25a267,,,,,,,,,,,,,,,,,,,,,,,,,,,,,,,,,,,,,,,,,,,,,,,,,,,,,,,,,,,,1230.1766,1236.5224,0.033668484,0.028135308,1.0,0.0,0.0,0.3226,compass,0.0,6.0,6.0,0.0,1.0,SoundStimuli/GimmeShelter_RollingStones_Original5S.wav,,,,,,,,,,,,,,,,,,,,,,,,,,,,,,,,,,,,,,,,,,,,,,,,,,,,,
,,,,,651433,1,2024-07-12_19h24.32.249,experiment,2024.1.5,MacIntel,59.52380952,6691931c2c63981b064e1f0c,6691bb0a4f768257df25a267,,,,,,,,,,,,,,,,,,,,,,,,,,,,,,,,,,,,,,,,,,,,,,,,,,,,,,,,,,,,1236.5407,1243.5906,0.319092882,0.252145182,1.0,0.0,0.0,1.0381,compass,0.0,7.0,7.0,20.0,1.0,SoundStimuli/FlashdanceWhatAFeeling_IreneCara_Original5S.wav,,,,,,,,,,,,,,,,,,,,,,,,,,,,,,,,,,,,,,,,,,,,,,,,,,,,,
,,,,,651433,1,2024-07-12_19h24.32.249,experiment,2024.1.5,MacIntel,59.52380952,6691931c2c63981b064e1f0c,6691bb0a4f768257df25a267,,,,,,,,,,,,,,,,,,,,,,,,,,,,,,,,,,,,,,,,,,,,,,,,,,,,,,,,,,,,1243.6082,1251.7558,0.248437364,0.132725152,1.0,0.0,0.0,2.1283,compass,0.0,8.0,8.0,11.0,1.0,SoundStimuli/BlurredLines_RobinThicke_Cover5S.wav,,,,,,,,,,,,,,,,,,,,,,,,,,,,,,,,,,,,,,,,,,,,,,,,,,,,,
,,,,,651433,1,2024-07-12_19h24.32.249,experiment,2024.1.5,MacIntel,59.52380952,6691931c2c63981b064e1f0c,6691bb0a4f768257df25a267,,,,,,,,,,,,,,,,,,,,,,,,,,,,,,,,,,,,,,,,,,,,,,,,,,,,,,,,,,,,1251.7737,1260.9872,0.266892225,0.231573113,1.0,0.0,0.0,3.1964,compass,0.0,9.0,9.0,3.0,1.0,SoundStimuli/PartyRockAnthem_LMFAO_Original5S.wav,,,,,,,,,,,,,,,,,,,,,,,,,,,,,,,,,,,,,,,,,,,,,,,,,,,,,
,,,,,651433,1,2024-07-12_19h24.32.249,experiment,2024.1.5,MacIntel,59.52380952,6691931c2c63981b064e1f0c,6691bb0a4f768257df25a267,,,,,,,,,,,,,,,,,,,,,,,,,,,,,,,,,,,,,,,,,,,,,,,,,,,,,,,,,,,,1261.0057,1269.7768,0.244748942,0.211801893,1.0,0.0,0.0,2.7523,compass,0.0,10.0,10.0,28.0,1.0,SoundStimuli/IWantToHoldYourHand_TheBeatles_Original5S.wav,,,,,,,,,,,,,,,,,,,,,,,,,,,,,,,,,,,,,,,,,,,,,,,,,,,,,
,,,,,651433,1,2024-07-12_19h24.32.249,experiment,2024.1.5,MacIntel,59.52380952,6691931c2c63981b064e1f0c,6691bb0a4f768257df25a267,,,,,,,,,,,,,,,,,,,,,,,,,,,,,,,,,,,,,,,,,,,,,,,,,,,,,,,,,,,,1269.7935,1275.8605,0.22268948,0.237276527,1.0,0.0,0.0,0.0611,compass,0.0,11.0,11.0,27.0,1.0,SoundStimuli/EyeOfTheTiger_Survivor_Cover5S.wav,,,,,,,,,,,,,,,,,,,,,,,,,,,,,,,,,,,,,,,,,,,,,,,,,,,,,
,,,,,651433,1,2024-07-12_19h24.32.249,experiment,2024.1.5,MacIntel,59.52380952,6691931c2c63981b064e1f0c,6691bb0a4f768257df25a267,,,,,,,,,,,,,,,,,,,,,,,,,,,,,,,,,,,,,,,,,,,,,,,,,,,,,,,,,,,,1275.879,1282.9334,0.12097914,-0.115041233,1.0,0.0,0.0,1.0538,compass,0.0,12.0,12.0,21.0,1.0,SoundStimuli/BridgeOverTroubledWater_SimonAndGarfunkel_Original5S.wav,,,,,,,,,,,,,,,,,,,,,,,,,,,,,,,,,,,,,,,,,,,,,,,,,,,,,
,,,,,651433,1,2024-07-12_19h24.32.249,experiment,2024.1.5,MacIntel,59.52380952,6691931c2c63981b064e1f0c,6691bb0a4f768257df25a267,,,,,,,,,,,,,,,,,,,,,,,,,,,,,,,,,,,,,,,,,,,,,,,,,,,,,,,,,,,,1282.9505,1289.6333,0.253671129,0.229587131,1.0,0.0,0.0,0.6723,compass,0.0,13.0,13.0,1.0,1.0,SoundStimuli/Smooth_SantanaRobThomas_Original5S.wav,,,,,,,,,,,,,,,,,,,,,,,,,,,,,,,,,,,,,,,,,,,,,,,,,,,,,
,,,,,651433,1,2024-07-12_19h24.32.249,experiment,2024.1.5,MacIntel,59.52380952,6691931c2c63981b064e1f0c,6691bb0a4f768257df25a267,,,,,,,,,,,,,,,,,,,,,,,,,,,,,,,,,,,,,,,,,,,,,,,,,,,,,,,,,,,,1289.6532,1296.3968,0.002026571,0.000218438,1.0,0.0,0.0,0.7409,compass,0.0,14.0,14.0,16.0,1.0,SoundStimuli/ItsAllInTheGame_TommyEdwards_Cover5S.wav,,,,,,,,,,,,,,,,,,,,,,,,,,,,,,,,,,,,,,,,,,,,,,,,,,,,,
,,,,,651433,1,2024-07-12_19h24.32.249,experiment,2024.1.5,MacIntel,59.52380952,6691931c2c63981b064e1f0c,6691bb0a4f768257df25a267,,,,,,,,,,,,,,,,,,,,,,,,,,,,,,,,,,,,,,,,,,,,,,,,,,,,,,,,,,,,1296.4148,1303.8187,0.010760905,-0.007169529,1.0,0.0,0.0,1.393,compass,0.0,15.0,15.0,29.0,1.0,SoundStimuli/BetteDavisEyes_KimCarnes_Original5S.wav,,,,,,,,,,,,,,,,,,,,,,,,,,,,,,,,,,,,,,,,,,,,,,,,,,,,,
,,,,,651433,1,2024-07-12_19h24.32.249,experiment,2024.1.5,MacIntel,59.52380952,6691931c2c63981b064e1f0c,6691bb0a4f768257df25a267,,,,,,,,,,,,,,,,,,,,,,,,,,,,,,,,,,,,,,,,,,,,,,,,,,,,,,,,,,,,1303.8379,1314.7156,0.161401096,-0.139640367,1.0,0.0,0.0,4.8721,compass,0.0,16.0,16.0,13.0,1.0,SoundStimuli/Perfect_EdSheeran_Cover5S.wav,,,,,,,,,,,,,,,,,,,,,,,,,,,,,,,,,,,,,,,,,,,,,,,,,,,,,
,,,,,651433,1,2024-07-12_19h24.32.249,experiment,2024.1.5,MacIntel,59.52380952,6691931c2c63981b064e1f0c,6691bb0a4f768257df25a267,,,,,,,,,,,,,,,,,,,,,,,,,,,,,,,,,,,,,,,,,,,,,,,,,,,,,,,,,,,,1314.7321,1322.4068,0.206385227,0.030726725,1.0,0.0,0.0,1.6703,compass,0.0,17.0,17.0,33.0,1.0,SoundStimuli/TheBoyIsMine_BrandyMonica_Original5S.wav,,,,,,,,,,,,,,,,,,,,,,,,,,,,,,,,,,,,,,,,,,,,,,,,,,,,,
,,,,,651433,1,2024-07-12_19h24.32.249,experiment,2024.1.5,MacIntel,59.52380952,6691931c2c63981b064e1f0c,6691bb0a4f768257df25a267,,,,,,,,,,,,,,,,,,,,,,,,,,,,,,,,,,,,,,,,,,,,,,,,,,,,,,,,,,,,1322.4229,1328.6403,0.24508945,0.167939724,1.0,0.0,0.0,0.2169,compass,0.0,18.0,18.0,26.0,1.0,SoundStimuli/TheSign_AceOfBase_Cover5S.wav,,,,,,,,,,,,,,,,,,,,,,,,,,,,,,,,,,,,,,,,,,,,,,,,,,,,,
,,,,,651433,1,2024-07-12_19h24.32.249,experiment,2024.1.5,MacIntel,59.52380952,6691931c2c63981b064e1f0c,6691bb0a4f768257df25a267,,,,,,,,,,,,,,,,,,,,,,,,,,,,,,,,,,,,,,,,,,,,,,,,,,,,,,,,,,,,1328.6591,1337.5285,0.246019423,0.198335741,1.0,0.0,0.0,2.857,compass,0.0,19.0,19.0,5.0,1.0,SoundStimuli/JoyToTheWorld_ThreeDogNight_Original5S.wav,,,,,,,,,,,,,,,,,,,,,,,,,,,,,,,,,,,,,,,,,,,,,,,,,,,,,
,,,,,651433,1,2024-07-12_19h24.32.249,experiment,2024.1.5,MacIntel,59.52380952,6691931c2c63981b064e1f0c,6691bb0a4f768257df25a267,,,,,,,,,,,,,,,,,,,,,,,,,,,,,,,,,,,,,,,,,,,,,,,,,,,,,,,,,,,,1337.5509,1347.7041,-0.137475789,-0.119952528,1.0,0.0,0.0,4.1463,compass,0.0,20.0,20.0,6.0,1.0,SoundStimuli/SaveYourTears_TheWeekndArianaGrande_Cover5S.wav,,,,,,,,,,,,,,,,,,,,,,,,,,,,,,,,,,,,,,,,,,,,,,,,,,,,,
,,,,,651433,1,2024-07-12_19h24.32.249,experiment,2024.1.5,MacIntel,59.52380952,6691931c2c63981b064e1f0c,6691bb0a4f768257df25a267,,,,,,,,,,,,,,,,,,,,,,,,,,,,,,,,,,,,,,,,,,,,,,,,,,,,,,,,,,,,1347.722,1353.8624,-0.174457262,-0.198989665,1.0,0.0,0.0,0.1256,compass,0.0,21.0,21.0,12.0,1.0,SoundStimuli/UnbreakMyHeart_ToniBraxton_Original5S.wav,,,,,,,,,,,,,,,,,,,,,,,,,,,,,,,,,,,,,,,,,,,,,,,,,,,,,
,,,,,651433,1,2024-07-12_19h24.32.249,experiment,2024.1.5,MacIntel,59.52380952,6691931c2c63981b064e1f0c,6691bb0a4f768257df25a267,,,,,,,,,,,,,,,,,,,,,,,,,,,,,,,,,,,,,,,,,,,,,,,,,,,,,,,,,,,,1353.8847,1363.0644,0.268933648,0.288476749,1.0,0.0,0.0,3.1518,compass,0.0,22.0,22.0,22.0,1.0,SoundStimuli/Happy_PharellWilliams_Original5S.wav,,,,,,,,,,,,,,,,,,,,,,,,,,,,,,,,,,,,,,,,,,,,,,,,,,,,,
,,,,,651433,1,2024-07-12_19h24.32.249,experiment,2024.1.5,MacIntel,59.52380952,6691931c2c63981b064e1f0c,6691bb0a4f768257df25a267,,,,,,,,,,,,,,,,,,,,,,,,,,,,,,,,,,,,,,,,,,,,,,,,,,,,,,,,,,,,1363.0828,1369.7084,-0.175439589,0.118603516,1.0,0.0,0.0,0.6199,compass,0.0,23.0,23.0,2.0,1.0,SoundStimuli/SmellsLikeTeenSpirit_Nirvana_Original5S.wav,,,,,,,,,,,,,,,,,,,,,,,,,,,,,,,,,,,,,,,,,,,,,,,,,,,,,
,,,,,651433,1,2024-07-12_19h24.32.249,experiment,2024.1.5,MacIntel,59.52380952,6691931c2c63981b064e1f0c,6691bb0a4f768257df25a267,,,,,,,,,,,,,,,,,,,,,,,,,,,,,,,,,,,,,,,,,,,,,,,,,,,,,,,,,,,,1369.7259,1378.9844,0.104937134,-0.128573269,1.0,0.0,0.0,3.2481,compass,0.0,24.0,24.0,19.0,1.0,SoundStimuli/YouLightUpMyLife_DebbyBoone_Original5S.wav,,,,,,,,,,,,,,,,,,,,,,,,,,,,,,,,,,,,,,,,,,,,,,,,,,,,,
,,,,,651433,1,2024-07-12_19h24.32.249,experiment,2024.1.5,MacIntel,59.52380952,6691931c2c63981b064e1f0c,6691bb0a4f768257df25a267,,,,,,,,,,,,,,,,,,,,,,,,,,,,,,,,,,,,,,,,,,,,,,,,,,,,,,,,,,,,1379.0033,1386.5813,-0.141111721,-0.168792182,1.0,0.0,0.0,1.5764,compass,0.0,25.0,25.0,30.0,1.0,SoundStimuli/SomebodyThatIUsedtoKnow_Gotye_Original5S.wav,,,,,,,,,,,,,,,,,,,,,,,,,,,,,,,,,,,,,,,,,,,,,,,,,,,,,
,,,,,651433,1,2024-07-12_19h24.32.249,experiment,2024.1.5,MacIntel,59.52380952,6691931c2c63981b064e1f0c,6691bb0a4f768257df25a267,,,,,,,,,,,,,,,,,,,,,,,,,,,,,,,,,,,,,,,,,,,,,,,,,,,,,,,,,,,,1386.5974,1393.2687,0.074484456,-0.177758789,1.0,0.0,0.0,0.6661,compass,0.0,26.0,26.0,8.0,1.0,SoundStimuli/EndlessLove_DianaRossLionelRichie_Cover5S.wav,,,,,,,,,,,,,,,,,,,,,,,,,,,,,,,,,,,,,,,,,,,,,,,,,,,,,
,,,,,651433,1,2024-07-12_19h24.32.249,experiment,2024.1.5,MacIntel,59.52380952,6691931c2c63981b064e1f0c,6691bb0a4f768257df25a267,,,,,,,,,,,,,,,,,,,,,,,,,,,,,,,,,,,,,,,,,,,,,,,,,,,,,,,,,,,,1393.2879,1401.1138,-0.135531141,-0.187629191,1.0,0.0,0.0,1.8013,compass,0.0,27.0,27.0,32.0,1.0,SoundStimuli/Dilemma_NellyKellyRowland_Cover5S.wav,,,,,,,,,,,,,,,,,,,,,,,,,,,,,,,,,,,,,,,,,,,,,,,,,,,,,
,,,,,651433,1,2024-07-12_19h24.32.249,experiment,2024.1.5,MacIntel,59.52380952,6691931c2c63981b064e1f0c,6691bb0a4f768257df25a267,,,,,,,,,,,,,,,,,,,,,,,,,,,,,,,,,,,,,,,,,,,,,,,,,,,,,,,,,,,,1401.1296,1411.7506,0.044089152,-0.197668593,1.0,0.0,0.0,4.5969,compass,0.0,28.0,28.0,18.0,1.0,SoundStimuli/Weak_SWV_Cover5S.wav,,,,,,,,,,,,,,,,,,,,,,,,,,,,,,,,,,,,,,,,,,,,,,,,,,,,,
,,,,,651433,1,2024-07-12_19h24.32.249,experiment,2024.1.5,MacIntel,59.52380952,6691931c2c63981b064e1f0c,6691bb0a4f768257df25a267,,,,,,,,,,,,,,,,,,,,,,,,,,,,,,,,,,,,,,,,,,,,,,,,,,,,,,,,,,,,1411.768,1418.4951,0.214026693,-0.201205241,1.0,0.0,0.0,0.7259,compass,0.0,29.0,29.0,25.0,1.0,SoundStimuli/IllMakeLoveToYou_BoyzIIMen_Cover5S.wav,,,,,,,,,,,,,,,,,,,,,,,,,,,,,,,,,,,,,,,,,,,,,,,,,,,,,
,,,,,651433,1,2024-07-12_19h24.32.249,experiment,2024.1.5,MacIntel,59.52380952,6691931c2c63981b064e1f0c,6691bb0a4f768257df25a267,,,,,,,,,,,,,,,,,,,,,,,,,,,,,,,,,,,,,,,,,,,,,,,,,,,,,,,,,,,,1418.5133,1425.4741,0.238246053,0.198108114,1.0,0.0,0.0,0.9491,compass,0.0,30.0,30.0,10.0,1.0,SoundStimuli/LeFreak_Chic_Cover5S.wav,,,,,,,,,,,,,,,,,,,,,,,,,,,,,,,,,,,,,,,,,,,,,,,,,,,,,
,,,,,651433,1,2024-07-12_19h24.32.249,experiment,2024.1.5,MacIntel,59.52380952,6691931c2c63981b064e1f0c,6691bb0a4f768257df25a267,,,,,,,,,,,,,,,,,,,,,,,,,,,,,,,,,,,,,,,,,,,,,,,,,,,,,,,,,,,,1425.4908,1431.7298,0.243578627,-0.065525106,1.0,0.0,0.0,0.2362,compass,0.0,31.0,31.0,15.0,1.0,SoundStimuli/CrazyInLove_BeyonceFtJayZ_Cover5S.wav,,,,,,,,,,,,,,,,,,,,,,,,,,,,,,,,,,,,,,,,,,,,,,,,,,,,,
,,,,,651433,1,2024-07-12_19h24.32.249,experiment,2024.1.5,MacIntel,59.52380952,6691931c2c63981b064e1f0c,6691bb0a4f768257df25a267,,,,,,,,,,,,,,,,,,,,,,,,,,,,,,,,,,,,,,,,,,,,,,,,,,,,,,,,,,,,1431.7481,1438.807,0.197253757,-0.170150282,1.0,0.0,0.0,1.0523,compass,0.0,32.0,32.0,9.0,1.0,SoundStimuli/HowDoILive_LeAnnRimes_Cover5S.wav,,,,,,,,,,,,,,,,,,,,,,,,,,,,,,,,,,,,,,,,,,,,,,,,,,,,,
,,,,,651433,1,2024-07-12_19h24.32.249,experiment,2024.1.5,MacIntel,59.52380952,6691931c2c63981b064e1f0c,6691bb0a4f768257df25a267,,,,,,,,,,,,,,,,,,,,,,,,,,,,,,,,,,,,,,,,,,,,,,,,,,,,,,,,,,,,1438.8238,1446.1956,-0.026708171,-0.179229262,1.0,0.0,0.0,1.3568,compass,0.0,33.0,33.0,34.0,1.0,SoundStimuli/Irreplaceable_Beyonce_Cover5S.wav,,,,,,,,,,,,,,,,,,,,,,,,,,,,,,,,,,,,,,,,,,,,,,,,,,,,,
,,,,,651433,1,2024-07-12_19h24.32.249,experiment,2024.1.5,MacIntel,59.52380952,6691931c2c63981b064e1f0c,6691bb0a4f768257df25a267,,,,,,,,,,,,,,,,,,,,,,,,,,,,,,,,,,,,,,,,,,,,,,,,,,,,,,,,,,,,1446.214,1452.8343,0.13801473,0.07381056,1.0,0.0,0.0,0.6049,compass,0.0,34.0,34.0,31.0,1.0,SoundStimuli/TossinAndTurnin_BobbyLewis_Original5S.wav,,,,,,,,,,,,,,,,,,,,,,,,,,,,,,,,,,,,,,,,,,,,,,,,,,,,,
,,,,,651433,1,2024-07-12_19h24.32.249,experiment,2024.1.5,MacIntel,59.52380952,6691931c2c63981b064e1f0c,6691bb0a4f768257df25a267,,,,,,,,,,,,,,,,,,,,,,,,,,,,,,,,,,,,,,,,,,,,,,,,,,,,,,,,,,,,,,,,,,,,,,,,,,,1452.8344,1452.8345,,,,1452.8346,1452.8346,,,,0.0,3.0,3.0,3.0,1.0,block_order/blockD.xlsx,,,,,,,,,,,,,,,,,,,,,,,,,,,,,,,,,,,,,
,,,,,651433,1,2024-07-12_19h24.32.249,experiment,2024.1.5,MacIntel,59.52380952,6691931c2c63981b064e1f0c,6691bb0a4f768257df25a267,,,,,,,,,,,,,,,,,,,,,,,,,,,,,,,,,,,,,,,,,,,,,,,,,,,,,,,,,,,,,,,,,,,,,,,,,,,,,,,,,,,,,,,,,,,35.0,Item 4,"play guitar for 12 years, singer from age 10, played saxophone age 11-16",Item 6,spotify,4.0,6.0,"working, riding the train, walking, exercise, relaxing, driving",Rarely,Rarely,Often,Rarely,Often,Sometimes,Rarely,Always,Always,Rarely,Sometimes,Sometimes,Often,Sometimes,Sometimes,Sometimes,"musical theater, pop punk, punk rock",pop punk,pop,alternative rock,"i started to listen to a lot of pop punk/punk rock in high school and i still listen to it now, but i listen to a lot of different types of rock in general. I don't listen to as much hip hop because i don't listen to radio as much or go to clubs like i used to. i don't listen to as much new music all the time as i used to but i still listen to a lot of new stuff, especially pop.","i listen to spotify throughout the day when working, both playlists they create and my own playlists. I like to change up genres and discover new and old music. my favorite songs tend to be rock though and/or have heavy guitar influence.",0.0,0.0,0.0,0.0,1.0,,
,,,,,651433,1,2024-07-12_19h24.32.249,experiment,2024.1.5,MacIntel,59.52380952,6691931c2c63981b064e1f0c,6691bb0a4f768257df25a267,,,,,,,,,,,,,,,,,,,,,,,,,,,,,,,,,,,,,,,,,,,,,,,,,,,,,,,,,,,,,,,,,,,,,,,,,,,,,,,,,,,,,,,,,,,,,,,,,,,,,,,,,,,,,,,,,,,,,,,,,,,,,,2028.1753,2030.5786
