welcome.started,welcome.stopped,space_to_continue.keys,space_to_continue.rt,space_to_continue.duration,participant,session,date,expName,psychopyVersion,OS,frameRate,STUDY_ID,SESSION_ID,consent.consent,consent.consent_recontact,consent_check.started,consent_check.stopped,calibration_ready.started,calibration_ready.stopped,cal_ready.keys,cal_ready.rt,cal_ready.duration,calibration.started,calibration.stopped,mouse.x,mouse.y,mouse.leftButton,mouse.midButton,mouse.rightButton,mouse.time,mouse.clicked_name,move_on.keys,move_on.rt,move_on.duration,run_cal.thisRepN,run_cal.thisTrialN,run_cal.thisN,run_cal.thisIndex,run_cal.ran,emotion_training_ready.started,emotion_training_ready.stopped,training_move_on.keys,training_move_on.rt,training_move_on.duration,examples.started,examples.stopped,emotion_scale.started,emotion_scale.stopped,scale_next.keys,scale_next.rt,scale_next.duration,instructions.started,instructions.stopped,next.keys,next.rt,next.duration,practice_task.started,practice_task.stopped,mouse_rating_2.x,mouse_rating_2.y,mouse_rating_2.leftButton,mouse_rating_2.midButton,mouse_rating_2.rightButton,mouse_rating_2.time,mouse_rating_2.clicked_name,ready.started,ready.stopped,key_resp.keys,key_resp.rt,key_resp.duration,set_group.started,set_group.stopped,task.started,task.stopped,mouse_rating.x,mouse_rating.y,mouse_rating.leftButton,mouse_rating.midButton,mouse_rating.rightButton,mouse_rating.time,mouse_rating.clicked_name,trials.thisRepN,trials.thisTrialN,trials.thisN,trials.thisIndex,trials.ran,clip,short_break.started,short_break.stopped,space_to_move_on.keys,space_to_move_on.rt,space_to_move_on.duration,instruction_reminder.started,instruction_reminder.stopped,reminder_move_on.keys,reminder_move_on.rt,reminder_move_on.duration,blocks.thisRepN,blocks.thisTrialN,blocks.thisN,blocks.thisIndex,blocks.ran,block,post_survey.age,post_survey.musician,post_survey.music_making,post_survey.listen_time,post_survey.medium,post_survey.music_seeking,post_survey.music_choice,post_survey.activities,post_survey.question1.Classical,post_survey.question1.Country,post_survey.question1.Alternative rock,post_survey.question1.Jazz,post_survey.question1.Classic rock,post_survey.question1.R&B,post_survey.question1.Electronic (EDM),post_survey.question1.A cappella,post_survey.question1.Folk/indie,post_survey.question1.Pop,post_survey.question1.Latin,post_survey.question1.Hip hop,post_survey.question1.Disco,post_survey.question1.Reggae,post_survey.question1.Ambient,post_survey.genres_ranked.text1,post_survey.genres_ranked.text2,post_survey.genres_ranked.text3,post_survey.habit_change,post_survey.habits,show_exp.thisRepN,show_exp.thisTrialN,show_exp.thisN,show_exp.thisIndex,show_exp.ran,goodbye.started,goodbye.stopped
0.0002,5.3478,space,5.3306,,663231,1,2024-07-12_17h41.52.749,experiment,2024.1.5,Win32,59.17159763,6691931c2c63981b064e1f0c,6691b0f5b9588bcd6913cb59,,,,,,,,,,,,,,,,,,,,,,,,,,,,,,,,,,,,,,,,,,,,,,,,,,,,,,,,,,,,,,,,,,,,,,,,,,,,,,,,,,,,,,,,,,,,,,,,,,,,,,,,,,,,,,,,,,,,,,,,,,,,,
,,,,,663231,1,2024-07-12_17h41.52.749,experiment,2024.1.5,Win32,59.17159763,6691931c2c63981b064e1f0c,6691b0f5b9588bcd6913cb59,yes,yes,,,,,,,,,,,,,,,,,,,,,,,,,,,,,,,,,,,,,,,,,,,,,,,,,,,,,,,,,,,,,,,,,,,,,,,,,,,,,,,,,,,,,,,,,,,,,,,,,,,,,,,,,,,,,,,,,,,,,,,,,,,
,,,,,663231,1,2024-07-12_17h41.52.749,experiment,2024.1.5,Win32,59.17159763,6691931c2c63981b064e1f0c,6691b0f5b9588bcd6913cb59,,,75.4167,75.417,,,,,,,,,,,,,,,,,,,,,,,,,,,,,,,,,,,,,,,,,,,,,,,,,,,,,,,,,,,,,,,,,,,,,,,,,,,,,,,,,,,,,,,,,,,,,,,,,,,,,,,,,,,,,,,,,,,,,,,,,
,,,,,663231,1,2024-07-12_17h41.52.749,experiment,2024.1.5,Win32,59.17159763,6691931c2c63981b064e1f0c,6691b0f5b9588bcd6913cb59,,,,,75.4212,99.3066,space,23.8721,,99.3139,175.7055,"[-0.023333333333333334,0.44,-0.03333333333333333,-0.017777777777777778,0.3088888888888889,-0.021111111111111112,-0.021111111111111112]","[-0.42777777777777776,-0.3788888888888889,-0.3877777777777778,-0.42,-0.29888888888888887,-0.41444444444444445,-0.4122222222222222]","[1,1,1,1,1,1,1]","[0,0,0,0,0,0,0]","[0,0,0,0,0,0,0]","[18.620299999982137,39.022999999999996,41.847899999976164,47.85629999998213,52.515199999988084,54.77269999998808,66.7775]","[""play_button"",""play_button""]",n,75.3683,,0.0,0.0,0.0,0.0,1.0,,,,,,,,,,,,,,,,,,,,,,,,,,,,,,,,,,,,,,,,,,,,,,,,,,,,,,,,,,,,,,,,,,,,,,,,,,,,,,,,,,,,,,,,,,,,,,,,,,,
,,,,,663231,1,2024-07-12_17h41.52.749,experiment,2024.1.5,Win32,59.17159763,6691931c2c63981b064e1f0c,6691b0f5b9588bcd6913cb59,,,,,,,,,,175.7152,254.6197,"[-0.021111111111111112,-0.018633540372670808]","[-0.4122222222222222,-0.40683229813664595]","[1,1]","[0,0]","[0,0]","[0.6380000000000052,69.03179999998207]",[],n,77.8952,,1.0,0.0,1.0,0.0,1.0,,,,,,,,,,,,,,,,,,,,,,,,,,,,,,,,,,,,,,,,,,,,,,,,,,,,,,,,,,,,,,,,,,,,,,,,,,,,,,,,,,,,,,,,,,,,,,,,,,,
,,,,,663231,1,2024-07-12_17h41.52.749,experiment,2024.1.5,Win32,59.17159763,6691931c2c63981b064e1f0c,6691b0f5b9588bcd6913cb59,,,,,,,,,,254.6283,280.9877,"[-0.018633540372670808,-0.013664596273291925]","[-0.40683229813664595,-0.4043478260869565]","[1,1]","[0,0]","[0,0]","[0.7847999999821127,3.9740999999940527]","[""play_button""]",y,25.3316,,2.0,0.0,2.0,0.0,1.0,,,,,,,,,,,,,,,,,,,,,,,,,,,,,,,,,,,,,,,,,,,,,,,,,,,,,,,,,,,,,,,,,,,,,,,,,,,,,,,,,,,,,,,,,,,,,,,,,,,
,,,,,663231,1,2024-07-12_17h41.52.749,experiment,2024.1.5,Win32,59.17159763,6691931c2c63981b064e1f0c,6691b0f5b9588bcd6913cb59,,,,,,,,,,,,,,,,,,,,,,,,,,,280.988,332.9622,space,51.952,,332.9624,452.9721,452.9724,493.5485,right,37.0448,,493.5488,504.802,space,11.2298,,504.8021,519.8629,0.134161491,-0.018012422,1.0,0.0,0.0,9.0463,compass_2,519.863,522.8521,space,2.9558,,522.8524,522.8617,522.8732,531.0512,-0.122981366,0.122360248,1.0,0.0,0.0,2.1674,compass,0.0,0.0,0.0,10.0,1.0,SoundStimuli/LeFreak_Chic_Cover5S.wav,,,,,,,,,,,,,,,,,,,,,,,,,,,,,,,,,,,,,,,,,,,,,,,,,,,
,,,,,663231,1,2024-07-12_17h41.52.749,experiment,2024.1.5,Win32,59.17159763,6691931c2c63981b064e1f0c,6691b0f5b9588bcd6913cb59,,,,,,,,,,,,,,,,,,,,,,,,,,,,,,,,,,,,,,,,,,,,,,,,,,,,,,,,,,,,531.0584,539.9006,0.098136646,-0.164596273,1.0,0.0,0.0,2.8389,compass,0.0,1.0,1.0,25.0,1.0,SoundStimuli/IllMakeLoveToYou_BoyzIIMen_Cover5S.wav,,,,,,,,,,,,,,,,,,,,,,,,,,,,,,,,,,,,,,,,,,,,,,,,,,,
,,,,,663231,1,2024-07-12_17h41.52.749,experiment,2024.1.5,Win32,59.17159763,6691931c2c63981b064e1f0c,6691b0f5b9588bcd6913cb59,,,,,,,,,,,,,,,,,,,,,,,,,,,,,,,,,,,,,,,,,,,,,,,,,,,,,,,,,,,,539.91,552.0069,0.095652174,-0.143478261,1.0,0.0,0.0,6.0947,compass,0.0,2.0,2.0,18.0,1.0,SoundStimuli/Weak_SWV_Cover5S.wav,,,,,,,,,,,,,,,,,,,,,,,,,,,,,,,,,,,,,,,,,,,,,,,,,,,
,,,,,663231,1,2024-07-12_17h41.52.749,experiment,2024.1.5,Win32,59.17159763,6691931c2c63981b064e1f0c,6691b0f5b9588bcd6913cb59,,,,,,,,,,,,,,,,,,,,,,,,,,,,,,,,,,,,,,,,,,,,,,,,,,,,,,,,,,,,552.0155,562.0939,0.238509317,-0.024223602,1.0,0.0,0.0,4.0731,compass,0.0,3.0,3.0,8.0,1.0,SoundStimuli/EndlessLove_DianaRossLionelRichie_Cover5S.wav,,,,,,,,,,,,,,,,,,,,,,,,,,,,,,,,,,,,,,,,,,,,,,,,,,,
,,,,,663231,1,2024-07-12_17h41.52.749,experiment,2024.1.5,Win32,59.17159763,6691931c2c63981b064e1f0c,6691b0f5b9588bcd6913cb59,,,,,,,,,,,,,,,,,,,,,,,,,,,,,,,,,,,,,,,,,,,,,,,,,,,,,,,,,,,,562.1015,569.3891,0.223602484,0.066459627,1.0,0.0,0.0,1.2852,compass,0.0,4.0,4.0,4.0,1.0,SoundStimuli/Dreams_FleetwoodMac_Original5S.wav,,,,,,,,,,,,,,,,,,,,,,,,,,,,,,,,,,,,,,,,,,,,,,,,,,,
,,,,,663231,1,2024-07-12_17h41.52.749,experiment,2024.1.5,Win32,59.17159763,6691931c2c63981b064e1f0c,6691b0f5b9588bcd6913cb59,,,,,,,,,,,,,,,,,,,,,,,,,,,,,,,,,,,,,,,,,,,,,,,,,,,,,,,,,,,,569.3966,579.8256,0.217391304,0.316149068,1.0,0.0,0.0,4.4218,compass,0.0,5.0,5.0,27.0,1.0,SoundStimuli/EyeOfTheTiger_Survivor_Cover5S.wav,,,,,,,,,,,,,,,,,,,,,,,,,,,,,,,,,,,,,,,,,,,,,,,,,,,
,,,,,663231,1,2024-07-12_17h41.52.749,experiment,2024.1.5,Win32,59.17159763,6691931c2c63981b064e1f0c,6691b0f5b9588bcd6913cb59,,,,,,,,,,,,,,,,,,,,,,,,,,,,,,,,,,,,,,,,,,,,,,,,,,,,,,,,,,,,579.8348,589.2933,0.105590062,-0.242857143,1.0,0.0,0.0,3.4534,compass,0.0,6.0,6.0,32.0,1.0,SoundStimuli/Dilemma_NellyKellyRowland_Cover5S.wav,,,,,,,,,,,,,,,,,,,,,,,,,,,,,,,,,,,,,,,,,,,,,,,,,,,
,,,,,663231,1,2024-07-12_17h41.52.749,experiment,2024.1.5,Win32,59.17159763,6691931c2c63981b064e1f0c,6691b0f5b9588bcd6913cb59,,,,,,,,,,,,,,,,,,,,,,,,,,,,,,,,,,,,,,,,,,,,,,,,,,,,,,,,,,,,589.3009,598.3103,0.166459627,-0.236645963,1.0,0.0,0.0,3.0019,compass,0.0,7.0,7.0,30.0,1.0,SoundStimuli/SomebodyThatIUsedtoKnow_Gotye_Original5S.wav,,,,,,,,,,,,,,,,,,,,,,,,,,,,,,,,,,,,,,,,,,,,,,,,,,,
,,,,,663231,1,2024-07-12_17h41.52.749,experiment,2024.1.5,Win32,59.17159763,6691931c2c63981b064e1f0c,6691b0f5b9588bcd6913cb59,,,,,,,,,,,,,,,,,,,,,,,,,,,,,,,,,,,,,,,,,,,,,,,,,,,,,,,,,,,,598.3187,604.5722,0.124223602,0.321118012,1.0,0.0,0.0,0.2468,compass,0.0,8.0,8.0,17.0,1.0,SoundStimuli/IWannaDanceWithSomebody_WhitneyHouston_Original5S.wav,,,,,,,,,,,,,,,,,,,,,,,,,,,,,,,,,,,,,,,,,,,,,,,,,,,
,,,,,663231,1,2024-07-12_17h41.52.749,experiment,2024.1.5,Win32,59.17159763,6691931c2c63981b064e1f0c,6691b0f5b9588bcd6913cb59,,,,,,,,,,,,,,,,,,,,,,,,,,,,,,,,,,,,,,,,,,,,,,,,,,,,,,,,,,,,604.5809,611.1881,-0.22484472,0.218012422,1.0,0.0,0.0,0.6042,compass,0.0,9.0,9.0,0.0,1.0,SoundStimuli/GimmeShelter_RollingStones_Original5S.wav,,,,,,,,,,,,,,,,,,,,,,,,,,,,,,,,,,,,,,,,,,,,,,,,,,,
,,,,,663231,1,2024-07-12_17h41.52.749,experiment,2024.1.5,Win32,59.17159763,6691931c2c63981b064e1f0c,6691b0f5b9588bcd6913cb59,,,,,,,,,,,,,,,,,,,,,,,,,,,,,,,,,,,,,,,,,,,,,,,,,,,,,,,,,,,,611.1975,620.8192,0.105590062,0.189440994,1.0,0.0,0.0,3.603,compass,0.0,10.0,10.0,26.0,1.0,SoundStimuli/TheSign_AceOfBase_Cover5S.wav,,,,,,,,,,,,,,,,,,,,,,,,,,,,,,,,,,,,,,,,,,,,,,,,,,,
,,,,,663231,1,2024-07-12_17h41.52.749,experiment,2024.1.5,Win32,59.17159763,6691931c2c63981b064e1f0c,6691b0f5b9588bcd6913cb59,,,,,,,,,,,,,,,,,,,,,,,,,,,,,,,,,,,,,,,,,,,,,,,,,,,,,,,,,,,,620.8267,629.1351,-0.240993789,-0.096273292,1.0,0.0,0.0,2.3015,compass,0.0,11.0,11.0,13.0,1.0,SoundStimuli/Perfect_EdSheeran_Cover5S.wav,,,,,,,,,,,,,,,,,,,,,,,,,,,,,,,,,,,,,,,,,,,,,,,,,,,
,,,,,663231,1,2024-07-12_17h41.52.749,experiment,2024.1.5,Win32,59.17159763,6691931c2c63981b064e1f0c,6691b0f5b9588bcd6913cb59,,,,,,,,,,,,,,,,,,,,,,,,,,,,,,,,,,,,,,,,,,,,,,,,,,,,,,,,,,,,629.1451,640.84,0.211180124,0.222981366,1.0,0.0,0.0,5.6934,compass,0.0,12.0,12.0,28.0,1.0,SoundStimuli/IWantToHoldYourHand_TheBeatles_Original5S.wav,,,,,,,,,,,,,,,,,,,,,,,,,,,,,,,,,,,,,,,,,,,,,,,,,,,
,,,,,663231,1,2024-07-12_17h41.52.749,experiment,2024.1.5,Win32,59.17159763,6691931c2c63981b064e1f0c,6691b0f5b9588bcd6913cb59,,,,,,,,,,,,,,,,,,,,,,,,,,,,,,,,,,,,,,,,,,,,,,,,,,,,,,,,,,,,640.8464,649.6233,-0.227329193,0.262732919,1.0,0.0,0.0,2.7678,compass,0.0,13.0,13.0,2.0,1.0,SoundStimuli/SmellsLikeTeenSpirit_Nirvana_Original5S.wav,,,,,,,,,,,,,,,,,,,,,,,,,,,,,,,,,,,,,,,,,,,,,,,,,,,
,,,,,663231,1,2024-07-12_17h41.52.749,experiment,2024.1.5,Win32,59.17159763,6691931c2c63981b064e1f0c,6691b0f5b9588bcd6913cb59,,,,,,,,,,,,,,,,,,,,,,,,,,,,,,,,,,,,,,,,,,,,,,,,,,,,,,,,,,,,649.6322,657.8926,0.059627329,0.208074534,1.0,0.0,0.0,2.2542,compass,0.0,14.0,14.0,20.0,1.0,SoundStimuli/FlashdanceWhatAFeeling_IreneCara_Original5S.wav,,,,,,,,,,,,,,,,,,,,,,,,,,,,,,,,,,,,,,,,,,,,,,,,,,,
,,,,,663231,1,2024-07-12_17h41.52.749,experiment,2024.1.5,Win32,59.17159763,6691931c2c63981b064e1f0c,6691b0f5b9588bcd6913cb59,,,,,,,,,,,,,,,,,,,,,,,,,,,,,,,,,,,,,,,,,,,,,,,,,,,,,,,,,,,,657.9011,671.8652,-0.157763975,-0.163354037,1.0,0.0,0.0,7.9489,compass,0.0,15.0,15.0,6.0,1.0,SoundStimuli/SaveYourTears_TheWeekndArianaGrande_Cover5S.wav,,,,,,,,,,,,,,,,,,,,,,,,,,,,,,,,,,,,,,,,,,,,,,,,,,,
,,,,,663231,1,2024-07-12_17h41.52.749,experiment,2024.1.5,Win32,59.17159763,6691931c2c63981b064e1f0c,6691b0f5b9588bcd6913cb59,,,,,,,,,,,,,,,,,,,,,,,,,,,,,,,,,,,,,,,,,,,,,,,,,,,,,,,,,,,,671.8751,678.264,-0.157763975,-0.163354037,1.0,0.0,0.0,0.3844,compass,0.0,16.0,16.0,33.0,1.0,SoundStimuli/TheBoyIsMine_BrandyMonica_Original5S.wav,,,,,,,,,,,,,,,,,,,,,,,,,,,,,,,,,,,,,,,,,,,,,,,,,,,
,,,,,663231,1,2024-07-12_17h41.52.749,experiment,2024.1.5,Win32,59.17159763,6691931c2c63981b064e1f0c,6691b0f5b9588bcd6913cb59,,,,,,,,,,,,,,,,,,,,,,,,,,,,,,,,,,,,,,,,,,,,,,,,,,,,,,,,,,,,678.2708,687.0939,0.126708075,0.19068323,1.0,0.0,0.0,2.8215,compass,0.0,17.0,17.0,22.0,1.0,SoundStimuli/Happy_PharellWilliams_Original5S.wav,,,,,,,,,,,,,,,,,,,,,,,,,,,,,,,,,,,,,,,,,,,,,,,,,,,
,,,,,663231,1,2024-07-12_17h41.52.749,experiment,2024.1.5,Win32,59.17159763,6691931c2c63981b064e1f0c,6691b0f5b9588bcd6913cb59,,,,,,,,,,,,,,,,,,,,,,,,,,,,,,,,,,,,,,,,,,,,,,,,,,,,,,,,,,,,687.1027,694.8416,0.126708075,0.19068323,1.0,0.0,0.0,1.7364,compass,0.0,18.0,18.0,31.0,1.0,SoundStimuli/TossinAndTurnin_BobbyLewis_Original5S.wav,,,,,,,,,,,,,,,,,,,,,,,,,,,,,,,,,,,,,,,,,,,,,,,,,,,
,,,,,663231,1,2024-07-12_17h41.52.749,experiment,2024.1.5,Win32,59.17159763,6691931c2c63981b064e1f0c,6691b0f5b9588bcd6913cb59,,,,,,,,,,,,,,,,,,,,,,,,,,,,,,,,,,,,,,,,,,,,,,,,,,,,,,,,,,,,694.8519,701.4204,-0.239751553,0.251552795,1.0,0.0,0.0,0.5639,compass,0.0,19.0,19.0,11.0,1.0,SoundStimuli/BlurredLines_RobinThicke_Cover5S.wav,,,,,,,,,,,,,,,,,,,,,,,,,,,,,,,,,,,,,,,,,,,,,,,,,,,
,,,,,663231,1,2024-07-12_17h41.52.749,experiment,2024.1.5,Win32,59.17159763,6691931c2c63981b064e1f0c,6691b0f5b9588bcd6913cb59,,,,,,,,,,,,,,,,,,,,,,,,,,,,,,,,,,,,,,,,,,,,,,,,,,,,,,,,,,,,701.4284,712.4916,0.275776398,0.00310559,1.0,0.0,0.0,5.0594,compass,0.0,20.0,20.0,23.0,1.0,SoundStimuli/IWalkTheLine_JohnnyCash_Original5S.wav,,,,,,,,,,,,,,,,,,,,,,,,,,,,,,,,,,,,,,,,,,,,,,,,,,,
,,,,,663231,1,2024-07-12_17h41.52.749,experiment,2024.1.5,Win32,59.17159763,6691931c2c63981b064e1f0c,6691b0f5b9588bcd6913cb59,,,,,,,,,,,,,,,,,,,,,,,,,,,,,,,,,,,,,,,,,,,,,,,,,,,,,,,,,,,,712.5012,719.571,0.279503106,0.329813665,1.0,0.0,0.0,1.0683,compass,0.0,21.0,21.0,1.0,1.0,SoundStimuli/Smooth_SantanaRobThomas_Original5S.wav,,,,,,,,,,,,,,,,,,,,,,,,,,,,,,,,,,,,,,,,,,,,,,,,,,,
,,,,,663231,1,2024-07-12_17h41.52.749,experiment,2024.1.5,Win32,59.17159763,6691931c2c63981b064e1f0c,6691b0f5b9588bcd6913cb59,,,,,,,,,,,,,,,,,,,,,,,,,,,,,,,,,,,,,,,,,,,,,,,,,,,,,,,,,,,,719.576,730.1414,-0.093167702,0.263975155,1.0,0.0,0.0,4.5584,compass,0.0,22.0,22.0,15.0,1.0,SoundStimuli/CrazyInLove_BeyonceFtJayZ_Cover5S.wav,,,,,,,,,,,,,,,,,,,,,,,,,,,,,,,,,,,,,,,,,,,,,,,,,,,
,,,,,663231,1,2024-07-12_17h41.52.749,experiment,2024.1.5,Win32,59.17159763,6691931c2c63981b064e1f0c,6691b0f5b9588bcd6913cb59,,,,,,,,,,,,,,,,,,,,,,,,,,,,,,,,,,,,,,,,,,,,,,,,,,,,,,,,,,,,730.1502,737.388,-0.229813665,0.342236025,1.0,0.0,0.0,1.2353,compass,0.0,23.0,23.0,7.0,1.0,SoundStimuli/MackTheKnife_BobbyDarin_Cover5S.wav,,,,,,,,,,,,,,,,,,,,,,,,,,,,,,,,,,,,,,,,,,,,,,,,,,,
,,,,,663231,1,2024-07-12_17h41.52.749,experiment,2024.1.5,Win32,59.17159763,6691931c2c63981b064e1f0c,6691b0f5b9588bcd6913cb59,,,,,,,,,,,,,,,,,,,,,,,,,,,,,,,,,,,,,,,,,,,,,,,,,,,,,,,,,,,,737.3956,747.6948,0.146583851,-0.066459627,1.0,0.0,0.0,4.2925,compass,0.0,24.0,24.0,24.0,1.0,SoundStimuli/Kiss_Prince_Cover5S.wav,,,,,,,,,,,,,,,,,,,,,,,,,,,,,,,,,,,,,,,,,,,,,,,,,,,
,,,,,663231,1,2024-07-12_17h41.52.749,experiment,2024.1.5,Win32,59.17159763,6691931c2c63981b064e1f0c,6691b0f5b9588bcd6913cb59,,,,,,,,,,,,,,,,,,,,,,,,,,,,,,,,,,,,,,,,,,,,,,,,,,,,,,,,,,,,747.7013,755.3215,-0.221118012,-0.254037267,1.0,0.0,0.0,1.6192,compass,0.0,25.0,25.0,9.0,1.0,SoundStimuli/HowDoILive_LeAnnRimes_Cover5S.wav,,,,,,,,,,,,,,,,,,,,,,,,,,,,,,,,,,,,,,,,,,,,,,,,,,,
,,,,,663231,1,2024-07-12_17h41.52.749,experiment,2024.1.5,Win32,59.17159763,6691931c2c63981b064e1f0c,6691b0f5b9588bcd6913cb59,,,,,,,,,,,,,,,,,,,,,,,,,,,,,,,,,,,,,,,,,,,,,,,,,,,,,,,,,,,,755.3267,762.1216,0.2,-0.191925466,1.0,0.0,0.0,0.7887,compass,0.0,26.0,26.0,19.0,1.0,SoundStimuli/YouLightUpMyLife_DebbyBoone_Original5S.wav,,,,,,,,,,,,,,,,,,,,,,,,,,,,,,,,,,,,,,,,,,,,,,,,,,,
,,,,,663231,1,2024-07-12_17h41.52.749,experiment,2024.1.5,Win32,59.17159763,6691931c2c63981b064e1f0c,6691b0f5b9588bcd6913cb59,,,,,,,,,,,,,,,,,,,,,,,,,,,,,,,,,,,,,,,,,,,,,,,,,,,,,,,,,,,,762.1302,770.3501,0.19378882,0.236645963,1.0,0.0,0.0,2.2041,compass,0.0,27.0,27.0,5.0,1.0,SoundStimuli/JoyToTheWorld_ThreeDogNight_Original5S.wav,,,,,,,,,,,,,,,,,,,,,,,,,,,,,,,,,,,,,,,,,,,,,,,,,,,
,,,,,663231,1,2024-07-12_17h41.52.749,experiment,2024.1.5,Win32,59.17159763,6691931c2c63981b064e1f0c,6691b0f5b9588bcd6913cb59,,,,,,,,,,,,,,,,,,,,,,,,,,,,,,,,,,,,,,,,,,,,,,,,,,,,,,,,,,,,770.3586,777.2465,-0.198757764,0.27515528,1.0,0.0,0.0,0.8818,compass,0.0,28.0,28.0,3.0,1.0,SoundStimuli/PartyRockAnthem_LMFAO_Original5S.wav,,,,,,,,,,,,,,,,,,,,,,,,,,,,,,,,,,,,,,,,,,,,,,,,,,,
,,,,,663231,1,2024-07-12_17h41.52.749,experiment,2024.1.5,Win32,59.17159763,6691931c2c63981b064e1f0c,6691b0f5b9588bcd6913cb59,,,,,,,,,,,,,,,,,,,,,,,,,,,,,,,,,,,,,,,,,,,,,,,,,,,,,,,,,,,,777.2567,786.5806,-0.191304348,-0.266459627,1.0,0.0,0.0,3.3205,compass,0.0,29.0,29.0,21.0,1.0,SoundStimuli/BridgeOverTroubledWater_SimonAndGarfunkel_Original5S.wav,,,,,,,,,,,,,,,,,,,,,,,,,,,,,,,,,,,,,,,,,,,,,,,,,,,
,,,,,663231,1,2024-07-12_17h41.52.749,experiment,2024.1.5,Win32,59.17159763,6691931c2c63981b064e1f0c,6691b0f5b9588bcd6913cb59,,,,,,,,,,,,,,,,,,,,,,,,,,,,,,,,,,,,,,,,,,,,,,,,,,,,,,,,,,,,786.5913,793.6439,0.183850932,-0.246583851,1.0,0.0,0.0,1.0518,compass,0.0,30.0,30.0,34.0,1.0,SoundStimuli/Irreplaceable_Beyonce_Cover5S.wav,,,,,,,,,,,,,,,,,,,,,,,,,,,,,,,,,,,,,,,,,,,,,,,,,,,
,,,,,663231,1,2024-07-12_17h41.52.749,experiment,2024.1.5,Win32,59.17159763,6691931c2c63981b064e1f0c,6691b0f5b9588bcd6913cb59,,,,,,,,,,,,,,,,,,,,,,,,,,,,,,,,,,,,,,,,,,,,,,,,,,,,,,,,,,,,793.6517,805.0189,-0.137888199,-0.20310559,1.0,0.0,0.0,5.3601,compass,0.0,31.0,31.0,12.0,1.0,SoundStimuli/UnbreakMyHeart_ToniBraxton_Original5S.wav,,,,,,,,,,,,,,,,,,,,,,,,,,,,,,,,,,,,,,,,,,,,,,,,,,,
,,,,,663231,1,2024-07-12_17h41.52.749,experiment,2024.1.5,Win32,59.17159763,6691931c2c63981b064e1f0c,6691b0f5b9588bcd6913cb59,,,,,,,,,,,,,,,,,,,,,,,,,,,,,,,,,,,,,,,,,,,,,,,,,,,,,,,,,,,,805.028,811.7946,0.250931677,-0.11242236,1.0,0.0,0.0,0.7644,compass,0.0,32.0,32.0,29.0,1.0,SoundStimuli/BetteDavisEyes_KimCarnes_Original5S.wav,,,,,,,,,,,,,,,,,,,,,,,,,,,,,,,,,,,,,,,,,,,,,,,,,,,
,,,,,663231,1,2024-07-12_17h41.52.749,experiment,2024.1.5,Win32,59.17159763,6691931c2c63981b064e1f0c,6691b0f5b9588bcd6913cb59,,,,,,,,,,,,,,,,,,,,,,,,,,,,,,,,,,,,,,,,,,,,,,,,,,,,,,,,,,,,811.8029,822.0137,0.145341615,0.32484472,1.0,0.0,0.0,4.2076,compass,0.0,33.0,33.0,14.0,1.0,SoundStimuli/LikeARollingStone_BobDylan_Original5S.wav,,,,,,,,,,,,,,,,,,,,,,,,,,,,,,,,,,,,,,,,,,,,,,,,,,,
,,,,,663231,1,2024-07-12_17h41.52.749,experiment,2024.1.5,Win32,59.17159763,6691931c2c63981b064e1f0c,6691b0f5b9588bcd6913cb59,,,,,,,,,,,,,,,,,,,,,,,,,,,,,,,,,,,,,,,,,,,,,,,,,,,,,,,,,,,,822.0216,832.8176,0.029813665,-0.113664596,1.0,0.0,0.0,4.7888,compass,0.0,34.0,34.0,16.0,1.0,SoundStimuli/ItsAllInTheGame_TommyEdwards_Cover5S.wav,,,,,,,,,,,,,,,,,,,,,,,,,,,,,,,,,,,,,,,,,,,,,,,,,,,
,,,,,663231,1,2024-07-12_17h41.52.749,experiment,2024.1.5,Win32,59.17159763,6691931c2c63981b064e1f0c,6691b0f5b9588bcd6913cb59,,,,,,,,,,,,,,,,,,,,,,,,,,,,,,,,,,,,,,,,,,,,,,,,,,,,,,,,,,,,,,,,,,,,,,,,,,,832.8293,873.4651,space,40.6271,,873.4653,896.5884,right,23.0962,,0.0,0.0,0.0,0.0,1.0,block_order/blockD.xlsx,,,,,,,,,,,,,,,,,,,,,,,,,,,,,,,,,,,
,,,,,663231,1,2024-07-12_17h41.52.749,experiment,2024.1.5,Win32,59.17159763,6691931c2c63981b064e1f0c,6691b0f5b9588bcd6913cb59,,,,,,,,,,,,,,,,,,,,,,,,,,,,,,,,,,,,,,,,,,,,,,,,,,,,,,,,,,,,896.5991,906.4724,0.111801242,0.339751553,1.0,0.0,0.0,3.8707,compass,0.0,0.0,0.0,8.0,1.0,SoundStimuli/LikeAPrayer_Madonna_Cover5S.wav,,,,,,,,,,,,,,,,,,,,,,,,,,,,,,,,,,,,,,,,,,,,,,,,,,,
,,,,,663231,1,2024-07-12_17h41.52.749,experiment,2024.1.5,Win32,59.17159763,6691931c2c63981b064e1f0c,6691b0f5b9588bcd6913cb59,,,,,,,,,,,,,,,,,,,,,,,,,,,,,,,,,,,,,,,,,,,,,,,,,,,,,,,,,,,,906.481,913.6525,-0.208695652,0.220496894,1.0,0.0,0.0,1.1658,compass,0.0,1.0,1.0,16.0,1.0,SoundStimuli/BohemianRhapsody_Queen_Cover5S.wav,,,,,,,,,,,,,,,,,,,,,,,,,,,,,,,,,,,,,,,,,,,,,,,,,,,
,,,,,663231,1,2024-07-12_17h41.52.749,experiment,2024.1.5,Win32,59.17159763,6691931c2c63981b064e1f0c,6691b0f5b9588bcd6913cb59,,,,,,,,,,,,,,,,,,,,,,,,,,,,,,,,,,,,,,,,,,,,,,,,,,,,,,,,,,,,913.6623,920.6155,-0.208695652,0.220496894,1.0,0.0,0.0,0.9495,compass,0.0,2.0,2.0,1.0,1.0,SoundStimuli/Stronger_KanyeWest_Cover5S.wav,,,,,,,,,,,,,,,,,,,,,,,,,,,,,,,,,,,,,,,,,,,,,,,,,,,
,,,,,663231,1,2024-07-12_17h41.52.749,experiment,2024.1.5,Win32,59.17159763,6691931c2c63981b064e1f0c,6691b0f5b9588bcd6913cb59,,,,,,,,,,,,,,,,,,,,,,,,,,,,,,,,,,,,,,,,,,,,,,,,,,,,,,,,,,,,920.6239,927.4953,0.197515528,0.32484472,1.0,0.0,0.0,0.8684,compass,0.0,3.0,3.0,26.0,1.0,SoundStimuli/LivinOnAPrayer_BonJovi_Original5S.wav,,,,,,,,,,,,,,,,,,,,,,,,,,,,,,,,,,,,,,,,,,,,,,,,,,,
,,,,,663231,1,2024-07-12_17h41.52.749,experiment,2024.1.5,Win32,59.17159763,6691931c2c63981b064e1f0c,6691b0f5b9588bcd6913cb59,,,,,,,,,,,,,,,,,,,,,,,,,,,,,,,,,,,,,,,,,,,,,,,,,,,,,,,,,,,,927.5046,942.2598,-0.072049689,-0.205590062,1.0,0.0,0.0,8.7532,compass,0.0,4.0,4.0,32.0,1.0,SoundStimuli/HeatWaves_GlassAnimals_Cover5S.wav,,,,,,,,,,,,,,,,,,,,,,,,,,,,,,,,,,,,,,,,,,,,,,,,,,,
,,,,,663231,1,2024-07-12_17h41.52.749,experiment,2024.1.5,Win32,59.17159763,6691931c2c63981b064e1f0c,6691b0f5b9588bcd6913cb59,,,,,,,,,,,,,,,,,,,,,,,,,,,,,,,,,,,,,,,,,,,,,,,,,,,,,,,,,,,,942.2677,954.3954,-0.085714286,-0.027950311,1.0,0.0,0.0,6.1113,compass,0.0,5.0,5.0,17.0,1.0,SoundStimuli/Fallin_AliciaKeys_Cover5S.wav,,,,,,,,,,,,,,,,,,,,,,,,,,,,,,,,,,,,,,,,,,,,,,,,,,,
,,,,,663231,1,2024-07-12_17h41.52.749,experiment,2024.1.5,Win32,59.17159763,6691931c2c63981b064e1f0c,6691b0f5b9588bcd6913cb59,,,,,,,,,,,,,,,,,,,,,,,,,,,,,,,,,,,,,,,,,,,,,,,,,,,,,,,,,,,,954.4026,963.8134,0.149068323,0.298757764,1.0,0.0,0.0,3.4036,compass,0.0,6.0,6.0,21.0,1.0,SoundStimuli/GoodGollyMissMolly_LittleRichard_Original5S.wav,,,,,,,,,,,,,,,,,,,,,,,,,,,,,,,,,,,,,,,,,,,,,,,,,,,
,,,,,663231,1,2024-07-12_17h41.52.749,experiment,2024.1.5,Win32,59.17159763,6691931c2c63981b064e1f0c,6691b0f5b9588bcd6913cb59,,,,,,,,,,,,,,,,,,,,,,,,,,,,,,,,,,,,,,,,,,,,,,,,,,,,,,,,,,,,963.8234,972.4464,0.166459627,-0.227950311,1.0,0.0,0.0,2.6212,compass,0.0,7.0,7.0,33.0,1.0,SoundStimuli/StandByMe_BenEKing_Original5S.wav,,,,,,,,,,,,,,,,,,,,,,,,,,,,,,,,,,,,,,,,,,,,,,,,,,,
,,,,,663231,1,2024-07-12_17h41.52.749,experiment,2024.1.5,Win32,59.17159763,6691931c2c63981b064e1f0c,6691b0f5b9588bcd6913cb59,,,,,,,,,,,,,,,,,,,,,,,,,,,,,,,,,,,,,,,,,,,,,,,,,,,,,,,,,,,,972.4566,982.7485,0.166459627,-0.227950311,1.0,0.0,0.0,4.2878,compass,0.0,8.0,8.0,6.0,1.0,SoundStimuli/Levitating_DuaLipa_Original5S.wav,,,,,,,,,,,,,,,,,,,,,,,,,,,,,,,,,,,,,,,,,,,,,,,,,,,
,,,,,663231,1,2024-07-12_17h41.52.749,experiment,2024.1.5,Win32,59.17159763,6691931c2c63981b064e1f0c,6691b0f5b9588bcd6913cb59,,,,,,,,,,,,,,,,,,,,,,,,,,,,,,,,,,,,,,,,,,,,,,,,,,,,,,,,,,,,982.7529,992.8507,-0.223602484,-0.224223602,1.0,0.0,0.0,4.0871,compass,0.0,9.0,9.0,5.0,1.0,SoundStimuli/MyGirl_TheTemptations_Cover5S.wav,,,,,,,,,,,,,,,,,,,,,,,,,,,,,,,,,,,,,,,,,,,,,,,,,,,
,,,,,663231,1,2024-07-12_17h41.52.749,experiment,2024.1.5,Win32,59.17159763,6691931c2c63981b064e1f0c,6691b0f5b9588bcd6913cb59,,,,,,,,,,,,,,,,,,,,,,,,,,,,,,,,,,,,,,,,,,,,,,,,,,,,,,,,,,,,992.8573,1001.5382,-0.304347826,0.301242236,1.0,0.0,0.0,2.672,compass,0.0,10.0,10.0,14.0,1.0,SoundStimuli/BlindingLights_TheWeeknd_Cover5S.wav,,,,,,,,,,,,,,,,,,,,,,,,,,,,,,,,,,,,,,,,,,,,,,,,,,,
,,,,,663231,1,2024-07-12_17h41.52.749,experiment,2024.1.5,Win32,59.17159763,6691931c2c63981b064e1f0c,6691b0f5b9588bcd6913cb59,,,,,,,,,,,,,,,,,,,,,,,,,,,,,,,,,,,,,,,,,,,,,,,,,,,,,,,,,,,,1001.5465,1008.3972,-0.149068323,0.28136646,1.0,0.0,0.0,0.8311,compass,0.0,11.0,11.0,28.0,1.0,SoundStimuli/ComeAndGetYourLove_Redbone_Cover5S.wav,,,,,,,,,,,,,,,,,,,,,,,,,,,,,,,,,,,,,,,,,,,,,,,,,,,
,,,,,663231,1,2024-07-12_17h41.52.749,experiment,2024.1.5,Win32,59.17159763,6691931c2c63981b064e1f0c,6691b0f5b9588bcd6913cb59,,,,,,,,,,,,,,,,,,,,,,,,,,,,,,,,,,,,,,,,,,,,,,,,,,,,,,,,,,,,1008.408,1016.2451,0.098136646,0.265217391,1.0,0.0,0.0,1.8364,compass,0.0,12.0,12.0,9.0,1.0,SoundStimuli/Despacito_LuisFonsiDaddyYankee_Original5S.wav,,,,,,,,,,,,,,,,,,,,,,,,,,,,,,,,,,,,,,,,,,,,,,,,,,,
,,,,,663231,1,2024-07-12_17h41.52.749,experiment,2024.1.5,Win32,59.17159763,6691931c2c63981b064e1f0c,6691b0f5b9588bcd6913cb59,,,,,,,,,,,,,,,,,,,,,,,,,,,,,,,,,,,,,,,,,,,,,,,,,,,,,,,,,,,,1016.2559,1022.7074,0.145341615,-0.20310559,1.0,0.0,0.0,0.4477,compass,0.0,13.0,13.0,12.0,1.0,SoundStimuli/IWillAlwaysLoveYou_WhitneyHouston_Original5S.wav,,,,,,,,,,,,,,,,,,,,,,,,,,,,,,,,,,,,,,,,,,,,,,,,,,,
,,,,,663231,1,2024-07-12_17h41.52.749,experiment,2024.1.5,Win32,59.17159763,6691931c2c63981b064e1f0c,6691b0f5b9588bcd6913cb59,,,,,,,,,,,,,,,,,,,,,,,,,,,,,,,,,,,,,,,,,,,,,,,,,,,,,,,,,,,,1022.7168,1032.2454,0.165217391,0.131055901,1.0,0.0,0.0,3.5264,compass,0.0,14.0,14.0,0.0,1.0,SoundStimuli/StayinAlive_BeeGees_Cover5S.wav,,,,,,,,,,,,,,,,,,,,,,,,,,,,,,,,,,,,,,,,,,,,,,,,,,,
,,,,,663231,1,2024-07-12_17h41.52.749,experiment,2024.1.5,Win32,59.17159763,6691931c2c63981b064e1f0c,6691b0f5b9588bcd6913cb59,,,,,,,,,,,,,,,,,,,,,,,,,,,,,,,,,,,,,,,,,,,,,,,,,,,,,,,,,,,,1032.2518,1040.6614,0.222360248,0.150931677,1.0,0.0,0.0,2.4047,compass,0.0,15.0,15.0,20.0,1.0,SoundStimuli/HeyYa_Outkast_Original5S.wav,,,,,,,,,,,,,,,,,,,,,,,,,,,,,,,,,,,,,,,,,,,,,,,,,,,
,,,,,663231,1,2024-07-12_17h41.52.749,experiment,2024.1.5,Win32,59.17159763,6691931c2c63981b064e1f0c,6691b0f5b9588bcd6913cb59,,,,,,,,,,,,,,,,,,,,,,,,,,,,,,,,,,,,,,,,,,,,,,,,,,,,,,,,,,,,1040.672,1050.109,0.017391304,-0.301242236,1.0,0.0,0.0,3.4201,compass,0.0,16.0,16.0,34.0,1.0,SoundStimuli/AChangeIsGonnaCome_SamCooke_Original5S.wav,,,,,,,,,,,,,,,,,,,,,,,,,,,,,,,,,,,,,,,,,,,,,,,,,,,
,,,,,663231,1,2024-07-12_17h41.52.749,experiment,2024.1.5,Win32,59.17159763,6691931c2c63981b064e1f0c,6691b0f5b9588bcd6913cb59,,,,,,,,,,,,,,,,,,,,,,,,,,,,,,,,,,,,,,,,,,,,,,,,,,,,,,,,,,,,1050.1195,1058.8919,0.081987578,0.365838509,1.0,0.0,0.0,2.0367,compass,0.0,17.0,17.0,4.0,1.0,SoundStimuli/GetUrFreakOn_MissyElliot_Cover5S.wav,,,,,,,,,,,,,,,,,,,,,,,,,,,,,,,,,,,,,,,,,,,,,,,,,,,
,,,,,663231,1,2024-07-12_17h41.52.749,experiment,2024.1.5,Win32,59.17159763,6691931c2c63981b064e1f0c,6691b0f5b9588bcd6913cb59,,,,,,,,,,,,,,,,,,,,,,,,,,,,,,,,,,,,,,,,,,,,,,,,,,,,,,,,,,,,1058.8996,1066.8572,-0.268322981,0.28136646,1.0,0.0,0.0,1.9539,compass,0.0,18.0,18.0,7.0,1.0,SoundStimuli/NoOne_AliciaKeys_Original5S.wav,,,,,,,,,,,,,,,,,,,,,,,,,,,,,,,,,,,,,,,,,,,,,,,,,,,
,,,,,663231,1,2024-07-12_17h41.52.749,experiment,2024.1.5,Win32,59.17159763,6691931c2c63981b064e1f0c,6691b0f5b9588bcd6913cb59,,,,,,,,,,,,,,,,,,,,,,,,,,,,,,,,,,,,,,,,,,,,,,,,,,,,,,,,,,,,1066.8655,1078.382,0.19378882,0.308695652,1.0,0.0,0.0,5.5138,compass,0.0,19.0,19.0,24.0,1.0,SoundStimuli/UptownFunk_MarkRonson_Cover5S.wav,,,,,,,,,,,,,,,,,,,,,,,,,,,,,,,,,,,,,,,,,,,,,,,,,,,
,,,,,663231,1,2024-07-12_17h41.52.749,experiment,2024.1.5,Win32,59.17159763,6691931c2c63981b064e1f0c,6691b0f5b9588bcd6913cb59,,,,,,,,,,,,,,,,,,,,,,,,,,,,,,,,,,,,,,,,,,,,,,,,,,,,,,,,,,,,1078.3902,1088.1801,0.110559006,-0.220496894,1.0,0.0,0.0,3.7739,compass,0.0,20.0,20.0,18.0,1.0,SoundStimuli/AnotherOneBitesTheDust_Queen_Cover5S.wav,,,,,,,,,,,,,,,,,,,,,,,,,,,,,,,,,,,,,,,,,,,,,,,,,,,
,,,,,663231,1,2024-07-12_17h41.52.749,experiment,2024.1.5,Win32,59.17159763,6691931c2c63981b064e1f0c,6691b0f5b9588bcd6913cb59,,,,,,,,,,,,,,,,,,,,,,,,,,,,,,,,,,,,,,,,,,,,,,,,,,,,,,,,,,,,1088.1868,1095.3769,0.110559006,-0.220496894,1.0,0.0,0.0,1.1855,compass,0.0,21.0,21.0,22.0,1.0,SoundStimuli/RockWithYou_MichaelJackson_Cover5S.wav,,,,,,,,,,,,,,,,,,,,,,,,,,,,,,,,,,,,,,,,,,,,,,,,,,,
,,,,,663231,1,2024-07-12_17h41.52.749,experiment,2024.1.5,Win32,59.17159763,6691931c2c63981b064e1f0c,6691b0f5b9588bcd6913cb59,,,,,,,,,,,,,,,,,,,,,,,,,,,,,,,,,,,,,,,,,,,,,,,,,,,,,,,,,,,,1095.382,1105.9137,-0.185093168,0.254037267,1.0,0.0,0.0,4.5223,compass,0.0,22.0,22.0,2.0,1.0,SoundStimuli/Mood_24kGoldnianndior_Original5S.wav,,,,,,,,,,,,,,,,,,,,,,,,,,,,,,,,,,,,,,,,,,,,,,,,,,,
,,,,,663231,1,2024-07-12_17h41.52.749,experiment,2024.1.5,Win32,59.17159763,6691931c2c63981b064e1f0c,6691b0f5b9588bcd6913cb59,,,,,,,,,,,,,,,,,,,,,,,,,,,,,,,,,,,,,,,,,,,,,,,,,,,,,,,,,,,,1105.9225,1113.3442,-0.186335404,0.204347826,1.0,0.0,0.0,1.4157,compass,0.0,23.0,23.0,23.0,1.0,SoundStimuli/StrawberryFieldsForever_TheBeatles_Cover5S.wav,,,,,,,,,,,,,,,,,,,,,,,,,,,,,,,,,,,,,,,,,,,,,,,,,,,
,,,,,663231,1,2024-07-12_17h41.52.749,experiment,2024.1.5,Win32,59.17159763,6691931c2c63981b064e1f0c,6691b0f5b9588bcd6913cb59,,,,,,,,,,,,,,,,,,,,,,,,,,,,,,,,,,,,,,,,,,,,,,,,,,,,,,,,,,,,1113.3521,1124.5989,-0.207453416,-0.272670807,1.0,0.0,0.0,5.2413,compass,0.0,24.0,24.0,13.0,1.0,SoundStimuli/GodOnlyKnows_TheBeachBoys_Original5S.wav,,,,,,,,,,,,,,,,,,,,,,,,,,,,,,,,,,,,,,,,,,,,,,,,,,,
,,,,,663231,1,2024-07-12_17h41.52.749,experiment,2024.1.5,Win32,59.17159763,6691931c2c63981b064e1f0c,6691b0f5b9588bcd6913cb59,,,,,,,,,,,,,,,,,,,,,,,,,,,,,,,,,,,,,,,,,,,,,,,,,,,,,,,,,,,,1124.6073,1133.7661,0.079503106,-0.283850932,1.0,0.0,0.0,3.1561,compass,0.0,25.0,25.0,10.0,1.0,SoundStimuli/BadDay_DanielPowter_Original5S.wav,,,,,,,,,,,,,,,,,,,,,,,,,,,,,,,,,,,,,,,,,,,,,,,,,,,
,,,,,663231,1,2024-07-12_17h41.52.749,experiment,2024.1.5,Win32,59.17159763,6691931c2c63981b064e1f0c,6691b0f5b9588bcd6913cb59,,,,,,,,,,,,,,,,,,,,,,,,,,,,,,,,,,,,,,,,,,,,,,,,,,,,,,,,,,,,1133.7754,1140.7623,-0.213664596,0.220496894,1.0,0.0,0.0,0.9849,compass,0.0,26.0,26.0,25.0,1.0,SoundStimuli/Respect_ArethaFranklin_Cover5S.wav,,,,,,,,,,,,,,,,,,,,,,,,,,,,,,,,,,,,,,,,,,,,,,,,,,,
,,,,,663231,1,2024-07-12_17h41.52.749,experiment,2024.1.5,Win32,59.17159763,6691931c2c63981b064e1f0c,6691b0f5b9588bcd6913cb59,,,,,,,,,,,,,,,,,,,,,,,,,,,,,,,,,,,,,,,,,,,,,,,,,,,,,,,,,,,,1140.7708,1149.933,-0.213664596,0.220496894,1.0,0.0,0.0,3.1559,compass,0.0,27.0,27.0,3.0,1.0,SoundStimuli/NoScrubs_TLC_Cover5S.wav,,,,,,,,,,,,,,,,,,,,,,,,,,,,,,,,,,,,,,,,,,,,,,,,,,,
,,,,,663231,1,2024-07-12_17h41.52.749,experiment,2024.1.5,Win32,59.17159763,6691931c2c63981b064e1f0c,6691b0f5b9588bcd6913cb59,,,,,,,,,,,,,,,,,,,,,,,,,,,,,,,,,,,,,,,,,,,,,,,,,,,,,,,,,,,,1149.9414,1156.6631,0.168944099,0.227950311,1.0,0.0,0.0,0.7034,compass,0.0,28.0,28.0,30.0,1.0,SoundStimuli/PokerFace_LadyGaga_Cover5S.wav,,,,,,,,,,,,,,,,,,,,,,,,,,,,,,,,,,,,,,,,,,,,,,,,,,,
,,,,,663231,1,2024-07-12_17h41.52.749,experiment,2024.1.5,Win32,59.17159763,6691931c2c63981b064e1f0c,6691b0f5b9588bcd6913cb59,,,,,,,,,,,,,,,,,,,,,,,,,,,,,,,,,,,,,,,,,,,,,,,,,,,,,,,,,,,,1156.6725,1166.3981,0.119254658,-0.21552795,1.0,0.0,0.0,3.7245,compass,0.0,29.0,29.0,19.0,1.0,SoundStimuli/LetsGetItOn_MarvinGaye_Original5S.wav,,,,,,,,,,,,,,,,,,,,,,,,,,,,,,,,,,,,,,,,,,,,,,,,,,,
,,,,,663231,1,2024-07-12_17h41.52.749,experiment,2024.1.5,Win32,59.17159763,6691931c2c63981b064e1f0c,6691b0f5b9588bcd6913cb59,,,,,,,,,,,,,,,,,,,,,,,,,,,,,,,,,,,,,,,,,,,,,,,,,,,,,,,,,,,,1166.4065,1173.9079,0.129192547,0.271428571,1.0,0.0,0.0,1.4862,compass,0.0,30.0,30.0,11.0,1.0,SoundStimuli/Superstition_StevieWonder_Original5S.wav,,,,,,,,,,,,,,,,,,,,,,,,,,,,,,,,,,,,,,,,,,,,,,,,,,,
,,,,,663231,1,2024-07-12_17h41.52.749,experiment,2024.1.5,Win32,59.17159763,6691931c2c63981b064e1f0c,6691b0f5b9588bcd6913cb59,,,,,,,,,,,,,,,,,,,,,,,,,,,,,,,,,,,,,,,,,,,,,,,,,,,,,,,,,,,,1173.9167,1183.7096,-0.150310559,-0.19068323,1.0,0.0,0.0,3.7902,compass,0.0,31.0,31.0,29.0,1.0,SoundStimuli/OldTownRoad_LilNasX_Cover5S.wav,,,,,,,,,,,,,,,,,,,,,,,,,,,,,,,,,,,,,,,,,,,,,,,,,,,
,,,,,663231,1,2024-07-12_17h41.52.749,experiment,2024.1.5,Win32,59.17159763,6691931c2c63981b064e1f0c,6691b0f5b9588bcd6913cb59,,,,,,,,,,,,,,,,,,,,,,,,,,,,,,,,,,,,,,,,,,,,,,,,,,,,,,,,,,,,1183.7187,1194.1793,0.127950311,-0.128571429,1.0,0.0,0.0,4.4581,compass,0.0,32.0,32.0,27.0,1.0,SoundStimuli/ShapeofYou_EdSheeran_Cover5S.wav,,,,,,,,,,,,,,,,,,,,,,,,,,,,,,,,,,,,,,,,,,,,,,,,,,,
,,,,,663231,1,2024-07-12_17h41.52.749,experiment,2024.1.5,Win32,59.17159763,6691931c2c63981b064e1f0c,6691b0f5b9588bcd6913cb59,,,,,,,,,,,,,,,,,,,,,,,,,,,,,,,,,,,,,,,,,,,,,,,,,,,,,,,,,,,,1194.1875,1200.8588,0.188819876,0.314906832,1.0,0.0,0.0,0.6636,compass,0.0,33.0,33.0,31.0,1.0,SoundStimuli/TheBattleOfNewOrleans_JohnnyHorton_Original5S.wav,,,,,,,,,,,,,,,,,,,,,,,,,,,,,,,,,,,,,,,,,,,,,,,,,,,
,,,,,663231,1,2024-07-12_17h41.52.749,experiment,2024.1.5,Win32,59.17159763,6691931c2c63981b064e1f0c,6691b0f5b9588bcd6913cb59,,,,,,,,,,,,,,,,,,,,,,,,,,,,,,,,,,,,,,,,,,,,,,,,,,,,,,,,,,,,1200.8667,1207.8082,-0.243478261,0.259006211,1.0,0.0,0.0,0.9347,compass,0.0,34.0,34.0,15.0,1.0,SoundStimuli/TikTok_Kesha_Original5S.wav,,,,,,,,,,,,,,,,,,,,,,,,,,,,,,,,,,,,,,,,,,,,,,,,,,,
,,,,,663231,1,2024-07-12_17h41.52.749,experiment,2024.1.5,Win32,59.17159763,6691931c2c63981b064e1f0c,6691b0f5b9588bcd6913cb59,,,,,,,,,,,,,,,,,,,,,,,,,,,,,,,,,,,,,,,,,,,,,,,,,,,,,,,,,,,,,,,,,,,,,,,,,,,1207.8084,1252.1215,space,44.2849,,1252.1217,1257.7153,right,5.5628,,0.0,1.0,1.0,1.0,1.0,block_order/blockC.xlsx,,,,,,,,,,,,,,,,,,,,,,,,,,,,,,,,,,,
,,,,,663231,1,2024-07-12_17h41.52.749,experiment,2024.1.5,Win32,59.17159763,6691931c2c63981b064e1f0c,6691b0f5b9588bcd6913cb59,,,,,,,,,,,,,,,,,,,,,,,,,,,,,,,,,,,,,,,,,,,,,,,,,,,,,,,,,,,,1257.729,1265.2659,0.166459627,-0.155900621,1.0,0.0,0.0,1.5226,compass,0.0,0.0,0.0,18.0,1.0,SoundStimuli/Weak_SWV_Original5S.wav,,,,,,,,,,,,,,,,,,,,,,,,,,,,,,,,,,,,,,,,,,,,,,,,,,,
,,,,,663231,1,2024-07-12_17h41.52.749,experiment,2024.1.5,Win32,59.17159763,6691931c2c63981b064e1f0c,6691b0f5b9588bcd6913cb59,,,,,,,,,,,,,,,,,,,,,,,,,,,,,,,,,,,,,,,,,,,,,,,,,,,,,,,,,,,,1265.2753,1273.0275,0.124223602,0.152173913,1.0,0.0,0.0,1.7366,compass,0.0,1.0,1.0,12.0,1.0,SoundStimuli/UnbreakMyHeart_ToniBraxton_Cover5S.wav,,,,,,,,,,,,,,,,,,,,,,,,,,,,,,,,,,,,,,,,,,,,,,,,,,,
,,,,,663231,1,2024-07-12_17h41.52.749,experiment,2024.1.5,Win32,59.17159763,6691931c2c63981b064e1f0c,6691b0f5b9588bcd6913cb59,,,,,,,,,,,,,,,,,,,,,,,,,,,,,,,,,,,,,,,,,,,,,,,,,,,,,,,,,,,,1273.0355,1280.5583,0.124223602,0.152173913,1.0,0.0,0.0,1.5152,compass,0.0,2.0,2.0,24.0,1.0,SoundStimuli/Kiss_Prince_Original5S.wav,,,,,,,,,,,,,,,,,,,,,,,,,,,,,,,,,,,,,,,,,,,,,,,,,,,
,,,,,663231,1,2024-07-12_17h41.52.749,experiment,2024.1.5,Win32,59.17159763,6691931c2c63981b064e1f0c,6691b0f5b9588bcd6913cb59,,,,,,,,,,,,,,,,,,,,,,,,,,,,,,,,,,,,,,,,,,,,,,,,,,,,,,,,,,,,1280.568,1289.9258,0.091925466,-0.273913043,1.0,0.0,0.0,3.3562,compass,0.0,3.0,3.0,0.0,1.0,SoundStimuli/GimmeShelter_RollingStones_Cover5S.wav,,,,,,,,,,,,,,,,,,,,,,,,,,,,,,,,,,,,,,,,,,,,,,,,,,,
,,,,,663231,1,2024-07-12_17h41.52.749,experiment,2024.1.5,Win32,59.17159763,6691931c2c63981b064e1f0c,6691b0f5b9588bcd6913cb59,,,,,,,,,,,,,,,,,,,,,,,,,,,,,,,,,,,,,,,,,,,,,,,,,,,,,,,,,,,,1289.9336,1302.5695,0.063354037,0.28136646,1.0,0.0,0.0,6.6323,compass,0.0,4.0,4.0,20.0,1.0,SoundStimuli/FlashdanceWhatAFeeling_IreneCara_Cover5S.wav,,,,,,,,,,,,,,,,,,,,,,,,,,,,,,,,,,,,,,,,,,,,,,,,,,,
,,,,,663231,1,2024-07-12_17h41.52.749,experiment,2024.1.5,Win32,59.17159763,6691931c2c63981b064e1f0c,6691b0f5b9588bcd6913cb59,,,,,,,,,,,,,,,,,,,,,,,,,,,,,,,,,,,,,,,,,,,,,,,,,,,,,,,,,,,,1302.5782,1311.5328,0.039751553,-0.257763975,1.0,0.0,0.0,2.9353,compass,0.0,5.0,5.0,14.0,1.0,SoundStimuli/LikeARollingStone_BobDylan_Cover5S.wav,,,,,,,,,,,,,,,,,,,,,,,,,,,,,,,,,,,,,,,,,,,,,,,,,,,
,,,,,663231,1,2024-07-12_17h41.52.749,experiment,2024.1.5,Win32,59.17159763,6691931c2c63981b064e1f0c,6691b0f5b9588bcd6913cb59,,,,,,,,,,,,,,,,,,,,,,,,,,,,,,,,,,,,,,,,,,,,,,,,,,,,,,,,,,,,1311.5393,1320.5329,0.047204969,-0.303726708,1.0,0.0,0.0,2.9857,compass,0.0,6.0,6.0,13.0,1.0,SoundStimuli/Perfect_EdSheeran_Original5S.wav,,,,,,,,,,,,,,,,,,,,,,,,,,,,,,,,,,,,,,,,,,,,,,,,,,,
,,,,,663231,1,2024-07-12_17h41.52.749,experiment,2024.1.5,Win32,59.17159763,6691931c2c63981b064e1f0c,6691b0f5b9588bcd6913cb59,,,,,,,,,,,,,,,,,,,,,,,,,,,,,,,,,,,,,,,,,,,,,,,,,,,,,,,,,,,,1320.5374,1331.8746,0.047204969,-0.303726708,1.0,0.0,0.0,5.3265,compass,0.0,7.0,7.0,29.0,1.0,SoundStimuli/BetteDavisEyes_KimCarnes_Cover5S.wav,,,,,,,,,,,,,,,,,,,,,,,,,,,,,,,,,,,,,,,,,,,,,,,,,,,
,,,,,663231,1,2024-07-12_17h41.52.749,experiment,2024.1.5,Win32,59.17159763,6691931c2c63981b064e1f0c,6691b0f5b9588bcd6913cb59,,,,,,,,,,,,,,,,,,,,,,,,,,,,,,,,,,,,,,,,,,,,,,,,,,,,,,,,,,,,1331.8822,1344.5781,0.108074534,-0.257763975,1.0,0.0,0.0,6.6956,compass,0.0,8.0,8.0,25.0,1.0,SoundStimuli/IllMakeLoveToYou_BoyzIIMen_Original5S.wav,,,,,,,,,,,,,,,,,,,,,,,,,,,,,,,,,,,,,,,,,,,,,,,,,,,
,,,,,663231,1,2024-07-12_17h41.52.749,experiment,2024.1.5,Win32,59.17159763,6691931c2c63981b064e1f0c,6691b0f5b9588bcd6913cb59,,,,,,,,,,,,,,,,,,,,,,,,,,,,,,,,,,,,,,,,,,,,,,,,,,,,,,,,,,,,1344.5862,1360.0953,-0.105590062,0.22173913,1.0,0.0,0.0,9.5055,compass,0.0,9.0,9.0,10.0,1.0,SoundStimuli/LeFreak_Chic_Original5S.wav,,,,,,,,,,,,,,,,,,,,,,,,,,,,,,,,,,,,,,,,,,,,,,,,,,,
,,,,,663231,1,2024-07-12_17h41.52.749,experiment,2024.1.5,Win32,59.17159763,6691931c2c63981b064e1f0c,6691b0f5b9588bcd6913cb59,,,,,,,,,,,,,,,,,,,,,,,,,,,,,,,,,,,,,,,,,,,,,,,,,,,,,,,,,,,,1360.1039,1376.2213,-0.105590062,0.22173913,1.0,0.0,0.0,10.1155,compass,0.0,10.0,10.0,31.0,1.0,SoundStimuli/TossinAndTurnin_BobbyLewis_Cover5S.wav,,,,,,,,,,,,,,,,,,,,,,,,,,,,,,,,,,,,,,,,,,,,,,,,,,,
,,,,,663231,1,2024-07-12_17h41.52.749,experiment,2024.1.5,Win32,59.17159763,6691931c2c63981b064e1f0c,6691b0f5b9588bcd6913cb59,,,,,,,,,,,,,,,,,,,,,,,,,,,,,,,,,,,,,,,,,,,,,,,,,,,,,,,,,,,,1376.2293,1387.7096,-0.085714286,0.263975155,1.0,0.0,0.0,5.4768,compass,0.0,11.0,11.0,5.0,1.0,SoundStimuli/JoyToTheWorld_ThreeDogNight_Cover5S.wav,,,,,,,,,,,,,,,,,,,,,,,,,,,,,,,,,,,,,,,,,,,,,,,,,,,
,,,,,663231,1,2024-07-12_17h41.52.749,experiment,2024.1.5,Win32,59.17159763,6691931c2c63981b064e1f0c,6691b0f5b9588bcd6913cb59,,,,,,,,,,,,,,,,,,,,,,,,,,,,,,,,,,,,,,,,,,,,,,,,,,,,,,,,,,,,1387.7194,1395.992,-0.19378882,-0.159627329,1.0,0.0,0.0,2.2681,compass,0.0,12.0,12.0,30.0,1.0,SoundStimuli/SomebodyThatIUsedtoKnow_Gotye_Cover5S.wav,,,,,,,,,,,,,,,,,,,,,,,,,,,,,,,,,,,,,,,,,,,,,,,,,,,
,,,,,663231,1,2024-07-12_17h41.52.749,experiment,2024.1.5,Win32,59.17159763,6691931c2c63981b064e1f0c,6691b0f5b9588bcd6913cb59,,,,,,,,,,,,,,,,,,,,,,,,,,,,,,,,,,,,,,,,,,,,,,,,,,,,,,,,,,,,1396.0006,1406.5949,0.243478261,0.191925466,1.0,0.0,0.0,4.5914,compass,0.0,13.0,13.0,26.0,1.0,SoundStimuli/TheSign_AceOfBase_Original5S.wav,,,,,,,,,,,,,,,,,,,,,,,,,,,,,,,,,,,,,,,,,,,,,,,,,,,
,,,,,663231,1,2024-07-12_17h41.52.749,experiment,2024.1.5,Win32,59.17159763,6691931c2c63981b064e1f0c,6691b0f5b9588bcd6913cb59,,,,,,,,,,,,,,,,,,,,,,,,,,,,,,,,,,,,,,,,,,,,,,,,,,,,,,,,,,,,1406.604,1418.9884,-0.222360248,-0.290062112,1.0,0.0,0.0,6.3823,compass,0.0,14.0,14.0,17.0,1.0,SoundStimuli/IWannaDanceWithSomebody_WhitneyHouston_Cover5S.wav,,,,,,,,,,,,,,,,,,,,,,,,,,,,,,,,,,,,,,,,,,,,,,,,,,,
,,,,,663231,1,2024-07-12_17h41.52.749,experiment,2024.1.5,Win32,59.17159763,6691931c2c63981b064e1f0c,6691b0f5b9588bcd6913cb59,,,,,,,,,,,,,,,,,,,,,,,,,,,,,,,,,,,,,,,,,,,,,,,,,,,,,,,,,,,,1418.9962,1429.1207,0.057142857,-0.107453416,1.0,0.0,0.0,4.1044,compass,0.0,15.0,15.0,4.0,1.0,SoundStimuli/Dreams_FleetwoodMac_Cover5S.wav,,,,,,,,,,,,,,,,,,,,,,,,,,,,,,,,,,,,,,,,,,,,,,,,,,,
,,,,,663231,1,2024-07-12_17h41.52.749,experiment,2024.1.5,Win32,59.17159763,6691931c2c63981b064e1f0c,6691b0f5b9588bcd6913cb59,,,,,,,,,,,,,,,,,,,,,,,,,,,,,,,,,,,,,,,,,,,,,,,,,,,,,,,,,,,,1429.1306,1447.1727,0.062111801,-0.044099379,1.0,0.0,0.0,12.0406,compass,0.0,16.0,16.0,32.0,1.0,SoundStimuli/Dilemma_NellyKellyRowland_Original5S.wav,,,,,,,,,,,,,,,,,,,,,,,,,,,,,,,,,,,,,,,,,,,,,,,,,,,
,,,,,663231,1,2024-07-12_17h41.52.749,experiment,2024.1.5,Win32,59.17159763,6691931c2c63981b064e1f0c,6691b0f5b9588bcd6913cb59,,,,,,,,,,,,,,,,,,,,,,,,,,,,,,,,,,,,,,,,,,,,,,,,,,,,,,,,,,,,1447.181,1458.7597,-0.234782609,0.316149068,1.0,0.0,0.0,5.5771,compass,0.0,17.0,17.0,27.0,1.0,SoundStimuli/EyeOfTheTiger_Survivor_Original5S.wav,,,,,,,,,,,,,,,,,,,,,,,,,,,,,,,,,,,,,,,,,,,,,,,,,,,
,,,,,663231,1,2024-07-12_17h41.52.749,experiment,2024.1.5,Win32,59.17159763,6691931c2c63981b064e1f0c,6691b0f5b9588bcd6913cb59,,,,,,,,,,,,,,,,,,,,,,,,,,,,,,,,,,,,,,,,,,,,,,,,,,,,,,,,,,,,1458.7682,1476.1585,-0.20621118,-0.071428571,1.0,0.0,0.0,11.3876,compass,0.0,18.0,18.0,33.0,1.0,SoundStimuli/TheBoyIsMine_BrandyMonica_Cover5S.wav,,,,,,,,,,,,,,,,,,,,,,,,,,,,,,,,,,,,,,,,,,,,,,,,,,,
,,,,,663231,1,2024-07-12_17h41.52.749,experiment,2024.1.5,Win32,59.17159763,6691931c2c63981b064e1f0c,6691b0f5b9588bcd6913cb59,,,,,,,,,,,,,,,,,,,,,,,,,,,,,,,,,,,,,,,,,,,,,,,,,,,,,,,,,,,,1476.1659,1484.5749,0.171428571,-0.149689441,1.0,0.0,0.0,2.4043,compass,0.0,19.0,19.0,19.0,1.0,SoundStimuli/YouLightUpMyLife_DebbyBoone_Cover5S.wav,,,,,,,,,,,,,,,,,,,,,,,,,,,,,,,,,,,,,,,,,,,,,,,,,,,
,,,,,663231,1,2024-07-12_17h41.52.749,experiment,2024.1.5,Win32,59.17159763,6691931c2c63981b064e1f0c,6691b0f5b9588bcd6913cb59,,,,,,,,,,,,,,,,,,,,,,,,,,,,,,,,,,,,,,,,,,,,,,,,,,,,,,,,,,,,1484.5842,1496.5972,0.171428571,-0.149689441,1.0,0.0,0.0,6.011,compass,0.0,20.0,20.0,8.0,1.0,SoundStimuli/EndlessLove_DianaRossLionelRichie_Original5S.wav,,,,,,,,,,,,,,,,,,,,,,,,,,,,,,,,,,,,,,,,,,,,,,,,,,,
,,,,,663231,1,2024-07-12_17h41.52.749,experiment,2024.1.5,Win32,59.17159763,6691931c2c63981b064e1f0c,6691b0f5b9588bcd6913cb59,,,,,,,,,,,,,,,,,,,,,,,,,,,,,,,,,,,,,,,,,,,,,,,,,,,,,,,,,,,,1496.6055,1506.5996,-0.177639752,-0.216770186,1.0,0.0,0.0,3.9906,compass,0.0,21.0,21.0,23.0,1.0,SoundStimuli/IWalkTheLine_JohnnyCash_Cover5S.wav,,,,,,,,,,,,,,,,,,,,,,,,,,,,,,,,,,,,,,,,,,,,,,,,,,,
,,,,,663231,1,2024-07-12_17h41.52.749,experiment,2024.1.5,Win32,59.17159763,6691931c2c63981b064e1f0c,6691b0f5b9588bcd6913cb59,,,,,,,,,,,,,,,,,,,,,,,,,,,,,,,,,,,,,,,,,,,,,,,,,,,,,,,,,,,,1506.6087,1519.7577,0.188819876,0.239130435,1.0,0.0,0.0,7.1468,compass,0.0,22.0,22.0,11.0,1.0,SoundStimuli/BlurredLines_RobinThicke_Original5S.wav,,,,,,,,,,,,,,,,,,,,,,,,,,,,,,,,,,,,,,,,,,,,,,,,,,,
,,,,,663231,1,2024-07-12_17h41.52.749,experiment,2024.1.5,Win32,59.17159763,6691931c2c63981b064e1f0c,6691b0f5b9588bcd6913cb59,,,,,,,,,,,,,,,,,,,,,,,,,,,,,,,,,,,,,,,,,,,,,,,,,,,,,,,,,,,,1519.7689,1527.8597,0.142857143,-0.30621118,1.0,0.0,0.0,2.0903,compass,0.0,23.0,23.0,9.0,1.0,SoundStimuli/HowDoILive_LeAnnRimes_Original5S.wav,,,,,,,,,,,,,,,,,,,,,,,,,,,,,,,,,,,,,,,,,,,,,,,,,,,
,,,,,663231,1,2024-07-12_17h41.52.749,experiment,2024.1.5,Win32,59.17159763,6691931c2c63981b064e1f0c,6691b0f5b9588bcd6913cb59,,,,,,,,,,,,,,,,,,,,,,,,,,,,,,,,,,,,,,,,,,,,,,,,,,,,,,,,,,,,1527.8683,1542.6505,0.142857143,-0.30621118,1.0,0.0,0.0,8.7789,compass,0.0,24.0,24.0,16.0,1.0,SoundStimuli/ItsAllInTheGame_TommyEdwards_Original5S.wav,,,,,,,,,,,,,,,,,,,,,,,,,,,,,,,,,,,,,,,,,,,,,,,,,,,
,,,,,663231,1,2024-07-12_17h41.52.749,experiment,2024.1.5,Win32,59.17159763,6691931c2c63981b064e1f0c,6691b0f5b9588bcd6913cb59,,,,,,,,,,,,,,,,,,,,,,,,,,,,,,,,,,,,,,,,,,,,,,,,,,,,,,,,,,,,1542.6598,1553.7378,0.132919255,0.337267081,1.0,0.0,0.0,5.0759,compass,0.0,25.0,25.0,3.0,1.0,SoundStimuli/PartyRockAnthem_LMFAO_Cover5S.wav,,,,,,,,,,,,,,,,,,,,,,,,,,,,,,,,,,,,,,,,,,,,,,,,,,,
,,,,,663231,1,2024-07-12_17h41.52.749,experiment,2024.1.5,Win32,59.17159763,6691931c2c63981b064e1f0c,6691b0f5b9588bcd6913cb59,,,,,,,,,,,,,,,,,,,,,,,,,,,,,,,,,,,,,,,,,,,,,,,,,,,,,,,,,,,,1553.7469,1563.4424,0.047204969,-0.333540373,1.0,0.0,0.0,3.6933,compass,0.0,26.0,26.0,7.0,1.0,SoundStimuli/MackTheKnife_BobbyDarin_Original5S.wav,,,,,,,,,,,,,,,,,,,,,,,,,,,,,,,,,,,,,,,,,,,,,,,,,,,
,,,,,663231,1,2024-07-12_17h41.52.749,experiment,2024.1.5,Win32,59.17159763,6691931c2c63981b064e1f0c,6691b0f5b9588bcd6913cb59,,,,,,,,,,,,,,,,,,,,,,,,,,,,,,,,,,,,,,,,,,,,,,,,,,,,,,,,,,,,1563.4528,1574.1428,0.151552795,0.313664596,1.0,0.0,0.0,4.6882,compass,0.0,27.0,27.0,15.0,1.0,SoundStimuli/CrazyInLove_BeyonceFtJayZ_Original5S.wav,,,,,,,,,,,,,,,,,,,,,,,,,,,,,,,,,,,,,,,,,,,,,,,,,,,
,,,,,663231,1,2024-07-12_17h41.52.749,experiment,2024.1.5,Win32,59.17159763,6691931c2c63981b064e1f0c,6691b0f5b9588bcd6913cb59,,,,,,,,,,,,,,,,,,,,,,,,,,,,,,,,,,,,,,,,,,,,,,,,,,,,,,,,,,,,1574.1509,1581.9411,-0.180124224,-0.29378882,1.0,0.0,0.0,1.7833,compass,0.0,28.0,28.0,21.0,1.0,SoundStimuli/BridgeOverTroubledWater_SimonAndGarfunkel_Cover5S.wav,,,,,,,,,,,,,,,,,,,,,,,,,,,,,,,,,,,,,,,,,,,,,,,,,,,
,,,,,663231,1,2024-07-12_17h41.52.749,experiment,2024.1.5,Win32,59.17159763,6691931c2c63981b064e1f0c,6691b0f5b9588bcd6913cb59,,,,,,,,,,,,,,,,,,,,,,,,,,,,,,,,,,,,,,,,,,,,,,,,,,,,,,,,,,,,1581.9496,1590.1896,-0.101863354,0.278881988,1.0,0.0,0.0,2.2336,compass,0.0,29.0,29.0,1.0,1.0,SoundStimuli/Smooth_SantanaRobThomas_Cover5S.wav,,,,,,,,,,,,,,,,,,,,,,,,,,,,,,,,,,,,,,,,,,,,,,,,,,,
,,,,,663231,1,2024-07-12_17h41.52.749,experiment,2024.1.5,Win32,59.17159763,6691931c2c63981b064e1f0c,6691b0f5b9588bcd6913cb59,,,,,,,,,,,,,,,,,,,,,,,,,,,,,,,,,,,,,,,,,,,,,,,,,,,,,,,,,,,,1590.1996,1597.3699,0.09068323,0.311180124,1.0,0.0,0.0,1.1684,compass,0.0,30.0,30.0,22.0,1.0,SoundStimuli/Happy_PharellWilliams_Cover5S.wav,,,,,,,,,,,,,,,,,,,,,,,,,,,,,,,,,,,,,,,,,,,,,,,,,,,
,,,,,663231,1,2024-07-12_17h41.52.749,experiment,2024.1.5,Win32,59.17159763,6691931c2c63981b064e1f0c,6691b0f5b9588bcd6913cb59,,,,,,,,,,,,,,,,,,,,,,,,,,,,,,,,,,,,,,,,,,,,,,,,,,,,,,,,,,,,1597.3778,1605.5685,-0.031055901,-0.28757764,1.0,0.0,0.0,2.1867,compass,0.0,31.0,31.0,28.0,1.0,SoundStimuli/IWantToHoldYourHand_TheBeatles_Cover5S.wav,,,,,,,,,,,,,,,,,,,,,,,,,,,,,,,,,,,,,,,,,,,,,,,,,,,
,,,,,663231,1,2024-07-12_17h41.52.749,experiment,2024.1.5,Win32,59.17159763,6691931c2c63981b064e1f0c,6691b0f5b9588bcd6913cb59,,,,,,,,,,,,,,,,,,,,,,,,,,,,,,,,,,,,,,,,,,,,,,,,,,,,,,,,,,,,1605.5748,1614.5186,-0.104347826,0.226708075,1.0,0.0,0.0,2.939,compass,0.0,32.0,32.0,2.0,1.0,SoundStimuli/SmellsLikeTeenSpirit_Nirvana_Cover5S.wav,,,,,,,,,,,,,,,,,,,,,,,,,,,,,,,,,,,,,,,,,,,,,,,,,,,
,,,,,663231,1,2024-07-12_17h41.52.749,experiment,2024.1.5,Win32,59.17159763,6691931c2c63981b064e1f0c,6691b0f5b9588bcd6913cb59,,,,,,,,,,,,,,,,,,,,,,,,,,,,,,,,,,,,,,,,,,,,,,,,,,,,,,,,,,,,1614.5265,1623.8529,-0.195031056,0.191925466,1.0,0.0,0.0,3.3227,compass,0.0,33.0,33.0,6.0,1.0,SoundStimuli/SaveYourTears_TheWeekndArianaGrande_Original5S.wav,,,,,,,,,,,,,,,,,,,,,,,,,,,,,,,,,,,,,,,,,,,,,,,,,,,
,,,,,663231,1,2024-07-12_17h41.52.749,experiment,2024.1.5,Win32,59.17159763,6691931c2c63981b064e1f0c,6691b0f5b9588bcd6913cb59,,,,,,,,,,,,,,,,,,,,,,,,,,,,,,,,,,,,,,,,,,,,,,,,,,,,,,,,,,,,1623.8628,1636.2264,0.091925466,0.296273292,1.0,0.0,0.0,6.3624,compass,0.0,34.0,34.0,34.0,1.0,SoundStimuli/Irreplaceable_Beyonce_Original5S.wav,,,,,,,,,,,,,,,,,,,,,,,,,,,,,,,,,,,,,,,,,,,,,,,,,,,
,,,,,663231,1,2024-07-12_17h41.52.749,experiment,2024.1.5,Win32,59.17159763,6691931c2c63981b064e1f0c,6691b0f5b9588bcd6913cb59,,,,,,,,,,,,,,,,,,,,,,,,,,,,,,,,,,,,,,,,,,,,,,,,,,,,,,,,,,,,,,,,,,,,,,,,,,,1636.2267,1697.8253,space,61.5753,,1697.8254,1702.2838,right,4.4312,,0.0,2.0,2.0,2.0,1.0,block_order/blockB.xlsx,,,,,,,,,,,,,,,,,,,,,,,,,,,,,,,,,,,
,,,,,663231,1,2024-07-12_17h41.52.749,experiment,2024.1.5,Win32,59.17159763,6691931c2c63981b064e1f0c,6691b0f5b9588bcd6913cb59,,,,,,,,,,,,,,,,,,,,,,,,,,,,,,,,,,,,,,,,,,,,,,,,,,,,,,,,,,,,1702.296,1712.6197,0.091925466,0.296273292,1.0,0.0,0.0,4.3048,compass,0.0,0.0,0.0,27.0,1.0,SoundStimuli/ShapeofYou_EdSheeran_Original5S.wav,,,,,,,,,,,,,,,,,,,,,,,,,,,,,,,,,,,,,,,,,,,,,,,,,,,
,,,,,663231,1,2024-07-12_17h41.52.749,experiment,2024.1.5,Win32,59.17159763,6691931c2c63981b064e1f0c,6691b0f5b9588bcd6913cb59,,,,,,,,,,,,,,,,,,,,,,,,,,,,,,,,,,,,,,,,,,,,,,,,,,,,,,,,,,,,1712.6307,1723.6103,-0.036024845,-0.328571429,1.0,0.0,0.0,4.9595,compass,0.0,1.0,1.0,31.0,1.0,SoundStimuli/TheBattleOfNewOrleans_JohnnyHorton_Cover5S.wav,,,,,,,,,,,,,,,,,,,,,,,,,,,,,,,,,,,,,,,,,,,,,,,,,,,
,,,,,663231,1,2024-07-12_17h41.52.749,experiment,2024.1.5,Win32,59.17159763,6691931c2c63981b064e1f0c,6691b0f5b9588bcd6913cb59,,,,,,,,,,,,,,,,,,,,,,,,,,,,,,,,,,,,,,,,,,,,,,,,,,,,,,,,,,,,1723.6178,1731.7255,-0.127950311,0.240372671,1.0,0.0,0.0,2.1076,compass,0.0,2.0,2.0,3.0,1.0,SoundStimuli/NoScrubs_TLC_Original5S.wav,,,,,,,,,,,,,,,,,,,,,,,,,,,,,,,,,,,,,,,,,,,,,,,,,,,
,,,,,663231,1,2024-07-12_17h41.52.749,experiment,2024.1.5,Win32,59.17159763,6691931c2c63981b064e1f0c,6691b0f5b9588bcd6913cb59,,,,,,,,,,,,,,,,,,,,,,,,,,,,,,,,,,,,,,,,,,,,,,,,,,,,,,,,,,,,1731.7334,1743.5274,-0.10310559,-0.235403727,1.0,0.0,0.0,5.7903,compass,0.0,3.0,3.0,13.0,1.0,SoundStimuli/GodOnlyKnows_TheBeachBoys_Cover5S.wav,,,,,,,,,,,,,,,,,,,,,,,,,,,,,,,,,,,,,,,,,,,,,,,,,,,
,,,,,663231,1,2024-07-12_17h41.52.749,experiment,2024.1.5,Win32,59.17159763,6691931c2c63981b064e1f0c,6691b0f5b9588bcd6913cb59,,,,,,,,,,,,,,,,,,,,,,,,,,,,,,,,,,,,,,,,,,,,,,,,,,,,,,,,,,,,1743.5322,1756.2019,0.118012422,-0.259006211,1.0,0.0,0.0,6.663,compass,0.0,4.0,4.0,34.0,1.0,SoundStimuli/AChangeIsGonnaCome_SamCooke_Cover5S.wav,,,,,,,,,,,,,,,,,,,,,,,,,,,,,,,,,,,,,,,,,,,,,,,,,,,
,,,,,663231,1,2024-07-12_17h41.52.749,experiment,2024.1.5,Win32,59.17159763,6691931c2c63981b064e1f0c,6691b0f5b9588bcd6913cb59,,,,,,,,,,,,,,,,,,,,,,,,,,,,,,,,,,,,,,,,,,,,,,,,,,,,,,,,,,,,1756.2083,1763.3985,-0.222360248,0.292546584,1.0,0.0,0.0,1.1853,compass,0.0,5.0,5.0,4.0,1.0,SoundStimuli/GetUrFreakOn_MissyElliot_Original5S.wav,,,,,,,,,,,,,,,,,,,,,,,,,,,,,,,,,,,,,,,,,,,,,,,,,,,
,,,,,663231,1,2024-07-12_17h41.52.749,experiment,2024.1.5,Win32,59.17159763,6691931c2c63981b064e1f0c,6691b0f5b9588bcd6913cb59,,,,,,,,,,,,,,,,,,,,,,,,,,,,,,,,,,,,,,,,,,,,,,,,,,,,,,,,,,,,1763.4081,1772.833,0.098136646,-0.286335404,1.0,0.0,0.0,3.423,compass,0.0,6.0,6.0,5.0,1.0,SoundStimuli/MyGirl_TheTemptations_Original5S.wav,,,,,,,,,,,,,,,,,,,,,,,,,,,,,,,,,,,,,,,,,,,,,,,,,,,
,,,,,663231,1,2024-07-12_17h41.52.749,experiment,2024.1.5,Win32,59.17159763,6691931c2c63981b064e1f0c,6691b0f5b9588bcd6913cb59,,,,,,,,,,,,,,,,,,,,,,,,,,,,,,,,,,,,,,,,,,,,,,,,,,,,,,,,,,,,1772.842,1791.3208,-0.293167702,0.232919255,1.0,0.0,0.0,12.4737,compass,0.0,7.0,7.0,15.0,1.0,SoundStimuli/TikTok_Kesha_Cover5S.wav,,,,,,,,,,,,,,,,,,,,,,,,,,,,,,,,,,,,,,,,,,,,,,,,,,,
,,,,,663231,1,2024-07-12_17h41.52.749,experiment,2024.1.5,Win32,59.17159763,6691931c2c63981b064e1f0c,6691b0f5b9588bcd6913cb59,,,,,,,,,,,,,,,,,,,,,,,,,,,,,,,,,,,,,,,,,,,,,,,,,,,,,,,,,,,,1791.3296,1799.8832,0.185093168,0.272670807,1.0,0.0,0.0,2.5379,compass,0.0,8.0,8.0,7.0,1.0,SoundStimuli/NoOne_AliciaKeys_Cover5S.wav,,,,,,,,,,,,,,,,,,,,,,,,,,,,,,,,,,,,,,,,,,,,,,,,,,,
,,,,,663231,1,2024-07-12_17h41.52.749,experiment,2024.1.5,Win32,59.17159763,6691931c2c63981b064e1f0c,6691b0f5b9588bcd6913cb59,,,,,,,,,,,,,,,,,,,,,,,,,,,,,,,,,,,,,,,,,,,,,,,,,,,,,,,,,,,,1799.8917,1807.6146,-0.314285714,0.286335404,1.0,0.0,0.0,1.7195,compass,0.0,9.0,9.0,2.0,1.0,SoundStimuli/Mood_24kGoldnianndior_Cover5S.wav,,,,,,,,,,,,,,,,,,,,,,,,,,,,,,,,,,,,,,,,,,,,,,,,,,,
,,,,,663231,1,2024-07-12_17h41.52.749,experiment,2024.1.5,Win32,59.17159763,6691931c2c63981b064e1f0c,6691b0f5b9588bcd6913cb59,,,,,,,,,,,,,,,,,,,,,,,,,,,,,,,,,,,,,,,,,,,,,,,,,,,,,,,,,,,,1807.6229,1818.4016,0.252173913,0.165838509,1.0,0.0,0.0,4.7721,compass,0.0,10.0,10.0,16.0,1.0,SoundStimuli/BohemianRhapsody_Queen_Original5S.wav,,,,,,,,,,,,,,,,,,,,,,,,,,,,,,,,,,,,,,,,,,,,,,,,,,,
,,,,,663231,1,2024-07-12_17h41.52.749,experiment,2024.1.5,Win32,59.17159763,6691931c2c63981b064e1f0c,6691b0f5b9588bcd6913cb59,,,,,,,,,,,,,,,,,,,,,,,,,,,,,,,,,,,,,,,,,,,,,,,,,,,,,,,,,,,,1818.4089,1830.4946,-0.172670807,-0.313664596,1.0,0.0,0.0,6.0815,compass,0.0,11.0,11.0,20.0,1.0,SoundStimuli/HeyYa_Outkast_Cover5S.wav,,,,,,,,,,,,,,,,,,,,,,,,,,,,,,,,,,,,,,,,,,,,,,,,,,,
,,,,,663231,1,2024-07-12_17h41.52.749,experiment,2024.1.5,Win32,59.17159763,6691931c2c63981b064e1f0c,6691b0f5b9588bcd6913cb59,,,,,,,,,,,,,,,,,,,,,,,,,,,,,,,,,,,,,,,,,,,,,,,,,,,,,,,,,,,,1830.5021,1838.0384,0.195031056,0.22173913,1.0,0.0,0.0,1.5329,compass,0.0,12.0,12.0,25.0,1.0,SoundStimuli/Respect_ArethaFranklin_Original5S.wav,,,,,,,,,,,,,,,,,,,,,,,,,,,,,,,,,,,,,,,,,,,,,,,,,,,
,,,,,663231,1,2024-07-12_17h41.52.749,experiment,2024.1.5,Win32,59.17159763,6691931c2c63981b064e1f0c,6691b0f5b9588bcd6913cb59,,,,,,,,,,,,,,,,,,,,,,,,,,,,,,,,,,,,,,,,,,,,,,,,,,,,,,,,,,,,1838.0461,1850.2148,-0.250931677,-0.236645963,1.0,0.0,0.0,6.1651,compass,0.0,13.0,13.0,23.0,1.0,SoundStimuli/StrawberryFieldsForever_TheBeatles_Original5S.wav,,,,,,,,,,,,,,,,,,,,,,,,,,,,,,,,,,,,,,,,,,,,,,,,,,,
,,,,,663231,1,2024-07-12_17h41.52.749,experiment,2024.1.5,Win32,59.17159763,6691931c2c63981b064e1f0c,6691b0f5b9588bcd6913cb59,,,,,,,,,,,,,,,,,,,,,,,,,,,,,,,,,,,,,,,,,,,,,,,,,,,,,,,,,,,,1850.2234,1858.8108,0.201242236,0.277639752,1.0,0.0,0.0,2.5846,compass,0.0,14.0,14.0,9.0,1.0,SoundStimuli/Despacito_LuisFonsiDaddyYankee_Cover5S.wav,,,,,,,,,,,,,,,,,,,,,,,,,,,,,,,,,,,,,,,,,,,,,,,,,,,
,,,,,663231,1,2024-07-12_17h41.52.749,experiment,2024.1.5,Win32,59.17159763,6691931c2c63981b064e1f0c,6691b0f5b9588bcd6913cb59,,,,,,,,,,,,,,,,,,,,,,,,,,,,,,,,,,,,,,,,,,,,,,,,,,,,,,,,,,,,1858.818,1868.4121,-0.258385093,0.263975155,1.0,0.0,0.0,3.5866,compass,0.0,15.0,15.0,30.0,1.0,SoundStimuli/PokerFace_LadyGaga_Original5S.wav,,,,,,,,,,,,,,,,,,,,,,,,,,,,,,,,,,,,,,,,,,,,,,,,,,,
,,,,,663231,1,2024-07-12_17h41.52.749,experiment,2024.1.5,Win32,59.17159763,6691931c2c63981b064e1f0c,6691b0f5b9588bcd6913cb59,,,,,,,,,,,,,,,,,,,,,,,,,,,,,,,,,,,,,,,,,,,,,,,,,,,,,,,,,,,,1868.4215,1877.8298,-0.089440994,-0.239130435,1.0,0.0,0.0,3.4063,compass,0.0,16.0,16.0,10.0,1.0,SoundStimuli/BadDay_DanielPowter_Cover5S.wav,,,,,,,,,,,,,,,,,,,,,,,,,,,,,,,,,,,,,,,,,,,,,,,,,,,
,,,,,663231,1,2024-07-12_17h41.52.749,experiment,2024.1.5,Win32,59.17159763,6691931c2c63981b064e1f0c,6691b0f5b9588bcd6913cb59,,,,,,,,,,,,,,,,,,,,,,,,,,,,,,,,,,,,,,,,,,,,,,,,,,,,,,,,,,,,1877.838,1886.3287,0.188819876,-0.282608696,1.0,0.0,0.0,2.4842,compass,0.0,17.0,17.0,21.0,1.0,SoundStimuli/GoodGollyMissMolly_LittleRichard_Cover5S.wav,,,,,,,,,,,,,,,,,,,,,,,,,,,,,,,,,,,,,,,,,,,,,,,,,,,
,,,,,663231,1,2024-07-12_17h41.52.749,experiment,2024.1.5,Win32,59.17159763,6691931c2c63981b064e1f0c,6691b0f5b9588bcd6913cb59,,,,,,,,,,,,,,,,,,,,,,,,,,,,,,,,,,,,,,,,,,,,,,,,,,,,,,,,,,,,1886.3337,1893.4927,-0.257142857,0.290062112,1.0,0.0,0.0,1.1521,compass,0.0,18.0,18.0,6.0,1.0,SoundStimuli/Levitating_DuaLipa_Cover5S.wav,,,,,,,,,,,,,,,,,,,,,,,,,,,,,,,,,,,,,,,,,,,,,,,,,,,
,,,,,663231,1,2024-07-12_17h41.52.749,experiment,2024.1.5,Win32,59.17159763,6691931c2c63981b064e1f0c,6691b0f5b9588bcd6913cb59,,,,,,,,,,,,,,,,,,,,,,,,,,,,,,,,,,,,,,,,,,,,,,,,,,,,,,,,,,,,1893.5008,1905.0478,0.09068323,-0.214285714,1.0,0.0,0.0,5.5437,compass,0.0,19.0,19.0,12.0,1.0,SoundStimuli/IWillAlwaysLoveYou_WhitneyHouston_Cover5S.wav,,,,,,,,,,,,,,,,,,,,,,,,,,,,,,,,,,,,,,,,,,,,,,,,,,,
,,,,,663231,1,2024-07-12_17h41.52.749,experiment,2024.1.5,Win32,59.17159763,6691931c2c63981b064e1f0c,6691b0f5b9588bcd6913cb59,,,,,,,,,,,,,,,,,,,,,,,,,,,,,,,,,,,,,,,,,,,,,,,,,,,,,,,,,,,,1905.057,1912.9963,0.279503106,-0.177018634,1.0,0.0,0.0,1.9371,compass,0.0,20.0,20.0,32.0,1.0,SoundStimuli/HeatWaves_GlassAnimals_Original5S.wav,,,,,,,,,,,,,,,,,,,,,,,,,,,,,,,,,,,,,,,,,,,,,,,,,,,
,,,,,663231,1,2024-07-12_17h41.52.749,experiment,2024.1.5,Win32,59.17159763,6691931c2c63981b064e1f0c,6691b0f5b9588bcd6913cb59,,,,,,,,,,,,,,,,,,,,,,,,,,,,,,,,,,,,,,,,,,,,,,,,,,,,,,,,,,,,1913.0061,1924.4381,0.232298137,-0.180745342,1.0,0.0,0.0,5.4305,compass,0.0,21.0,21.0,22.0,1.0,SoundStimuli/RockWithYou_MichaelJackson_Original5S.wav,,,,,,,,,,,,,,,,,,,,,,,,,,,,,,,,,,,,,,,,,,,,,,,,,,,
,,,,,663231,1,2024-07-12_17h41.52.749,experiment,2024.1.5,Win32,59.17159763,6691931c2c63981b064e1f0c,6691b0f5b9588bcd6913cb59,,,,,,,,,,,,,,,,,,,,,,,,,,,,,,,,,,,,,,,,,,,,,,,,,,,,,,,,,,,,1924.4471,1933.1841,-0.219875776,-0.200621118,1.0,0.0,0.0,2.7219,compass,0.0,22.0,22.0,33.0,1.0,SoundStimuli/StandByMe_BenEKing_Cover5S.wav,,,,,,,,,,,,,,,,,,,,,,,,,,,,,,,,,,,,,,,,,,,,,,,,,,,
,,,,,663231,1,2024-07-12_17h41.52.749,experiment,2024.1.5,Win32,59.17159763,6691931c2c63981b064e1f0c,6691b0f5b9588bcd6913cb59,,,,,,,,,,,,,,,,,,,,,,,,,,,,,,,,,,,,,,,,,,,,,,,,,,,,,,,,,,,,1933.1928,1941.8669,-0.219875776,-0.199378882,1.0,0.0,0.0,2.6716,compass,0.0,23.0,23.0,11.0,1.0,SoundStimuli/Superstition_StevieWonder_Cover5S.wav,,,,,,,,,,,,,,,,,,,,,,,,,,,,,,,,,,,,,,,,,,,,,,,,,,,
,,,,,663231,1,2024-07-12_17h41.52.749,experiment,2024.1.5,Win32,59.17159763,6691931c2c63981b064e1f0c,6691b0f5b9588bcd6913cb59,,,,,,,,,,,,,,,,,,,,,,,,,,,,,,,,,,,,,,,,,,,,,,,,,,,,,,,,,,,,1941.8763,1953.6891,0.10310559,0.224223602,1.0,0.0,0.0,5.8107,compass,0.0,24.0,24.0,14.0,1.0,SoundStimuli/BlindingLights_TheWeeknd_Original5S.wav,,,,,,,,,,,,,,,,,,,,,,,,,,,,,,,,,,,,,,,,,,,,,,,,,,,
,,,,,663231,1,2024-07-12_17h41.52.749,experiment,2024.1.5,Win32,59.17159763,6691931c2c63981b064e1f0c,6691b0f5b9588bcd6913cb59,,,,,,,,,,,,,,,,,,,,,,,,,,,,,,,,,,,,,,,,,,,,,,,,,,,,,,,,,,,,1953.6989,1960.8855,0.239751553,-0.317391304,1.0,0.0,0.0,1.1806,compass,0.0,25.0,25.0,19.0,1.0,SoundStimuli/LetsGetItOn_MarvinGaye_Cover5S.wav,,,,,,,,,,,,,,,,,,,,,,,,,,,,,,,,,,,,,,,,,,,,,,,,,,,
,,,,,663231,1,2024-07-12_17h41.52.749,experiment,2024.1.5,Win32,59.17159763,6691931c2c63981b064e1f0c,6691b0f5b9588bcd6913cb59,,,,,,,,,,,,,,,,,,,,,,,,,,,,,,,,,,,,,,,,,,,,,,,,,,,,,,,,,,,,1960.8899,1976.8494,-0.152795031,-0.28136646,1.0,0.0,0.0,9.9499,compass,0.0,26.0,26.0,26.0,1.0,SoundStimuli/LivinOnAPrayer_BonJovi_Cover5S.wav,,,,,,,,,,,,,,,,,,,,,,,,,,,,,,,,,,,,,,,,,,,,,,,,,,,
,,,,,663231,1,2024-07-12_17h41.52.749,experiment,2024.1.5,Win32,59.17159763,6691931c2c63981b064e1f0c,6691b0f5b9588bcd6913cb59,,,,,,,,,,,,,,,,,,,,,,,,,,,,,,,,,,,,,,,,,,,,,,,,,,,,,,,,,,,,1976.8582,1983.4618,0.11552795,0.314906832,1.0,0.0,0.0,0.5977,compass,0.0,27.0,27.0,28.0,1.0,SoundStimuli/ComeAndGetYourLove_Redbone_Original5S.wav,,,,,,,,,,,,,,,,,,,,,,,,,,,,,,,,,,,,,,,,,,,,,,,,,,,
,,,,,663231,1,2024-07-12_17h41.52.749,experiment,2024.1.5,Win32,59.17159763,6691931c2c63981b064e1f0c,6691b0f5b9588bcd6913cb59,,,,,,,,,,,,,,,,,,,,,,,,,,,,,,,,,,,,,,,,,,,,,,,,,,,,,,,,,,,,1983.4709,1991.3601,-0.2,-0.29378882,1.0,0.0,0.0,1.8868,compass,0.0,28.0,28.0,17.0,1.0,SoundStimuli/Fallin_AliciaKeys_Original5S.wav,,,,,,,,,,,,,,,,,,,,,,,,,,,,,,,,,,,,,,,,,,,,,,,,,,,
,,,,,663231,1,2024-07-12_17h41.52.749,experiment,2024.1.5,Win32,59.17159763,6691931c2c63981b064e1f0c,6691b0f5b9588bcd6913cb59,,,,,,,,,,,,,,,,,,,,,,,,,,,,,,,,,,,,,,,,,,,,,,,,,,,,,,,,,,,,1991.369,2001.9297,0.039751553,0.307453416,1.0,0.0,0.0,4.5585,compass,0.0,29.0,29.0,24.0,1.0,SoundStimuli/UptownFunk_MarkRonson_Original5S.wav,,,,,,,,,,,,,,,,,,,,,,,,,,,,,,,,,,,,,,,,,,,,,,,,,,,
,,,,,663231,1,2024-07-12_17h41.52.749,experiment,2024.1.5,Win32,59.17159763,6691931c2c63981b064e1f0c,6691b0f5b9588bcd6913cb59,,,,,,,,,,,,,,,,,,,,,,,,,,,,,,,,,,,,,,,,,,,,,,,,,,,,,,,,,,,,2001.9388,2014.4567,-0.17515528,0.303726708,1.0,0.0,0.0,6.5119,compass,0.0,30.0,30.0,29.0,1.0,SoundStimuli/OldTownRoad_LilNasX_Original5S.wav,,,,,,,,,,,,,,,,,,,,,,,,,,,,,,,,,,,,,,,,,,,,,,,,,,,
,,,,,663231,1,2024-07-12_17h41.52.749,experiment,2024.1.5,Win32,59.17159763,6691931c2c63981b064e1f0c,6691b0f5b9588bcd6913cb59,,,,,,,,,,,,,,,,,,,,,,,,,,,,,,,,,,,,,,,,,,,,,,,,,,,,,,,,,,,,2014.4635,2023.2195,0.088198758,0.292546584,1.0,0.0,0.0,2.7549,compass,0.0,31.0,31.0,18.0,1.0,SoundStimuli/AnotherOneBitesTheDust_Queen_Original5S.wav,,,,,,,,,,,,,,,,,,,,,,,,,,,,,,,,,,,,,,,,,,,,,,,,,,,
,,,,,663231,1,2024-07-12_17h41.52.749,experiment,2024.1.5,Win32,59.17159763,6691931c2c63981b064e1f0c,6691b0f5b9588bcd6913cb59,,,,,,,,,,,,,,,,,,,,,,,,,,,,,,,,,,,,,,,,,,,,,,,,,,,,,,,,,,,,2023.2278,2032.6541,-0.21863354,0.282608696,1.0,0.0,0.0,3.4194,compass,0.0,32.0,32.0,1.0,1.0,SoundStimuli/Stronger_KanyeWest_Original5S.wav,,,,,,,,,,,,,,,,,,,,,,,,,,,,,,,,,,,,,,,,,,,,,,,,,,,
,,,,,663231,1,2024-07-12_17h41.52.749,experiment,2024.1.5,Win32,59.17159763,6691931c2c63981b064e1f0c,6691b0f5b9588bcd6913cb59,,,,,,,,,,,,,,,,,,,,,,,,,,,,,,,,,,,,,,,,,,,,,,,,,,,,,,,,,,,,2032.6633,2040.0178,0.280745342,0.201863354,1.0,0.0,0.0,1.3491,compass,0.0,33.0,33.0,8.0,1.0,SoundStimuli/LikeAPrayer_Madonna_Original5S.wav,,,,,,,,,,,,,,,,,,,,,,,,,,,,,,,,,,,,,,,,,,,,,,,,,,,
,,,,,663231,1,2024-07-12_17h41.52.749,experiment,2024.1.5,Win32,59.17159763,6691931c2c63981b064e1f0c,6691b0f5b9588bcd6913cb59,,,,,,,,,,,,,,,,,,,,,,,,,,,,,,,,,,,,,,,,,,,,,,,,,,,,,,,,,,,,2040.0262,2054.1946,0.075776398,-0.167080745,1.0,0.0,0.0,8.163,compass,0.0,34.0,34.0,0.0,1.0,SoundStimuli/StayinAlive_BeeGees_Original5S.wav,,,,,,,,,,,,,,,,,,,,,,,,,,,,,,,,,,,,,,,,,,,,,,,,,,,
,,,,,663231,1,2024-07-12_17h41.52.749,experiment,2024.1.5,Win32,59.17159763,6691931c2c63981b064e1f0c,6691b0f5b9588bcd6913cb59,,,,,,,,,,,,,,,,,,,,,,,,,,,,,,,,,,,,,,,,,,,,,,,,,,,,,,,,,,,,,,,,,,,,,,,,,,,2054.205,2054.205,,,,2054.205,2054.205,,,,0.0,3.0,3.0,3.0,1.0,block_order/blockA.xlsx,,,,,,,,,,,,,,,,,,,,,,,,,,,,,,,,,,,
,,,,,663231,1,2024-07-12_17h41.52.749,experiment,2024.1.5,Win32,59.17159763,6691931c2c63981b064e1f0c,6691b0f5b9588bcd6913cb59,,,,,,,,,,,,,,,,,,,,,,,,,,,,,,,,,,,,,,,,,,,,,,,,,,,,,,,,,,,,,,,,,,,,,,,,,,,,,,,,,,,,,,,,,,,50.0,Item 2,I played in high school band. Listen to the radio and music almost daily. I did some singing in school. Played in band post graduation of high school for some parades locally. Helped teach kids to read music and helped learn to play instruments as well. Always had a love for music.,Item 2,"radio, pandora, tv radio",5.0,2.0,"drive, clean, computer work, need motivation",Sometimes,Always,Sometimes,Sometimes,Sometimes,Rarely,Rarely,Rarely,Rarely,Sometimes,Sometimes,Sometimes,Sometimes,Rarely,Rarely,country ,classical,soft rock,They have remained fairly the same over the course of my life. ,I like music I can relate to and understand. I choose classical or instrumental if I want some background without words for focusing. Occasionally I will seek a certain type of music based on my mood. I have always enjoyed music and find myself tapping to the beat many times. Enjoyed listening to the kids in band. ,0.0,0.0,0.0,0.0,1.0,,
,,,,,663231,1,2024-07-12_17h41.52.749,experiment,2024.1.5,Win32,59.17159763,6691931c2c63981b064e1f0c,6691b0f5b9588bcd6913cb59,,,,,,,,,,,,,,,,,,,,,,,,,,,,,,,,,,,,,,,,,,,,,,,,,,,,,,,,,,,,,,,,,,,,,,,,,,,,,,,,,,,,,,,,,,,,,,,,,,,,,,,,,,,,,,,,,,,,,,,,,,,,2604.6132,2607.0328
