welcome.started,welcome.stopped,space_to_continue.keys,space_to_continue.rt,space_to_continue.duration,participant,session,date,expName,psychopyVersion,OS,frameRate,STUDY_ID,SESSION_ID,consent.consent,consent.consent_recontact,consent_check.started,consent_check.stopped,calibration_ready.started,calibration_ready.stopped,cal_ready.keys,cal_ready.rt,cal_ready.duration,calibration.started,calibration.stopped,mouse.x,mouse.y,mouse.leftButton,mouse.midButton,mouse.rightButton,mouse.time,mouse.clicked_name,move_on.keys,move_on.rt,move_on.duration,run_cal.thisRepN,run_cal.thisTrialN,run_cal.thisN,run_cal.thisIndex,run_cal.ran,emotion_training_ready.started,emotion_training_ready.stopped,training_move_on.keys,training_move_on.rt,training_move_on.duration,examples.started,examples.stopped,emotion_scale.started,emotion_scale.stopped,scale_next.keys,scale_next.rt,scale_next.duration,instructions.started,instructions.stopped,next.keys,next.rt,next.duration,practice_task.started,practice_task.stopped,mouse_rating_2.x,mouse_rating_2.y,mouse_rating_2.leftButton,mouse_rating_2.midButton,mouse_rating_2.rightButton,mouse_rating_2.time,mouse_rating_2.clicked_name,ready.started,ready.stopped,key_resp.keys,key_resp.rt,key_resp.duration,set_group.started,set_group.stopped,task.started,task.stopped,mouse_rating.x,mouse_rating.y,mouse_rating.leftButton,mouse_rating.midButton,mouse_rating.rightButton,mouse_rating.time,mouse_rating.clicked_name,trials.thisRepN,trials.thisTrialN,trials.thisN,trials.thisIndex,trials.ran,clip,short_break.started,short_break.stopped,space_to_move_on.keys,space_to_move_on.rt,space_to_move_on.duration,instruction_reminder.started,instruction_reminder.stopped,reminder_move_on.keys,reminder_move_on.rt,reminder_move_on.duration,blocks.thisRepN,blocks.thisTrialN,blocks.thisN,blocks.thisIndex,blocks.ran,block,post_survey.age,post_survey.musician,post_survey.music_making,post_survey.listen_time,post_survey.medium,post_survey.music_seeking,post_survey.music_choice,post_survey.activities,post_survey.question1.Pop,post_survey.question1.Folk/indie,post_survey.question1.Hip hop,post_survey.question1.Disco,post_survey.question1.Classic rock,post_survey.question1.Country,post_survey.question1.Jazz,post_survey.question1.Classical,post_survey.question1.R&B,post_survey.question1.Electronic (EDM),post_survey.question1.Metal,post_survey.question1.A cappella,post_survey.question1.Reggae,post_survey.question1.Alternative rock,post_survey.question1.Ambient,post_survey.question1.Latin,post_survey.genres_ranked.text1,post_survey.genres_ranked.text2,post_survey.genres_ranked.text3,post_survey.habit_change,post_survey.habits,show_exp.thisRepN,show_exp.thisTrialN,show_exp.thisN,show_exp.thisIndex,show_exp.ran,goodbye.started,goodbye.stopped
0.0002,1.4782,space,1.4586,,711879,1,2024-07-12_18h37.22.395,experiment,2024.1.5,Win32,58.82352941,6691931c2c63981b064e1f0c,6691aff8296090677dd3d9f5,,,,,,,,,,,,,,,,,,,,,,,,,,,,,,,,,,,,,,,,,,,,,,,,,,,,,,,,,,,,,,,,,,,,,,,,,,,,,,,,,,,,,,,,,,,,,,,,,,,,,,,,,,,,,,,,,,,,,,,,,,,,,,
,,,,,711879,1,2024-07-12_18h37.22.395,experiment,2024.1.5,Win32,58.82352941,6691931c2c63981b064e1f0c,6691aff8296090677dd3d9f5,yes,yes,,,,,,,,,,,,,,,,,,,,,,,,,,,,,,,,,,,,,,,,,,,,,,,,,,,,,,,,,,,,,,,,,,,,,,,,,,,,,,,,,,,,,,,,,,,,,,,,,,,,,,,,,,,,,,,,,,,,,,,,,,,,
,,,,,711879,1,2024-07-12_18h37.22.395,experiment,2024.1.5,Win32,58.82352941,6691931c2c63981b064e1f0c,6691aff8296090677dd3d9f5,,,86.6797,86.68,,,,,,,,,,,,,,,,,,,,,,,,,,,,,,,,,,,,,,,,,,,,,,,,,,,,,,,,,,,,,,,,,,,,,,,,,,,,,,,,,,,,,,,,,,,,,,,,,,,,,,,,,,,,,,,,,,,,,,,,,,
,,,,,711879,1,2024-07-12_18h37.22.395,experiment,2024.1.5,Win32,58.82352941,6691931c2c63981b064e1f0c,6691aff8296090677dd3d9f5,,,,,86.6832,89.2255,space,2.5324,,89.2262,122.5095,[0],[-0.41296294883445456],[1],[0],[0],[14.517200000003001],"[""play_button""]",y,32.2491,,0.0,0.0,0.0,0.0,1.0,,,,,,,,,,,,,,,,,,,,,,,,,,,,,,,,,,,,,,,,,,,,,,,,,,,,,,,,,,,,,,,,,,,,,,,,,,,,,,,,,,,,,,,,,,,,,,,,,,,,
,,,,,711879,1,2024-07-12_18h37.22.395,experiment,2024.1.5,Win32,58.82352941,6691931c2c63981b064e1f0c,6691aff8296090677dd3d9f5,,,,,,,,,,,,,,,,,,,,,,,,,,,122.5103,136.4765,space,13.9368,,136.4767,256.4916,256.492,264.8614,right,4.8507,,264.8615,274.5751,space,9.6611,,274.5754,283.0388,0.040740755,-0.062037044,1.0,0.0,0.0,2.4495,compass_2,283.039,284.7057,space,1.6478,,284.7057,284.7131,284.7286,291.8385,0.089814857,-0.089814822,1.0,0.0,0.0,1.0996,compass,0.0,0.0,0.0,8.0,1.0,SoundStimuli/EndlessLove_DianaRossLionelRichie_Original5S.wav,,,,,,,,,,,,,,,,,,,,,,,,,,,,,,,,,,,,,,,,,,,,,,,,,,,,
,,,,,711879,1,2024-07-12_18h37.22.395,experiment,2024.1.5,Win32,58.82352941,6691931c2c63981b064e1f0c,6691aff8296090677dd3d9f5,,,,,,,,,,,,,,,,,,,,,,,,,,,,,,,,,,,,,,,,,,,,,,,,,,,,,,,,,,,,291.8447,299.8716,-0.123148106,-0.104629658,1.0,0.0,0.0,2.0165,compass,0.0,1.0,1.0,6.0,1.0,SoundStimuli/SaveYourTears_TheWeekndArianaGrande_Original5S.wav,,,,,,,,,,,,,,,,,,,,,,,,,,,,,,,,,,,,,,,,,,,,,,,,,,,,
,,,,,711879,1,2024-07-12_18h37.22.395,experiment,2024.1.5,Win32,58.82352941,6691931c2c63981b064e1f0c,6691aff8296090677dd3d9f5,,,,,,,,,,,,,,,,,,,,,,,,,,,,,,,,,,,,,,,,,,,,,,,,,,,,,,,,,,,,299.8777,306.5549,0.320370427,0.309259256,1.0,0.0,0.0,0.6666,compass,0.0,2.0,2.0,10.0,1.0,SoundStimuli/LeFreak_Chic_Original5S.wav,,,,,,,,,,,,,,,,,,,,,,,,,,,,,,,,,,,,,,,,,,,,,,,,,,,,
,,,,,711879,1,2024-07-12_18h37.22.395,experiment,2024.1.5,Win32,58.82352941,6691931c2c63981b064e1f0c,6691aff8296090677dd3d9f5,,,,,,,,,,,,,,,,,,,,,,,,,,,,,,,,,,,,,,,,,,,,,,,,,,,,,,,,,,,,306.5606,313.4215,0.060185185,0.083333333,1.0,0.0,0.0,0.85,compass,0.0,3.0,3.0,20.0,1.0,SoundStimuli/FlashdanceWhatAFeeling_IreneCara_Cover5S.wav,,,,,,,,,,,,,,,,,,,,,,,,,,,,,,,,,,,,,,,,,,,,,,,,,,,,
,,,,,711879,1,2024-07-12_18h37.22.395,experiment,2024.1.5,Win32,58.82352941,6691931c2c63981b064e1f0c,6691aff8296090677dd3d9f5,,,,,,,,,,,,,,,,,,,,,,,,,,,,,,,,,,,,,,,,,,,,,,,,,,,,,,,,,,,,313.4272,319.9546,-0.310185185,0.307407397,1.0,0.0,0.0,0.5161,compass,0.0,4.0,4.0,2.0,1.0,SoundStimuli/SmellsLikeTeenSpirit_Nirvana_Cover5S.wav,,,,,,,,,,,,,,,,,,,,,,,,,,,,,,,,,,,,,,,,,,,,,,,,,,,,
,,,,,711879,1,2024-07-12_18h37.22.395,experiment,2024.1.5,Win32,58.82352941,6691931c2c63981b064e1f0c,6691aff8296090677dd3d9f5,,,,,,,,,,,,,,,,,,,,,,,,,,,,,,,,,,,,,,,,,,,,,,,,,,,,,,,,,,,,319.9608,326.638,-0.216666681,-0.229629658,1.0,0.0,0.0,0.6666,compass,0.0,5.0,5.0,17.0,1.0,SoundStimuli/IWannaDanceWithSomebody_WhitneyHouston_Cover5S.wav,,,,,,,,,,,,,,,,,,,,,,,,,,,,,,,,,,,,,,,,,,,,,,,,,,,,
,,,,,711879,1,2024-07-12_18h37.22.395,experiment,2024.1.5,Win32,58.82352941,6691931c2c63981b064e1f0c,6691aff8296090677dd3d9f5,,,,,,,,,,,,,,,,,,,,,,,,,,,,,,,,,,,,,,,,,,,,,,,,,,,,,,,,,,,,326.6438,333.9211,0.156481496,-0.212962963,1.0,0.0,0.0,1.2659,compass,0.0,6.0,6.0,25.0,1.0,SoundStimuli/IllMakeLoveToYou_BoyzIIMen_Original5S.wav,,,,,,,,,,,,,,,,,,,,,,,,,,,,,,,,,,,,,,,,,,,,,,,,,,,,
,,,,,711879,1,2024-07-12_18h37.22.395,experiment,2024.1.5,Win32,58.82352941,6691931c2c63981b064e1f0c,6691aff8296090677dd3d9f5,,,,,,,,,,,,,,,,,,,,,,,,,,,,,,,,,,,,,,,,,,,,,,,,,,,,,,,,,,,,333.9276,340.4713,0.214814857,-0.256481524,1.0,0.0,0.0,0.5332,compass,0.0,7.0,7.0,4.0,1.0,SoundStimuli/Dreams_FleetwoodMac_Cover5S.wav,,,,,,,,,,,,,,,,,,,,,,,,,,,,,,,,,,,,,,,,,,,,,,,,,,,,
,,,,,711879,1,2024-07-12_18h37.22.395,experiment,2024.1.5,Win32,58.82352941,6691931c2c63981b064e1f0c,6691aff8296090677dd3d9f5,,,,,,,,,,,,,,,,,,,,,,,,,,,,,,,,,,,,,,,,,,,,,,,,,,,,,,,,,,,,340.4772,346.8378,-0.325925933,-0.315740727,1.0,0.0,0.0,0.35,compass,0.0,8.0,8.0,28.0,1.0,SoundStimuli/IWantToHoldYourHand_TheBeatles_Cover5S.wav,,,,,,,,,,,,,,,,,,,,,,,,,,,,,,,,,,,,,,,,,,,,,,,,,,,,
,,,,,711879,1,2024-07-12_18h37.22.395,experiment,2024.1.5,Win32,58.82352941,6691931c2c63981b064e1f0c,6691aff8296090677dd3d9f5,,,,,,,,,,,,,,,,,,,,,,,,,,,,,,,,,,,,,,,,,,,,,,,,,,,,,,,,,,,,346.8443,353.6379,0.300000085,0.287037037,1.0,0.0,0.0,0.7832,compass,0.0,9.0,9.0,11.0,1.0,SoundStimuli/BlurredLines_RobinThicke_Original5S.wav,,,,,,,,,,,,,,,,,,,,,,,,,,,,,,,,,,,,,,,,,,,,,,,,,,,,
,,,,,711879,1,2024-07-12_18h37.22.395,experiment,2024.1.5,Win32,58.82352941,6691931c2c63981b064e1f0c,6691aff8296090677dd3d9f5,,,,,,,,,,,,,,,,,,,,,,,,,,,,,,,,,,,,,,,,,,,,,,,,,,,,,,,,,,,,353.6441,360.4874,0.217592593,-0.275925954,1.0,0.0,0.0,0.8327,compass,0.0,10.0,10.0,7.0,1.0,SoundStimuli/MackTheKnife_BobbyDarin_Original5S.wav,,,,,,,,,,,,,,,,,,,,,,,,,,,,,,,,,,,,,,,,,,,,,,,,,,,,
,,,,,711879,1,2024-07-12_18h37.22.395,experiment,2024.1.5,Win32,58.82352941,6691931c2c63981b064e1f0c,6691aff8296090677dd3d9f5,,,,,,,,,,,,,,,,,,,,,,,,,,,,,,,,,,,,,,,,,,,,,,,,,,,,,,,,,,,,360.4936,367.5206,0.33148151,0.325000004,1.0,0.0,0.0,1.0168,compass,0.0,11.0,11.0,27.0,1.0,SoundStimuli/EyeOfTheTiger_Survivor_Original5S.wav,,,,,,,,,,,,,,,,,,,,,,,,,,,,,,,,,,,,,,,,,,,,,,,,,,,,
,,,,,711879,1,2024-07-12_18h37.22.395,experiment,2024.1.5,Win32,58.82352941,6691931c2c63981b064e1f0c,6691aff8296090677dd3d9f5,,,,,,,,,,,,,,,,,,,,,,,,,,,,,,,,,,,,,,,,,,,,,,,,,,,,,,,,,,,,367.5271,373.9374,-0.323148127,0.309259256,1.0,0.0,0.0,0.4003,compass,0.0,12.0,12.0,5.0,1.0,SoundStimuli/JoyToTheWorld_ThreeDogNight_Cover5S.wav,,,,,,,,,,,,,,,,,,,,,,,,,,,,,,,,,,,,,,,,,,,,,,,,,,,,
,,,,,711879,1,2024-07-12_18h37.22.395,experiment,2024.1.5,Win32,58.82352941,6691931c2c63981b064e1f0c,6691aff8296090677dd3d9f5,,,,,,,,,,,,,,,,,,,,,,,,,,,,,,,,,,,,,,,,,,,,,,,,,,,,,,,,,,,,373.9437,380.7368,0.236111111,0.255555559,1.0,0.0,0.0,0.7835,compass,0.0,13.0,13.0,13.0,1.0,SoundStimuli/Perfect_EdSheeran_Original5S.wav,,,,,,,,,,,,,,,,,,,,,,,,,,,,,,,,,,,,,,,,,,,,,,,,,,,,
,,,,,711879,1,2024-07-12_18h37.22.395,experiment,2024.1.5,Win32,58.82352941,6691931c2c63981b064e1f0c,6691aff8296090677dd3d9f5,,,,,,,,,,,,,,,,,,,,,,,,,,,,,,,,,,,,,,,,,,,,,,,,,,,,,,,,,,,,380.7424,387.1368,0.262962977,-0.289814843,1.0,0.0,0.0,0.3833,compass,0.0,14.0,14.0,32.0,1.0,SoundStimuli/Dilemma_NellyKellyRowland_Original5S.wav,,,,,,,,,,,,,,,,,,,,,,,,,,,,,,,,,,,,,,,,,,,,,,,,,,,,
,,,,,711879,1,2024-07-12_18h37.22.395,experiment,2024.1.5,Win32,58.82352941,6691931c2c63981b064e1f0c,6691aff8296090677dd3d9f5,,,,,,,,,,,,,,,,,,,,,,,,,,,,,,,,,,,,,,,,,,,,,,,,,,,,,,,,,,,,387.1436,393.5202,-0.277777778,-0.280555584,1.0,0.0,0.0,0.3663,compass,0.0,15.0,15.0,9.0,1.0,SoundStimuli/HowDoILive_LeAnnRimes_Original5S.wav,,,,,,,,,,,,,,,,,,,,,,,,,,,,,,,,,,,,,,,,,,,,,,,,,,,,
,,,,,711879,1,2024-07-12_18h37.22.395,experiment,2024.1.5,Win32,58.82352941,6691931c2c63981b064e1f0c,6691aff8296090677dd3d9f5,,,,,,,,,,,,,,,,,,,,,,,,,,,,,,,,,,,,,,,,,,,,,,,,,,,,,,,,,,,,393.5256,400.837,0.199074074,0.175925926,1.0,0.0,0.0,1.3003,compass,0.0,16.0,16.0,26.0,1.0,SoundStimuli/TheSign_AceOfBase_Original5S.wav,,,,,,,,,,,,,,,,,,,,,,,,,,,,,,,,,,,,,,,,,,,,,,,,,,,,
,,,,,711879,1,2024-07-12_18h37.22.395,experiment,2024.1.5,Win32,58.82352941,6691931c2c63981b064e1f0c,6691aff8296090677dd3d9f5,,,,,,,,,,,,,,,,,,,,,,,,,,,,,,,,,,,,,,,,,,,,,,,,,,,,,,,,,,,,400.8441,407.2365,0.233333376,-0.281481496,1.0,0.0,0.0,0.3835,compass,0.0,17.0,17.0,18.0,1.0,SoundStimuli/Weak_SWV_Original5S.wav,,,,,,,,,,,,,,,,,,,,,,,,,,,,,,,,,,,,,,,,,,,,,,,,,,,,
,,,,,711879,1,2024-07-12_18h37.22.395,experiment,2024.1.5,Win32,58.82352941,6691931c2c63981b064e1f0c,6691aff8296090677dd3d9f5,,,,,,,,,,,,,,,,,,,,,,,,,,,,,,,,,,,,,,,,,,,,,,,,,,,,,,,,,,,,407.2435,413.6365,-0.106481481,0.093518504,1.0,0.0,0.0,0.3838,compass,0.0,18.0,18.0,33.0,1.0,SoundStimuli/TheBoyIsMine_BrandyMonica_Cover5S.wav,,,,,,,,,,,,,,,,,,,,,,,,,,,,,,,,,,,,,,,,,,,,,,,,,,,,
,,,,,711879,1,2024-07-12_18h37.22.395,experiment,2024.1.5,Win32,58.82352941,6691931c2c63981b064e1f0c,6691aff8296090677dd3d9f5,,,,,,,,,,,,,,,,,,,,,,,,,,,,,,,,,,,,,,,,,,,,,,,,,,,,,,,,,,,,413.6424,420.0866,0.166666667,-0.140740783,1.0,0.0,0.0,0.4336,compass,0.0,19.0,19.0,16.0,1.0,SoundStimuli/ItsAllInTheGame_TommyEdwards_Original5S.wav,,,,,,,,,,,,,,,,,,,,,,,,,,,,,,,,,,,,,,,,,,,,,,,,,,,,
,,,,,711879,1,2024-07-12_18h37.22.395,experiment,2024.1.5,Win32,58.82352941,6691931c2c63981b064e1f0c,6691aff8296090677dd3d9f5,,,,,,,,,,,,,,,,,,,,,,,,,,,,,,,,,,,,,,,,,,,,,,,,,,,,,,,,,,,,420.0924,426.5698,0.166666667,-0.140740783,1.0,0.0,0.0,0.4671,compass,0.0,20.0,20.0,14.0,1.0,SoundStimuli/LikeARollingStone_BobDylan_Cover5S.wav,,,,,,,,,,,,,,,,,,,,,,,,,,,,,,,,,,,,,,,,,,,,,,,,,,,,
,,,,,711879,1,2024-07-12_18h37.22.395,experiment,2024.1.5,Win32,58.82352941,6691931c2c63981b064e1f0c,6691aff8296090677dd3d9f5,,,,,,,,,,,,,,,,,,,,,,,,,,,,,,,,,,,,,,,,,,,,,,,,,,,,,,,,,,,,426.576,433.136,-0.222222222,-0.203703704,1.0,0.0,0.0,0.5495,compass,0.0,21.0,21.0,30.0,1.0,SoundStimuli/SomebodyThatIUsedtoKnow_Gotye_Cover5S.wav,,,,,,,,,,,,,,,,,,,,,,,,,,,,,,,,,,,,,,,,,,,,,,,,,,,,
,,,,,711879,1,2024-07-12_18h37.22.395,experiment,2024.1.5,Win32,58.82352941,6691931c2c63981b064e1f0c,6691aff8296090677dd3d9f5,,,,,,,,,,,,,,,,,,,,,,,,,,,,,,,,,,,,,,,,,,,,,,,,,,,,,,,,,,,,433.1459,439.9191,0.324074074,0.316666656,1.0,0.0,0.0,0.7665,compass,0.0,22.0,22.0,22.0,1.0,SoundStimuli/Happy_PharellWilliams_Cover5S.wav,,,,,,,,,,,,,,,,,,,,,,,,,,,,,,,,,,,,,,,,,,,,,,,,,,,,
,,,,,711879,1,2024-07-12_18h37.22.395,experiment,2024.1.5,Win32,58.82352941,6691931c2c63981b064e1f0c,6691aff8296090677dd3d9f5,,,,,,,,,,,,,,,,,,,,,,,,,,,,,,,,,,,,,,,,,,,,,,,,,,,,,,,,,,,,439.9256,446.5194,-0.214814787,-0.154629672,1.0,0.0,0.0,0.5832,compass,0.0,23.0,23.0,21.0,1.0,SoundStimuli/BridgeOverTroubledWater_SimonAndGarfunkel_Cover5S.wav,,,,,,,,,,,,,,,,,,,,,,,,,,,,,,,,,,,,,,,,,,,,,,,,,,,,
,,,,,711879,1,2024-07-12_18h37.22.395,experiment,2024.1.5,Win32,58.82352941,6691931c2c63981b064e1f0c,6691aff8296090677dd3d9f5,,,,,,,,,,,,,,,,,,,,,,,,,,,,,,,,,,,,,,,,,,,,,,,,,,,,,,,,,,,,446.5267,453.6523,0.264814801,0.287037037,1.0,0.0,0.0,1.1162,compass,0.0,24.0,24.0,3.0,1.0,SoundStimuli/PartyRockAnthem_LMFAO_Cover5S.wav,,,,,,,,,,,,,,,,,,,,,,,,,,,,,,,,,,,,,,,,,,,,,,,,,,,,
,,,,,711879,1,2024-07-12_18h37.22.395,experiment,2024.1.5,Win32,58.82352941,6691931c2c63981b064e1f0c,6691aff8296090677dd3d9f5,,,,,,,,,,,,,,,,,,,,,,,,,,,,,,,,,,,,,,,,,,,,,,,,,,,,,,,,,,,,453.6582,460.6861,0.069444444,-0.075925933,1.0,0.0,0.0,1.0167,compass,0.0,25.0,25.0,12.0,1.0,SoundStimuli/UnbreakMyHeart_ToniBraxton_Cover5S.wav,,,,,,,,,,,,,,,,,,,,,,,,,,,,,,,,,,,,,,,,,,,,,,,,,,,,
,,,,,711879,1,2024-07-12_18h37.22.395,experiment,2024.1.5,Win32,58.82352941,6691931c2c63981b064e1f0c,6691aff8296090677dd3d9f5,,,,,,,,,,,,,,,,,,,,,,,,,,,,,,,,,,,,,,,,,,,,,,,,,,,,,,,,,,,,460.6915,467.0734,0.231481481,-0.258333347,0.0,0.0,1.0,0.3704,compass,0.0,26.0,26.0,23.0,1.0,SoundStimuli/IWalkTheLine_JohnnyCash_Cover5S.wav,,,,,,,,,,,,,,,,,,,,,,,,,,,,,,,,,,,,,,,,,,,,,,,,,,,,
,,,,,711879,1,2024-07-12_18h37.22.395,experiment,2024.1.5,Win32,58.82352941,6691931c2c63981b064e1f0c,6691aff8296090677dd3d9f5,,,,,,,,,,,,,,,,,,,,,,,,,,,,,,,,,,,,,,,,,,,,,,,,,,,,,,,,,,,,467.0736,474.0686,0.265740783,0.173148155,1.0,0.0,0.0,0.9829,compass,0.0,27.0,27.0,0.0,1.0,SoundStimuli/GimmeShelter_RollingStones_Cover5S.wav,,,,,,,,,,,,,,,,,,,,,,,,,,,,,,,,,,,,,,,,,,,,,,,,,,,,
,,,,,711879,1,2024-07-12_18h37.22.395,experiment,2024.1.5,Win32,58.82352941,6691931c2c63981b064e1f0c,6691aff8296090677dd3d9f5,,,,,,,,,,,,,,,,,,,,,,,,,,,,,,,,,,,,,,,,,,,,,,,,,,,,,,,,,,,,474.0751,480.9188,-0.190740727,-0.166666667,0.0,0.0,1.0,0.8331,compass,0.0,28.0,28.0,19.0,1.0,SoundStimuli/YouLightUpMyLife_DebbyBoone_Cover5S.wav,,,,,,,,,,,,,,,,,,,,,,,,,,,,,,,,,,,,,,,,,,,,,,,,,,,,
,,,,,711879,1,2024-07-12_18h37.22.395,experiment,2024.1.5,Win32,58.82352941,6691931c2c63981b064e1f0c,6691aff8296090677dd3d9f5,,,,,,,,,,,,,,,,,,,,,,,,,,,,,,,,,,,,,,,,,,,,,,,,,,,,,,,,,,,,480.9257,487.2686,0.312962991,0.324074074,1.0,0.0,0.0,0.3334,compass,0.0,29.0,29.0,15.0,1.0,SoundStimuli/CrazyInLove_BeyonceFtJayZ_Original5S.wav,,,,,,,,,,,,,,,,,,,,,,,,,,,,,,,,,,,,,,,,,,,,,,,,,,,,
,,,,,711879,1,2024-07-12_18h37.22.395,experiment,2024.1.5,Win32,58.82352941,6691931c2c63981b064e1f0c,6691aff8296090677dd3d9f5,,,,,,,,,,,,,,,,,,,,,,,,,,,,,,,,,,,,,,,,,,,,,,,,,,,,,,,,,,,,487.2751,493.7183,0.05740745,-0.056481503,1.0,0.0,0.0,0.4324,compass,0.0,30.0,30.0,1.0,1.0,SoundStimuli/Smooth_SantanaRobThomas_Cover5S.wav,,,,,,,,,,,,,,,,,,,,,,,,,,,,,,,,,,,,,,,,,,,,,,,,,,,,
,,,,,711879,1,2024-07-12_18h37.22.395,experiment,2024.1.5,Win32,58.82352941,6691931c2c63981b064e1f0c,6691aff8296090677dd3d9f5,,,,,,,,,,,,,,,,,,,,,,,,,,,,,,,,,,,,,,,,,,,,,,,,,,,,,,,,,,,,493.724,501.2687,-0.035185143,0.030555548,1.0,0.0,0.0,1.5335,compass,0.0,31.0,31.0,31.0,1.0,SoundStimuli/TossinAndTurnin_BobbyLewis_Cover5S.wav,,,,,,,,,,,,,,,,,,,,,,,,,,,,,,,,,,,,,,,,,,,,,,,,,,,,
,,,,,711879,1,2024-07-12_18h37.22.395,experiment,2024.1.5,Win32,58.82352941,6691931c2c63981b064e1f0c,6691aff8296090677dd3d9f5,,,,,,,,,,,,,,,,,,,,,,,,,,,,,,,,,,,,,,,,,,,,,,,,,,,,,,,,,,,,501.2748,507.7684,0.060185185,-0.050000014,1.0,0.0,0.0,0.4834,compass,0.0,32.0,32.0,29.0,1.0,SoundStimuli/BetteDavisEyes_KimCarnes_Cover5S.wav,,,,,,,,,,,,,,,,,,,,,,,,,,,,,,,,,,,,,,,,,,,,,,,,,,,,
,,,,,711879,1,2024-07-12_18h37.22.395,experiment,2024.1.5,Win32,58.82352941,6691931c2c63981b064e1f0c,6691aff8296090677dd3d9f5,,,,,,,,,,,,,,,,,,,,,,,,,,,,,,,,,,,,,,,,,,,,,,,,,,,,,,,,,,,,507.7742,514.2346,-0.204629616,-0.181481467,1.0,0.0,0.0,0.4496,compass,0.0,33.0,33.0,34.0,1.0,SoundStimuli/Irreplaceable_Beyonce_Original5S.wav,,,,,,,,,,,,,,,,,,,,,,,,,,,,,,,,,,,,,,,,,,,,,,,,,,,,
,,,,,711879,1,2024-07-12_18h37.22.395,experiment,2024.1.5,Win32,58.82352941,6691931c2c63981b064e1f0c,6691aff8296090677dd3d9f5,,,,,,,,,,,,,,,,,,,,,,,,,,,,,,,,,,,,,,,,,,,,,,,,,,,,,,,,,,,,514.2407,520.9678,0.084259245,0.093518504,1.0,0.0,0.0,0.7163,compass,0.0,34.0,34.0,24.0,1.0,SoundStimuli/Kiss_Prince_Original5S.wav,,,,,,,,,,,,,,,,,,,,,,,,,,,,,,,,,,,,,,,,,,,,,,,,,,,,
,,,,,711879,1,2024-07-12_18h37.22.395,experiment,2024.1.5,Win32,58.82352941,6691931c2c63981b064e1f0c,6691aff8296090677dd3d9f5,,,,,,,,,,,,,,,,,,,,,,,,,,,,,,,,,,,,,,,,,,,,,,,,,,,,,,,,,,,,,,,,,,,,,,,,,,,520.974,564.6013,space,43.6194,,564.6015,572.7513,right,8.1308,,0.0,0.0,0.0,0.0,1.0,block_order/blockB.xlsx,,,,,,,,,,,,,,,,,,,,,,,,,,,,,,,,,,,,
,,,,,711879,1,2024-07-12_18h37.22.395,experiment,2024.1.5,Win32,58.82352941,6691931c2c63981b064e1f0c,6691aff8296090677dd3d9f5,,,,,,,,,,,,,,,,,,,,,,,,,,,,,,,,,,,,,,,,,,,,,,,,,,,,,,,,,,,,572.7619,581.2338,0.132407436,0.146296289,1.0,0.0,0.0,2.4671,compass,0.0,0.0,0.0,14.0,1.0,SoundStimuli/BlindingLights_TheWeeknd_Original5S.wav,,,,,,,,,,,,,,,,,,,,,,,,,,,,,,,,,,,,,,,,,,,,,,,,,,,,
,,,,,711879,1,2024-07-12_18h37.22.395,experiment,2024.1.5,Win32,58.82352941,6691931c2c63981b064e1f0c,6691aff8296090677dd3d9f5,,,,,,,,,,,,,,,,,,,,,,,,,,,,,,,,,,,,,,,,,,,,,,,,,,,,,,,,,,,,581.2405,587.8172,-0.157407407,-0.098148134,1.0,0.0,0.0,0.5665,compass,0.0,1.0,1.0,3.0,1.0,SoundStimuli/NoScrubs_TLC_Original5S.wav,,,,,,,,,,,,,,,,,,,,,,,,,,,,,,,,,,,,,,,,,,,,,,,,,,,,
,,,,,711879,1,2024-07-12_18h37.22.395,experiment,2024.1.5,Win32,58.82352941,6691931c2c63981b064e1f0c,6691aff8296090677dd3d9f5,,,,,,,,,,,,,,,,,,,,,,,,,,,,,,,,,,,,,,,,,,,,,,,,,,,,,,,,,,,,587.8234,594.4,-0.071296268,0.087037016,1.0,0.0,0.0,0.5659,compass,0.0,2.0,2.0,17.0,1.0,SoundStimuli/Fallin_AliciaKeys_Original5S.wav,,,,,,,,,,,,,,,,,,,,,,,,,,,,,,,,,,,,,,,,,,,,,,,,,,,,
,,,,,711879,1,2024-07-12_18h37.22.395,experiment,2024.1.5,Win32,58.82352941,6691931c2c63981b064e1f0c,6691aff8296090677dd3d9f5,,,,,,,,,,,,,,,,,,,,,,,,,,,,,,,,,,,,,,,,,,,,,,,,,,,,,,,,,,,,594.4057,600.717,0.138888889,0.148148148,1.0,0.0,0.0,0.2998,compass,0.0,3.0,3.0,28.0,1.0,SoundStimuli/ComeAndGetYourLove_Redbone_Original5S.wav,,,,,,,,,,,,,,,,,,,,,,,,,,,,,,,,,,,,,,,,,,,,,,,,,,,,
,,,,,711879,1,2024-07-12_18h37.22.395,experiment,2024.1.5,Win32,58.82352941,6691931c2c63981b064e1f0c,6691aff8296090677dd3d9f5,,,,,,,,,,,,,,,,,,,,,,,,,,,,,,,,,,,,,,,,,,,,,,,,,,,,,,,,,,,,600.7236,607.4834,0.138888889,-0.125925912,1.0,0.0,0.0,0.75,compass,0.0,4.0,4.0,33.0,1.0,SoundStimuli/StandByMe_BenEKing_Cover5S.wav,,,,,,,,,,,,,,,,,,,,,,,,,,,,,,,,,,,,,,,,,,,,,,,,,,,,
,,,,,711879,1,2024-07-12_18h37.22.395,experiment,2024.1.5,Win32,58.82352941,6691931c2c63981b064e1f0c,6691aff8296090677dd3d9f5,,,,,,,,,,,,,,,,,,,,,,,,,,,,,,,,,,,,,,,,,,,,,,,,,,,,,,,,,,,,607.4891,614.483,0.20185188,0.186111097,1.0,0.0,0.0,0.9831,compass,0.0,5.0,5.0,27.0,1.0,SoundStimuli/ShapeofYou_EdSheeran_Original5S.wav,,,,,,,,,,,,,,,,,,,,,,,,,,,,,,,,,,,,,,,,,,,,,,,,,,,,
,,,,,711879,1,2024-07-12_18h37.22.395,experiment,2024.1.5,Win32,58.82352941,6691931c2c63981b064e1f0c,6691aff8296090677dd3d9f5,,,,,,,,,,,,,,,,,,,,,,,,,,,,,,,,,,,,,,,,,,,,,,,,,,,,,,,,,,,,614.4894,621.5829,0.12037037,-0.133333347,1.0,0.0,0.0,1.083,compass,0.0,6.0,6.0,4.0,1.0,SoundStimuli/GetUrFreakOn_MissyElliot_Original5S.wav,,,,,,,,,,,,,,,,,,,,,,,,,,,,,,,,,,,,,,,,,,,,,,,,,,,,
,,,,,711879,1,2024-07-12_18h37.22.395,experiment,2024.1.5,Win32,58.82352941,6691931c2c63981b064e1f0c,6691aff8296090677dd3d9f5,,,,,,,,,,,,,,,,,,,,,,,,,,,,,,,,,,,,,,,,,,,,,,,,,,,,,,,,,,,,621.5892,628.6328,-0.143518519,-0.136111153,1.0,0.0,0.0,1.033,compass,0.0,7.0,7.0,19.0,1.0,SoundStimuli/LetsGetItOn_MarvinGaye_Cover5S.wav,,,,,,,,,,,,,,,,,,,,,,,,,,,,,,,,,,,,,,,,,,,,,,,,,,,,
,,,,,711879,1,2024-07-12_18h37.22.395,experiment,2024.1.5,Win32,58.82352941,6691931c2c63981b064e1f0c,6691aff8296090677dd3d9f5,,,,,,,,,,,,,,,,,,,,,,,,,,,,,,,,,,,,,,,,,,,,,,,,,,,,,,,,,,,,628.6391,635.8838,0.168518561,0.159259266,1.0,0.0,0.0,1.2341,compass,0.0,8.0,8.0,9.0,1.0,SoundStimuli/Despacito_LuisFonsiDaddyYankee_Cover5S.wav,,,,,,,,,,,,,,,,,,,,,,,,,,,,,,,,,,,,,,,,,,,,,,,,,,,,
,,,,,711879,1,2024-07-12_18h37.22.395,experiment,2024.1.5,Win32,58.82352941,6691931c2c63981b064e1f0c,6691aff8296090677dd3d9f5,,,,,,,,,,,,,,,,,,,,,,,,,,,,,,,,,,,,,,,,,,,,,,,,,,,,,,,,,,,,635.9017,642.7493,0.097222222,-0.103703746,1.0,0.0,0.0,0.8332,compass,0.0,9.0,9.0,22.0,1.0,SoundStimuli/RockWithYou_MichaelJackson_Original5S.wav,,,,,,,,,,,,,,,,,,,,,,,,,,,,,,,,,,,,,,,,,,,,,,,,,,,,
,,,,,711879,1,2024-07-12_18h37.22.395,experiment,2024.1.5,Win32,58.82352941,6691931c2c63981b064e1f0c,6691aff8296090677dd3d9f5,,,,,,,,,,,,,,,,,,,,,,,,,,,,,,,,,,,,,,,,,,,,,,,,,,,,,,,,,,,,642.7554,650.0162,0.088888875,-0.095370399,1.0,0.0,0.0,1.25,compass,0.0,10.0,10.0,21.0,1.0,SoundStimuli/GoodGollyMissMolly_LittleRichard_Cover5S.wav,,,,,,,,,,,,,,,,,,,,,,,,,,,,,,,,,,,,,,,,,,,,,,,,,,,,
,,,,,711879,1,2024-07-12_18h37.22.395,experiment,2024.1.5,Win32,58.82352941,6691931c2c63981b064e1f0c,6691aff8296090677dd3d9f5,,,,,,,,,,,,,,,,,,,,,,,,,,,,,,,,,,,,,,,,,,,,,,,,,,,,,,,,,,,,650.0225,656.6326,-0.200925898,-0.174074102,1.0,0.0,0.0,0.6001,compass,0.0,11.0,11.0,32.0,1.0,SoundStimuli/HeatWaves_GlassAnimals_Original5S.wav,,,,,,,,,,,,,,,,,,,,,,,,,,,,,,,,,,,,,,,,,,,,,,,,,,,,
,,,,,711879,1,2024-07-12_18h37.22.395,experiment,2024.1.5,Win32,58.82352941,6691931c2c63981b064e1f0c,6691aff8296090677dd3d9f5,,,,,,,,,,,,,,,,,,,,,,,,,,,,,,,,,,,,,,,,,,,,,,,,,,,,,,,,,,,,656.6391,663.5655,0.162037037,0.199074074,1.0,0.0,0.0,0.9167,compass,0.0,12.0,12.0,0.0,1.0,SoundStimuli/StayinAlive_BeeGees_Original5S.wav,,,,,,,,,,,,,,,,,,,,,,,,,,,,,,,,,,,,,,,,,,,,,,,,,,,,
,,,,,711879,1,2024-07-12_18h37.22.395,experiment,2024.1.5,Win32,58.82352941,6691931c2c63981b064e1f0c,6691aff8296090677dd3d9f5,,,,,,,,,,,,,,,,,,,,,,,,,,,,,,,,,,,,,,,,,,,,,,,,,,,,,,,,,,,,663.5717,670.5988,0.067592621,-0.056481503,1.0,0.0,0.0,1.0168,compass,0.0,13.0,13.0,11.0,1.0,SoundStimuli/Superstition_StevieWonder_Cover5S.wav,,,,,,,,,,,,,,,,,,,,,,,,,,,,,,,,,,,,,,,,,,,,,,,,,,,,
,,,,,711879,1,2024-07-12_18h37.22.395,experiment,2024.1.5,Win32,58.82352941,6691931c2c63981b064e1f0c,6691aff8296090677dd3d9f5,,,,,,,,,,,,,,,,,,,,,,,,,,,,,,,,,,,,,,,,,,,,,,,,,,,,,,,,,,,,670.6045,677.3986,-0.331481474,-0.306481467,1.0,0.0,0.0,0.7832,compass,0.0,14.0,14.0,10.0,1.0,SoundStimuli/BadDay_DanielPowter_Cover5S.wav,,,,,,,,,,,,,,,,,,,,,,,,,,,,,,,,,,,,,,,,,,,,,,,,,,,,
,,,,,711879,1,2024-07-12_18h37.22.395,experiment,2024.1.5,Win32,58.82352941,6691931c2c63981b064e1f0c,6691aff8296090677dd3d9f5,,,,,,,,,,,,,,,,,,,,,,,,,,,,,,,,,,,,,,,,,,,,,,,,,,,,,,,,,,,,677.4045,684.0319,-0.128703718,0.105555534,1.0,0.0,0.0,0.6161,compass,0.0,15.0,15.0,34.0,1.0,SoundStimuli/AChangeIsGonnaCome_SamCooke_Cover5S.wav,,,,,,,,,,,,,,,,,,,,,,,,,,,,,,,,,,,,,,,,,,,,,,,,,,,,
,,,,,711879,1,2024-07-12_18h37.22.395,experiment,2024.1.5,Win32,58.82352941,6691931c2c63981b064e1f0c,6691aff8296090677dd3d9f5,,,,,,,,,,,,,,,,,,,,,,,,,,,,,,,,,,,,,,,,,,,,,,,,,,,,,,,,,,,,684.0382,691.2151,-0.121296282,-0.085185192,1.0,0.0,0.0,1.1668,compass,0.0,16.0,16.0,2.0,1.0,SoundStimuli/Mood_24kGoldnianndior_Cover5S.wav,,,,,,,,,,,,,,,,,,,,,,,,,,,,,,,,,,,,,,,,,,,,,,,,,,,,
,,,,,711879,1,2024-07-12_18h37.22.395,experiment,2024.1.5,Win32,58.82352941,6691931c2c63981b064e1f0c,6691aff8296090677dd3d9f5,,,,,,,,,,,,,,,,,,,,,,,,,,,,,,,,,,,,,,,,,,,,,,,,,,,,,,,,,,,,691.2226,697.6154,-0.121296282,-0.085185192,1.0,0.0,0.0,0.3836,compass,0.0,17.0,17.0,20.0,1.0,SoundStimuli/HeyYa_Outkast_Cover5S.wav,,,,,,,,,,,,,,,,,,,,,,,,,,,,,,,,,,,,,,,,,,,,,,,,,,,,
,,,,,711879,1,2024-07-12_18h37.22.395,experiment,2024.1.5,Win32,58.82352941,6691931c2c63981b064e1f0c,6691aff8296090677dd3d9f5,,,,,,,,,,,,,,,,,,,,,,,,,,,,,,,,,,,,,,,,,,,,,,,,,,,,,,,,,,,,697.6221,703.9814,0.14444443,0.142592571,1.0,0.0,0.0,0.3491,compass,0.0,18.0,18.0,1.0,1.0,SoundStimuli/Stronger_KanyeWest_Original5S.wav,,,,,,,,,,,,,,,,,,,,,,,,,,,,,,,,,,,,,,,,,,,,,,,,,,,,
,,,,,711879,1,2024-07-12_18h37.22.395,experiment,2024.1.5,Win32,58.82352941,6691931c2c63981b064e1f0c,6691aff8296090677dd3d9f5,,,,,,,,,,,,,,,,,,,,,,,,,,,,,,,,,,,,,,,,,,,,,,,,,,,,,,,,,,,,703.987,711.1978,-0.224999958,0.24166667,1.0,0.0,0.0,1.1998,compass,0.0,19.0,19.0,16.0,1.0,SoundStimuli/BohemianRhapsody_Queen_Original5S.wav,,,,,,,,,,,,,,,,,,,,,,,,,,,,,,,,,,,,,,,,,,,,,,,,,,,,
,,,,,711879,1,2024-07-12_18h37.22.395,experiment,2024.1.5,Win32,58.82352941,6691931c2c63981b064e1f0c,6691aff8296090677dd3d9f5,,,,,,,,,,,,,,,,,,,,,,,,,,,,,,,,,,,,,,,,,,,,,,,,,,,,,,,,,,,,711.2044,721.1649,-0.27870369,0.250925929,1.0,0.0,0.0,3.9503,compass,0.0,20.0,20.0,30.0,1.0,SoundStimuli/PokerFace_LadyGaga_Original5S.wav,,,,,,,,,,,,,,,,,,,,,,,,,,,,,,,,,,,,,,,,,,,,,,,,,,,,
,,,,,711879,1,2024-07-12_18h37.22.395,experiment,2024.1.5,Win32,58.82352941,6691931c2c63981b064e1f0c,6691aff8296090677dd3d9f5,,,,,,,,,,,,,,,,,,,,,,,,,,,,,,,,,,,,,,,,,,,,,,,,,,,,,,,,,,,,721.1713,728.4146,-0.189814815,-0.175925926,1.0,0.0,0.0,1.2331,compass,0.0,21.0,21.0,12.0,1.0,SoundStimuli/IWillAlwaysLoveYou_WhitneyHouston_Cover5S.wav,,,,,,,,,,,,,,,,,,,,,,,,,,,,,,,,,,,,,,,,,,,,,,,,,,,,
,,,,,711879,1,2024-07-12_18h37.22.395,experiment,2024.1.5,Win32,58.82352941,6691931c2c63981b064e1f0c,6691aff8296090677dd3d9f5,,,,,,,,,,,,,,,,,,,,,,,,,,,,,,,,,,,,,,,,,,,,,,,,,,,,,,,,,,,,728.4204,735.2645,-0.189814815,-0.175925926,1.0,0.0,0.0,0.8334,compass,0.0,22.0,22.0,15.0,1.0,SoundStimuli/TikTok_Kesha_Cover5S.wav,,,,,,,,,,,,,,,,,,,,,,,,,,,,,,,,,,,,,,,,,,,,,,,,,,,,
,,,,,711879,1,2024-07-12_18h37.22.395,experiment,2024.1.5,Win32,58.82352941,6691931c2c63981b064e1f0c,6691aff8296090677dd3d9f5,,,,,,,,,,,,,,,,,,,,,,,,,,,,,,,,,,,,,,,,,,,,,,,,,,,,,,,,,,,,735.2709,742.081,0.275000042,0.274999989,1.0,0.0,0.0,0.7993,compass,0.0,23.0,23.0,29.0,1.0,SoundStimuli/OldTownRoad_LilNasX_Original5S.wav,,,,,,,,,,,,,,,,,,,,,,,,,,,,,,,,,,,,,,,,,,,,,,,,,,,,
,,,,,711879,1,2024-07-12_18h37.22.395,experiment,2024.1.5,Win32,58.82352941,6691931c2c63981b064e1f0c,6691aff8296090677dd3d9f5,,,,,,,,,,,,,,,,,,,,,,,,,,,,,,,,,,,,,,,,,,,,,,,,,,,,,,,,,,,,742.0884,750.8816,0.147222236,-0.134259259,1.0,0.0,0.0,2.7839,compass,0.0,24.0,24.0,6.0,1.0,SoundStimuli/Levitating_DuaLipa_Cover5S.wav,,,,,,,,,,,,,,,,,,,,,,,,,,,,,,,,,,,,,,,,,,,,,,,,,,,,
,,,,,711879,1,2024-07-12_18h37.22.395,experiment,2024.1.5,Win32,58.82352941,6691931c2c63981b064e1f0c,6691aff8296090677dd3d9f5,,,,,,,,,,,,,,,,,,,,,,,,,,,,,,,,,,,,,,,,,,,,,,,,,,,,,,,,,,,,750.8876,757.264,0.140740783,0.147222201,1.0,0.0,0.0,0.367,compass,0.0,25.0,25.0,7.0,1.0,SoundStimuli/NoOne_AliciaKeys_Cover5S.wav,,,,,,,,,,,,,,,,,,,,,,,,,,,,,,,,,,,,,,,,,,,,,,,,,,,,
,,,,,711879,1,2024-07-12_18h37.22.395,experiment,2024.1.5,Win32,58.82352941,6691931c2c63981b064e1f0c,6691aff8296090677dd3d9f5,,,,,,,,,,,,,,,,,,,,,,,,,,,,,,,,,,,,,,,,,,,,,,,,,,,,,,,,,,,,757.2711,764.2305,-0.131481453,-0.146296325,1.0,0.0,0.0,0.9498,compass,0.0,26.0,26.0,13.0,1.0,SoundStimuli/GodOnlyKnows_TheBeachBoys_Cover5S.wav,,,,,,,,,,,,,,,,,,,,,,,,,,,,,,,,,,,,,,,,,,,,,,,,,,,,
,,,,,711879,1,2024-07-12_18h37.22.395,experiment,2024.1.5,Win32,58.82352941,6691931c2c63981b064e1f0c,6691aff8296090677dd3d9f5,,,,,,,,,,,,,,,,,,,,,,,,,,,,,,,,,,,,,,,,,,,,,,,,,,,,,,,,,,,,764.2364,770.6972,0.145370413,0.140740748,1.0,0.0,0.0,0.4505,compass,0.0,27.0,27.0,25.0,1.0,SoundStimuli/Respect_ArethaFranklin_Original5S.wav,,,,,,,,,,,,,,,,,,,,,,,,,,,,,,,,,,,,,,,,,,,,,,,,,,,,
,,,,,711879,1,2024-07-12_18h37.22.395,experiment,2024.1.5,Win32,58.82352941,6691931c2c63981b064e1f0c,6691aff8296090677dd3d9f5,,,,,,,,,,,,,,,,,,,,,,,,,,,,,,,,,,,,,,,,,,,,,,,,,,,,,,,,,,,,770.7031,777.514,0.075925968,0.104629623,1.0,0.0,0.0,0.8004,compass,0.0,28.0,28.0,18.0,1.0,SoundStimuli/AnotherOneBitesTheDust_Queen_Original5S.wav,,,,,,,,,,,,,,,,,,,,,,,,,,,,,,,,,,,,,,,,,,,,,,,,,,,,
,,,,,711879,1,2024-07-12_18h37.22.395,experiment,2024.1.5,Win32,58.82352941,6691931c2c63981b064e1f0c,6691aff8296090677dd3d9f5,,,,,,,,,,,,,,,,,,,,,,,,,,,,,,,,,,,,,,,,,,,,,,,,,,,,,,,,,,,,777.5199,784.6804,0.191666709,0.170370349,1.0,0.0,0.0,1.1498,compass,0.0,29.0,29.0,24.0,1.0,SoundStimuli/UptownFunk_MarkRonson_Original5S.wav,,,,,,,,,,,,,,,,,,,,,,,,,,,,,,,,,,,,,,,,,,,,,,,,,,,,
,,,,,711879,1,2024-07-12_18h37.22.395,experiment,2024.1.5,Win32,58.82352941,6691931c2c63981b064e1f0c,6691aff8296090677dd3d9f5,,,,,,,,,,,,,,,,,,,,,,,,,,,,,,,,,,,,,,,,,,,,,,,,,,,,,,,,,,,,784.6868,791.8636,0.029629672,-0.032407407,1.0,0.0,0.0,1.1668,compass,0.0,30.0,30.0,31.0,1.0,SoundStimuli/TheBattleOfNewOrleans_JohnnyHorton_Cover5S.wav,,,,,,,,,,,,,,,,,,,,,,,,,,,,,,,,,,,,,,,,,,,,,,,,,,,,
,,,,,711879,1,2024-07-12_18h37.22.395,experiment,2024.1.5,Win32,58.82352941,6691931c2c63981b064e1f0c,6691aff8296090677dd3d9f5,,,,,,,,,,,,,,,,,,,,,,,,,,,,,,,,,,,,,,,,,,,,,,,,,,,,,,,,,,,,791.8705,799.064,0.152777778,-0.150925954,1.0,0.0,0.0,1.1835,compass,0.0,31.0,31.0,8.0,1.0,SoundStimuli/LikeAPrayer_Madonna_Original5S.wav,,,,,,,,,,,,,,,,,,,,,,,,,,,,,,,,,,,,,,,,,,,,,,,,,,,,
,,,,,711879,1,2024-07-12_18h37.22.395,experiment,2024.1.5,Win32,58.82352941,6691931c2c63981b064e1f0c,6691aff8296090677dd3d9f5,,,,,,,,,,,,,,,,,,,,,,,,,,,,,,,,,,,,,,,,,,,,,,,,,,,,,,,,,,,,799.0701,806.7803,0.190740727,0.192592586,1.0,0.0,0.0,1.6998,compass,0.0,32.0,32.0,5.0,1.0,SoundStimuli/MyGirl_TheTemptations_Original5S.wav,,,,,,,,,,,,,,,,,,,,,,,,,,,,,,,,,,,,,,,,,,,,,,,,,,,,
,,,,,711879,1,2024-07-12_18h37.22.395,experiment,2024.1.5,Win32,58.82352941,6691931c2c63981b064e1f0c,6691aff8296090677dd3d9f5,,,,,,,,,,,,,,,,,,,,,,,,,,,,,,,,,,,,,,,,,,,,,,,,,,,,,,,,,,,,806.7867,814.2132,-0.09629631,-0.080555563,1.0,0.0,0.0,1.4166,compass,0.0,33.0,33.0,26.0,1.0,SoundStimuli/LivinOnAPrayer_BonJovi_Cover5S.wav,,,,,,,,,,,,,,,,,,,,,,,,,,,,,,,,,,,,,,,,,,,,,,,,,,,,
,,,,,711879,1,2024-07-12_18h37.22.395,experiment,2024.1.5,Win32,58.82352941,6691931c2c63981b064e1f0c,6691aff8296090677dd3d9f5,,,,,,,,,,,,,,,,,,,,,,,,,,,,,,,,,,,,,,,,,,,,,,,,,,,,,,,,,,,,814.2199,820.8469,0.067592621,-0.075925933,1.0,0.0,0.0,0.6169,compass,0.0,34.0,34.0,23.0,1.0,SoundStimuli/StrawberryFieldsForever_TheBeatles_Original5S.wav,,,,,,,,,,,,,,,,,,,,,,,,,,,,,,,,,,,,,,,,,,,,,,,,,,,,
,,,,,711879,1,2024-07-12_18h37.22.395,experiment,2024.1.5,Win32,58.82352941,6691931c2c63981b064e1f0c,6691aff8296090677dd3d9f5,,,,,,,,,,,,,,,,,,,,,,,,,,,,,,,,,,,,,,,,,,,,,,,,,,,,,,,,,,,,,,,,,,,,,,,,,,,820.8469,848.2962,space,27.4383,,848.2963,850.5796,right,2.2739,,0.0,1.0,1.0,1.0,1.0,block_order/blockA.xlsx,,,,,,,,,,,,,,,,,,,,,,,,,,,,,,,,,,,,
,,,,,711879,1,2024-07-12_18h37.22.395,experiment,2024.1.5,Win32,58.82352941,6691931c2c63981b064e1f0c,6691aff8296090677dd3d9f5,,,,,,,,,,,,,,,,,,,,,,,,,,,,,,,,,,,,,,,,,,,,,,,,,,,,,,,,,,,,850.6049,856.8798,0.106481481,-0.125,1.0,0.0,0.0,0.2657,compass,0.0,0.0,0.0,23.0,1.0,SoundStimuli/IWalkTheLine_JohnnyCash_Original5S.wav,,,,,,,,,,,,,,,,,,,,,,,,,,,,,,,,,,,,,,,,,,,,,,,,,,,,
,,,,,711879,1,2024-07-12_18h37.22.395,experiment,2024.1.5,Win32,58.82352941,6691931c2c63981b064e1f0c,6691aff8296090677dd3d9f5,,,,,,,,,,,,,,,,,,,,,,,,,,,,,,,,,,,,,,,,,,,,,,,,,,,,,,,,,,,,856.8947,863.3961,-0.239814829,-0.22129631,1.0,0.0,0.0,0.4995,compass,0.0,1.0,1.0,30.0,1.0,SoundStimuli/SomebodyThatIUsedtoKnow_Gotye_Original5S.wav,,,,,,,,,,,,,,,,,,,,,,,,,,,,,,,,,,,,,,,,,,,,,,,,,,,,
,,,,,711879,1,2024-07-12_18h37.22.395,experiment,2024.1.5,Win32,58.82352941,6691931c2c63981b064e1f0c,6691aff8296090677dd3d9f5,,,,,,,,,,,,,,,,,,,,,,,,,,,,,,,,,,,,,,,,,,,,,,,,,,,,,,,,,,,,863.4121,871.1959,0.118518547,0.116666653,1.0,0.0,0.0,1.783,compass,0.0,2.0,2.0,14.0,1.0,SoundStimuli/LikeARollingStone_BobDylan_Original5S.wav,,,,,,,,,,,,,,,,,,,,,,,,,,,,,,,,,,,,,,,,,,,,,,,,,,,,
,,,,,711879,1,2024-07-12_18h37.22.395,experiment,2024.1.5,Win32,58.82352941,6691931c2c63981b064e1f0c,6691aff8296090677dd3d9f5,,,,,,,,,,,,,,,,,,,,,,,,,,,,,,,,,,,,,,,,,,,,,,,,,,,,,,,,,,,,871.2132,877.5119,0.318518603,0.325925915,1.0,0.0,0.0,0.2834,compass,0.0,3.0,3.0,17.0,1.0,SoundStimuli/IWannaDanceWithSomebody_WhitneyHouston_Original5S.wav,,,,,,,,,,,,,,,,,,,,,,,,,,,,,,,,,,,,,,,,,,,,,,,,,,,,
,,,,,711879,1,2024-07-12_18h37.22.395,experiment,2024.1.5,Win32,58.82352941,6691931c2c63981b064e1f0c,6691aff8296090677dd3d9f5,,,,,,,,,,,,,,,,,,,,,,,,,,,,,,,,,,,,,,,,,,,,,,,,,,,,,,,,,,,,877.5183,883.879,0.069444444,0.078703704,1.0,0.0,0.0,0.3499,compass,0.0,4.0,4.0,7.0,1.0,SoundStimuli/MackTheKnife_BobbyDarin_Cover5S.wav,,,,,,,,,,,,,,,,,,,,,,,,,,,,,,,,,,,,,,,,,,,,,,,,,,,,
,,,,,711879,1,2024-07-12_18h37.22.395,experiment,2024.1.5,Win32,58.82352941,6691931c2c63981b064e1f0c,6691aff8296090677dd3d9f5,,,,,,,,,,,,,,,,,,,,,,,,,,,,,,,,,,,,,,,,,,,,,,,,,,,,,,,,,,,,883.8862,890.4451,-0.240740741,-0.236111111,1.0,0.0,0.0,0.5496,compass,0.0,5.0,5.0,6.0,1.0,SoundStimuli/SaveYourTears_TheWeekndArianaGrande_Cover5S.wav,,,,,,,,,,,,,,,,,,,,,,,,,,,,,,,,,,,,,,,,,,,,,,,,,,,,
,,,,,711879,1,2024-07-12_18h37.22.395,experiment,2024.1.5,Win32,58.82352941,6691931c2c63981b064e1f0c,6691aff8296090677dd3d9f5,,,,,,,,,,,,,,,,,,,,,,,,,,,,,,,,,,,,,,,,,,,,,,,,,,,,,,,,,,,,890.4511,896.9118,-0.340740734,-0.334259245,1.0,0.0,0.0,0.4497,compass,0.0,6.0,6.0,12.0,1.0,SoundStimuli/UnbreakMyHeart_ToniBraxton_Original5S.wav,,,,,,,,,,,,,,,,,,,,,,,,,,,,,,,,,,,,,,,,,,,,,,,,,,,,
,,,,,711879,1,2024-07-12_18h37.22.395,experiment,2024.1.5,Win32,58.82352941,6691931c2c63981b064e1f0c,6691aff8296090677dd3d9f5,,,,,,,,,,,,,,,,,,,,,,,,,,,,,,,,,,,,,,,,,,,,,,,,,,,,,,,,,,,,896.9181,903.3451,-0.340740734,-0.334259245,1.0,0.0,0.0,0.4167,compass,0.0,7.0,7.0,19.0,1.0,SoundStimuli/YouLightUpMyLife_DebbyBoone_Original5S.wav,,,,,,,,,,,,,,,,,,,,,,,,,,,,,,,,,,,,,,,,,,,,,,,,,,,,
,,,,,711879,1,2024-07-12_18h37.22.395,experiment,2024.1.5,Win32,58.82352941,6691931c2c63981b064e1f0c,6691aff8296090677dd3d9f5,,,,,,,,,,,,,,,,,,,,,,,,,,,,,,,,,,,,,,,,,,,,,,,,,,,,,,,,,,,,903.3511,909.8092,-0.340740734,-0.334259245,0.0,0.0,1.0,0.4477,compass,0.0,8.0,8.0,16.0,1.0,SoundStimuli/ItsAllInTheGame_TommyEdwards_Cover5S.wav,,,,,,,,,,,,,,,,,,,,,,,,,,,,,,,,,,,,,,,,,,,,,,,,,,,,
,,,,,711879,1,2024-07-12_18h37.22.395,experiment,2024.1.5,Win32,58.82352941,6691931c2c63981b064e1f0c,6691aff8296090677dd3d9f5,,,,,,,,,,,,,,,,,,,,,,,,,,,,,,,,,,,,,,,,,,,,,,,,,,,,,,,,,,,,909.8096,916.6653,0.173148191,0.201851845,1.0,0.0,0.0,0.85,compass,0.0,9.0,9.0,11.0,1.0,SoundStimuli/BlurredLines_RobinThicke_Cover5S.wav,,,,,,,,,,,,,,,,,,,,,,,,,,,,,,,,,,,,,,,,,,,,,,,,,,,,
,,,,,711879,1,2024-07-12_18h37.22.395,experiment,2024.1.5,Win32,58.82352941,6691931c2c63981b064e1f0c,6691aff8296090677dd3d9f5,,,,,,,,,,,,,,,,,,,,,,,,,,,,,,,,,,,,,,,,,,,,,,,,,,,,,,,,,,,,916.6714,923.1819,0.148148148,-0.162962949,1.0,0.0,0.0,0.5002,compass,0.0,10.0,10.0,31.0,1.0,SoundStimuli/TossinAndTurnin_BobbyLewis_Original5S.wav,,,,,,,,,,,,,,,,,,,,,,,,,,,,,,,,,,,,,,,,,,,,,,,,,,,,
,,,,,711879,1,2024-07-12_18h37.22.395,experiment,2024.1.5,Win32,58.82352941,6691931c2c63981b064e1f0c,6691aff8296090677dd3d9f5,,,,,,,,,,,,,,,,,,,,,,,,,,,,,,,,,,,,,,,,,,,,,,,,,,,,,,,,,,,,923.1877,929.7151,-0.277777778,-0.283333319,1.0,0.0,0.0,0.5165,compass,0.0,11.0,11.0,34.0,1.0,SoundStimuli/Irreplaceable_Beyonce_Cover5S.wav,,,,,,,,,,,,,,,,,,,,,,,,,,,,,,,,,,,,,,,,,,,,,,,,,,,,
,,,,,711879,1,2024-07-12_18h37.22.395,experiment,2024.1.5,Win32,58.82352941,6691931c2c63981b064e1f0c,6691aff8296090677dd3d9f5,,,,,,,,,,,,,,,,,,,,,,,,,,,,,,,,,,,,,,,,,,,,,,,,,,,,,,,,,,,,929.721,936.248,-0.322222215,0.318518515,1.0,0.0,0.0,0.5167,compass,0.0,12.0,12.0,1.0,1.0,SoundStimuli/Smooth_SantanaRobThomas_Original5S.wav,,,,,,,,,,,,,,,,,,,,,,,,,,,,,,,,,,,,,,,,,,,,,,,,,,,,
,,,,,711879,1,2024-07-12_18h37.22.395,experiment,2024.1.5,Win32,58.82352941,6691931c2c63981b064e1f0c,6691aff8296090677dd3d9f5,,,,,,,,,,,,,,,,,,,,,,,,,,,,,,,,,,,,,,,,,,,,,,,,,,,,,,,,,,,,936.2541,943.0325,-0.322222215,0.318518515,1.0,0.0,0.0,0.7676,compass,0.0,13.0,13.0,5.0,1.0,SoundStimuli/JoyToTheWorld_ThreeDogNight_Original5S.wav,,,,,,,,,,,,,,,,,,,,,,,,,,,,,,,,,,,,,,,,,,,,,,,,,,,,
,,,,,711879,1,2024-07-12_18h37.22.395,experiment,2024.1.5,Win32,58.82352941,6691931c2c63981b064e1f0c,6691aff8296090677dd3d9f5,,,,,,,,,,,,,,,,,,,,,,,,,,,,,,,,,,,,,,,,,,,,,,,,,,,,,,,,,,,,943.0479,949.4787,-0.174074032,0.190740727,0.0,0.0,1.0,0.4131,compass,0.0,14.0,14.0,2.0,1.0,SoundStimuli/SmellsLikeTeenSpirit_Nirvana_Original5S.wav,,,,,,,,,,,,,,,,,,,,,,,,,,,,,,,,,,,,,,,,,,,,,,,,,,,,
,,,,,711879,1,2024-07-12_18h37.22.395,experiment,2024.1.5,Win32,58.82352941,6691931c2c63981b064e1f0c,6691aff8296090677dd3d9f5,,,,,,,,,,,,,,,,,,,,,,,,,,,,,,,,,,,,,,,,,,,,,,,,,,,,,,,,,,,,949.4962,956.081,0.141666695,-0.202777792,0.0,0.0,1.0,0.5832,compass,0.0,15.0,15.0,10.0,1.0,SoundStimuli/LeFreak_Chic_Cover5S.wav,,,,,,,,,,,,,,,,,,,,,,,,,,,,,,,,,,,,,,,,,,,,,,,,,,,,
,,,,,711879,1,2024-07-12_18h37.22.395,experiment,2024.1.5,Win32,58.82352941,6691931c2c63981b064e1f0c,6691aff8296090677dd3d9f5,,,,,,,,,,,,,,,,,,,,,,,,,,,,,,,,,,,,,,,,,,,,,,,,,,,,,,,,,,,,956.0869,963.6642,-0.231481481,-0.222222222,1.0,0.0,0.0,1.567,compass,0.0,16.0,16.0,21.0,1.0,SoundStimuli/BridgeOverTroubledWater_SimonAndGarfunkel_Original5S.wav,,,,,,,,,,,,,,,,,,,,,,,,,,,,,,,,,,,,,,,,,,,,,,,,,,,,
,,,,,711879,1,2024-07-12_18h37.22.395,experiment,2024.1.5,Win32,58.82352941,6691931c2c63981b064e1f0c,6691aff8296090677dd3d9f5,,,,,,,,,,,,,,,,,,,,,,,,,,,,,,,,,,,,,,,,,,,,,,,,,,,,,,,,,,,,963.6703,970.0628,0.191666709,-0.220370399,1.0,0.0,0.0,0.3824,compass,0.0,17.0,17.0,15.0,1.0,SoundStimuli/CrazyInLove_BeyonceFtJayZ_Cover5S.wav,,,,,,,,,,,,,,,,,,,,,,,,,,,,,,,,,,,,,,,,,,,,,,,,,,,,
,,,,,711879,1,2024-07-12_18h37.22.395,experiment,2024.1.5,Win32,58.82352941,6691931c2c63981b064e1f0c,6691aff8296090677dd3d9f5,,,,,,,,,,,,,,,,,,,,,,,,,,,,,,,,,,,,,,,,,,,,,,,,,,,,,,,,,,,,970.0688,976.9645,0.320370427,0.281481478,1.0,0.0,0.0,0.8836,compass,0.0,18.0,18.0,26.0,1.0,SoundStimuli/TheSign_AceOfBase_Cover5S.wav,,,,,,,,,,,,,,,,,,,,,,,,,,,,,,,,,,,,,,,,,,,,,,,,,,,,
,,,,,711879,1,2024-07-12_18h37.22.395,experiment,2024.1.5,Win32,58.82352941,6691931c2c63981b064e1f0c,6691aff8296090677dd3d9f5,,,,,,,,,,,,,,,,,,,,,,,,,,,,,,,,,,,,,,,,,,,,,,,,,,,,,,,,,,,,976.9704,983.9803,-0.257407365,-0.231481481,1.0,0.0,0.0,0.9997,compass,0.0,19.0,19.0,33.0,1.0,SoundStimuli/TheBoyIsMine_BrandyMonica_Original5S.wav,,,,,,,,,,,,,,,,,,,,,,,,,,,,,,,,,,,,,,,,,,,,,,,,,,,,
,,,,,711879,1,2024-07-12_18h37.22.395,experiment,2024.1.5,Win32,58.82352941,6691931c2c63981b064e1f0c,6691aff8296090677dd3d9f5,,,,,,,,,,,,,,,,,,,,,,,,,,,,,,,,,,,,,,,,,,,,,,,,,,,,,,,,,,,,983.9865,990.727,0.25,0.259259259,1.0,0.0,0.0,0.7296,compass,0.0,20.0,20.0,20.0,1.0,SoundStimuli/FlashdanceWhatAFeeling_IreneCara_Original5S.wav,,,,,,,,,,,,,,,,,,,,,,,,,,,,,,,,,,,,,,,,,,,,,,,,,,,,
,,,,,711879,1,2024-07-12_18h37.22.395,experiment,2024.1.5,Win32,58.82352941,6691931c2c63981b064e1f0c,6691aff8296090677dd3d9f5,,,,,,,,,,,,,,,,,,,,,,,,,,,,,,,,,,,,,,,,,,,,,,,,,,,,,,,,,,,,990.7333,997.8637,0.175000014,0.185185185,1.0,0.0,0.0,1.1174,compass,0.0,21.0,21.0,29.0,1.0,SoundStimuli/BetteDavisEyes_KimCarnes_Original5S.wav,,,,,,,,,,,,,,,,,,,,,,,,,,,,,,,,,,,,,,,,,,,,,,,,,,,,
,,,,,711879,1,2024-07-12_18h37.22.395,experiment,2024.1.5,Win32,58.82352941,6691931c2c63981b064e1f0c,6691aff8296090677dd3d9f5,,,,,,,,,,,,,,,,,,,,,,,,,,,,,,,,,,,,,,,,,,,,,,,,,,,,,,,,,,,,997.8699,1005.214,0.32222225,0.329629633,1.0,0.0,0.0,1.3374,compass,0.0,22.0,22.0,3.0,1.0,SoundStimuli/PartyRockAnthem_LMFAO_Original5S.wav,,,,,,,,,,,,,,,,,,,,,,,,,,,,,,,,,,,,,,,,,,,,,,,,,,,,
,,,,,711879,1,2024-07-12_18h37.22.395,experiment,2024.1.5,Win32,58.82352941,6691931c2c63981b064e1f0c,6691aff8296090677dd3d9f5,,,,,,,,,,,,,,,,,,,,,,,,,,,,,,,,,,,,,,,,,,,,,,,,,,,,,,,,,,,,1005.22,1011.7305,0.218518504,-0.227777764,1.0,0.0,0.0,0.5004,compass,0.0,23.0,23.0,0.0,1.0,SoundStimuli/GimmeShelter_RollingStones_Original5S.wav,,,,,,,,,,,,,,,,,,,,,,,,,,,,,,,,,,,,,,,,,,,,,,,,,,,,
,,,,,711879,1,2024-07-12_18h37.22.395,experiment,2024.1.5,Win32,58.82352941,6691931c2c63981b064e1f0c,6691aff8296090677dd3d9f5,,,,,,,,,,,,,,,,,,,,,,,,,,,,,,,,,,,,,,,,,,,,,,,,,,,,,,,,,,,,1011.7371,1018.1763,0.327777863,-0.32685188,1.0,0.0,0.0,0.4329,compass,0.0,24.0,24.0,18.0,1.0,SoundStimuli/Weak_SWV_Cover5S.wav,,,,,,,,,,,,,,,,,,,,,,,,,,,,,,,,,,,,,,,,,,,,,,,,,,,,
,,,,,711879,1,2024-07-12_18h37.22.395,experiment,2024.1.5,Win32,58.82352941,6691931c2c63981b064e1f0c,6691aff8296090677dd3d9f5,,,,,,,,,,,,,,,,,,,,,,,,,,,,,,,,,,,,,,,,,,,,,,,,,,,,,,,,,,,,1018.1827,1025.2129,0.327777863,-0.32685188,1.0,0.0,0.0,1.0165,compass,0.0,25.0,25.0,24.0,1.0,SoundStimuli/Kiss_Prince_Cover5S.wav,,,,,,,,,,,,,,,,,,,,,,,,,,,,,,,,,,,,,,,,,,,,,,,,,,,,
,,,,,711879,1,2024-07-12_18h37.22.395,experiment,2024.1.5,Win32,58.82352941,6691931c2c63981b064e1f0c,6691aff8296090677dd3d9f5,,,,,,,,,,,,,,,,,,,,,,,,,,,,,,,,,,,,,,,,,,,,,,,,,,,,,,,,,,,,1025.2191,1032.0259,0.312037009,0.307407397,1.0,0.0,0.0,0.7963,compass,0.0,26.0,26.0,22.0,1.0,SoundStimuli/Happy_PharellWilliams_Original5S.wav,,,,,,,,,,,,,,,,,,,,,,,,,,,,,,,,,,,,,,,,,,,,,,,,,,,,
,,,,,711879,1,2024-07-12_18h37.22.395,experiment,2024.1.5,Win32,58.82352941,6691931c2c63981b064e1f0c,6691aff8296090677dd3d9f5,,,,,,,,,,,,,,,,,,,,,,,,,,,,,,,,,,,,,,,,,,,,,,,,,,,,,,,,,,,,1032.0322,1038.7096,0.312037009,0.307407397,1.0,0.0,0.0,0.6634,compass,0.0,27.0,27.0,27.0,1.0,SoundStimuli/EyeOfTheTiger_Survivor_Cover5S.wav,,,,,,,,,,,,,,,,,,,,,,,,,,,,,,,,,,,,,,,,,,,,,,,,,,,,
,,,,,711879,1,2024-07-12_18h37.22.395,experiment,2024.1.5,Win32,58.82352941,6691931c2c63981b064e1f0c,6691aff8296090677dd3d9f5,,,,,,,,,,,,,,,,,,,,,,,,,,,,,,,,,,,,,,,,,,,,,,,,,,,,,,,,,,,,1038.7157,1046.7133,0.266666695,-0.220370399,1.0,0.0,0.0,1.9835,compass,0.0,28.0,28.0,28.0,1.0,SoundStimuli/IWantToHoldYourHand_TheBeatles_Original5S.wav,,,,,,,,,,,,,,,,,,,,,,,,,,,,,,,,,,,,,,,,,,,,,,,,,,,,
,,,,,711879,1,2024-07-12_18h37.22.395,experiment,2024.1.5,Win32,58.82352941,6691931c2c63981b064e1f0c,6691aff8296090677dd3d9f5,,,,,,,,,,,,,,,,,,,,,,,,,,,,,,,,,,,,,,,,,,,,,,,,,,,,,,,,,,,,1046.7203,1054.1186,0.26944443,-0.271296325,1.0,0.0,0.0,1.3923,compass,0.0,29.0,29.0,4.0,1.0,SoundStimuli/Dreams_FleetwoodMac_Original5S.wav,,,,,,,,,,,,,,,,,,,,,,,,,,,,,,,,,,,,,,,,,,,,,,,,,,,,
,,,,,711879,1,2024-07-12_18h37.22.395,experiment,2024.1.5,Win32,58.82352941,6691931c2c63981b064e1f0c,6691aff8296090677dd3d9f5,,,,,,,,,,,,,,,,,,,,,,,,,,,,,,,,,,,,,,,,,,,,,,,,,,,,,,,,,,,,1054.1188,1060.829,-0.087037051,-0.071296303,1.0,0.0,0.0,0.6989,compass,0.0,30.0,30.0,9.0,1.0,SoundStimuli/HowDoILive_LeAnnRimes_Cover5S.wav,,,,,,,,,,,,,,,,,,,,,,,,,,,,,,,,,,,,,,,,,,,,,,,,,,,,
,,,,,711879,1,2024-07-12_18h37.22.395,experiment,2024.1.5,Win32,58.82352941,6691931c2c63981b064e1f0c,6691aff8296090677dd3d9f5,,,,,,,,,,,,,,,,,,,,,,,,,,,,,,,,,,,,,,,,,,,,,,,,,,,,,,,,,,,,1060.8341,1067.6291,0.175925926,-0.194444444,1.0,0.0,0.0,0.7832,compass,0.0,31.0,31.0,25.0,1.0,SoundStimuli/IllMakeLoveToYou_BoyzIIMen_Cover5S.wav,,,,,,,,,,,,,,,,,,,,,,,,,,,,,,,,,,,,,,,,,,,,,,,,,,,,
,,,,,711879,1,2024-07-12_18h37.22.395,experiment,2024.1.5,Win32,58.82352941,6691931c2c63981b064e1f0c,6691aff8296090677dd3d9f5,,,,,,,,,,,,,,,,,,,,,,,,,,,,,,,,,,,,,,,,,,,,,,,,,,,,,,,,,,,,1067.6354,1074.7261,0.145370413,-0.186111097,1.0,0.0,0.0,1.0791,compass,0.0,32.0,32.0,8.0,1.0,SoundStimuli/EndlessLove_DianaRossLionelRichie_Cover5S.wav,,,,,,,,,,,,,,,,,,,,,,,,,,,,,,,,,,,,,,,,,,,,,,,,,,,,
,,,,,711879,1,2024-07-12_18h37.22.395,experiment,2024.1.5,Win32,58.82352941,6691931c2c63981b064e1f0c,6691aff8296090677dd3d9f5,,,,,,,,,,,,,,,,,,,,,,,,,,,,,,,,,,,,,,,,,,,,,,,,,,,,,,,,,,,,1074.7327,1082.9271,0.214814857,0.190740727,1.0,0.0,0.0,2.1846,compass,0.0,33.0,33.0,32.0,1.0,SoundStimuli/Dilemma_NellyKellyRowland_Cover5S.wav,,,,,,,,,,,,,,,,,,,,,,,,,,,,,,,,,,,,,,,,,,,,,,,,,,,,
,,,,,711879,1,2024-07-12_18h37.22.395,experiment,2024.1.5,Win32,58.82352941,6691931c2c63981b064e1f0c,6691aff8296090677dd3d9f5,,,,,,,,,,,,,,,,,,,,,,,,,,,,,,,,,,,,,,,,,,,,,,,,,,,,,,,,,,,,1082.936,1089.8624,-0.068518533,-0.074074074,1.0,0.0,0.0,0.9199,compass,0.0,34.0,34.0,13.0,1.0,SoundStimuli/Perfect_EdSheeran_Cover5S.wav,,,,,,,,,,,,,,,,,,,,,,,,,,,,,,,,,,,,,,,,,,,,,,,,,,,,
,,,,,711879,1,2024-07-12_18h37.22.395,experiment,2024.1.5,Win32,58.82352941,6691931c2c63981b064e1f0c,6691aff8296090677dd3d9f5,,,,,,,,,,,,,,,,,,,,,,,,,,,,,,,,,,,,,,,,,,,,,,,,,,,,,,,,,,,,,,,,,,,,,,,,,,,1089.8625,1090.6783,space,0.7995,,1090.6784,1093.1953,right,2.4997,,0.0,2.0,2.0,2.0,1.0,block_order/blockD.xlsx,,,,,,,,,,,,,,,,,,,,,,,,,,,,,,,,,,,,
,,,,,711879,1,2024-07-12_18h37.22.395,experiment,2024.1.5,Win32,58.82352941,6691931c2c63981b064e1f0c,6691aff8296090677dd3d9f5,,,,,,,,,,,,,,,,,,,,,,,,,,,,,,,,,,,,,,,,,,,,,,,,,,,,,,,,,,,,1093.2054,1099.6159,0.047222208,-0.047222243,0.0,0.0,1.0,0.4037,compass,0.0,0.0,0.0,5.0,1.0,SoundStimuli/MyGirl_TheTemptations_Cover5S.wav,,,,,,,,,,,,,,,,,,,,,,,,,,,,,,,,,,,,,,,,,,,,,,,,,,,,
,,,,,711879,1,2024-07-12_18h37.22.395,experiment,2024.1.5,Win32,58.82352941,6691931c2c63981b064e1f0c,6691aff8296090677dd3d9f5,,,,,,,,,,,,,,,,,,,,,,,,,,,,,,,,,,,,,,,,,,,,,,,,,,,,,,,,,,,,1099.6231,1105.9799,0.282407407,0.274074078,1.0,0.0,0.0,0.3511,compass,0.0,1.0,1.0,26.0,1.0,SoundStimuli/LivinOnAPrayer_BonJovi_Original5S.wav,,,,,,,,,,,,,,,,,,,,,,,,,,,,,,,,,,,,,,,,,,,,,,,,,,,,
,,,,,711879,1,2024-07-12_18h37.22.395,experiment,2024.1.5,Win32,58.82352941,6691931c2c63981b064e1f0c,6691aff8296090677dd3d9f5,,,,,,,,,,,,,,,,,,,,,,,,,,,,,,,,,,,,,,,,,,,,,,,,,,,,,,,,,,,,1105.9876,1112.7952,-0.106481481,-0.062962956,1.0,0.0,0.0,0.7998,compass,0.0,2.0,2.0,2.0,1.0,SoundStimuli/Mood_24kGoldnianndior_Original5S.wav,,,,,,,,,,,,,,,,,,,,,,,,,,,,,,,,,,,,,,,,,,,,,,,,,,,,
,,,,,711879,1,2024-07-12_18h37.22.395,experiment,2024.1.5,Win32,58.82352941,6691931c2c63981b064e1f0c,6691aff8296090677dd3d9f5,,,,,,,,,,,,,,,,,,,,,,,,,,,,,,,,,,,,,,,,,,,,,,,,,,,,,,,,,,,,1112.8013,1120.4617,-0.061111097,-0.047222243,1.0,0.0,0.0,1.65,compass,0.0,3.0,3.0,11.0,1.0,SoundStimuli/Superstition_StevieWonder_Original5S.wav,,,,,,,,,,,,,,,,,,,,,,,,,,,,,,,,,,,,,,,,,,,,,,,,,,,,
,,,,,711879,1,2024-07-12_18h37.22.395,experiment,2024.1.5,Win32,58.82352941,6691931c2c63981b064e1f0c,6691aff8296090677dd3d9f5,,,,,,,,,,,,,,,,,,,,,,,,,,,,,,,,,,,,,,,,,,,,,,,,,,,,,,,,,,,,1120.4677,1127.0284,-0.087037051,-0.093518504,1.0,0.0,0.0,0.5505,compass,0.0,4.0,4.0,34.0,1.0,SoundStimuli/AChangeIsGonnaCome_SamCooke_Original5S.wav,,,,,,,,,,,,,,,,,,,,,,,,,,,,,,,,,,,,,,,,,,,,,,,,,,,,
,,,,,711879,1,2024-07-12_18h37.22.395,experiment,2024.1.5,Win32,58.82352941,6691931c2c63981b064e1f0c,6691aff8296090677dd3d9f5,,,,,,,,,,,,,,,,,,,,,,,,,,,,,,,,,,,,,,,,,,,,,,,,,,,,,,,,,,,,1127.0343,1133.5412,0.111111111,0.1175926,1.0,0.0,0.0,0.4969,compass,0.0,5.0,5.0,24.0,1.0,SoundStimuli/UptownFunk_MarkRonson_Cover5S.wav,,,,,,,,,,,,,,,,,,,,,,,,,,,,,,,,,,,,,,,,,,,,,,,,,,,,
,,,,,711879,1,2024-07-12_18h37.22.395,experiment,2024.1.5,Win32,58.82352941,6691931c2c63981b064e1f0c,6691aff8296090677dd3d9f5,,,,,,,,,,,,,,,,,,,,,,,,,,,,,,,,,,,,,,,,,,,,,,,,,,,,,,,,,,,,1133.5474,1139.9614,0.116666653,-0.079629651,1.0,0.0,0.0,0.4002,compass,0.0,6.0,6.0,13.0,1.0,SoundStimuli/GodOnlyKnows_TheBeachBoys_Original5S.wav,,,,,,,,,,,,,,,,,,,,,,,,,,,,,,,,,,,,,,,,,,,,,,,,,,,,
,,,,,711879,1,2024-07-12_18h37.22.395,experiment,2024.1.5,Win32,58.82352941,6691931c2c63981b064e1f0c,6691aff8296090677dd3d9f5,,,,,,,,,,,,,,,,,,,,,,,,,,,,,,,,,,,,,,,,,,,,,,,,,,,,,,,,,,,,1139.9679,1146.574,-0.051851838,-0.053703697,1.0,0.0,0.0,0.5962,compass,0.0,7.0,7.0,3.0,1.0,SoundStimuli/NoScrubs_TLC_Cover5S.wav,,,,,,,,,,,,,,,,,,,,,,,,,,,,,,,,,,,,,,,,,,,,,,,,,,,,
,,,,,711879,1,2024-07-12_18h37.22.395,experiment,2024.1.5,Win32,58.82352941,6691931c2c63981b064e1f0c,6691aff8296090677dd3d9f5,,,,,,,,,,,,,,,,,,,,,,,,,,,,,,,,,,,,,,,,,,,,,,,,,,,,,,,,,,,,1146.58,1153.1075,-0.086111069,-0.082407422,1.0,0.0,0.0,0.5131,compass,0.0,8.0,8.0,32.0,1.0,SoundStimuli/HeatWaves_GlassAnimals_Cover5S.wav,,,,,,,,,,,,,,,,,,,,,,,,,,,,,,,,,,,,,,,,,,,,,,,,,,,,
,,,,,711879,1,2024-07-12_18h37.22.395,experiment,2024.1.5,Win32,58.82352941,6691931c2c63981b064e1f0c,6691aff8296090677dd3d9f5,,,,,,,,,,,,,,,,,,,,,,,,,,,,,,,,,,,,,,,,,,,,,,,,,,,,,,,,,,,,1153.1133,1159.7957,0.123148176,-0.095370399,1.0,0.0,0.0,0.6683,compass,0.0,9.0,9.0,22.0,1.0,SoundStimuli/RockWithYou_MichaelJackson_Cover5S.wav,,,,,,,,,,,,,,,,,,,,,,,,,,,,,,,,,,,,,,,,,,,,,,,,,,,,
,,,,,711879,1,2024-07-12_18h37.22.395,experiment,2024.1.5,Win32,58.82352941,6691931c2c63981b064e1f0c,6691aff8296090677dd3d9f5,,,,,,,,,,,,,,,,,,,,,,,,,,,,,,,,,,,,,,,,,,,,,,,,,,,,,,,,,,,,1159.8036,1166.1277,0.119444459,0.157407407,1.0,0.0,0.0,0.3203,compass,0.0,10.0,10.0,14.0,1.0,SoundStimuli/BlindingLights_TheWeeknd_Cover5S.wav,,,,,,,,,,,,,,,,,,,,,,,,,,,,,,,,,,,,,,,,,,,,,,,,,,,,
,,,,,711879,1,2024-07-12_18h37.22.395,experiment,2024.1.5,Win32,58.82352941,6691931c2c63981b064e1f0c,6691aff8296090677dd3d9f5,,,,,,,,,,,,,,,,,,,,,,,,,,,,,,,,,,,,,,,,,,,,,,,,,,,,,,,,,,,,1166.1334,1172.744,0.119444459,0.157407407,1.0,0.0,0.0,0.6001,compass,0.0,11.0,11.0,0.0,1.0,SoundStimuli/StayinAlive_BeeGees_Cover5S.wav,,,,,,,,,,,,,,,,,,,,,,,,,,,,,,,,,,,,,,,,,,,,,,,,,,,,
,,,,,711879,1,2024-07-12_18h37.22.395,experiment,2024.1.5,Win32,58.82352941,6691931c2c63981b064e1f0c,6691aff8296090677dd3d9f5,,,,,,,,,,,,,,,,,,,,,,,,,,,,,,,,,,,,,,,,,,,,,,,,,,,,,,,,,,,,1172.7495,1179.3072,-0.295370384,-0.179629644,1.0,0.0,0.0,0.5468,compass,0.0,12.0,12.0,10.0,1.0,SoundStimuli/BadDay_DanielPowter_Original5S.wav,,,,,,,,,,,,,,,,,,,,,,,,,,,,,,,,,,,,,,,,,,,,,,,,,,,,
,,,,,711879,1,2024-07-12_18h37.22.395,experiment,2024.1.5,Win32,58.82352941,6691931c2c63981b064e1f0c,6691aff8296090677dd3d9f5,,,,,,,,,,,,,,,,,,,,,,,,,,,,,,,,,,,,,,,,,,,,,,,,,,,,,,,,,,,,1179.3139,1185.6937,-0.340740734,0.331481474,1.0,0.0,0.0,0.3668,compass,0.0,13.0,13.0,30.0,1.0,SoundStimuli/PokerFace_LadyGaga_Cover5S.wav,,,,,,,,,,,,,,,,,,,,,,,,,,,,,,,,,,,,,,,,,,,,,,,,,,,,
,,,,,711879,1,2024-07-12_18h37.22.395,experiment,2024.1.5,Win32,58.82352941,6691931c2c63981b064e1f0c,6691aff8296090677dd3d9f5,,,,,,,,,,,,,,,,,,,,,,,,,,,,,,,,,,,,,,,,,,,,,,,,,,,,,,,,,,,,1185.6992,1192.0418,-0.330555563,0.331481474,1.0,0.0,0.0,0.331,compass,0.0,14.0,14.0,21.0,1.0,SoundStimuli/GoodGollyMissMolly_LittleRichard_Original5S.wav,,,,,,,,,,,,,,,,,,,,,,,,,,,,,,,,,,,,,,,,,,,,,,,,,,,,
,,,,,711879,1,2024-07-12_18h37.22.395,experiment,2024.1.5,Win32,58.82352941,6691931c2c63981b064e1f0c,6691aff8296090677dd3d9f5,,,,,,,,,,,,,,,,,,,,,,,,,,,,,,,,,,,,,,,,,,,,,,,,,,,,,,,,,,,,1192.0479,1198.4766,-0.084259245,-0.055555556,1.0,0.0,0.0,0.4165,compass,0.0,15.0,15.0,23.0,1.0,SoundStimuli/StrawberryFieldsForever_TheBeatles_Cover5S.wav,,,,,,,,,,,,,,,,,,,,,,,,,,,,,,,,,,,,,,,,,,,,,,,,,,,,
,,,,,711879,1,2024-07-12_18h37.22.395,experiment,2024.1.5,Win32,58.82352941,6691931c2c63981b064e1f0c,6691aff8296090677dd3d9f5,,,,,,,,,,,,,,,,,,,,,,,,,,,,,,,,,,,,,,,,,,,,,,,,,,,,,,,,,,,,1198.4818,1205.1443,0.083333333,-0.099074116,1.0,0.0,0.0,0.6509,compass,0.0,16.0,16.0,18.0,1.0,SoundStimuli/AnotherOneBitesTheDust_Queen_Cover5S.wav,,,,,,,,,,,,,,,,,,,,,,,,,,,,,,,,,,,,,,,,,,,,,,,,,,,,
,,,,,711879,1,2024-07-12_18h37.22.395,experiment,2024.1.5,Win32,58.82352941,6691931c2c63981b064e1f0c,6691aff8296090677dd3d9f5,,,,,,,,,,,,,,,,,,,,,,,,,,,,,,,,,,,,,,,,,,,,,,,,,,,,,,,,,,,,1205.1512,1211.69,0.063888903,0.080555563,1.0,0.0,0.0,0.5297,compass,0.0,17.0,17.0,16.0,1.0,SoundStimuli/BohemianRhapsody_Queen_Cover5S.wav,,,,,,,,,,,,,,,,,,,,,,,,,,,,,,,,,,,,,,,,,,,,,,,,,,,,
,,,,,711879,1,2024-07-12_18h37.22.395,experiment,2024.1.5,Win32,58.82352941,6691931c2c63981b064e1f0c,6691aff8296090677dd3d9f5,,,,,,,,,,,,,,,,,,,,,,,,,,,,,,,,,,,,,,,,,,,,,,,,,,,,,,,,,,,,1211.6962,1219.0595,0.044444473,-0.038888896,1.0,0.0,0.0,1.3496,compass,0.0,18.0,18.0,25.0,1.0,SoundStimuli/Respect_ArethaFranklin_Cover5S.wav,,,,,,,,,,,,,,,,,,,,,,,,,,,,,,,,,,,,,,,,,,,,,,,,,,,,
,,,,,711879,1,2024-07-12_18h37.22.395,experiment,2024.1.5,Win32,58.82352941,6691931c2c63981b064e1f0c,6691aff8296090677dd3d9f5,,,,,,,,,,,,,,,,,,,,,,,,,,,,,,,,,,,,,,,,,,,,,,,,,,,,,,,,,,,,1219.0657,1225.6077,0.104629658,0.122222229,1.0,0.0,0.0,0.5307,compass,0.0,19.0,19.0,8.0,1.0,SoundStimuli/LikeAPrayer_Madonna_Cover5S.wav,,,,,,,,,,,,,,,,,,,,,,,,,,,,,,,,,,,,,,,,,,,,,,,,,,,,
,,,,,711879,1,2024-07-12_18h37.22.395,experiment,2024.1.5,Win32,58.82352941,6691931c2c63981b064e1f0c,6691aff8296090677dd3d9f5,,,,,,,,,,,,,,,,,,,,,,,,,,,,,,,,,,,,,,,,,,,,,,,,,,,,,,,,,,,,1225.6228,1232.6771,0.078703704,0.085185192,1.0,0.0,0.0,1.0504,compass,0.0,20.0,20.0,9.0,1.0,SoundStimuli/Despacito_LuisFonsiDaddyYankee_Original5S.wav,,,,,,,,,,,,,,,,,,,,,,,,,,,,,,,,,,,,,,,,,,,,,,,,,,,,
,,,,,711879,1,2024-07-12_18h37.22.395,experiment,2024.1.5,Win32,58.82352941,6691931c2c63981b064e1f0c,6691aff8296090677dd3d9f5,,,,,,,,,,,,,,,,,,,,,,,,,,,,,,,,,,,,,,,,,,,,,,,,,,,,,,,,,,,,1232.6931,1239.7928,0.220370399,0.237037041,1.0,0.0,0.0,1.0834,compass,0.0,21.0,21.0,6.0,1.0,SoundStimuli/Levitating_DuaLipa_Original5S.wav,,,,,,,,,,,,,,,,,,,,,,,,,,,,,,,,,,,,,,,,,,,,,,,,,,,,
,,,,,711879,1,2024-07-12_18h37.22.395,experiment,2024.1.5,Win32,58.82352941,6691931c2c63981b064e1f0c,6691aff8296090677dd3d9f5,,,,,,,,,,,,,,,,,,,,,,,,,,,,,,,,,,,,,,,,,,,,,,,,,,,,,,,,,,,,1239.7985,1246.3393,0.191666709,-0.196296339,1.0,0.0,0.0,0.5294,compass,0.0,22.0,22.0,17.0,1.0,SoundStimuli/Fallin_AliciaKeys_Cover5S.wav,,,,,,,,,,,,,,,,,,,,,,,,,,,,,,,,,,,,,,,,,,,,,,,,,,,,
,,,,,711879,1,2024-07-12_18h37.22.395,experiment,2024.1.5,Win32,58.82352941,6691931c2c63981b064e1f0c,6691aff8296090677dd3d9f5,,,,,,,,,,,,,,,,,,,,,,,,,,,,,,,,,,,,,,,,,,,,,,,,,,,,,,,,,,,,1246.346,1253.7225,0.158333319,0.163888896,1.0,0.0,0.0,1.3628,compass,0.0,23.0,23.0,15.0,1.0,SoundStimuli/TikTok_Kesha_Original5S.wav,,,,,,,,,,,,,,,,,,,,,,,,,,,,,,,,,,,,,,,,,,,,,,,,,,,,
,,,,,711879,1,2024-07-12_18h37.22.395,experiment,2024.1.5,Win32,58.82352941,6691931c2c63981b064e1f0c,6691aff8296090677dd3d9f5,,,,,,,,,,,,,,,,,,,,,,,,,,,,,,,,,,,,,,,,,,,,,,,,,,,,,,,,,,,,1253.7291,1260.7093,0.183333362,-0.214814857,1.0,0.0,0.0,0.9664,compass,0.0,24.0,24.0,31.0,1.0,SoundStimuli/TheBattleOfNewOrleans_JohnnyHorton_Original5S.wav,,,,,,,,,,,,,,,,,,,,,,,,,,,,,,,,,,,,,,,,,,,,,,,,,,,,
,,,,,711879,1,2024-07-12_18h37.22.395,experiment,2024.1.5,Win32,58.82352941,6691931c2c63981b064e1f0c,6691aff8296090677dd3d9f5,,,,,,,,,,,,,,,,,,,,,,,,,,,,,,,,,,,,,,,,,,,,,,,,,,,,,,,,,,,,1260.7165,1267.4088,0.236111111,-0.268518519,1.0,0.0,0.0,0.6827,compass,0.0,25.0,25.0,27.0,1.0,SoundStimuli/ShapeofYou_EdSheeran_Cover5S.wav,,,,,,,,,,,,,,,,,,,,,,,,,,,,,,,,,,,,,,,,,,,,,,,,,,,,
,,,,,711879,1,2024-07-12_18h37.22.395,experiment,2024.1.5,Win32,58.82352941,6691931c2c63981b064e1f0c,6691aff8296090677dd3d9f5,,,,,,,,,,,,,,,,,,,,,,,,,,,,,,,,,,,,,,,,,,,,,,,,,,,,,,,,,,,,1267.4143,1274.3922,0.246296282,0.260185189,1.0,0.0,0.0,0.9665,compass,0.0,26.0,26.0,33.0,1.0,SoundStimuli/StandByMe_BenEKing_Original5S.wav,,,,,,,,,,,,,,,,,,,,,,,,,,,,,,,,,,,,,,,,,,,,,,,,,,,,
,,,,,711879,1,2024-07-12_18h37.22.395,experiment,2024.1.5,Win32,58.82352941,6691931c2c63981b064e1f0c,6691aff8296090677dd3d9f5,,,,,,,,,,,,,,,,,,,,,,,,,,,,,,,,,,,,,,,,,,,,,,,,,,,,,,,,,,,,1274.3984,1280.892,-0.342592593,-0.32685188,1.0,0.0,0.0,0.4832,compass,0.0,27.0,27.0,7.0,1.0,SoundStimuli/NoOne_AliciaKeys_Original5S.wav,,,,,,,,,,,,,,,,,,,,,,,,,,,,,,,,,,,,,,,,,,,,,,,,,,,,
,,,,,711879,1,2024-07-12_18h37.22.395,experiment,2024.1.5,Win32,58.82352941,6691931c2c63981b064e1f0c,6691aff8296090677dd3d9f5,,,,,,,,,,,,,,,,,,,,,,,,,,,,,,,,,,,,,,,,,,,,,,,,,,,,,,,,,,,,1280.8977,1288.0419,0.139814801,0.157407407,1.0,0.0,0.0,1.1329,compass,0.0,28.0,28.0,4.0,1.0,SoundStimuli/GetUrFreakOn_MissyElliot_Cover5S.wav,,,,,,,,,,,,,,,,,,,,,,,,,,,,,,,,,,,,,,,,,,,,,,,,,,,,
,,,,,711879,1,2024-07-12_18h37.22.395,experiment,2024.1.5,Win32,58.82352941,6691931c2c63981b064e1f0c,6691aff8296090677dd3d9f5,,,,,,,,,,,,,,,,,,,,,,,,,,,,,,,,,,,,,,,,,,,,,,,,,,,,,,,,,,,,1288.047,1294.372,-0.313888868,-0.30740745,1.0,0.0,0.0,0.3134,compass,0.0,29.0,29.0,12.0,1.0,SoundStimuli/IWillAlwaysLoveYou_WhitneyHouston_Original5S.wav,,,,,,,,,,,,,,,,,,,,,,,,,,,,,,,,,,,,,,,,,,,,,,,,,,,,
,,,,,711879,1,2024-07-12_18h37.22.395,experiment,2024.1.5,Win32,58.82352941,6691931c2c63981b064e1f0c,6691aff8296090677dd3d9f5,,,,,,,,,,,,,,,,,,,,,,,,,,,,,,,,,,,,,,,,,,,,,,,,,,,,,,,,,,,,1294.3785,1300.7762,0.300925926,-0.306481467,1.0,0.0,0.0,0.3879,compass,0.0,30.0,30.0,19.0,1.0,SoundStimuli/LetsGetItOn_MarvinGaye_Original5S.wav,,,,,,,,,,,,,,,,,,,,,,,,,,,,,,,,,,,,,,,,,,,,,,,,,,,,
,,,,,711879,1,2024-07-12_18h37.22.395,experiment,2024.1.5,Win32,58.82352941,6691931c2c63981b064e1f0c,6691aff8296090677dd3d9f5,,,,,,,,,,,,,,,,,,,,,,,,,,,,,,,,,,,,,,,,,,,,,,,,,,,,,,,,,,,,1300.7817,1307.342,0.268518519,0.289814808,1.0,0.0,0.0,0.5499,compass,0.0,31.0,31.0,28.0,1.0,SoundStimuli/ComeAndGetYourLove_Redbone_Cover5S.wav,,,,,,,,,,,,,,,,,,,,,,,,,,,,,,,,,,,,,,,,,,,,,,,,,,,,
,,,,,711879,1,2024-07-12_18h37.22.395,experiment,2024.1.5,Win32,58.82352941,6691931c2c63981b064e1f0c,6691aff8296090677dd3d9f5,,,,,,,,,,,,,,,,,,,,,,,,,,,,,,,,,,,,,,,,,,,,,,,,,,,,,,,,,,,,1307.3482,1313.7919,0.199999986,0.197222215,1.0,0.0,0.0,0.4341,compass,0.0,32.0,32.0,29.0,1.0,SoundStimuli/OldTownRoad_LilNasX_Cover5S.wav,,,,,,,,,,,,,,,,,,,,,,,,,,,,,,,,,,,,,,,,,,,,,,,,,,,,
,,,,,711879,1,2024-07-12_18h37.22.395,experiment,2024.1.5,Win32,58.82352941,6691931c2c63981b064e1f0c,6691aff8296090677dd3d9f5,,,,,,,,,,,,,,,,,,,,,,,,,,,,,,,,,,,,,,,,,,,,,,,,,,,,,,,,,,,,1313.7976,1320.2559,0.205555598,0.211111104,1.0,0.0,0.0,0.4513,compass,0.0,33.0,33.0,20.0,1.0,SoundStimuli/HeyYa_Outkast_Original5S.wav,,,,,,,,,,,,,,,,,,,,,,,,,,,,,,,,,,,,,,,,,,,,,,,,,,,,
,,,,,711879,1,2024-07-12_18h37.22.395,experiment,2024.1.5,Win32,58.82352941,6691931c2c63981b064e1f0c,6691aff8296090677dd3d9f5,,,,,,,,,,,,,,,,,,,,,,,,,,,,,,,,,,,,,,,,,,,,,,,,,,,,,,,,,,,,1320.2611,1327.7258,0.121296282,-0.138888889,1.0,0.0,0.0,1.4506,compass,0.0,34.0,34.0,1.0,1.0,SoundStimuli/Stronger_KanyeWest_Cover5S.wav,,,,,,,,,,,,,,,,,,,,,,,,,,,,,,,,,,,,,,,,,,,,,,,,,,,,
,,,,,711879,1,2024-07-12_18h37.22.395,experiment,2024.1.5,Win32,58.82352941,6691931c2c63981b064e1f0c,6691aff8296090677dd3d9f5,,,,,,,,,,,,,,,,,,,,,,,,,,,,,,,,,,,,,,,,,,,,,,,,,,,,,,,,,,,,,,,,,,,,,,,,,,,1327.726,1327.726,,,,1327.7261,1327.7262,,,,0.0,3.0,3.0,3.0,1.0,block_order/blockC.xlsx,,,,,,,,,,,,,,,,,,,,,,,,,,,,,,,,,,,,
,,,,,711879,1,2024-07-12_18h37.22.395,experiment,2024.1.5,Win32,58.82352941,6691931c2c63981b064e1f0c,6691aff8296090677dd3d9f5,,,,,,,,,,,,,,,,,,,,,,,,,,,,,,,,,,,,,,,,,,,,,,,,,,,,,,,,,,,,,,,,,,,,,,,,,,,,,,,,,,,,,,,,,,,18.0,Item 2,"12-15  school band played the flute, 15-18 non musician",Item 3,Amazon music,5.0,7.0,"Walking, driving, any time ",Never,Never,Never,Never,Sometimes,Never,Never,Never,Never,Often,Unsure,Never,Rarely,Unsure,Never,Never,Metal,Punk Pop,Alternative,Between the ages of 12 and 14 I would listen to emo and now I listen to metal,I dont know,0.0,0.0,0.0,0.0,1.0,,
,,,,,711879,1,2024-07-12_18h37.22.395,experiment,2024.1.5,Win32,58.82352941,6691931c2c63981b064e1f0c,6691aff8296090677dd3d9f5,,,,,,,,,,,,,,,,,,,,,,,,,,,,,,,,,,,,,,,,,,,,,,,,,,,,,,,,,,,,,,,,,,,,,,,,,,,,,,,,,,,,,,,,,,,,,,,,,,,,,,,,,,,,,,,,,,,,,,,,,,,,,1492.3279,1494.9185
