welcome.started,welcome.stopped,space_to_continue.keys,space_to_continue.rt,space_to_continue.duration,participant,session,date,expName,psychopyVersion,OS,frameRate,STUDY_ID,SESSION_ID,consent.consent,consent.consent_recontact,consent_check.started,consent_check.stopped,calibration_ready.started,calibration_ready.stopped,cal_ready.keys,cal_ready.rt,cal_ready.duration,calibration.started,calibration.stopped,mouse.x,mouse.y,mouse.leftButton,mouse.midButton,mouse.rightButton,mouse.time,mouse.clicked_name,move_on.keys,move_on.rt,move_on.duration,run_cal.thisRepN,run_cal.thisTrialN,run_cal.thisN,run_cal.thisIndex,run_cal.ran,emotion_training_ready.started,emotion_training_ready.stopped,training_move_on.keys,training_move_on.rt,training_move_on.duration,examples.started,examples.stopped,emotion_scale.started,emotion_scale.stopped,scale_next.keys,scale_next.rt,scale_next.duration,instructions.started,instructions.stopped,next.keys,next.rt,next.duration,practice_task.started,practice_task.stopped,mouse_rating_2.x,mouse_rating_2.y,mouse_rating_2.leftButton,mouse_rating_2.midButton,mouse_rating_2.rightButton,mouse_rating_2.time,mouse_rating_2.clicked_name,ready.started,ready.stopped,key_resp.keys,key_resp.rt,key_resp.duration,set_group.started,set_group.stopped,task.started,task.stopped,mouse_rating.x,mouse_rating.y,mouse_rating.leftButton,mouse_rating.midButton,mouse_rating.rightButton,mouse_rating.time,mouse_rating.clicked_name,trials.thisRepN,trials.thisTrialN,trials.thisN,trials.thisIndex,trials.ran,clip,short_break.started,short_break.stopped,space_to_move_on.keys,space_to_move_on.rt,space_to_move_on.duration,instruction_reminder.started,instruction_reminder.stopped,reminder_move_on.keys,reminder_move_on.rt,reminder_move_on.duration,blocks.thisRepN,blocks.thisTrialN,blocks.thisN,blocks.thisIndex,blocks.ran,block,post_survey.age,post_survey.musician,post_survey.music_making,post_survey.listen_time,post_survey.medium,post_survey.music_seeking,post_survey.music_choice,post_survey.activities,post_survey.question1.Electronic (EDM),post_survey.question1.Latin,post_survey.question1.Classical,post_survey.question1.Reggae,post_survey.question1.Hip hop,post_survey.question1.A cappella,post_survey.question1.Pop,post_survey.question1.Metal,post_survey.question1.Country,post_survey.question1.Ambient,post_survey.question1.Folk/indie,post_survey.question1.Alternative rock,post_survey.question1.Jazz,post_survey.question1.Disco,post_survey.question1.R&B,post_survey.question1.Classic rock,post_survey.other_genres,post_survey.genres_ranked.text1,post_survey.genres_ranked.text2,post_survey.genres_ranked.text3,post_survey.habit_change,show_exp.thisRepN,show_exp.thisTrialN,show_exp.thisN,show_exp.thisIndex,show_exp.ran,goodbye.started,goodbye.stopped
0.0001,1.9201,space,1.9045,,740015,1,2024-07-12_18h18.48.003,experiment,2024.1.5,MacIntel,60.24096386,6691931c2c63981b064e1f0c,6691b99fb800d2ace2dde4f9,,,,,,,,,,,,,,,,,,,,,,,,,,,,,,,,,,,,,,,,,,,,,,,,,,,,,,,,,,,,,,,,,,,,,,,,,,,,,,,,,,,,,,,,,,,,,,,,,,,,,,,,,,,,,,,,,,,,,,,,,,,,,,
,,,,,740015,1,2024-07-12_18h18.48.003,experiment,2024.1.5,MacIntel,60.24096386,6691931c2c63981b064e1f0c,6691b99fb800d2ace2dde4f9,yes,yes,,,,,,,,,,,,,,,,,,,,,,,,,,,,,,,,,,,,,,,,,,,,,,,,,,,,,,,,,,,,,,,,,,,,,,,,,,,,,,,,,,,,,,,,,,,,,,,,,,,,,,,,,,,,,,,,,,,,,,,,,,,,
,,,,,740015,1,2024-07-12_18h18.48.003,experiment,2024.1.5,MacIntel,60.24096386,6691931c2c63981b064e1f0c,6691b99fb800d2ace2dde4f9,,,21.6098,21.6099,,,,,,,,,,,,,,,,,,,,,,,,,,,,,,,,,,,,,,,,,,,,,,,,,,,,,,,,,,,,,,,,,,,,,,,,,,,,,,,,,,,,,,,,,,,,,,,,,,,,,,,,,,,,,,,,,,,,,,,,,,
,,,,,740015,1,2024-07-12_18h18.48.003,experiment,2024.1.5,MacIntel,60.24096386,6691931c2c63981b064e1f0c,6691b99fb800d2ace2dde4f9,,,,,21.6111,26.6376,space,5.0061,,26.6459,49.7483,"[-0.018641493055555555,0.014444444444444444]","[-0.4060720486111111,-0.4282465277777778]","[1,1]","[0,0]","[0,0]","[11.194100000023838,13.233000000000004]","[""play_button""]",y,22.0577,,0.0,0.0,0.0,0.0,1.0,,,,,,,,,,,,,,,,,,,,,,,,,,,,,,,,,,,,,,,,,,,,,,,,,,,,,,,,,,,,,,,,,,,,,,,,,,,,,,,,,,,,,,,,,,,,,,,,,,,,
,,,,,740015,1,2024-07-12_18h18.48.003,experiment,2024.1.5,MacIntel,60.24096386,6691931c2c63981b064e1f0c,6691b99fb800d2ace2dde4f9,,,,,,,,,,,,,,,,,,,,,,,,,,,49.7487,63.5219,space,13.7583,,63.5222,183.5276,183.5283,195.7631,right,8.7042,,195.7631,210.4114,space,14.6306,,210.4116,216.8275,0.203472222,-0.225772569,1.0,0.0,0.0,0.4,compass_2,216.8278,218.1275,space,1.2793,,218.1276,218.1279,218.152,225.8947,-0.141332465,-0.185112847,1.0,0.0,0.0,1.7334,compass,0.0,0.0,0.0,23.0,1.0,SoundStimuli/StrawberryFieldsForever_TheBeatles_Cover5S.wav,,,,,,,,,,,,,,,,,,,,,,,,,,,,,,,,,,,,,,,,,,,,,,,,,,,,
,,,,,740015,1,2024-07-12_18h18.48.003,experiment,2024.1.5,MacIntel,60.24096386,6691931c2c63981b064e1f0c,6691b99fb800d2ace2dde4f9,,,,,,,,,,,,,,,,,,,,,,,,,,,,,,,,,,,,,,,,,,,,,,,,,,,,,,,,,,,,225.9062,232.2612,0.185412326,0.085212674,1.0,0.0,0.0,0.3499,compass,0.0,1.0,1.0,9.0,1.0,SoundStimuli/Despacito_LuisFonsiDaddyYankee_Original5S.wav,,,,,,,,,,,,,,,,,,,,,,,,,,,,,,,,,,,,,,,,,,,,,,,,,,,,
,,,,,740015,1,2024-07-12_18h18.48.003,experiment,2024.1.5,MacIntel,60.24096386,6691931c2c63981b064e1f0c,6691b99fb800d2ace2dde4f9,,,,,,,,,,,,,,,,,,,,,,,,,,,,,,,,,,,,,,,,,,,,,,,,,,,,,,,,,,,,232.2724,243.2781,0.185412326,0.085212674,1.0,0.0,0.0,5.0004,compass,0.0,2.0,2.0,14.0,1.0,SoundStimuli/BlindingLights_TheWeeknd_Cover5S.wav,,,,,,,,,,,,,,,,,,,,,,,,,,,,,,,,,,,,,,,,,,,,,,,,,,,,
,,,,,740015,1,2024-07-12_18h18.48.003,experiment,2024.1.5,MacIntel,60.24096386,6691931c2c63981b064e1f0c,6691b99fb800d2ace2dde4f9,,,,,,,,,,,,,,,,,,,,,,,,,,,,,,,,,,,,,,,,,,,,,,,,,,,,,,,,,,,,243.2871,249.7782,0.20547309,-0.220998264,1.0,0.0,0.0,0.483,compass,0.0,3.0,3.0,13.0,1.0,SoundStimuli/GodOnlyKnows_TheBeachBoys_Original5S.wav,,,,,,,,,,,,,,,,,,,,,,,,,,,,,,,,,,,,,,,,,,,,,,,,,,,,
,,,,,740015,1,2024-07-12_18h18.48.003,experiment,2024.1.5,MacIntel,60.24096386,6691931c2c63981b064e1f0c,6691b99fb800d2ace2dde4f9,,,,,,,,,,,,,,,,,,,,,,,,,,,,,,,,,,,,,,,,,,,,,,,,,,,,,,,,,,,,249.7788,256.3786,0.134565972,-0.279557292,1.0,0.0,0.0,0.5831,compass,0.0,4.0,4.0,7.0,1.0,SoundStimuli/NoOne_AliciaKeys_Original5S.wav,,,,,,,,,,,,,,,,,,,,,,,,,,,,,,,,,,,,,,,,,,,,,,,,,,,,
,,,,,740015,1,2024-07-12_18h18.48.003,experiment,2024.1.5,MacIntel,60.24096386,6691931c2c63981b064e1f0c,6691b99fb800d2ace2dde4f9,,,,,,,,,,,,,,,,,,,,,,,,,,,,,,,,,,,,,,,,,,,,,,,,,,,,,,,,,,,,256.3894,262.9787,0.215555556,-0.156805556,1.0,0.0,0.0,0.5831,compass,0.0,5.0,5.0,2.0,1.0,SoundStimuli/Mood_24kGoldnianndior_Original5S.wav,,,,,,,,,,,,,,,,,,,,,,,,,,,,,,,,,,,,,,,,,,,,,,,,,,,,
,,,,,740015,1,2024-07-12_18h18.48.003,experiment,2024.1.5,MacIntel,60.24096386,6691931c2c63981b064e1f0c,6691b99fb800d2ace2dde4f9,,,,,,,,,,,,,,,,,,,,,,,,,,,,,,,,,,,,,,,,,,,,,,,,,,,,,,,,,,,,262.99,269.5621,0.171536458,-0.201176215,1.0,0.0,0.0,0.5668,compass,0.0,6.0,6.0,27.0,1.0,SoundStimuli/ShapeofYou_EdSheeran_Cover5S.wav,,,,,,,,,,,,,,,,,,,,,,,,,,,,,,,,,,,,,,,,,,,,,,,,,,,,
,,,,,740015,1,2024-07-12_18h18.48.003,experiment,2024.1.5,MacIntel,60.24096386,6691931c2c63981b064e1f0c,6691b99fb800d2ace2dde4f9,,,,,,,,,,,,,,,,,,,,,,,,,,,,,,,,,,,,,,,,,,,,,,,,,,,,,,,,,,,,269.5701,276.3955,0.219244792,0.189227431,1.0,0.0,0.0,0.8155,compass,0.0,7.0,7.0,31.0,1.0,SoundStimuli/TheBattleOfNewOrleans_JohnnyHorton_Original5S.wav,,,,,,,,,,,,,,,,,,,,,,,,,,,,,,,,,,,,,,,,,,,,,,,,,,,,
,,,,,740015,1,2024-07-12_18h18.48.003,experiment,2024.1.5,MacIntel,60.24096386,6691931c2c63981b064e1f0c,6691b99fb800d2ace2dde4f9,,,,,,,,,,,,,,,,,,,,,,,,,,,,,,,,,,,,,,,,,,,,,,,,,,,,,,,,,,,,276.4062,283.0458,0.102638889,-0.17031684,1.0,0.0,0.0,0.6329,compass,0.0,8.0,8.0,17.0,1.0,SoundStimuli/Fallin_AliciaKeys_Cover5S.wav,,,,,,,,,,,,,,,,,,,,,,,,,,,,,,,,,,,,,,,,,,,,,,,,,,,,
,,,,,740015,1,2024-07-12_18h18.48.003,experiment,2024.1.5,MacIntel,60.24096386,6691931c2c63981b064e1f0c,6691b99fb800d2ace2dde4f9,,,,,,,,,,,,,,,,,,,,,,,,,,,,,,,,,,,,,,,,,,,,,,,,,,,,,,,,,,,,283.0532,289.4461,0.138398437,0.104778646,1.0,0.0,0.0,0.383,compass,0.0,9.0,9.0,29.0,1.0,SoundStimuli/OldTownRoad_LilNasX_Cover5S.wav,,,,,,,,,,,,,,,,,,,,,,,,,,,,,,,,,,,,,,,,,,,,,,,,,,,,
,,,,,740015,1,2024-07-12_18h18.48.003,experiment,2024.1.5,MacIntel,60.24096386,6691931c2c63981b064e1f0c,6691b99fb800d2ace2dde4f9,,,,,,,,,,,,,,,,,,,,,,,,,,,,,,,,,,,,,,,,,,,,,,,,,,,,,,,,,,,,289.4575,295.6125,0.258845486,0.223802083,1.0,0.0,0.0,0.149,compass,0.0,10.0,10.0,0.0,1.0,SoundStimuli/StayinAlive_BeeGees_Cover5S.wav,,,,,,,,,,,,,,,,,,,,,,,,,,,,,,,,,,,,,,,,,,,,,,,,,,,,
,,,,,740015,1,2024-07-12_18h18.48.003,experiment,2024.1.5,MacIntel,60.24096386,6691931c2c63981b064e1f0c,6691b99fb800d2ace2dde4f9,,,,,,,,,,,,,,,,,,,,,,,,,,,,,,,,,,,,,,,,,,,,,,,,,,,,,,,,,,,,295.613,302.0134,0.190794271,0.149262153,1.0,0.0,0.0,0.3837,compass,0.0,11.0,11.0,4.0,1.0,SoundStimuli/GetUrFreakOn_MissyElliot_Cover5S.wav,,,,,,,,,,,,,,,,,,,,,,,,,,,,,,,,,,,,,,,,,,,,,,,,,,,,
,,,,,740015,1,2024-07-12_18h18.48.003,experiment,2024.1.5,MacIntel,60.24096386,6691931c2c63981b064e1f0c,6691b99fb800d2ace2dde4f9,,,,,,,,,,,,,,,,,,,,,,,,,,,,,,,,,,,,,,,,,,,,,,,,,,,,,,,,,,,,302.0248,308.3134,0.313949653,0.313224826,1.0,0.0,0.0,0.2829,compass,0.0,12.0,12.0,20.0,1.0,SoundStimuli/HeyYa_Outkast_Original5S.wav,,,,,,,,,,,,,,,,,,,,,,,,,,,,,,,,,,,,,,,,,,,,,,,,,,,,
,,,,,740015,1,2024-07-12_18h18.48.003,experiment,2024.1.5,MacIntel,60.24096386,6691931c2c63981b064e1f0c,6691b99fb800d2ace2dde4f9,,,,,,,,,,,,,,,,,,,,,,,,,,,,,,,,,,,,,,,,,,,,,,,,,,,,,,,,,,,,308.3239,314.7137,0.148940972,0.068302951,1.0,0.0,0.0,0.3831,compass,0.0,13.0,13.0,32.0,1.0,SoundStimuli/HeatWaves_GlassAnimals_Cover5S.wav,,,,,,,,,,,,,,,,,,,,,,,,,,,,,,,,,,,,,,,,,,,,,,,,,,,,
,,,,,740015,1,2024-07-12_18h18.48.003,experiment,2024.1.5,MacIntel,60.24096386,6691931c2c63981b064e1f0c,6691b99fb800d2ace2dde4f9,,,,,,,,,,,,,,,,,,,,,,,,,,,,,,,,,,,,,,,,,,,,,,,,,,,,,,,,,,,,314.7246,321.5469,0.078012153,-0.124657118,1.0,0.0,0.0,0.8161,compass,0.0,14.0,14.0,1.0,1.0,SoundStimuli/Stronger_KanyeWest_Cover5S.wav,,,,,,,,,,,,,,,,,,,,,,,,,,,,,,,,,,,,,,,,,,,,,,,,,,,,
,,,,,740015,1,2024-07-12_18h18.48.003,experiment,2024.1.5,MacIntel,60.24096386,6691931c2c63981b064e1f0c,6691b99fb800d2ace2dde4f9,,,,,,,,,,,,,,,,,,,,,,,,,,,,,,,,,,,,,,,,,,,,,,,,,,,,,,,,,,,,321.5524,328.1142,0.129748264,-0.093246528,1.0,0.0,0.0,0.5497,compass,0.0,15.0,15.0,10.0,1.0,SoundStimuli/BadDay_DanielPowter_Original5S.wav,,,,,,,,,,,,,,,,,,,,,,,,,,,,,,,,,,,,,,,,,,,,,,,,,,,,
,,,,,740015,1,2024-07-12_18h18.48.003,experiment,2024.1.5,MacIntel,60.24096386,6691931c2c63981b064e1f0c,6691b99fb800d2ace2dde4f9,,,,,,,,,,,,,,,,,,,,,,,,,,,,,,,,,,,,,,,,,,,,,,,,,,,,,,,,,,,,328.1232,334.581,-0.097074653,-0.09796875,1.0,0.0,0.0,0.45,compass,0.0,16.0,16.0,34.0,1.0,SoundStimuli/AChangeIsGonnaCome_SamCooke_Original5S.wav,,,,,,,,,,,,,,,,,,,,,,,,,,,,,,,,,,,,,,,,,,,,,,,,,,,,
,,,,,740015,1,2024-07-12_18h18.48.003,experiment,2024.1.5,MacIntel,60.24096386,6691931c2c63981b064e1f0c,6691b99fb800d2ace2dde4f9,,,,,,,,,,,,,,,,,,,,,,,,,,,,,,,,,,,,,,,,,,,,,,,,,,,,,,,,,,,,334.5884,340.9146,-0.149444444,-0.085121528,1.0,0.0,0.0,0.3165,compass,0.0,17.0,17.0,18.0,1.0,SoundStimuli/AnotherOneBitesTheDust_Queen_Cover5S.wav,,,,,,,,,,,,,,,,,,,,,,,,,,,,,,,,,,,,,,,,,,,,,,,,,,,,
,,,,,740015,1,2024-07-12_18h18.48.003,experiment,2024.1.5,MacIntel,60.24096386,6691931c2c63981b064e1f0c,6691b99fb800d2ace2dde4f9,,,,,,,,,,,,,,,,,,,,,,,,,,,,,,,,,,,,,,,,,,,,,,,,,,,,,,,,,,,,340.9247,347.1974,0.140820312,0.231032986,1.0,0.0,0.0,0.266,compass,0.0,18.0,18.0,11.0,1.0,SoundStimuli/Superstition_StevieWonder_Original5S.wav,,,,,,,,,,,,,,,,,,,,,,,,,,,,,,,,,,,,,,,,,,,,,,,,,,,,
,,,,,740015,1,2024-07-12_18h18.48.003,experiment,2024.1.5,MacIntel,60.24096386,6691931c2c63981b064e1f0c,6691b99fb800d2ace2dde4f9,,,,,,,,,,,,,,,,,,,,,,,,,,,,,,,,,,,,,,,,,,,,,,,,,,,,,,,,,,,,347.2046,354.5812,-0.080386285,0.107565104,1.0,0.0,0.0,1.366,compass,0.0,19.0,19.0,16.0,1.0,SoundStimuli/BohemianRhapsody_Queen_Cover5S.wav,,,,,,,,,,,,,,,,,,,,,,,,,,,,,,,,,,,,,,,,,,,,,,,,,,,,
,,,,,740015,1,2024-07-12_18h18.48.003,experiment,2024.1.5,MacIntel,60.24096386,6691931c2c63981b064e1f0c,6691b99fb800d2ace2dde4f9,,,,,,,,,,,,,,,,,,,,,,,,,,,,,,,,,,,,,,,,,,,,,,,,,,,,,,,,,,,,354.5857,360.8979,-0.117139757,0.210394965,1.0,0.0,0.0,0.2991,compass,0.0,20.0,20.0,28.0,1.0,SoundStimuli/ComeAndGetYourLove_Redbone_Cover5S.wav,,,,,,,,,,,,,,,,,,,,,,,,,,,,,,,,,,,,,,,,,,,,,,,,,,,,
,,,,,740015,1,2024-07-12_18h18.48.003,experiment,2024.1.5,MacIntel,60.24096386,6691931c2c63981b064e1f0c,6691b99fb800d2ace2dde4f9,,,,,,,,,,,,,,,,,,,,,,,,,,,,,,,,,,,,,,,,,,,,,,,,,,,,,,,,,,,,360.9077,367.3316,0.131527778,-0.134127604,1.0,0.0,0.0,0.4161,compass,0.0,21.0,21.0,5.0,1.0,SoundStimuli/MyGirl_TheTemptations_Cover5S.wav,,,,,,,,,,,,,,,,,,,,,,,,,,,,,,,,,,,,,,,,,,,,,,,,,,,,
,,,,,740015,1,2024-07-12_18h18.48.003,experiment,2024.1.5,MacIntel,60.24096386,6691931c2c63981b064e1f0c,6691b99fb800d2ace2dde4f9,,,,,,,,,,,,,,,,,,,,,,,,,,,,,,,,,,,,,,,,,,,,,,,,,,,,,,,,,,,,367.3396,373.6157,0.295885417,0.321705729,1.0,0.0,0.0,0.267,compass,0.0,22.0,22.0,6.0,1.0,SoundStimuli/Levitating_DuaLipa_Original5S.wav,,,,,,,,,,,,,,,,,,,,,,,,,,,,,,,,,,,,,,,,,,,,,,,,,,,,
,,,,,740015,1,2024-07-12_18h18.48.003,experiment,2024.1.5,MacIntel,60.24096386,6691931c2c63981b064e1f0c,6691b99fb800d2ace2dde4f9,,,,,,,,,,,,,,,,,,,,,,,,,,,,,,,,,,,,,,,,,,,,,,,,,,,,,,,,,,,,373.625,380.3658,0.309947917,0.308385417,1.0,0.0,0.0,0.7334,compass,0.0,23.0,23.0,8.0,1.0,SoundStimuli/LikeAPrayer_Madonna_Cover5S.wav,,,,,,,,,,,,,,,,,,,,,,,,,,,,,,,,,,,,,,,,,,,,,,,,,,,,
,,,,,740015,1,2024-07-12_18h18.48.003,experiment,2024.1.5,MacIntel,60.24096386,6691931c2c63981b064e1f0c,6691b99fb800d2ace2dde4f9,,,,,,,,,,,,,,,,,,,,,,,,,,,,,,,,,,,,,,,,,,,,,,,,,,,,,,,,,,,,380.3757,386.6989,0.107209201,-0.081844618,1.0,0.0,0.0,0.316,compass,0.0,24.0,24.0,22.0,1.0,SoundStimuli/RockWithYou_MichaelJackson_Cover5S.wav,,,,,,,,,,,,,,,,,,,,,,,,,,,,,,,,,,,,,,,,,,,,,,,,,,,,
,,,,,740015,1,2024-07-12_18h18.48.003,experiment,2024.1.5,MacIntel,60.24096386,6691931c2c63981b064e1f0c,6691b99fb800d2ace2dde4f9,,,,,,,,,,,,,,,,,,,,,,,,,,,,,,,,,,,,,,,,,,,,,,,,,,,,,,,,,,,,386.7072,392.8331,0.330928819,0.331271701,1.0,0.0,0.0,0.1167,compass,0.0,25.0,25.0,15.0,1.0,SoundStimuli/TikTok_Kesha_Original5S.wav,,,,,,,,,,,,,,,,,,,,,,,,,,,,,,,,,,,,,,,,,,,,,,,,,,,,
,,,,,740015,1,2024-07-12_18h18.48.003,experiment,2024.1.5,MacIntel,60.24096386,6691931c2c63981b064e1f0c,6691b99fb800d2ace2dde4f9,,,,,,,,,,,,,,,,,,,,,,,,,,,,,,,,,,,,,,,,,,,,,,,,,,,,,,,,,,,,392.8433,399.4664,-0.189639757,-0.047447917,1.0,0.0,0.0,0.6165,compass,0.0,26.0,26.0,3.0,1.0,SoundStimuli/NoScrubs_TLC_Cover5S.wav,,,,,,,,,,,,,,,,,,,,,,,,,,,,,,,,,,,,,,,,,,,,,,,,,,,,
,,,,,740015,1,2024-07-12_18h18.48.003,experiment,2024.1.5,MacIntel,60.24096386,6691931c2c63981b064e1f0c,6691b99fb800d2ace2dde4f9,,,,,,,,,,,,,,,,,,,,,,,,,,,,,,,,,,,,,,,,,,,,,,,,,,,,,,,,,,,,399.4768,405.7492,0.096710069,-0.048706597,1.0,0.0,0.0,0.2652,compass,0.0,27.0,27.0,33.0,1.0,SoundStimuli/StandByMe_BenEKing_Original5S.wav,,,,,,,,,,,,,,,,,,,,,,,,,,,,,,,,,,,,,,,,,,,,,,,,,,,,
,,,,,740015,1,2024-07-12_18h18.48.003,experiment,2024.1.5,MacIntel,60.24096386,6691931c2c63981b064e1f0c,6691b99fb800d2ace2dde4f9,,,,,,,,,,,,,,,,,,,,,,,,,,,,,,,,,,,,,,,,,,,,,,,,,,,,,,,,,,,,405.7602,413.0173,-0.166341146,0.076102431,1.0,0.0,0.0,1.2503,compass,0.0,28.0,28.0,30.0,1.0,SoundStimuli/PokerFace_LadyGaga_Cover5S.wav,,,,,,,,,,,,,,,,,,,,,,,,,,,,,,,,,,,,,,,,,,,,,,,,,,,,
,,,,,740015,1,2024-07-12_18h18.48.003,experiment,2024.1.5,MacIntel,60.24096386,6691931c2c63981b064e1f0c,6691b99fb800d2ace2dde4f9,,,,,,,,,,,,,,,,,,,,,,,,,,,,,,,,,,,,,,,,,,,,,,,,,,,,,,,,,,,,413.0273,419.3834,0.250334201,0.301914063,1.0,0.0,0.0,0.3497,compass,0.0,29.0,29.0,21.0,1.0,SoundStimuli/GoodGollyMissMolly_LittleRichard_Original5S.wav,,,,,,,,,,,,,,,,,,,,,,,,,,,,,,,,,,,,,,,,,,,,,,,,,,,,
,,,,,740015,1,2024-07-12_18h18.48.003,experiment,2024.1.5,MacIntel,60.24096386,6691931c2c63981b064e1f0c,6691b99fb800d2ace2dde4f9,,,,,,,,,,,,,,,,,,,,,,,,,,,,,,,,,,,,,,,,,,,,,,,,,,,,,,,,,,,,419.3922,425.7341,0.304049479,0.331054688,1.0,0.0,0.0,0.3332,compass,0.0,30.0,30.0,24.0,1.0,SoundStimuli/UptownFunk_MarkRonson_Cover5S.wav,,,,,,,,,,,,,,,,,,,,,,,,,,,,,,,,,,,,,,,,,,,,,,,,,,,,
,,,,,740015,1,2024-07-12_18h18.48.003,experiment,2024.1.5,MacIntel,60.24096386,6691931c2c63981b064e1f0c,6691b99fb800d2ace2dde4f9,,,,,,,,,,,,,,,,,,,,,,,,,,,,,,,,,,,,,,,,,,,,,,,,,,,,,,,,,,,,425.7448,432.4342,0.219861111,-0.264730903,1.0,0.0,0.0,0.6831,compass,0.0,31.0,31.0,19.0,1.0,SoundStimuli/LetsGetItOn_MarvinGaye_Original5S.wav,,,,,,,,,,,,,,,,,,,,,,,,,,,,,,,,,,,,,,,,,,,,,,,,,,,,
,,,,,740015,1,2024-07-12_18h18.48.003,experiment,2024.1.5,MacIntel,60.24096386,6691931c2c63981b064e1f0c,6691b99fb800d2ace2dde4f9,,,,,,,,,,,,,,,,,,,,,,,,,,,,,,,,,,,,,,,,,,,,,,,,,,,,,,,,,,,,432.4444,438.9346,0.147443576,0.18718316,1.0,0.0,0.0,0.4839,compass,0.0,32.0,32.0,26.0,1.0,SoundStimuli/LivinOnAPrayer_BonJovi_Original5S.wav,,,,,,,,,,,,,,,,,,,,,,,,,,,,,,,,,,,,,,,,,,,,,,,,,,,,
,,,,,740015,1,2024-07-12_18h18.48.003,experiment,2024.1.5,MacIntel,60.24096386,6691931c2c63981b064e1f0c,6691b99fb800d2ace2dde4f9,,,,,,,,,,,,,,,,,,,,,,,,,,,,,,,,,,,,,,,,,,,,,,,,,,,,,,,,,,,,438.9443,445.3181,0.140889757,-0.145742188,1.0,0.0,0.0,0.3665,compass,0.0,33.0,33.0,12.0,1.0,SoundStimuli/IWillAlwaysLoveYou_WhitneyHouston_Original5S.wav,,,,,,,,,,,,,,,,,,,,,,,,,,,,,,,,,,,,,,,,,,,,,,,,,,,,
,,,,,740015,1,2024-07-12_18h18.48.003,experiment,2024.1.5,MacIntel,60.24096386,6691931c2c63981b064e1f0c,6691b99fb800d2ace2dde4f9,,,,,,,,,,,,,,,,,,,,,,,,,,,,,,,,,,,,,,,,,,,,,,,,,,,,,,,,,,,,445.3276,451.6344,-0.309930556,0.318706597,1.0,0.0,0.0,0.3,compass,0.0,34.0,34.0,25.0,1.0,SoundStimuli/Respect_ArethaFranklin_Cover5S.wav,,,,,,,,,,,,,,,,,,,,,,,,,,,,,,,,,,,,,,,,,,,,,,,,,,,,
,,,,,740015,1,2024-07-12_18h18.48.003,experiment,2024.1.5,MacIntel,60.24096386,6691931c2c63981b064e1f0c,6691b99fb800d2ace2dde4f9,,,,,,,,,,,,,,,,,,,,,,,,,,,,,,,,,,,,,,,,,,,,,,,,,,,,,,,,,,,,,,,,,,,,,,,,,,,451.6392,455.6353,space,3.9858,,455.6354,461.9006,right,6.2471,,0.0,0.0,0.0,0.0,1.0,block_order/blockC.xlsx,,,,,,,,,,,,,,,,,,,,,,,,,,,,,,,,,,,,
,,,,,740015,1,2024-07-12_18h18.48.003,experiment,2024.1.5,MacIntel,60.24096386,6691931c2c63981b064e1f0c,6691b99fb800d2ace2dde4f9,,,,,,,,,,,,,,,,,,,,,,,,,,,,,,,,,,,,,,,,,,,,,,,,,,,,,,,,,,,,461.9156,468.2516,0.157170139,-0.07343316,1.0,0.0,0.0,0.3333,compass,0.0,0.0,0.0,6.0,1.0,SoundStimuli/SaveYourTears_TheWeekndArianaGrande_Original5S.wav,,,,,,,,,,,,,,,,,,,,,,,,,,,,,,,,,,,,,,,,,,,,,,,,,,,,
,,,,,740015,1,2024-07-12_18h18.48.003,experiment,2024.1.5,MacIntel,60.24096386,6691931c2c63981b064e1f0c,6691b99fb800d2ace2dde4f9,,,,,,,,,,,,,,,,,,,,,,,,,,,,,,,,,,,,,,,,,,,,,,,,,,,,,,,,,,,,468.2632,474.8187,0.244427083,-0.257213542,1.0,0.0,0.0,0.5506,compass,0.0,1.0,1.0,25.0,1.0,SoundStimuli/IllMakeLoveToYou_BoyzIIMen_Original5S.wav,,,,,,,,,,,,,,,,,,,,,,,,,,,,,,,,,,,,,,,,,,,,,,,,,,,,
,,,,,740015,1,2024-07-12_18h18.48.003,experiment,2024.1.5,MacIntel,60.24096386,6691931c2c63981b064e1f0c,6691b99fb800d2ace2dde4f9,,,,,,,,,,,,,,,,,,,,,,,,,,,,,,,,,,,,,,,,,,,,,,,,,,,,,,,,,,,,474.8288,482.469,-0.118046875,0.055768229,1.0,0.0,0.0,1.6326,compass,0.0,2.0,2.0,33.0,1.0,SoundStimuli/TheBoyIsMine_BrandyMonica_Cover5S.wav,,,,,,,,,,,,,,,,,,,,,,,,,,,,,,,,,,,,,,,,,,,,,,,,,,,,
,,,,,740015,1,2024-07-12_18h18.48.003,experiment,2024.1.5,MacIntel,60.24096386,6691931c2c63981b064e1f0c,6691b99fb800d2ace2dde4f9,,,,,,,,,,,,,,,,,,,,,,,,,,,,,,,,,,,,,,,,,,,,,,,,,,,,,,,,,,,,482.4695,489.7689,-0.084353299,-0.095429687,1.0,0.0,0.0,1.2828,compass,0.0,3.0,3.0,12.0,1.0,SoundStimuli/UnbreakMyHeart_ToniBraxton_Cover5S.wav,,,,,,,,,,,,,,,,,,,,,,,,,,,,,,,,,,,,,,,,,,,,,,,,,,,,
,,,,,740015,1,2024-07-12_18h18.48.003,experiment,2024.1.5,MacIntel,60.24096386,6691931c2c63981b064e1f0c,6691b99fb800d2ace2dde4f9,,,,,,,,,,,,,,,,,,,,,,,,,,,,,,,,,,,,,,,,,,,,,,,,,,,,,,,,,,,,489.7784,496.1191,0.058563368,-0.091840278,1.0,0.0,0.0,0.3322,compass,0.0,4.0,4.0,9.0,1.0,SoundStimuli/HowDoILive_LeAnnRimes_Original5S.wav,,,,,,,,,,,,,,,,,,,,,,,,,,,,,,,,,,,,,,,,,,,,,,,,,,,,
,,,,,740015,1,2024-07-12_18h18.48.003,experiment,2024.1.5,MacIntel,60.24096386,6691931c2c63981b064e1f0c,6691b99fb800d2ace2dde4f9,,,,,,,,,,,,,,,,,,,,,,,,,,,,,,,,,,,,,,,,,,,,,,,,,,,,,,,,,,,,496.1287,502.6031,0.058563368,-0.091840278,1.0,0.0,0.0,0.4665,compass,0.0,5.0,5.0,30.0,1.0,SoundStimuli/SomebodyThatIUsedtoKnow_Gotye_Cover5S.wav,,,,,,,,,,,,,,,,,,,,,,,,,,,,,,,,,,,,,,,,,,,,,,,,,,,,
,,,,,740015,1,2024-07-12_18h18.48.003,experiment,2024.1.5,MacIntel,60.24096386,6691931c2c63981b064e1f0c,6691b99fb800d2ace2dde4f9,,,,,,,,,,,,,,,,,,,,,,,,,,,,,,,,,,,,,,,,,,,,,,,,,,,,,,,,,,,,502.6134,509.0367,-0.118728299,-0.058684896,1.0,0.0,0.0,0.4168,compass,0.0,6.0,6.0,34.0,1.0,SoundStimuli/Irreplaceable_Beyonce_Original5S.wav,,,,,,,,,,,,,,,,,,,,,,,,,,,,,,,,,,,,,,,,,,,,,,,,,,,,
,,,,,740015,1,2024-07-12_18h18.48.003,experiment,2024.1.5,MacIntel,60.24096386,6691931c2c63981b064e1f0c,6691b99fb800d2ace2dde4f9,,,,,,,,,,,,,,,,,,,,,,,,,,,,,,,,,,,,,,,,,,,,,,,,,,,,,,,,,,,,509.0477,515.3702,0.285377604,-0.050243056,1.0,0.0,0.0,0.3166,compass,0.0,7.0,7.0,19.0,1.0,SoundStimuli/YouLightUpMyLife_DebbyBoone_Cover5S.wav,,,,,,,,,,,,,,,,,,,,,,,,,,,,,,,,,,,,,,,,,,,,,,,,,,,,
,,,,,740015,1,2024-07-12_18h18.48.003,experiment,2024.1.5,MacIntel,60.24096386,6691931c2c63981b064e1f0c,6691b99fb800d2ace2dde4f9,,,,,,,,,,,,,,,,,,,,,,,,,,,,,,,,,,,,,,,,,,,,,,,,,,,,,,,,,,,,515.381,523.7037,0.012743056,-0.017161458,1.0,0.0,0.0,2.3172,compass,0.0,8.0,8.0,23.0,1.0,SoundStimuli/IWalkTheLine_JohnnyCash_Cover5S.wav,,,,,,,,,,,,,,,,,,,,,,,,,,,,,,,,,,,,,,,,,,,,,,,,,,,,
,,,,,740015,1,2024-07-12_18h18.48.003,experiment,2024.1.5,MacIntel,60.24096386,6691931c2c63981b064e1f0c,6691b99fb800d2ace2dde4f9,,,,,,,,,,,,,,,,,,,,,,,,,,,,,,,,,,,,,,,,,,,,,,,,,,,,,,,,,,,,523.7151,530.2873,0.172018229,-0.035286458,1.0,0.0,0.0,0.5665,compass,0.0,9.0,9.0,32.0,1.0,SoundStimuli/Dilemma_NellyKellyRowland_Original5S.wav,,,,,,,,,,,,,,,,,,,,,,,,,,,,,,,,,,,,,,,,,,,,,,,,,,,,
,,,,,740015,1,2024-07-12_18h18.48.003,experiment,2024.1.5,MacIntel,60.24096386,6691931c2c63981b064e1f0c,6691b99fb800d2ace2dde4f9,,,,,,,,,,,,,,,,,,,,,,,,,,,,,,,,,,,,,,,,,,,,,,,,,,,,,,,,,,,,530.2975,536.6705,0.338025174,0.336453993,1.0,0.0,0.0,0.3662,compass,0.0,10.0,10.0,22.0,1.0,SoundStimuli/Happy_PharellWilliams_Cover5S.wav,,,,,,,,,,,,,,,,,,,,,,,,,,,,,,,,,,,,,,,,,,,,,,,,,,,,
,,,,,740015,1,2024-07-12_18h18.48.003,experiment,2024.1.5,MacIntel,60.24096386,6691931c2c63981b064e1f0c,6691b99fb800d2ace2dde4f9,,,,,,,,,,,,,,,,,,,,,,,,,,,,,,,,,,,,,,,,,,,,,,,,,,,,,,,,,,,,536.6782,542.8049,0.215177951,0.295386285,1.0,0.0,0.0,0.1174,compass,0.0,11.0,11.0,27.0,1.0,SoundStimuli/EyeOfTheTiger_Survivor_Original5S.wav,,,,,,,,,,,,,,,,,,,,,,,,,,,,,,,,,,,,,,,,,,,,,,,,,,,,
,,,,,740015,1,2024-07-12_18h18.48.003,experiment,2024.1.5,MacIntel,60.24096386,6691931c2c63981b064e1f0c,6691b99fb800d2ace2dde4f9,,,,,,,,,,,,,,,,,,,,,,,,,,,,,,,,,,,,,,,,,,,,,,,,,,,,,,,,,,,,542.8162,549.1545,0.038537326,0.03453125,1.0,0.0,0.0,0.3338,compass,0.0,12.0,12.0,20.0,1.0,SoundStimuli/FlashdanceWhatAFeeling_IreneCara_Cover5S.wav,,,,,,,,,,,,,,,,,,,,,,,,,,,,,,,,,,,,,,,,,,,,,,,,,,,,
,,,,,740015,1,2024-07-12_18h18.48.003,experiment,2024.1.5,MacIntel,60.24096386,6691931c2c63981b064e1f0c,6691b99fb800d2ace2dde4f9,,,,,,,,,,,,,,,,,,,,,,,,,,,,,,,,,,,,,,,,,,,,,,,,,,,,,,,,,,,,549.1657,555.4887,0.283585069,0.297105035,1.0,0.0,0.0,0.317,compass,0.0,13.0,13.0,3.0,1.0,SoundStimuli/PartyRockAnthem_LMFAO_Cover5S.wav,,,,,,,,,,,,,,,,,,,,,,,,,,,,,,,,,,,,,,,,,,,,,,,,,,,,
,,,,,740015,1,2024-07-12_18h18.48.003,experiment,2024.1.5,MacIntel,60.24096386,6691931c2c63981b064e1f0c,6691b99fb800d2ace2dde4f9,,,,,,,,,,,,,,,,,,,,,,,,,,,,,,,,,,,,,,,,,,,,,,,,,,,,,,,,,,,,555.4994,561.8215,0.220503472,-0.251827257,1.0,0.0,0.0,0.3179,compass,0.0,14.0,14.0,18.0,1.0,SoundStimuli/Weak_SWV_Original5S.wav,,,,,,,,,,,,,,,,,,,,,,,,,,,,,,,,,,,,,,,,,,,,,,,,,,,,
,,,,,740015,1,2024-07-12_18h18.48.003,experiment,2024.1.5,MacIntel,60.24096386,6691931c2c63981b064e1f0c,6691b99fb800d2ace2dde4f9,,,,,,,,,,,,,,,,,,,,,,,,,,,,,,,,,,,,,,,,,,,,,,,,,,,,,,,,,,,,561.8311,568.1884,0.220503472,-0.251827257,1.0,0.0,0.0,0.3498,compass,0.0,15.0,15.0,0.0,1.0,SoundStimuli/GimmeShelter_RollingStones_Cover5S.wav,,,,,,,,,,,,,,,,,,,,,,,,,,,,,,,,,,,,,,,,,,,,,,,,,,,,
,,,,,740015,1,2024-07-12_18h18.48.003,experiment,2024.1.5,MacIntel,60.24096386,6691931c2c63981b064e1f0c,6691b99fb800d2ace2dde4f9,,,,,,,,,,,,,,,,,,,,,,,,,,,,,,,,,,,,,,,,,,,,,,,,,,,,,,,,,,,,568.2007,574.521,0.139240451,-0.317213542,1.0,0.0,0.0,0.316,compass,0.0,16.0,16.0,13.0,1.0,SoundStimuli/Perfect_EdSheeran_Original5S.wav,,,,,,,,,,,,,,,,,,,,,,,,,,,,,,,,,,,,,,,,,,,,,,,,,,,,
,,,,,740015,1,2024-07-12_18h18.48.003,experiment,2024.1.5,MacIntel,60.24096386,6691931c2c63981b064e1f0c,6691b99fb800d2ace2dde4f9,,,,,,,,,,,,,,,,,,,,,,,,,,,,,,,,,,,,,,,,,,,,,,,,,,,,,,,,,,,,574.5313,580.9063,0.304917535,-0.292269965,1.0,0.0,0.0,0.3672,compass,0.0,17.0,17.0,21.0,1.0,SoundStimuli/BridgeOverTroubledWater_SimonAndGarfunkel_Cover5S.wav,,,,,,,,,,,,,,,,,,,,,,,,,,,,,,,,,,,,,,,,,,,,,,,,,,,,
,,,,,740015,1,2024-07-12_18h18.48.003,experiment,2024.1.5,MacIntel,60.24096386,6691931c2c63981b064e1f0c,6691b99fb800d2ace2dde4f9,,,,,,,,,,,,,,,,,,,,,,,,,,,,,,,,,,,,,,,,,,,,,,,,,,,,,,,,,,,,580.9166,587.2727,0.042469618,-0.053585069,1.0,0.0,0.0,0.35,compass,0.0,18.0,18.0,8.0,1.0,SoundStimuli/EndlessLove_DianaRossLionelRichie_Original5S.wav,,,,,,,,,,,,,,,,,,,,,,,,,,,,,,,,,,,,,,,,,,,,,,,,,,,,
,,,,,740015,1,2024-07-12_18h18.48.003,experiment,2024.1.5,MacIntel,60.24096386,6691931c2c63981b064e1f0c,6691b99fb800d2ace2dde4f9,,,,,,,,,,,,,,,,,,,,,,,,,,,,,,,,,,,,,,,,,,,,,,,,,,,,,,,,,,,,587.2835,593.6393,0.325477431,0.325555556,1.0,0.0,0.0,0.3496,compass,0.0,19.0,19.0,15.0,1.0,SoundStimuli/CrazyInLove_BeyonceFtJayZ_Original5S.wav,,,,,,,,,,,,,,,,,,,,,,,,,,,,,,,,,,,,,,,,,,,,,,,,,,,,
,,,,,740015,1,2024-07-12_18h18.48.003,experiment,2024.1.5,MacIntel,60.24096386,6691931c2c63981b064e1f0c,6691b99fb800d2ace2dde4f9,,,,,,,,,,,,,,,,,,,,,,,,,,,,,,,,,,,,,,,,,,,,,,,,,,,,,,,,,,,,593.6501,601.1066,0.090855035,0.076145833,1.0,0.0,0.0,1.4512,compass,0.0,20.0,20.0,1.0,1.0,SoundStimuli/Smooth_SantanaRobThomas_Cover5S.wav,,,,,,,,,,,,,,,,,,,,,,,,,,,,,,,,,,,,,,,,,,,,,,,,,,,,
,,,,,740015,1,2024-07-12_18h18.48.003,experiment,2024.1.5,MacIntel,60.24096386,6691931c2c63981b064e1f0c,6691b99fb800d2ace2dde4f9,,,,,,,,,,,,,,,,,,,,,,,,,,,,,,,,,,,,,,,,,,,,,,,,,,,,,,,,,,,,601.1181,607.5397,-0.245078125,-0.2596875,1.0,0.0,0.0,0.4174,compass,0.0,21.0,21.0,7.0,1.0,SoundStimuli/MackTheKnife_BobbyDarin_Original5S.wav,,,,,,,,,,,,,,,,,,,,,,,,,,,,,,,,,,,,,,,,,,,,,,,,,,,,
,,,,,740015,1,2024-07-12_18h18.48.003,experiment,2024.1.5,MacIntel,60.24096386,6691931c2c63981b064e1f0c,6691b99fb800d2ace2dde4f9,,,,,,,,,,,,,,,,,,,,,,,,,,,,,,,,,,,,,,,,,,,,,,,,,,,,,,,,,,,,607.5498,613.8406,0.328802083,0.327599826,1.0,0.0,0.0,0.2837,compass,0.0,22.0,22.0,11.0,1.0,SoundStimuli/BlurredLines_RobinThicke_Original5S.wav,,,,,,,,,,,,,,,,,,,,,,,,,,,,,,,,,,,,,,,,,,,,,,,,,,,,
,,,,,740015,1,2024-07-12_18h18.48.003,experiment,2024.1.5,MacIntel,60.24096386,6691931c2c63981b064e1f0c,6691b99fb800d2ace2dde4f9,,,,,,,,,,,,,,,,,,,,,,,,,,,,,,,,,,,,,,,,,,,,,,,,,,,,,,,,,,,,613.8505,620.4733,0.323025174,0.312647569,1.0,0.0,0.0,0.6056,compass,0.0,23.0,23.0,10.0,1.0,SoundStimuli/LeFreak_Chic_Original5S.wav,,,,,,,,,,,,,,,,,,,,,,,,,,,,,,,,,,,,,,,,,,,,,,,,,,,,
,,,,,740015,1,2024-07-12_18h18.48.003,experiment,2024.1.5,MacIntel,60.24096386,6691931c2c63981b064e1f0c,6691b99fb800d2ace2dde4f9,,,,,,,,,,,,,,,,,,,,,,,,,,,,,,,,,,,,,,,,,,,,,,,,,,,,,,,,,,,,620.4738,626.5723,-0.326432292,0.321328125,1.0,0.0,0.0,0.0832,compass,0.0,24.0,24.0,2.0,1.0,SoundStimuli/SmellsLikeTeenSpirit_Nirvana_Cover5S.wav,,,,,,,,,,,,,,,,,,,,,,,,,,,,,,,,,,,,,,,,,,,,,,,,,,,,
,,,,,740015,1,2024-07-12_18h18.48.003,experiment,2024.1.5,MacIntel,60.24096386,6691931c2c63981b064e1f0c,6691b99fb800d2ace2dde4f9,,,,,,,,,,,,,,,,,,,,,,,,,,,,,,,,,,,,,,,,,,,,,,,,,,,,,,,,,,,,626.5785,632.9733,0.331206597,0.324978299,1.0,0.0,0.0,0.3822,compass,0.0,25.0,25.0,24.0,1.0,SoundStimuli/Kiss_Prince_Original5S.wav,,,,,,,,,,,,,,,,,,,,,,,,,,,,,,,,,,,,,,,,,,,,,,,,,,,,
,,,,,740015,1,2024-07-12_18h18.48.003,experiment,2024.1.5,MacIntel,60.24096386,6691931c2c63981b064e1f0c,6691b99fb800d2ace2dde4f9,,,,,,,,,,,,,,,,,,,,,,,,,,,,,,,,,,,,,,,,,,,,,,,,,,,,,,,,,,,,632.9823,639.4064,0.321388889,-0.319522569,1.0,0.0,0.0,0.4164,compass,0.0,26.0,26.0,17.0,1.0,SoundStimuli/IWannaDanceWithSomebody_WhitneyHouston_Cover5S.wav,,,,,,,,,,,,,,,,,,,,,,,,,,,,,,,,,,,,,,,,,,,,,,,,,,,,
,,,,,740015,1,2024-07-12_18h18.48.003,experiment,2024.1.5,MacIntel,60.24096386,6691931c2c63981b064e1f0c,6691b99fb800d2ace2dde4f9,,,,,,,,,,,,,,,,,,,,,,,,,,,,,,,,,,,,,,,,,,,,,,,,,,,,,,,,,,,,639.4144,645.6743,-0.337018229,0.331176215,1.0,0.0,0.0,0.25,compass,0.0,27.0,27.0,31.0,1.0,SoundStimuli/TossinAndTurnin_BobbyLewis_Cover5S.wav,,,,,,,,,,,,,,,,,,,,,,,,,,,,,,,,,,,,,,,,,,,,,,,,,,,,
,,,,,740015,1,2024-07-12_18h18.48.003,experiment,2024.1.5,MacIntel,60.24096386,6691931c2c63981b064e1f0c,6691b99fb800d2ace2dde4f9,,,,,,,,,,,,,,,,,,,,,,,,,,,,,,,,,,,,,,,,,,,,,,,,,,,,,,,,,,,,645.6836,652.4081,0.083068576,-0.108498264,1.0,0.0,0.0,0.7172,compass,0.0,28.0,28.0,28.0,1.0,SoundStimuli/IWantToHoldYourHand_TheBeatles_Cover5S.wav,,,,,,,,,,,,,,,,,,,,,,,,,,,,,,,,,,,,,,,,,,,,,,,,,,,,
,,,,,740015,1,2024-07-12_18h18.48.003,experiment,2024.1.5,MacIntel,60.24096386,6691931c2c63981b064e1f0c,6691b99fb800d2ace2dde4f9,,,,,,,,,,,,,,,,,,,,,,,,,,,,,,,,,,,,,,,,,,,,,,,,,,,,,,,,,,,,652.419,659.2747,0.024032118,-0.031527778,1.0,0.0,0.0,0.8499,compass,0.0,29.0,29.0,4.0,1.0,SoundStimuli/Dreams_FleetwoodMac_Cover5S.wav,,,,,,,,,,,,,,,,,,,,,,,,,,,,,,,,,,,,,,,,,,,,,,,,,,,,
,,,,,740015,1,2024-07-12_18h18.48.003,experiment,2024.1.5,MacIntel,60.24096386,6691931c2c63981b064e1f0c,6691b99fb800d2ace2dde4f9,,,,,,,,,,,,,,,,,,,,,,,,,,,,,,,,,,,,,,,,,,,,,,,,,,,,,,,,,,,,659.2851,665.6416,0.328411458,0.333216146,1.0,0.0,0.0,0.3498,compass,0.0,30.0,30.0,26.0,1.0,SoundStimuli/TheSign_AceOfBase_Original5S.wav,,,,,,,,,,,,,,,,,,,,,,,,,,,,,,,,,,,,,,,,,,,,,,,,,,,,
,,,,,740015,1,2024-07-12_18h18.48.003,experiment,2024.1.5,MacIntel,60.24096386,6691931c2c63981b064e1f0c,6691b99fb800d2ace2dde4f9,,,,,,,,,,,,,,,,,,,,,,,,,,,,,,,,,,,,,,,,,,,,,,,,,,,,,,,,,,,,665.6515,671.9577,0.102877604,-0.166605903,1.0,0.0,0.0,0.2996,compass,0.0,31.0,31.0,14.0,1.0,SoundStimuli/LikeARollingStone_BobDylan_Cover5S.wav,,,,,,,,,,,,,,,,,,,,,,,,,,,,,,,,,,,,,,,,,,,,,,,,,,,,
,,,,,740015,1,2024-07-12_18h18.48.003,experiment,2024.1.5,MacIntel,60.24096386,6691931c2c63981b064e1f0c,6691b99fb800d2ace2dde4f9,,,,,,,,,,,,,,,,,,,,,,,,,,,,,,,,,,,,,,,,,,,,,,,,,,,,,,,,,,,,671.9681,678.5243,0.010286458,-0.326818576,1.0,0.0,0.0,0.5487,compass,0.0,32.0,32.0,16.0,1.0,SoundStimuli/ItsAllInTheGame_TommyEdwards_Original5S.wav,,,,,,,,,,,,,,,,,,,,,,,,,,,,,,,,,,,,,,,,,,,,,,,,,,,,
,,,,,740015,1,2024-07-12_18h18.48.003,experiment,2024.1.5,MacIntel,60.24096386,6691931c2c63981b064e1f0c,6691b99fb800d2ace2dde4f9,,,,,,,,,,,,,,,,,,,,,,,,,,,,,,,,,,,,,,,,,,,,,,,,,,,,,,,,,,,,678.5332,684.6081,0.028611111,-0.028498264,1.0,0.0,0.0,0.0657,compass,0.0,33.0,33.0,29.0,1.0,SoundStimuli/BetteDavisEyes_KimCarnes_Cover5S.wav,,,,,,,,,,,,,,,,,,,,,,,,,,,,,,,,,,,,,,,,,,,,,,,,,,,,
,,,,,740015,1,2024-07-12_18h18.48.003,experiment,2024.1.5,MacIntel,60.24096386,6691931c2c63981b064e1f0c,6691b99fb800d2ace2dde4f9,,,,,,,,,,,,,,,,,,,,,,,,,,,,,,,,,,,,,,,,,,,,,,,,,,,,,,,,,,,,684.6167,690.8092,0.234440104,0.199010417,1.0,0.0,0.0,0.1832,compass,0.0,34.0,34.0,5.0,1.0,SoundStimuli/JoyToTheWorld_ThreeDogNight_Cover5S.wav,,,,,,,,,,,,,,,,,,,,,,,,,,,,,,,,,,,,,,,,,,,,,,,,,,,,
,,,,,740015,1,2024-07-12_18h18.48.003,experiment,2024.1.5,MacIntel,60.24096386,6691931c2c63981b064e1f0c,6691b99fb800d2ace2dde4f9,,,,,,,,,,,,,,,,,,,,,,,,,,,,,,,,,,,,,,,,,,,,,,,,,,,,,,,,,,,,,,,,,,,,,,,,,,,690.8192,693.5583,space,2.7318,,693.5584,696.276,right,2.6991,,0.0,1.0,1.0,1.0,1.0,block_order/blockB.xlsx,,,,,,,,,,,,,,,,,,,,,,,,,,,,,,,,,,,,
,,,,,740015,1,2024-07-12_18h18.48.003,experiment,2024.1.5,MacIntel,60.24096386,6691931c2c63981b064e1f0c,6691b99fb800d2ace2dde4f9,,,,,,,,,,,,,,,,,,,,,,,,,,,,,,,,,,,,,,,,,,,,,,,,,,,,,,,,,,,,696.2937,702.5927,0.065477431,-0.073802083,1.0,0.0,0.0,0.2833,compass,0.0,0.0,0.0,32.0,1.0,SoundStimuli/HeatWaves_GlassAnimals_Original5S.wav,,,,,,,,,,,,,,,,,,,,,,,,,,,,,,,,,,,,,,,,,,,,,,,,,,,,
,,,,,740015,1,2024-07-12_18h18.48.003,experiment,2024.1.5,MacIntel,60.24096386,6691931c2c63981b064e1f0c,6691b99fb800d2ace2dde4f9,,,,,,,,,,,,,,,,,,,,,,,,,,,,,,,,,,,,,,,,,,,,,,,,,,,,,,,,,,,,702.603,711.8251,0.017204861,-0.024544271,1.0,0.0,0.0,3.216,compass,0.0,1.0,1.0,16.0,1.0,SoundStimuli/BohemianRhapsody_Queen_Original5S.wav,,,,,,,,,,,,,,,,,,,,,,,,,,,,,,,,,,,,,,,,,,,,,,,,,,,,
,,,,,740015,1,2024-07-12_18h18.48.003,experiment,2024.1.5,MacIntel,60.24096386,6691931c2c63981b064e1f0c,6691b99fb800d2ace2dde4f9,,,,,,,,,,,,,,,,,,,,,,,,,,,,,,,,,,,,,,,,,,,,,,,,,,,,,,,,,,,,711.8331,718.1266,0.173307292,0.192925347,1.0,0.0,0.0,0.2829,compass,0.0,2.0,2.0,1.0,1.0,SoundStimuli/Stronger_KanyeWest_Original5S.wav,,,,,,,,,,,,,,,,,,,,,,,,,,,,,,,,,,,,,,,,,,,,,,,,,,,,
,,,,,740015,1,2024-07-12_18h18.48.003,experiment,2024.1.5,MacIntel,60.24096386,6691931c2c63981b064e1f0c,6691b99fb800d2ace2dde4f9,,,,,,,,,,,,,,,,,,,,,,,,,,,,,,,,,,,,,,,,,,,,,,,,,,,,,,,,,,,,718.1362,724.5094,-0.127135417,-0.274492187,1.0,0.0,0.0,0.3664,compass,0.0,3.0,3.0,2.0,1.0,SoundStimuli/Mood_24kGoldnianndior_Cover5S.wav,,,,,,,,,,,,,,,,,,,,,,,,,,,,,,,,,,,,,,,,,,,,,,,,,,,,
,,,,,740015,1,2024-07-12_18h18.48.003,experiment,2024.1.5,MacIntel,60.24096386,6691931c2c63981b064e1f0c,6691b99fb800d2ace2dde4f9,,,,,,,,,,,,,,,,,,,,,,,,,,,,,,,,,,,,,,,,,,,,,,,,,,,,,,,,,,,,724.5182,730.977,0.19265191,0.17359375,1.0,0.0,0.0,0.4497,compass,0.0,4.0,4.0,29.0,1.0,SoundStimuli/OldTownRoad_LilNasX_Original5S.wav,,,,,,,,,,,,,,,,,,,,,,,,,,,,,,,,,,,,,,,,,,,,,,,,,,,,
,,,,,740015,1,2024-07-12_18h18.48.003,experiment,2024.1.5,MacIntel,60.24096386,6691931c2c63981b064e1f0c,6691b99fb800d2ace2dde4f9,,,,,,,,,,,,,,,,,,,,,,,,,,,,,,,,,,,,,,,,,,,,,,,,,,,,,,,,,,,,730.9869,737.4605,-0.185750868,-0.138771701,1.0,0.0,0.0,0.4666,compass,0.0,5.0,5.0,23.0,1.0,SoundStimuli/StrawberryFieldsForever_TheBeatles_Original5S.wav,,,,,,,,,,,,,,,,,,,,,,,,,,,,,,,,,,,,,,,,,,,,,,,,,,,,
,,,,,740015,1,2024-07-12_18h18.48.003,experiment,2024.1.5,MacIntel,60.24096386,6691931c2c63981b064e1f0c,6691b99fb800d2ace2dde4f9,,,,,,,,,,,,,,,,,,,,,,,,,,,,,,,,,,,,,,,,,,,,,,,,,,,,,,,,,,,,737.471,744.8273,0.108502604,-0.11030816,1.0,0.0,0.0,1.3498,compass,0.0,6.0,6.0,26.0,1.0,SoundStimuli/LivinOnAPrayer_BonJovi_Cover5S.wav,,,,,,,,,,,,,,,,,,,,,,,,,,,,,,,,,,,,,,,,,,,,,,,,,,,,
,,,,,740015,1,2024-07-12_18h18.48.003,experiment,2024.1.5,MacIntel,60.24096386,6691931c2c63981b064e1f0c,6691b99fb800d2ace2dde4f9,,,,,,,,,,,,,,,,,,,,,,,,,,,,,,,,,,,,,,,,,,,,,,,,,,,,,,,,,,,,744.8368,751.1445,0.281046007,0.276384549,1.0,0.0,0.0,0.3001,compass,0.0,7.0,7.0,22.0,1.0,SoundStimuli/RockWithYou_MichaelJackson_Original5S.wav,,,,,,,,,,,,,,,,,,,,,,,,,,,,,,,,,,,,,,,,,,,,,,,,,,,,
,,,,,740015,1,2024-07-12_18h18.48.003,experiment,2024.1.5,MacIntel,60.24096386,6691931c2c63981b064e1f0c,6691b99fb800d2ace2dde4f9,,,,,,,,,,,,,,,,,,,,,,,,,,,,,,,,,,,,,,,,,,,,,,,,,,,,,,,,,,,,751.1562,757.6772,0.263732639,-0.270394965,1.0,0.0,0.0,0.5157,compass,0.0,8.0,8.0,10.0,1.0,SoundStimuli/BadDay_DanielPowter_Cover5S.wav,,,,,,,,,,,,,,,,,,,,,,,,,,,,,,,,,,,,,,,,,,,,,,,,,,,,
,,,,,740015,1,2024-07-12_18h18.48.003,experiment,2024.1.5,MacIntel,60.24096386,6691931c2c63981b064e1f0c,6691b99fb800d2ace2dde4f9,,,,,,,,,,,,,,,,,,,,,,,,,,,,,,,,,,,,,,,,,,,,,,,,,,,,,,,,,,,,757.6871,765.3114,0.160052083,-0.310230035,1.0,0.0,0.0,1.6167,compass,0.0,9.0,9.0,11.0,1.0,SoundStimuli/Superstition_StevieWonder_Cover5S.wav,,,,,,,,,,,,,,,,,,,,,,,,,,,,,,,,,,,,,,,,,,,,,,,,,,,,
,,,,,740015,1,2024-07-12_18h18.48.003,experiment,2024.1.5,MacIntel,60.24096386,6691931c2c63981b064e1f0c,6691b99fb800d2ace2dde4f9,,,,,,,,,,,,,,,,,,,,,,,,,,,,,,,,,,,,,,,,,,,,,,,,,,,,,,,,,,,,765.3199,771.6946,0.334184028,0.332634549,1.0,0.0,0.0,0.3662,compass,0.0,10.0,10.0,27.0,1.0,SoundStimuli/ShapeofYou_EdSheeran_Original5S.wav,,,,,,,,,,,,,,,,,,,,,,,,,,,,,,,,,,,,,,,,,,,,,,,,,,,,
,,,,,740015,1,2024-07-12_18h18.48.003,experiment,2024.1.5,MacIntel,60.24096386,6691931c2c63981b064e1f0c,6691b99fb800d2ace2dde4f9,,,,,,,,,,,,,,,,,,,,,,,,,,,,,,,,,,,,,,,,,,,,,,,,,,,,,,,,,,,,771.702,778.3618,0.057387153,-0.314939236,1.0,0.0,0.0,0.6499,compass,0.0,11.0,11.0,13.0,1.0,SoundStimuli/GodOnlyKnows_TheBeachBoys_Cover5S.wav,,,,,,,,,,,,,,,,,,,,,,,,,,,,,,,,,,,,,,,,,,,,,,,,,,,,
,,,,,740015,1,2024-07-12_18h18.48.003,experiment,2024.1.5,MacIntel,60.24096386,6691931c2c63981b064e1f0c,6691b99fb800d2ace2dde4f9,,,,,,,,,,,,,,,,,,,,,,,,,,,,,,,,,,,,,,,,,,,,,,,,,,,,,,,,,,,,778.3717,785.8286,0.032664931,0.041336806,1.0,0.0,0.0,1.4498,compass,0.0,12.0,12.0,7.0,1.0,SoundStimuli/NoOne_AliciaKeys_Cover5S.wav,,,,,,,,,,,,,,,,,,,,,,,,,,,,,,,,,,,,,,,,,,,,,,,,,,,,
,,,,,740015,1,2024-07-12_18h18.48.003,experiment,2024.1.5,MacIntel,60.24096386,6691931c2c63981b064e1f0c,6691b99fb800d2ace2dde4f9,,,,,,,,,,,,,,,,,,,,,,,,,,,,,,,,,,,,,,,,,,,,,,,,,,,,,,,,,,,,785.8381,793.3461,0.04453125,-0.327000868,1.0,0.0,0.0,1.5001,compass,0.0,13.0,13.0,31.0,1.0,SoundStimuli/TheBattleOfNewOrleans_JohnnyHorton_Cover5S.wav,,,,,,,,,,,,,,,,,,,,,,,,,,,,,,,,,,,,,,,,,,,,,,,,,,,,
,,,,,740015,1,2024-07-12_18h18.48.003,experiment,2024.1.5,MacIntel,60.24096386,6691931c2c63981b064e1f0c,6691b99fb800d2ace2dde4f9,,,,,,,,,,,,,,,,,,,,,,,,,,,,,,,,,,,,,,,,,,,,,,,,,,,,,,,,,,,,793.3571,799.6962,0.065026042,-0.107387153,1.0,0.0,0.0,0.3337,compass,0.0,14.0,14.0,19.0,1.0,SoundStimuli/LetsGetItOn_MarvinGaye_Cover5S.wav,,,,,,,,,,,,,,,,,,,,,,,,,,,,,,,,,,,,,,,,,,,,,,,,,,,,
,,,,,740015,1,2024-07-12_18h18.48.003,experiment,2024.1.5,MacIntel,60.24096386,6691931c2c63981b064e1f0c,6691b99fb800d2ace2dde4f9,,,,,,,,,,,,,,,,,,,,,,,,,,,,,,,,,,,,,,,,,,,,,,,,,,,,,,,,,,,,799.7056,806.1128,0.151848958,0.15687934,1.0,0.0,0.0,0.3994,compass,0.0,15.0,15.0,33.0,1.0,SoundStimuli/StandByMe_BenEKing_Cover5S.wav,,,,,,,,,,,,,,,,,,,,,,,,,,,,,,,,,,,,,,,,,,,,,,,,,,,,
,,,,,740015,1,2024-07-12_18h18.48.003,experiment,2024.1.5,MacIntel,60.24096386,6691931c2c63981b064e1f0c,6691b99fb800d2ace2dde4f9,,,,,,,,,,,,,,,,,,,,,,,,,,,,,,,,,,,,,,,,,,,,,,,,,,,,,,,,,,,,806.1236,812.4464,0.266484375,0.277934028,1.0,0.0,0.0,0.3165,compass,0.0,16.0,16.0,8.0,1.0,SoundStimuli/LikeAPrayer_Madonna_Original5S.wav,,,,,,,,,,,,,,,,,,,,,,,,,,,,,,,,,,,,,,,,,,,,,,,,,,,,
,,,,,740015,1,2024-07-12_18h18.48.003,experiment,2024.1.5,MacIntel,60.24096386,6691931c2c63981b064e1f0c,6691b99fb800d2ace2dde4f9,,,,,,,,,,,,,,,,,,,,,,,,,,,,,,,,,,,,,,,,,,,,,,,,,,,,,,,,,,,,812.4566,818.7631,0.324661458,0.331032986,1.0,0.0,0.0,0.2998,compass,0.0,17.0,17.0,25.0,1.0,SoundStimuli/Respect_ArethaFranklin_Original5S.wav,,,,,,,,,,,,,,,,,,,,,,,,,,,,,,,,,,,,,,,,,,,,,,,,,,,,
,,,,,740015,1,2024-07-12_18h18.48.003,experiment,2024.1.5,MacIntel,60.24096386,6691931c2c63981b064e1f0c,6691b99fb800d2ace2dde4f9,,,,,,,,,,,,,,,,,,,,,,,,,,,,,,,,,,,,,,,,,,,,,,,,,,,,,,,,,,,,818.7733,824.9635,0.325568576,0.332638889,1.0,0.0,0.0,0.1844,compass,0.0,18.0,18.0,14.0,1.0,SoundStimuli/BlindingLights_TheWeeknd_Original5S.wav,,,,,,,,,,,,,,,,,,,,,,,,,,,,,,,,,,,,,,,,,,,,,,,,,,,,
,,,,,740015,1,2024-07-12_18h18.48.003,experiment,2024.1.5,MacIntel,60.24096386,6691931c2c63981b064e1f0c,6691b99fb800d2ace2dde4f9,,,,,,,,,,,,,,,,,,,,,,,,,,,,,,,,,,,,,,,,,,,,,,,,,,,,,,,,,,,,824.9746,831.3635,0.104830729,-0.130659722,1.0,0.0,0.0,0.384,compass,0.0,19.0,19.0,20.0,1.0,SoundStimuli/HeyYa_Outkast_Cover5S.wav,,,,,,,,,,,,,,,,,,,,,,,,,,,,,,,,,,,,,,,,,,,,,,,,,,,,
,,,,,740015,1,2024-07-12_18h18.48.003,experiment,2024.1.5,MacIntel,60.24096386,6691931c2c63981b064e1f0c,6691b99fb800d2ace2dde4f9,,,,,,,,,,,,,,,,,,,,,,,,,,,,,,,,,,,,,,,,,,,,,,,,,,,,,,,,,,,,831.3741,837.747,0.248220486,0.22703125,1.0,0.0,0.0,0.3673,compass,0.0,20.0,20.0,28.0,1.0,SoundStimuli/ComeAndGetYourLove_Redbone_Original5S.wav,,,,,,,,,,,,,,,,,,,,,,,,,,,,,,,,,,,,,,,,,,,,,,,,,,,,
,,,,,740015,1,2024-07-12_18h18.48.003,experiment,2024.1.5,MacIntel,60.24096386,6691931c2c63981b064e1f0c,6691b99fb800d2ace2dde4f9,,,,,,,,,,,,,,,,,,,,,,,,,,,,,,,,,,,,,,,,,,,,,,,,,,,,,,,,,,,,837.7562,843.8804,0.164965278,0.24358941,1.0,0.0,0.0,0.1161,compass,0.0,21.0,21.0,34.0,1.0,SoundStimuli/AChangeIsGonnaCome_SamCooke_Cover5S.wav,,,,,,,,,,,,,,,,,,,,,,,,,,,,,,,,,,,,,,,,,,,,,,,,,,,,
,,,,,740015,1,2024-07-12_18h18.48.003,experiment,2024.1.5,MacIntel,60.24096386,6691931c2c63981b064e1f0c,6691b99fb800d2ace2dde4f9,,,,,,,,,,,,,,,,,,,,,,,,,,,,,,,,,,,,,,,,,,,,,,,,,,,,,,,,,,,,843.8894,850.3142,0.270486111,0.284678819,1.0,0.0,0.0,0.4175,compass,0.0,22.0,22.0,0.0,1.0,SoundStimuli/StayinAlive_BeeGees_Original5S.wav,,,,,,,,,,,,,,,,,,,,,,,,,,,,,,,,,,,,,,,,,,,,,,,,,,,,
,,,,,740015,1,2024-07-12_18h18.48.003,experiment,2024.1.5,MacIntel,60.24096386,6691931c2c63981b064e1f0c,6691b99fb800d2ace2dde4f9,,,,,,,,,,,,,,,,,,,,,,,,,,,,,,,,,,,,,,,,,,,,,,,,,,,,,,,,,,,,850.3234,856.731,0.096592882,-0.070247396,1.0,0.0,0.0,0.4,compass,0.0,23.0,23.0,5.0,1.0,SoundStimuli/MyGirl_TheTemptations_Original5S.wav,,,,,,,,,,,,,,,,,,,,,,,,,,,,,,,,,,,,,,,,,,,,,,,,,,,,
,,,,,740015,1,2024-07-12_18h18.48.003,experiment,2024.1.5,MacIntel,60.24096386,6691931c2c63981b064e1f0c,6691b99fb800d2ace2dde4f9,,,,,,,,,,,,,,,,,,,,,,,,,,,,,,,,,,,,,,,,,,,,,,,,,,,,,,,,,,,,856.7415,863.0469,0.313446181,0.322278646,1.0,0.0,0.0,0.2991,compass,0.0,24.0,24.0,30.0,1.0,SoundStimuli/PokerFace_LadyGaga_Original5S.wav,,,,,,,,,,,,,,,,,,,,,,,,,,,,,,,,,,,,,,,,,,,,,,,,,,,,
,,,,,740015,1,2024-07-12_18h18.48.003,experiment,2024.1.5,MacIntel,60.24096386,6691931c2c63981b064e1f0c,6691b99fb800d2ace2dde4f9,,,,,,,,,,,,,,,,,,,,,,,,,,,,,,,,,,,,,,,,,,,,,,,,,,,,,,,,,,,,863.0566,869.3968,0.150911458,-0.222330729,1.0,0.0,0.0,0.3328,compass,0.0,25.0,25.0,17.0,1.0,SoundStimuli/Fallin_AliciaKeys_Original5S.wav,,,,,,,,,,,,,,,,,,,,,,,,,,,,,,,,,,,,,,,,,,,,,,,,,,,,
,,,,,740015,1,2024-07-12_18h18.48.003,experiment,2024.1.5,MacIntel,60.24096386,6691931c2c63981b064e1f0c,6691b99fb800d2ace2dde4f9,,,,,,,,,,,,,,,,,,,,,,,,,,,,,,,,,,,,,,,,,,,,,,,,,,,,,,,,,,,,869.4055,876.3984,-0.321935764,0.317842882,1.0,0.0,0.0,0.9834,compass,0.0,26.0,26.0,6.0,1.0,SoundStimuli/Levitating_DuaLipa_Cover5S.wav,,,,,,,,,,,,,,,,,,,,,,,,,,,,,,,,,,,,,,,,,,,,,,,,,,,,
,,,,,740015,1,2024-07-12_18h18.48.003,experiment,2024.1.5,MacIntel,60.24096386,6691931c2c63981b064e1f0c,6691b99fb800d2ace2dde4f9,,,,,,,,,,,,,,,,,,,,,,,,,,,,,,,,,,,,,,,,,,,,,,,,,,,,,,,,,,,,876.4077,882.664,0.12937934,0.124262153,1.0,0.0,0.0,0.2489,compass,0.0,27.0,27.0,4.0,1.0,SoundStimuli/GetUrFreakOn_MissyElliot_Original5S.wav,,,,,,,,,,,,,,,,,,,,,,,,,,,,,,,,,,,,,,,,,,,,,,,,,,,,
,,,,,740015,1,2024-07-12_18h18.48.003,experiment,2024.1.5,MacIntel,60.24096386,6691931c2c63981b064e1f0c,6691b99fb800d2ace2dde4f9,,,,,,,,,,,,,,,,,,,,,,,,,,,,,,,,,,,,,,,,,,,,,,,,,,,,,,,,,,,,882.6723,888.9322,0.125598958,0.212057292,1.0,0.0,0.0,0.25,compass,0.0,28.0,28.0,3.0,1.0,SoundStimuli/NoScrubs_TLC_Original5S.wav,,,,,,,,,,,,,,,,,,,,,,,,,,,,,,,,,,,,,,,,,,,,,,,,,,,,
,,,,,740015,1,2024-07-12_18h18.48.003,experiment,2024.1.5,MacIntel,60.24096386,6691931c2c63981b064e1f0c,6691b99fb800d2ace2dde4f9,,,,,,,,,,,,,,,,,,,,,,,,,,,,,,,,,,,,,,,,,,,,,,,,,,,,,,,,,,,,888.943,895.4658,-0.245664063,0.238667535,1.0,0.0,0.0,0.5166,compass,0.0,29.0,29.0,18.0,1.0,SoundStimuli/AnotherOneBitesTheDust_Queen_Original5S.wav,,,,,,,,,,,,,,,,,,,,,,,,,,,,,,,,,,,,,,,,,,,,,,,,,,,,
,,,,,740015,1,2024-07-12_18h18.48.003,experiment,2024.1.5,MacIntel,60.24096386,6691931c2c63981b064e1f0c,6691b99fb800d2ace2dde4f9,,,,,,,,,,,,,,,,,,,,,,,,,,,,,,,,,,,,,,,,,,,,,,,,,,,,,,,,,,,,895.4772,902.8992,0.012005208,0.032621528,1.0,0.0,0.0,1.417,compass,0.0,30.0,30.0,21.0,1.0,SoundStimuli/GoodGollyMissMolly_LittleRichard_Cover5S.wav,,,,,,,,,,,,,,,,,,,,,,,,,,,,,,,,,,,,,,,,,,,,,,,,,,,,
,,,,,740015,1,2024-07-12_18h18.48.003,experiment,2024.1.5,MacIntel,60.24096386,6691931c2c63981b064e1f0c,6691b99fb800d2ace2dde4f9,,,,,,,,,,,,,,,,,,,,,,,,,,,,,,,,,,,,,,,,,,,,,,,,,,,,,,,,,,,,902.9106,909.1156,0.215256076,-0.227664931,1.0,0.0,0.0,0.2002,compass,0.0,31.0,31.0,12.0,1.0,SoundStimuli/IWillAlwaysLoveYou_WhitneyHouston_Cover5S.wav,,,,,,,,,,,,,,,,,,,,,,,,,,,,,,,,,,,,,,,,,,,,,,,,,,,,
,,,,,740015,1,2024-07-12_18h18.48.003,experiment,2024.1.5,MacIntel,60.24096386,6691931c2c63981b064e1f0c,6691b99fb800d2ace2dde4f9,,,,,,,,,,,,,,,,,,,,,,,,,,,,,,,,,,,,,,,,,,,,,,,,,,,,,,,,,,,,909.1253,915.4328,0.320572917,-0.314539931,1.0,0.0,0.0,0.3004,compass,0.0,32.0,32.0,15.0,1.0,SoundStimuli/TikTok_Kesha_Cover5S.wav,,,,,,,,,,,,,,,,,,,,,,,,,,,,,,,,,,,,,,,,,,,,,,,,,,,,
,,,,,740015,1,2024-07-12_18h18.48.003,experiment,2024.1.5,MacIntel,60.24096386,6691931c2c63981b064e1f0c,6691b99fb800d2ace2dde4f9,,,,,,,,,,,,,,,,,,,,,,,,,,,,,,,,,,,,,,,,,,,,,,,,,,,,,,,,,,,,915.4439,921.8491,0.152330729,-0.245052083,1.0,0.0,0.0,0.3985,compass,0.0,33.0,33.0,9.0,1.0,SoundStimuli/Despacito_LuisFonsiDaddyYankee_Cover5S.wav,,,,,,,,,,,,,,,,,,,,,,,,,,,,,,,,,,,,,,,,,,,,,,,,,,,,
,,,,,740015,1,2024-07-12_18h18.48.003,experiment,2024.1.5,MacIntel,60.24096386,6691931c2c63981b064e1f0c,6691b99fb800d2ace2dde4f9,,,,,,,,,,,,,,,,,,,,,,,,,,,,,,,,,,,,,,,,,,,,,,,,,,,,,,,,,,,,921.86,928.2666,0.315572917,0.315772569,1.0,0.0,0.0,0.3997,compass,0.0,34.0,34.0,24.0,1.0,SoundStimuli/UptownFunk_MarkRonson_Original5S.wav,,,,,,,,,,,,,,,,,,,,,,,,,,,,,,,,,,,,,,,,,,,,,,,,,,,,
,,,,,740015,1,2024-07-12_18h18.48.003,experiment,2024.1.5,MacIntel,60.24096386,6691931c2c63981b064e1f0c,6691b99fb800d2ace2dde4f9,,,,,,,,,,,,,,,,,,,,,,,,,,,,,,,,,,,,,,,,,,,,,,,,,,,,,,,,,,,,,,,,,,,,,,,,,,,928.2769,930.4329,space,2.1394,,930.433,932.0667,right,1.6181,,0.0,2.0,2.0,2.0,1.0,block_order/blockA.xlsx,,,,,,,,,,,,,,,,,,,,,,,,,,,,,,,,,,,,
,,,,,740015,1,2024-07-12_18h18.48.003,experiment,2024.1.5,MacIntel,60.24096386,6691931c2c63981b064e1f0c,6691b99fb800d2ace2dde4f9,,,,,,,,,,,,,,,,,,,,,,,,,,,,,,,,,,,,,,,,,,,,,,,,,,,,,,,,,,,,932.077,938.3003,0.250876736,-0.289453125,1.0,0.0,0.0,0.217,compass,0.0,0.0,0.0,25.0,1.0,SoundStimuli/IllMakeLoveToYou_BoyzIIMen_Cover5S.wav,,,,,,,,,,,,,,,,,,,,,,,,,,,,,,,,,,,,,,,,,,,,,,,,,,,,
,,,,,740015,1,2024-07-12_18h18.48.003,experiment,2024.1.5,MacIntel,60.24096386,6691931c2c63981b064e1f0c,6691b99fb800d2ace2dde4f9,,,,,,,,,,,,,,,,,,,,,,,,,,,,,,,,,,,,,,,,,,,,,,,,,,,,,,,,,,,,938.3097,944.6509,0.331506076,0.334461806,1.0,0.0,0.0,0.3342,compass,0.0,1.0,1.0,22.0,1.0,SoundStimuli/Happy_PharellWilliams_Original5S.wav,,,,,,,,,,,,,,,,,,,,,,,,,,,,,,,,,,,,,,,,,,,,,,,,,,,,
,,,,,740015,1,2024-07-12_18h18.48.003,experiment,2024.1.5,MacIntel,60.24096386,6691931c2c63981b064e1f0c,6691b99fb800d2ace2dde4f9,,,,,,,,,,,,,,,,,,,,,,,,,,,,,,,,,,,,,,,,,,,,,,,,,,,,,,,,,,,,944.6608,951.1841,0.179470486,-0.227734375,1.0,0.0,0.0,0.5173,compass,0.0,2.0,2.0,12.0,1.0,SoundStimuli/UnbreakMyHeart_ToniBraxton_Original5S.wav,,,,,,,,,,,,,,,,,,,,,,,,,,,,,,,,,,,,,,,,,,,,,,,,,,,,
,,,,,740015,1,2024-07-12_18h18.48.003,experiment,2024.1.5,MacIntel,60.24096386,6691931c2c63981b064e1f0c,6691b99fb800d2ace2dde4f9,,,,,,,,,,,,,,,,,,,,,,,,,,,,,,,,,,,,,,,,,,,,,,,,,,,,,,,,,,,,951.1942,957.6166,-0.101710069,-0.117309028,1.0,0.0,0.0,0.415,compass,0.0,3.0,3.0,14.0,1.0,SoundStimuli/LikeARollingStone_BobDylan_Original5S.wav,,,,,,,,,,,,,,,,,,,,,,,,,,,,,,,,,,,,,,,,,,,,,,,,,,,,
,,,,,740015,1,2024-07-12_18h18.48.003,experiment,2024.1.5,MacIntel,60.24096386,6691931c2c63981b064e1f0c,6691b99fb800d2ace2dde4f9,,,,,,,,,,,,,,,,,,,,,,,,,,,,,,,,,,,,,,,,,,,,,,,,,,,,,,,,,,,,957.6227,965.0514,0.05437066,-0.277235243,1.0,0.0,0.0,1.417,compass,0.0,4.0,4.0,9.0,1.0,SoundStimuli/HowDoILive_LeAnnRimes_Cover5S.wav,,,,,,,,,,,,,,,,,,,,,,,,,,,,,,,,,,,,,,,,,,,,,,,,,,,,
,,,,,740015,1,2024-07-12_18h18.48.003,experiment,2024.1.5,MacIntel,60.24096386,6691931c2c63981b064e1f0c,6691b99fb800d2ace2dde4f9,,,,,,,,,,,,,,,,,,,,,,,,,,,,,,,,,,,,,,,,,,,,,,,,,,,,,,,,,,,,965.0653,971.9511,0.224149306,0.223689236,1.0,0.0,0.0,0.8828,compass,0.0,5.0,5.0,28.0,1.0,SoundStimuli/IWantToHoldYourHand_TheBeatles_Original5S.wav,,,,,,,,,,,,,,,,,,,,,,,,,,,,,,,,,,,,,,,,,,,,,,,,,,,,
,,,,,740015,1,2024-07-12_18h18.48.003,experiment,2024.1.5,MacIntel,60.24096386,6691931c2c63981b064e1f0c,6691b99fb800d2ace2dde4f9,,,,,,,,,,,,,,,,,,,,,,,,,,,,,,,,,,,,,,,,,,,,,,,,,,,,,,,,,,,,971.96,978.3005,0.325681424,0.329644097,1.0,0.0,0.0,0.3321,compass,0.0,6.0,6.0,11.0,1.0,SoundStimuli/BlurredLines_RobinThicke_Cover5S.wav,,,,,,,,,,,,,,,,,,,,,,,,,,,,,,,,,,,,,,,,,,,,,,,,,,,,
,,,,,740015,1,2024-07-12_18h18.48.003,experiment,2024.1.5,MacIntel,60.24096386,6691931c2c63981b064e1f0c,6691b99fb800d2ace2dde4f9,,,,,,,,,,,,,,,,,,,,,,,,,,,,,,,,,,,,,,,,,,,,,,,,,,,,,,,,,,,,978.3091,984.8186,0.240512153,-0.297760417,1.0,0.0,0.0,0.4999,compass,0.0,7.0,7.0,13.0,1.0,SoundStimuli/Perfect_EdSheeran_Cover5S.wav,,,,,,,,,,,,,,,,,,,,,,,,,,,,,,,,,,,,,,,,,,,,,,,,,,,,
,,,,,740015,1,2024-07-12_18h18.48.003,experiment,2024.1.5,MacIntel,60.24096386,6691931c2c63981b064e1f0c,6691b99fb800d2ace2dde4f9,,,,,,,,,,,,,,,,,,,,,,,,,,,,,,,,,,,,,,,,,,,,,,,,,,,,,,,,,,,,984.8287,991.1518,0.040985243,-0.272521701,1.0,0.0,0.0,0.3161,compass,0.0,8.0,8.0,8.0,1.0,SoundStimuli/EndlessLove_DianaRossLionelRichie_Cover5S.wav,,,,,,,,,,,,,,,,,,,,,,,,,,,,,,,,,,,,,,,,,,,,,,,,,,,,
,,,,,740015,1,2024-07-12_18h18.48.003,experiment,2024.1.5,MacIntel,60.24096386,6691931c2c63981b064e1f0c,6691b99fb800d2ace2dde4f9,,,,,,,,,,,,,,,,,,,,,,,,,,,,,,,,,,,,,,,,,,,,,,,,,,,,,,,,,,,,991.1599,997.4688,-0.259600694,-0.1778125,1.0,0.0,0.0,0.2998,compass,0.0,9.0,9.0,6.0,1.0,SoundStimuli/SaveYourTears_TheWeekndArianaGrande_Cover5S.wav,,,,,,,,,,,,,,,,,,,,,,,,,,,,,,,,,,,,,,,,,,,,,,,,,,,,
,,,,,740015,1,2024-07-12_18h18.48.003,experiment,2024.1.5,MacIntel,60.24096386,6691931c2c63981b064e1f0c,6691b99fb800d2ace2dde4f9,,,,,,,,,,,,,,,,,,,,,,,,,,,,,,,,,,,,,,,,,,,,,,,,,,,,,,,,,,,,997.4798,1003.8526,0.033776042,-0.031163194,1.0,0.0,0.0,0.3668,compass,0.0,10.0,10.0,29.0,1.0,SoundStimuli/BetteDavisEyes_KimCarnes_Original5S.wav,,,,,,,,,,,,,,,,,,,,,,,,,,,,,,,,,,,,,,,,,,,,,,,,,,,,
,,,,,740015,1,2024-07-12_18h18.48.003,experiment,2024.1.5,MacIntel,60.24096386,6691931c2c63981b064e1f0c,6691b99fb800d2ace2dde4f9,,,,,,,,,,,,,,,,,,,,,,,,,,,,,,,,,,,,,,,,,,,,,,,,,,,,,,,,,,,,1003.862,1010.7526,0.320989583,0.293072917,1.0,0.0,0.0,0.8833,compass,0.0,11.0,11.0,10.0,1.0,SoundStimuli/LeFreak_Chic_Cover5S.wav,,,,,,,,,,,,,,,,,,,,,,,,,,,,,,,,,,,,,,,,,,,,,,,,,,,,
,,,,,740015,1,2024-07-12_18h18.48.003,experiment,2024.1.5,MacIntel,60.24096386,6691931c2c63981b064e1f0c,6691b99fb800d2ace2dde4f9,,,,,,,,,,,,,,,,,,,,,,,,,,,,,,,,,,,,,,,,,,,,,,,,,,,,,,,,,,,,1010.7636,1017.0527,-0.178802083,0.152617188,1.0,0.0,0.0,0.2832,compass,0.0,12.0,12.0,0.0,1.0,SoundStimuli/GimmeShelter_RollingStones_Original5S.wav,,,,,,,,,,,,,,,,,,,,,,,,,,,,,,,,,,,,,,,,,,,,,,,,,,,,
,,,,,740015,1,2024-07-12_18h18.48.003,experiment,2024.1.5,MacIntel,60.24096386,6691931c2c63981b064e1f0c,6691b99fb800d2ace2dde4f9,,,,,,,,,,,,,,,,,,,,,,,,,,,,,,,,,,,,,,,,,,,,,,,,,,,,,,,,,,,,1017.0627,1023.3029,-0.328632812,0.327834201,1.0,0.0,0.0,0.2331,compass,0.0,13.0,13.0,7.0,1.0,SoundStimuli/MackTheKnife_BobbyDarin_Cover5S.wav,,,,,,,,,,,,,,,,,,,,,,,,,,,,,,,,,,,,,,,,,,,,,,,,,,,,
,,,,,740015,1,2024-07-12_18h18.48.003,experiment,2024.1.5,MacIntel,60.24096386,6691931c2c63981b064e1f0c,6691b99fb800d2ace2dde4f9,,,,,,,,,,,,,,,,,,,,,,,,,,,,,,,,,,,,,,,,,,,,,,,,,,,,,,,,,,,,1023.3116,1029.7871,-0.280303819,0.293103299,1.0,0.0,0.0,0.4676,compass,0.0,14.0,14.0,15.0,1.0,SoundStimuli/CrazyInLove_BeyonceFtJayZ_Cover5S.wav,,,,,,,,,,,,,,,,,,,,,,,,,,,,,,,,,,,,,,,,,,,,,,,,,,,,
,,,,,740015,1,2024-07-12_18h18.48.003,experiment,2024.1.5,MacIntel,60.24096386,6691931c2c63981b064e1f0c,6691b99fb800d2ace2dde4f9,,,,,,,,,,,,,,,,,,,,,,,,,,,,,,,,,,,,,,,,,,,,,,,,,,,,,,,,,,,,1029.7967,1036.32,-0.130655382,-0.081957465,1.0,0.0,0.0,0.5165,compass,0.0,15.0,15.0,33.0,1.0,SoundStimuli/TheBoyIsMine_BrandyMonica_Original5S.wav,,,,,,,,,,,,,,,,,,,,,,,,,,,,,,,,,,,,,,,,,,,,,,,,,,,,
,,,,,740015,1,2024-07-12_18h18.48.003,experiment,2024.1.5,MacIntel,60.24096386,6691931c2c63981b064e1f0c,6691b99fb800d2ace2dde4f9,,,,,,,,,,,,,,,,,,,,,,,,,,,,,,,,,,,,,,,,,,,,,,,,,,,,,,,,,,,,1036.3298,1043.9367,0.042604167,-0.068563368,1.0,0.0,0.0,1.5993,compass,0.0,16.0,16.0,24.0,1.0,SoundStimuli/Kiss_Prince_Cover5S.wav,,,,,,,,,,,,,,,,,,,,,,,,,,,,,,,,,,,,,,,,,,,,,,,,,,,,
,,,,,740015,1,2024-07-12_18h18.48.003,experiment,2024.1.5,MacIntel,60.24096386,6691931c2c63981b064e1f0c,6691b99fb800d2ace2dde4f9,,,,,,,,,,,,,,,,,,,,,,,,,,,,,,,,,,,,,,,,,,,,,,,,,,,,,,,,,,,,1043.9443,1050.2706,0.284427083,-0.307230903,1.0,0.0,0.0,0.3159,compass,0.0,17.0,17.0,23.0,1.0,SoundStimuli/IWalkTheLine_JohnnyCash_Original5S.wav,,,,,,,,,,,,,,,,,,,,,,,,,,,,,,,,,,,,,,,,,,,,,,,,,,,,
,,,,,740015,1,2024-07-12_18h18.48.003,experiment,2024.1.5,MacIntel,60.24096386,6691931c2c63981b064e1f0c,6691b99fb800d2ace2dde4f9,,,,,,,,,,,,,,,,,,,,,,,,,,,,,,,,,,,,,,,,,,,,,,,,,,,,,,,,,,,,1050.2817,1056.6536,-0.220451389,0.148867187,1.0,0.0,0.0,0.366,compass,0.0,18.0,18.0,2.0,1.0,SoundStimuli/SmellsLikeTeenSpirit_Nirvana_Original5S.wav,,,,,,,,,,,,,,,,,,,,,,,,,,,,,,,,,,,,,,,,,,,,,,,,,,,,
,,,,,740015,1,2024-07-12_18h18.48.003,experiment,2024.1.5,MacIntel,60.24096386,6691931c2c63981b064e1f0c,6691b99fb800d2ace2dde4f9,,,,,,,,,,,,,,,,,,,,,,,,,,,,,,,,,,,,,,,,,,,,,,,,,,,,,,,,,,,,1056.6618,1063.0375,0.103684896,-0.291701389,1.0,0.0,0.0,0.3666,compass,0.0,19.0,19.0,16.0,1.0,SoundStimuli/ItsAllInTheGame_TommyEdwards_Cover5S.wav,,,,,,,,,,,,,,,,,,,,,,,,,,,,,,,,,,,,,,,,,,,,,,,,,,,,
,,,,,740015,1,2024-07-12_18h18.48.003,experiment,2024.1.5,MacIntel,60.24096386,6691931c2c63981b064e1f0c,6691b99fb800d2ace2dde4f9,,,,,,,,,,,,,,,,,,,,,,,,,,,,,,,,,,,,,,,,,,,,,,,,,,,,,,,,,,,,1063.0477,1069.3377,0.262981771,0.229544271,1.0,0.0,0.0,0.2832,compass,0.0,20.0,20.0,1.0,1.0,SoundStimuli/Smooth_SantanaRobThomas_Original5S.wav,,,,,,,,,,,,,,,,,,,,,,,,,,,,,,,,,,,,,,,,,,,,,,,,,,,,
,,,,,740015,1,2024-07-12_18h18.48.003,experiment,2024.1.5,MacIntel,60.24096386,6691931c2c63981b064e1f0c,6691b99fb800d2ace2dde4f9,,,,,,,,,,,,,,,,,,,,,,,,,,,,,,,,,,,,,,,,,,,,,,,,,,,,,,,,,,,,1069.3471,1075.6699,0.050008681,-0.306419271,1.0,0.0,0.0,0.3152,compass,0.0,21.0,21.0,19.0,1.0,SoundStimuli/YouLightUpMyLife_DebbyBoone_Original5S.wav,,,,,,,,,,,,,,,,,,,,,,,,,,,,,,,,,,,,,,,,,,,,,,,,,,,,
,,,,,740015,1,2024-07-12_18h18.48.003,experiment,2024.1.5,MacIntel,60.24096386,6691931c2c63981b064e1f0c,6691b99fb800d2ace2dde4f9,,,,,,,,,,,,,,,,,,,,,,,,,,,,,,,,,,,,,,,,,,,,,,,,,,,,,,,,,,,,1075.6781,1082.3886,0.327947049,0.332855903,1.0,0.0,0.0,0.7017,compass,0.0,22.0,22.0,17.0,1.0,SoundStimuli/IWannaDanceWithSomebody_WhitneyHouston_Original5S.wav,,,,,,,,,,,,,,,,,,,,,,,,,,,,,,,,,,,,,,,,,,,,,,,,,,,,
,,,,,740015,1,2024-07-12_18h18.48.003,experiment,2024.1.5,MacIntel,60.24096386,6691931c2c63981b064e1f0c,6691b99fb800d2ace2dde4f9,,,,,,,,,,,,,,,,,,,,,,,,,,,,,,,,,,,,,,,,,,,,,,,,,,,,,,,,,,,,1082.3982,1088.8375,0.011319444,-0.193211806,1.0,0.0,0.0,0.4321,compass,0.0,23.0,23.0,18.0,1.0,SoundStimuli/Weak_SWV_Cover5S.wav,,,,,,,,,,,,,,,,,,,,,,,,,,,,,,,,,,,,,,,,,,,,,,,,,,,,
,,,,,740015,1,2024-07-12_18h18.48.003,experiment,2024.1.5,MacIntel,60.24096386,6691931c2c63981b064e1f0c,6691b99fb800d2ace2dde4f9,,,,,,,,,,,,,,,,,,,,,,,,,,,,,,,,,,,,,,,,,,,,,,,,,,,,,,,,,,,,1088.8464,1094.9884,0.331671007,0.336319444,1.0,0.0,0.0,0.1332,compass,0.0,24.0,24.0,26.0,1.0,SoundStimuli/TheSign_AceOfBase_Cover5S.wav,,,,,,,,,,,,,,,,,,,,,,,,,,,,,,,,,,,,,,,,,,,,,,,,,,,,
,,,,,740015,1,2024-07-12_18h18.48.003,experiment,2024.1.5,MacIntel,60.24096386,6691931c2c63981b064e1f0c,6691b99fb800d2ace2dde4f9,,,,,,,,,,,,,,,,,,,,,,,,,,,,,,,,,,,,,,,,,,,,,,,,,,,,,,,,,,,,1094.9992,1101.3383,-0.334210069,-0.317851563,1.0,0.0,0.0,0.3329,compass,0.0,25.0,25.0,30.0,1.0,SoundStimuli/SomebodyThatIUsedtoKnow_Gotye_Original5S.wav,,,,,,,,,,,,,,,,,,,,,,,,,,,,,,,,,,,,,,,,,,,,,,,,,,,,
,,,,,740015,1,2024-07-12_18h18.48.003,experiment,2024.1.5,MacIntel,60.24096386,6691931c2c63981b064e1f0c,6691b99fb800d2ace2dde4f9,,,,,,,,,,,,,,,,,,,,,,,,,,,,,,,,,,,,,,,,,,,,,,,,,,,,,,,,,,,,1101.3474,1107.6555,-0.297517361,-0.286666667,1.0,0.0,0.0,0.2995,compass,0.0,26.0,26.0,21.0,1.0,SoundStimuli/BridgeOverTroubledWater_SimonAndGarfunkel_Original5S.wav,,,,,,,,,,,,,,,,,,,,,,,,,,,,,,,,,,,,,,,,,,,,,,,,,,,,
,,,,,740015,1,2024-07-12_18h18.48.003,experiment,2024.1.5,MacIntel,60.24096386,6691931c2c63981b064e1f0c,6691b99fb800d2ace2dde4f9,,,,,,,,,,,,,,,,,,,,,,,,,,,,,,,,,,,,,,,,,,,,,,,,,,,,,,,,,,,,1107.6646,1113.8895,-0.171597222,-0.291861979,1.0,0.0,0.0,0.2181,compass,0.0,27.0,27.0,34.0,1.0,SoundStimuli/Irreplaceable_Beyonce_Cover5S.wav,,,,,,,,,,,,,,,,,,,,,,,,,,,,,,,,,,,,,,,,,,,,,,,,,,,,
,,,,,740015,1,2024-07-12_18h18.48.003,experiment,2024.1.5,MacIntel,60.24096386,6691931c2c63981b064e1f0c,6691b99fb800d2ace2dde4f9,,,,,,,,,,,,,,,,,,,,,,,,,,,,,,,,,,,,,,,,,,,,,,,,,,,,,,,,,,,,1113.8998,1121.2392,0.010625,0.016571181,1.0,0.0,0.0,1.3326,compass,0.0,28.0,28.0,5.0,1.0,SoundStimuli/JoyToTheWorld_ThreeDogNight_Original5S.wav,,,,,,,,,,,,,,,,,,,,,,,,,,,,,,,,,,,,,,,,,,,,,,,,,,,,
,,,,,740015,1,2024-07-12_18h18.48.003,experiment,2024.1.5,MacIntel,60.24096386,6691931c2c63981b064e1f0c,6691b99fb800d2ace2dde4f9,,,,,,,,,,,,,,,,,,,,,,,,,,,,,,,,,,,,,,,,,,,,,,,,,,,,,,,,,,,,1121.2484,1127.8223,0.030850694,-0.162057292,1.0,0.0,0.0,0.5658,compass,0.0,29.0,29.0,4.0,1.0,SoundStimuli/Dreams_FleetwoodMac_Original5S.wav,,,,,,,,,,,,,,,,,,,,,,,,,,,,,,,,,,,,,,,,,,,,,,,,,,,,
,,,,,740015,1,2024-07-12_18h18.48.003,experiment,2024.1.5,MacIntel,60.24096386,6691931c2c63981b064e1f0c,6691b99fb800d2ace2dde4f9,,,,,,,,,,,,,,,,,,,,,,,,,,,,,,,,,,,,,,,,,,,,,,,,,,,,,,,,,,,,1127.8323,1134.1564,-0.261128472,0.244778646,1.0,0.0,0.0,0.3174,compass,0.0,30.0,30.0,31.0,1.0,SoundStimuli/TossinAndTurnin_BobbyLewis_Original5S.wav,,,,,,,,,,,,,,,,,,,,,,,,,,,,,,,,,,,,,,,,,,,,,,,,,,,,
,,,,,740015,1,2024-07-12_18h18.48.003,experiment,2024.1.5,MacIntel,60.24096386,6691931c2c63981b064e1f0c,6691b99fb800d2ace2dde4f9,,,,,,,,,,,,,,,,,,,,,,,,,,,,,,,,,,,,,,,,,,,,,,,,,,,,,,,,,,,,1134.1664,1140.4732,0.173810764,0.160377604,1.0,0.0,0.0,0.2997,compass,0.0,31.0,31.0,27.0,1.0,SoundStimuli/EyeOfTheTiger_Survivor_Cover5S.wav,,,,,,,,,,,,,,,,,,,,,,,,,,,,,,,,,,,,,,,,,,,,,,,,,,,,
,,,,,740015,1,2024-07-12_18h18.48.003,experiment,2024.1.5,MacIntel,60.24096386,6691931c2c63981b064e1f0c,6691b99fb800d2ace2dde4f9,,,,,,,,,,,,,,,,,,,,,,,,,,,,,,,,,,,,,,,,,,,,,,,,,,,,,,,,,,,,1140.4801,1146.8226,0.327708333,0.334335938,1.0,0.0,0.0,0.3326,compass,0.0,32.0,32.0,3.0,1.0,SoundStimuli/PartyRockAnthem_LMFAO_Original5S.wav,,,,,,,,,,,,,,,,,,,,,,,,,,,,,,,,,,,,,,,,,,,,,,,,,,,,
,,,,,740015,1,2024-07-12_18h18.48.003,experiment,2024.1.5,MacIntel,60.24096386,6691931c2c63981b064e1f0c,6691b99fb800d2ace2dde4f9,,,,,,,,,,,,,,,,,,,,,,,,,,,,,,,,,,,,,,,,,,,,,,,,,,,,,,,,,,,,1146.8337,1153.1903,0.049778646,-0.073971354,1.0,0.0,0.0,0.3498,compass,0.0,33.0,33.0,20.0,1.0,SoundStimuli/FlashdanceWhatAFeeling_IreneCara_Original5S.wav,,,,,,,,,,,,,,,,,,,,,,,,,,,,,,,,,,,,,,,,,,,,,,,,,,,,
,,,,,740015,1,2024-07-12_18h18.48.003,experiment,2024.1.5,MacIntel,60.24096386,6691931c2c63981b064e1f0c,6691b99fb800d2ace2dde4f9,,,,,,,,,,,,,,,,,,,,,,,,,,,,,,,,,,,,,,,,,,,,,,,,,,,,,,,,,,,,1153.1983,1159.5573,0.230247396,-0.144197049,1.0,0.0,0.0,0.3505,compass,0.0,34.0,34.0,32.0,1.0,SoundStimuli/Dilemma_NellyKellyRowland_Cover5S.wav,,,,,,,,,,,,,,,,,,,,,,,,,,,,,,,,,,,,,,,,,,,,,,,,,,,,
,,,,,740015,1,2024-07-12_18h18.48.003,experiment,2024.1.5,MacIntel,60.24096386,6691931c2c63981b064e1f0c,6691b99fb800d2ace2dde4f9,,,,,,,,,,,,,,,,,,,,,,,,,,,,,,,,,,,,,,,,,,,,,,,,,,,,,,,,,,,,,,,,,,,,,,,,,,,1159.568,1159.5682,,,,1159.5682,1159.5682,,,,0.0,3.0,3.0,3.0,1.0,block_order/blockD.xlsx,,,,,,,,,,,,,,,,,,,,,,,,,,,,,,,,,,,,
,,,,,740015,1,2024-07-12_18h18.48.003,experiment,2024.1.5,MacIntel,60.24096386,6691931c2c63981b064e1f0c,6691b99fb800d2ace2dde4f9,,,,,,,,,,,,,,,,,,,,,,,,,,,,,,,,,,,,,,,,,,,,,,,,,,,,,,,,,,,,,,,,,,,,,,,,,,,,,,,,,,,,,,,,,,,39.0,Item 2,"Choir all during highschool, band in elementary and middle school.",Item 4,"Radio, spotify, youtube",4.0,5.0,"Driving, cleaning, working outside, exercising",Sometimes,Rarely,Rarely,Rarely,Sometimes,Sometimes,Always,Sometimes,Always,Sometimes,Sometimes,Always,Rarely,Rarely,Often,Often,,Alternative,Pop,Country,Nope,0.0,0.0,0.0,0.0,1.0,,
,,,,,740015,1,2024-07-12_18h18.48.003,experiment,2024.1.5,MacIntel,60.24096386,6691931c2c63981b064e1f0c,6691b99fb800d2ace2dde4f9,,,,,,,,,,,,,,,,,,,,,,,,,,,,,,,,,,,,,,,,,,,,,,,,,,,,,,,,,,,,,,,,,,,,,,,,,,,,,,,,,,,,,,,,,,,,,,,,,,,,,,,,,,,,,,,,,,,,,,,,,,,,,1319.8599,1322.2628
