welcome.started,welcome.stopped,space_to_continue.keys,space_to_continue.rt,space_to_continue.duration,participant,session,date,expName,psychopyVersion,OS,frameRate,STUDY_ID,SESSION_ID,consent.consent,consent.consent_recontact,consent_check.started,consent_check.stopped,calibration_ready.started,calibration_ready.stopped,cal_ready.keys,cal_ready.rt,cal_ready.duration,calibration.started,calibration.stopped,mouse.x,mouse.y,mouse.leftButton,mouse.midButton,mouse.rightButton,mouse.time,mouse.clicked_name,move_on.keys,move_on.rt,move_on.duration,run_cal.thisRepN,run_cal.thisTrialN,run_cal.thisN,run_cal.thisIndex,run_cal.ran,emotion_training_ready.started,emotion_training_ready.stopped,training_move_on.keys,training_move_on.rt,training_move_on.duration,examples.started,examples.stopped,emotion_scale.started,emotion_scale.stopped,scale_next.keys,scale_next.rt,scale_next.duration,instructions.started,instructions.stopped,next.keys,next.rt,next.duration,practice_task.started,practice_task.stopped,mouse_rating_2.x,mouse_rating_2.y,mouse_rating_2.leftButton,mouse_rating_2.midButton,mouse_rating_2.rightButton,mouse_rating_2.time,mouse_rating_2.clicked_name,ready.started,ready.stopped,key_resp.keys,key_resp.rt,key_resp.duration,set_group.started,set_group.stopped,task.started,task.stopped,mouse_rating.x,mouse_rating.y,mouse_rating.leftButton,mouse_rating.midButton,mouse_rating.rightButton,mouse_rating.time,mouse_rating.clicked_name,trials.thisRepN,trials.thisTrialN,trials.thisN,trials.thisIndex,trials.ran,clip,short_break.started,short_break.stopped,space_to_move_on.keys,space_to_move_on.rt,space_to_move_on.duration,instruction_reminder.started,instruction_reminder.stopped,reminder_move_on.keys,reminder_move_on.rt,reminder_move_on.duration,blocks.thisRepN,blocks.thisTrialN,blocks.thisN,blocks.thisIndex,blocks.ran,block,post_survey.age,post_survey.musician,post_survey.music_making,post_survey.listen_time,post_survey.medium,post_survey.music_seeking,post_survey.music_choice,post_survey.activities,post_survey.question1.Latin,post_survey.question1.Jazz,post_survey.question1.Pop,post_survey.question1.Hip hop,post_survey.question1.Electronic (EDM),post_survey.question1.Classic rock,post_survey.question1.A cappella,post_survey.question1.Ambient,post_survey.question1.Alternative rock,post_survey.question1.R&B,post_survey.question1.Folk/indie,post_survey.question1.Classical,post_survey.question1.Disco,post_survey.question1.Country,post_survey.question1.Reggae,post_survey.question1.Metal,post_survey.other_genres,post_survey.genres_ranked.text1,post_survey.genres_ranked.text2,post_survey.genres_ranked.text3,post_survey.habit_change,post_survey.habits,show_exp.thisRepN,show_exp.thisTrialN,show_exp.thisN,show_exp.thisIndex,show_exp.ran,goodbye.started,goodbye.stopped
0.0075,3.3068,space,3.2758,,753153,1,2024-07-12_17h28.52.294,experiment,2024.1.5,Win32,59.88023952,6691931c2c63981b064e1f0c,6691bbbfa334351baf4fd09a,,,,,,,,,,,,,,,,,,,,,,,,,,,,,,,,,,,,,,,,,,,,,,,,,,,,,,,,,,,,,,,,,,,,,,,,,,,,,,,,,,,,,,,,,,,,,,,,,,,,,,,,,,,,,,,,,,,,,,,,,,,,,,,
,,,,,753153,1,2024-07-12_17h28.52.294,experiment,2024.1.5,Win32,59.88023952,6691931c2c63981b064e1f0c,6691bbbfa334351baf4fd09a,yes,yes,,,,,,,,,,,,,,,,,,,,,,,,,,,,,,,,,,,,,,,,,,,,,,,,,,,,,,,,,,,,,,,,,,,,,,,,,,,,,,,,,,,,,,,,,,,,,,,,,,,,,,,,,,,,,,,,,,,,,,,,,,,,,
,,,,,753153,1,2024-07-12_17h28.52.294,experiment,2024.1.5,Win32,59.88023952,6691931c2c63981b064e1f0c,6691bbbfa334351baf4fd09a,,,80.6807,80.6809,,,,,,,,,,,,,,,,,,,,,,,,,,,,,,,,,,,,,,,,,,,,,,,,,,,,,,,,,,,,,,,,,,,,,,,,,,,,,,,,,,,,,,,,,,,,,,,,,,,,,,,,,,,,,,,,,,,,,,,,,,,
,,,,,753153,1,2024-07-12_17h28.52.294,experiment,2024.1.5,Win32,59.88023952,6691931c2c63981b064e1f0c,6691bbbfa334351baf4fd09a,,,,,80.6828,87.2099,space,6.5043,,87.2249,103.332,[],[],[],[],[],[],[],n,15.0622,,0.0,0.0,0.0,0.0,1.0,,,,,,,,,,,,,,,,,,,,,,,,,,,,,,,,,,,,,,,,,,,,,,,,,,,,,,,,,,,,,,,,,,,,,,,,,,,,,,,,,,,,,,,,,,,,,,,,,,,,,
,,,,,753153,1,2024-07-12_17h28.52.294,experiment,2024.1.5,Win32,59.88023952,6691931c2c63981b064e1f0c,6691bbbfa334351baf4fd09a,,,,,,,,,,103.3562,106.859,[],[],[],[],[],[],[],n,2.4734,,1.0,0.0,1.0,0.0,1.0,,,,,,,,,,,,,,,,,,,,,,,,,,,,,,,,,,,,,,,,,,,,,,,,,,,,,,,,,,,,,,,,,,,,,,,,,,,,,,,,,,,,,,,,,,,,,,,,,,,,,
,,,,,753153,1,2024-07-12_17h28.52.294,experiment,2024.1.5,Win32,59.88023952,6691931c2c63981b064e1f0c,6691bbbfa334351baf4fd09a,,,,,,,,,,106.8804,124.9097,[],[],[],[],[],[],[],n,16.9865,,2.0,0.0,2.0,0.0,1.0,,,,,,,,,,,,,,,,,,,,,,,,,,,,,,,,,,,,,,,,,,,,,,,,,,,,,,,,,,,,,,,,,,,,,,,,,,,,,,,,,,,,,,,,,,,,,,,,,,,,,
,,,,,753153,1,2024-07-12_17h28.52.294,experiment,2024.1.5,Win32,59.88023952,6691931c2c63981b064e1f0c,6691bbbfa334351baf4fd09a,,,,,,,,,,124.9254,127.6796,[],[],[],[],[],[],[],n,1.7325,,3.0,0.0,3.0,0.0,1.0,,,,,,,,,,,,,,,,,,,,,,,,,,,,,,,,,,,,,,,,,,,,,,,,,,,,,,,,,,,,,,,,,,,,,,,,,,,,,,,,,,,,,,,,,,,,,,,,,,,,,
,,,,,753153,1,2024-07-12_17h28.52.294,experiment,2024.1.5,Win32,59.88023952,6691931c2c63981b064e1f0c,6691bbbfa334351baf4fd09a,,,,,,,,,,127.6802,137.7885,[],[],[],[],[],[],[],n,9.0774,,4.0,0.0,4.0,0.0,1.0,,,,,,,,,,,,,,,,,,,,,,,,,,,,,,,,,,,,,,,,,,,,,,,,,,,,,,,,,,,,,,,,,,,,,,,,,,,,,,,,,,,,,,,,,,,,,,,,,,,,,
,,,,,753153,1,2024-07-12_17h28.52.294,experiment,2024.1.5,Win32,59.88023952,6691931c2c63981b064e1f0c,6691bbbfa334351baf4fd09a,,,,,,,,,,,,,,,,,,,,,,,,,,,137.8136,148.7415,space,10.8817,,148.7419,268.7539,268.7544,281.2142,right,8.9254,,281.2143,292.7877,space,11.5356,,292.7879,300.9726,0.18240745,-0.172222208,1.0,0.0,0.0,2.1794,compass_2,300.973,302.9557,space,1.9621,,302.9562,302.9572,303.0077,309.5322,0.194444444,0.124074053,1.0,0.0,0.0,0.5164,compass,0.0,0.0,0.0,31.0,1.0,SoundStimuli/TheBattleOfNewOrleans_JohnnyHorton_Original5S.wav,,,,,,,,,,,,,,,,,,,,,,,,,,,,,,,,,,,,,,,,,,,,,,,,,,,,,
,,,,,753153,1,2024-07-12_17h28.52.294,experiment,2024.1.5,Win32,59.88023952,6691931c2c63981b064e1f0c,6691bbbfa334351baf4fd09a,,,,,,,,,,,,,,,,,,,,,,,,,,,,,,,,,,,,,,,,,,,,,,,,,,,,,,,,,,,,309.5415,316.1262,0.162962949,-0.147222236,1.0,0.0,0.0,0.5827,compass,0.0,1.0,1.0,18.0,1.0,SoundStimuli/AnotherOneBitesTheDust_Queen_Cover5S.wav,,,,,,,,,,,,,,,,,,,,,,,,,,,,,,,,,,,,,,,,,,,,,,,,,,,,,
,,,,,753153,1,2024-07-12_17h28.52.294,experiment,2024.1.5,Win32,59.88023952,6691931c2c63981b064e1f0c,6691bbbfa334351baf4fd09a,,,,,,,,,,,,,,,,,,,,,,,,,,,,,,,,,,,,,,,,,,,,,,,,,,,,,,,,,,,,316.1357,322.5372,0.175000014,0.12037037,1.0,0.0,0.0,0.3996,compass,0.0,2.0,2.0,0.0,1.0,SoundStimuli/StayinAlive_BeeGees_Cover5S.wav,,,,,,,,,,,,,,,,,,,,,,,,,,,,,,,,,,,,,,,,,,,,,,,,,,,,,
,,,,,753153,1,2024-07-12_17h28.52.294,experiment,2024.1.5,Win32,59.88023952,6691931c2c63981b064e1f0c,6691bbbfa334351baf4fd09a,,,,,,,,,,,,,,,,,,,,,,,,,,,,,,,,,,,,,,,,,,,,,,,,,,,,,,,,,,,,322.5454,329.1317,0.175000014,0.12037037,1.0,0.0,0.0,0.5829,compass,0.0,3.0,3.0,5.0,1.0,SoundStimuli/MyGirl_TheTemptations_Cover5S.wav,,,,,,,,,,,,,,,,,,,,,,,,,,,,,,,,,,,,,,,,,,,,,,,,,,,,,
,,,,,753153,1,2024-07-12_17h28.52.294,experiment,2024.1.5,Win32,59.88023952,6691931c2c63981b064e1f0c,6691bbbfa334351baf4fd09a,,,,,,,,,,,,,,,,,,,,,,,,,,,,,,,,,,,,,,,,,,,,,,,,,,,,,,,,,,,,329.1427,335.5925,-0.138888889,0.072222215,1.0,0.0,0.0,0.4495,compass,0.0,4.0,4.0,1.0,1.0,SoundStimuli/Stronger_KanyeWest_Cover5S.wav,,,,,,,,,,,,,,,,,,,,,,,,,,,,,,,,,,,,,,,,,,,,,,,,,,,,,
,,,,,753153,1,2024-07-12_17h28.52.294,experiment,2024.1.5,Win32,59.88023952,6691931c2c63981b064e1f0c,6691bbbfa334351baf4fd09a,,,,,,,,,,,,,,,,,,,,,,,,,,,,,,,,,,,,,,,,,,,,,,,,,,,,,,,,,,,,335.6006,342.0207,-0.138888889,0.072222215,1.0,0.0,0.0,0.4157,compass,0.0,5.0,5.0,28.0,1.0,SoundStimuli/ComeAndGetYourLove_Redbone_Cover5S.wav,,,,,,,,,,,,,,,,,,,,,,,,,,,,,,,,,,,,,,,,,,,,,,,,,,,,,
,,,,,753153,1,2024-07-12_17h28.52.294,experiment,2024.1.5,Win32,59.88023952,6691931c2c63981b064e1f0c,6691bbbfa334351baf4fd09a,,,,,,,,,,,,,,,,,,,,,,,,,,,,,,,,,,,,,,,,,,,,,,,,,,,,,,,,,,,,342.0353,348.7648,0.128703718,0.098148134,1.0,0.0,0.0,0.7163,compass,0.0,6.0,6.0,20.0,1.0,SoundStimuli/HeyYa_Outkast_Original5S.wav,,,,,,,,,,,,,,,,,,,,,,,,,,,,,,,,,,,,,,,,,,,,,,,,,,,,,
,,,,,753153,1,2024-07-12_17h28.52.294,experiment,2024.1.5,Win32,59.88023952,6691931c2c63981b064e1f0c,6691bbbfa334351baf4fd09a,,,,,,,,,,,,,,,,,,,,,,,,,,,,,,,,,,,,,,,,,,,,,,,,,,,,,,,,,,,,348.7767,355.3925,0.128703718,0.098148134,1.0,0.0,0.0,0.5999,compass,0.0,7.0,7.0,30.0,1.0,SoundStimuli/PokerFace_LadyGaga_Cover5S.wav,,,,,,,,,,,,,,,,,,,,,,,,,,,,,,,,,,,,,,,,,,,,,,,,,,,,,
,,,,,753153,1,2024-07-12_17h28.52.294,experiment,2024.1.5,Win32,59.88023952,6691931c2c63981b064e1f0c,6691bbbfa334351baf4fd09a,,,,,,,,,,,,,,,,,,,,,,,,,,,,,,,,,,,,,,,,,,,,,,,,,,,,,,,,,,,,355.4069,362.0196,0.128703718,0.098148134,1.0,0.0,0.0,0.5989,compass,0.0,8.0,8.0,6.0,1.0,SoundStimuli/Levitating_DuaLipa_Original5S.wav,,,,,,,,,,,,,,,,,,,,,,,,,,,,,,,,,,,,,,,,,,,,,,,,,,,,,
,,,,,753153,1,2024-07-12_17h28.52.294,experiment,2024.1.5,Win32,59.88023952,6691931c2c63981b064e1f0c,6691bbbfa334351baf4fd09a,,,,,,,,,,,,,,,,,,,,,,,,,,,,,,,,,,,,,,,,,,,,,,,,,,,,,,,,,,,,362.0315,368.0642,0.128703718,0.098148134,1.0,0.0,0.0,0.0166,compass,0.0,9.0,9.0,16.0,1.0,SoundStimuli/BohemianRhapsody_Queen_Cover5S.wav,,,,,,,,,,,,,,,,,,,,,,,,,,,,,,,,,,,,,,,,,,,,,,,,,,,,,
,,,,,753153,1,2024-07-12_17h28.52.294,experiment,2024.1.5,Win32,59.88023952,6691931c2c63981b064e1f0c,6691bbbfa334351baf4fd09a,,,,,,,,,,,,,,,,,,,,,,,,,,,,,,,,,,,,,,,,,,,,,,,,,,,,,,,,,,,,368.0724,374.6754,0.193518533,-0.091666681,1.0,0.0,0.0,0.5944,compass,0.0,10.0,10.0,34.0,1.0,SoundStimuli/AChangeIsGonnaCome_SamCooke_Original5S.wav,,,,,,,,,,,,,,,,,,,,,,,,,,,,,,,,,,,,,,,,,,,,,,,,,,,,,
,,,,,753153,1,2024-07-12_17h28.52.294,experiment,2024.1.5,Win32,59.88023952,6691931c2c63981b064e1f0c,6691bbbfa334351baf4fd09a,,,,,,,,,,,,,,,,,,,,,,,,,,,,,,,,,,,,,,,,,,,,,,,,,,,,,,,,,,,,374.6915,381.9028,0.137962977,0.213888892,1.0,0.0,0.0,1.1927,compass,0.0,11.0,11.0,14.0,1.0,SoundStimuli/BlindingLights_TheWeeknd_Cover5S.wav,,,,,,,,,,,,,,,,,,,,,,,,,,,,,,,,,,,,,,,,,,,,,,,,,,,,,
,,,,,753153,1,2024-07-12_17h28.52.294,experiment,2024.1.5,Win32,59.88023952,6691931c2c63981b064e1f0c,6691bbbfa334351baf4fd09a,,,,,,,,,,,,,,,,,,,,,,,,,,,,,,,,,,,,,,,,,,,,,,,,,,,,,,,,,,,,381.9172,388.4971,0.227777764,-0.119444459,1.0,0.0,0.0,0.5593,compass,0.0,12.0,12.0,27.0,1.0,SoundStimuli/ShapeofYou_EdSheeran_Cover5S.wav,,,,,,,,,,,,,,,,,,,,,,,,,,,,,,,,,,,,,,,,,,,,,,,,,,,,,
,,,,,753153,1,2024-07-12_17h28.52.294,experiment,2024.1.5,Win32,59.88023952,6691931c2c63981b064e1f0c,6691bbbfa334351baf4fd09a,,,,,,,,,,,,,,,,,,,,,,,,,,,,,,,,,,,,,,,,,,,,,,,,,,,,,,,,,,,,388.5112,394.9926,-0.203703704,-0.188888903,1.0,0.0,0.0,0.4591,compass,0.0,13.0,13.0,10.0,1.0,SoundStimuli/BadDay_DanielPowter_Original5S.wav,,,,,,,,,,,,,,,,,,,,,,,,,,,,,,,,,,,,,,,,,,,,,,,,,,,,,
,,,,,753153,1,2024-07-12_17h28.52.294,experiment,2024.1.5,Win32,59.88023952,6691931c2c63981b064e1f0c,6691bbbfa334351baf4fd09a,,,,,,,,,,,,,,,,,,,,,,,,,,,,,,,,,,,,,,,,,,,,,,,,,,,,,,,,,,,,395.0178,403.5003,0.088888875,0.072222215,1.0,0.0,0.0,2.4802,compass,0.0,14.0,14.0,11.0,1.0,SoundStimuli/Superstition_StevieWonder_Original5S.wav,,,,,,,,,,,,,,,,,,,,,,,,,,,,,,,,,,,,,,,,,,,,,,,,,,,,,
,,,,,753153,1,2024-07-12_17h28.52.294,experiment,2024.1.5,Win32,59.88023952,6691931c2c63981b064e1f0c,6691bbbfa334351baf4fd09a,,,,,,,,,,,,,,,,,,,,,,,,,,,,,,,,,,,,,,,,,,,,,,,,,,,,,,,,,,,,403.5107,410.0508,0.088888875,0.072222215,1.0,0.0,0.0,0.5339,compass,0.0,15.0,15.0,8.0,1.0,SoundStimuli/LikeAPrayer_Madonna_Cover5S.wav,,,,,,,,,,,,,,,,,,,,,,,,,,,,,,,,,,,,,,,,,,,,,,,,,,,,,
,,,,,753153,1,2024-07-12_17h28.52.294,experiment,2024.1.5,Win32,59.88023952,6691931c2c63981b064e1f0c,6691bbbfa334351baf4fd09a,,,,,,,,,,,,,,,,,,,,,,,,,,,,,,,,,,,,,,,,,,,,,,,,,,,,,,,,,,,,410.0651,416.6221,0.088888875,0.072222215,1.0,0.0,0.0,0.5488,compass,0.0,16.0,16.0,9.0,1.0,SoundStimuli/Despacito_LuisFonsiDaddyYankee_Original5S.wav,,,,,,,,,,,,,,,,,,,,,,,,,,,,,,,,,,,,,,,,,,,,,,,,,,,,,
,,,,,753153,1,2024-07-12_17h28.52.294,experiment,2024.1.5,Win32,59.88023952,6691931c2c63981b064e1f0c,6691bbbfa334351baf4fd09a,,,,,,,,,,,,,,,,,,,,,,,,,,,,,,,,,,,,,,,,,,,,,,,,,,,,,,,,,,,,416.6341,423.1999,-0.085185157,-0.161111125,1.0,0.0,0.0,0.5609,compass,0.0,17.0,17.0,29.0,1.0,SoundStimuli/OldTownRoad_LilNasX_Cover5S.wav,,,,,,,,,,,,,,,,,,,,,,,,,,,,,,,,,,,,,,,,,,,,,,,,,,,,,
,,,,,753153,1,2024-07-12_17h28.52.294,experiment,2024.1.5,Win32,59.88023952,6691931c2c63981b064e1f0c,6691bbbfa334351baf4fd09a,,,,,,,,,,,,,,,,,,,,,,,,,,,,,,,,,,,,,,,,,,,,,,,,,,,,,,,,,,,,423.2205,430.0504,0.179629644,-0.175000014,1.0,0.0,0.0,0.8147,compass,0.0,18.0,18.0,22.0,1.0,SoundStimuli/RockWithYou_MichaelJackson_Cover5S.wav,,,,,,,,,,,,,,,,,,,,,,,,,,,,,,,,,,,,,,,,,,,,,,,,,,,,,
,,,,,753153,1,2024-07-12_17h28.52.294,experiment,2024.1.5,Win32,59.88023952,6691931c2c63981b064e1f0c,6691bbbfa334351baf4fd09a,,,,,,,,,,,,,,,,,,,,,,,,,,,,,,,,,,,,,,,,,,,,,,,,,,,,,,,,,,,,430.0659,436.5558,0.152777778,0.067592586,1.0,0.0,0.0,0.4826,compass,0.0,19.0,19.0,3.0,1.0,SoundStimuli/NoScrubs_TLC_Cover5S.wav,,,,,,,,,,,,,,,,,,,,,,,,,,,,,,,,,,,,,,,,,,,,,,,,,,,,,
,,,,,753153,1,2024-07-12_17h28.52.294,experiment,2024.1.5,Win32,59.88023952,6691931c2c63981b064e1f0c,6691bbbfa334351baf4fd09a,,,,,,,,,,,,,,,,,,,,,,,,,,,,,,,,,,,,,,,,,,,,,,,,,,,,,,,,,,,,436.5808,443.7655,0.092592593,-0.130555541,1.0,0.0,0.0,1.1762,compass,0.0,20.0,20.0,33.0,1.0,SoundStimuli/StandByMe_BenEKing_Original5S.wav,,,,,,,,,,,,,,,,,,,,,,,,,,,,,,,,,,,,,,,,,,,,,,,,,,,,,
,,,,,753153,1,2024-07-12_17h28.52.294,experiment,2024.1.5,Win32,59.88023952,6691931c2c63981b064e1f0c,6691bbbfa334351baf4fd09a,,,,,,,,,,,,,,,,,,,,,,,,,,,,,,,,,,,,,,,,,,,,,,,,,,,,,,,,,,,,443.7848,450.2,-0.104629587,0.12962963,1.0,0.0,0.0,0.3999,compass,0.0,21.0,21.0,26.0,1.0,SoundStimuli/LivinOnAPrayer_BonJovi_Original5S.wav,,,,,,,,,,,,,,,,,,,,,,,,,,,,,,,,,,,,,,,,,,,,,,,,,,,,,
,,,,,753153,1,2024-07-12_17h28.52.294,experiment,2024.1.5,Win32,59.88023952,6691931c2c63981b064e1f0c,6691bbbfa334351baf4fd09a,,,,,,,,,,,,,,,,,,,,,,,,,,,,,,,,,,,,,,,,,,,,,,,,,,,,,,,,,,,,450.2181,457.3703,-0.059259273,0.139814801,1.0,0.0,0.0,1.1425,compass,0.0,22.0,22.0,19.0,1.0,SoundStimuli/LetsGetItOn_MarvinGaye_Original5S.wav,,,,,,,,,,,,,,,,,,,,,,,,,,,,,,,,,,,,,,,,,,,,,,,,,,,,,
,,,,,753153,1,2024-07-12_17h28.52.294,experiment,2024.1.5,Win32,59.88023952,6691931c2c63981b064e1f0c,6691bbbfa334351baf4fd09a,,,,,,,,,,,,,,,,,,,,,,,,,,,,,,,,,,,,,,,,,,,,,,,,,,,,,,,,,,,,457.3916,463.8642,0.108333376,0.125925912,1.0,0.0,0.0,0.4597,compass,0.0,23.0,23.0,24.0,1.0,SoundStimuli/UptownFunk_MarkRonson_Cover5S.wav,,,,,,,,,,,,,,,,,,,,,,,,,,,,,,,,,,,,,,,,,,,,,,,,,,,,,
,,,,,753153,1,2024-07-12_17h28.52.294,experiment,2024.1.5,Win32,59.88023952,6691931c2c63981b064e1f0c,6691bbbfa334351baf4fd09a,,,,,,,,,,,,,,,,,,,,,,,,,,,,,,,,,,,,,,,,,,,,,,,,,,,,,,,,,,,,463.8767,470.4087,0.080555598,-0.154629672,1.0,0.0,0.0,0.5262,compass,0.0,24.0,24.0,2.0,1.0,SoundStimuli/Mood_24kGoldnianndior_Original5S.wav,,,,,,,,,,,,,,,,,,,,,,,,,,,,,,,,,,,,,,,,,,,,,,,,,,,,,
,,,,,753153,1,2024-07-12_17h28.52.294,experiment,2024.1.5,Win32,59.88023952,6691931c2c63981b064e1f0c,6691bbbfa334351baf4fd09a,,,,,,,,,,,,,,,,,,,,,,,,,,,,,,,,,,,,,,,,,,,,,,,,,,,,,,,,,,,,470.4227,477.7419,-0.205555527,-0.218518504,1.0,0.0,0.0,1.2978,compass,0.0,25.0,25.0,7.0,1.0,SoundStimuli/NoOne_AliciaKeys_Original5S.wav,,,,,,,,,,,,,,,,,,,,,,,,,,,,,,,,,,,,,,,,,,,,,,,,,,,,,
,,,,,753153,1,2024-07-12_17h28.52.294,experiment,2024.1.5,Win32,59.88023952,6691931c2c63981b064e1f0c,6691bbbfa334351baf4fd09a,,,,,,,,,,,,,,,,,,,,,,,,,,,,,,,,,,,,,,,,,,,,,,,,,,,,,,,,,,,,477.7557,484.5808,-0.198148162,0.148148148,1.0,0.0,0.0,0.8166,compass,0.0,26.0,26.0,23.0,1.0,SoundStimuli/StrawberryFieldsForever_TheBeatles_Cover5S.wav,,,,,,,,,,,,,,,,,,,,,,,,,,,,,,,,,,,,,,,,,,,,,,,,,,,,,
,,,,,753153,1,2024-07-12_17h28.52.294,experiment,2024.1.5,Win32,59.88023952,6691931c2c63981b064e1f0c,6691bbbfa334351baf4fd09a,,,,,,,,,,,,,,,,,,,,,,,,,,,,,,,,,,,,,,,,,,,,,,,,,,,,,,,,,,,,484.6001,491.6569,0.068518533,-0.071296303,1.0,0.0,0.0,1.0424,compass,0.0,27.0,27.0,17.0,1.0,SoundStimuli/Fallin_AliciaKeys_Cover5S.wav,,,,,,,,,,,,,,,,,,,,,,,,,,,,,,,,,,,,,,,,,,,,,,,,,,,,,
,,,,,753153,1,2024-07-12_17h28.52.294,experiment,2024.1.5,Win32,59.88023952,6691931c2c63981b064e1f0c,6691bbbfa334351baf4fd09a,,,,,,,,,,,,,,,,,,,,,,,,,,,,,,,,,,,,,,,,,,,,,,,,,,,,,,,,,,,,491.6761,498.9762,0.068518533,-0.074074074,1.0,0.0,0.0,1.2829,compass,0.0,28.0,28.0,13.0,1.0,SoundStimuli/GodOnlyKnows_TheBeachBoys_Original5S.wav,,,,,,,,,,,,,,,,,,,,,,,,,,,,,,,,,,,,,,,,,,,,,,,,,,,,,
,,,,,753153,1,2024-07-12_17h28.52.294,experiment,2024.1.5,Win32,59.88023952,6691931c2c63981b064e1f0c,6691bbbfa334351baf4fd09a,,,,,,,,,,,,,,,,,,,,,,,,,,,,,,,,,,,,,,,,,,,,,,,,,,,,,,,,,,,,498.9975,505.5948,0.070370356,0.043518526,1.0,0.0,0.0,0.583,compass,0.0,29.0,29.0,15.0,1.0,SoundStimuli/TikTok_Kesha_Original5S.wav,,,,,,,,,,,,,,,,,,,,,,,,,,,,,,,,,,,,,,,,,,,,,,,,,,,,,
,,,,,753153,1,2024-07-12_17h28.52.294,experiment,2024.1.5,Win32,59.88023952,6691931c2c63981b064e1f0c,6691bbbfa334351baf4fd09a,,,,,,,,,,,,,,,,,,,,,,,,,,,,,,,,,,,,,,,,,,,,,,,,,,,,,,,,,,,,505.6119,512.1393,0.062037079,0.044444437,1.0,0.0,0.0,0.5161,compass,0.0,30.0,30.0,21.0,1.0,SoundStimuli/GoodGollyMissMolly_LittleRichard_Original5S.wav,,,,,,,,,,,,,,,,,,,,,,,,,,,,,,,,,,,,,,,,,,,,,,,,,,,,,
,,,,,753153,1,2024-07-12_17h28.52.294,experiment,2024.1.5,Win32,59.88023952,6691931c2c63981b064e1f0c,6691bbbfa334351baf4fd09a,,,,,,,,,,,,,,,,,,,,,,,,,,,,,,,,,,,,,,,,,,,,,,,,,,,,,,,,,,,,512.1598,518.7668,0.062037079,0.044444437,1.0,0.0,0.0,0.5911,compass,0.0,31.0,31.0,4.0,1.0,SoundStimuli/GetUrFreakOn_MissyElliot_Cover5S.wav,,,,,,,,,,,,,,,,,,,,,,,,,,,,,,,,,,,,,,,,,,,,,,,,,,,,,
,,,,,753153,1,2024-07-12_17h28.52.294,experiment,2024.1.5,Win32,59.88023952,6691931c2c63981b064e1f0c,6691bbbfa334351baf4fd09a,,,,,,,,,,,,,,,,,,,,,,,,,,,,,,,,,,,,,,,,,,,,,,,,,,,,,,,,,,,,518.7858,525.4774,-0.071296268,0.082407386,1.0,0.0,0.0,0.6825,compass,0.0,32.0,32.0,12.0,1.0,SoundStimuli/IWillAlwaysLoveYou_WhitneyHouston_Original5S.wav,,,,,,,,,,,,,,,,,,,,,,,,,,,,,,,,,,,,,,,,,,,,,,,,,,,,,
,,,,,753153,1,2024-07-12_17h28.52.294,experiment,2024.1.5,Win32,59.88023952,6691931c2c63981b064e1f0c,6691bbbfa334351baf4fd09a,,,,,,,,,,,,,,,,,,,,,,,,,,,,,,,,,,,,,,,,,,,,,,,,,,,,,,,,,,,,525.4909,531.9902,0.115740741,0.062962956,1.0,0.0,0.0,0.477,compass,0.0,33.0,33.0,32.0,1.0,SoundStimuli/HeatWaves_GlassAnimals_Cover5S.wav,,,,,,,,,,,,,,,,,,,,,,,,,,,,,,,,,,,,,,,,,,,,,,,,,,,,,
,,,,,753153,1,2024-07-12_17h28.52.294,experiment,2024.1.5,Win32,59.88023952,6691931c2c63981b064e1f0c,6691bbbfa334351baf4fd09a,,,,,,,,,,,,,,,,,,,,,,,,,,,,,,,,,,,,,,,,,,,,,,,,,,,,,,,,,,,,532.0109,538.4664,-0.057407379,0.087037016,1.0,0.0,0.0,0.4499,compass,0.0,34.0,34.0,25.0,1.0,SoundStimuli/Respect_ArethaFranklin_Cover5S.wav,,,,,,,,,,,,,,,,,,,,,,,,,,,,,,,,,,,,,,,,,,,,,,,,,,,,,
,,,,,753153,1,2024-07-12_17h28.52.294,experiment,2024.1.5,Win32,59.88023952,6691931c2c63981b064e1f0c,6691bbbfa334351baf4fd09a,,,,,,,,,,,,,,,,,,,,,,,,,,,,,,,,,,,,,,,,,,,,,,,,,,,,,,,,,,,,,,,,,,,,,,,,,,,538.4856,580.4571,space,41.9527,,580.4577,589.142,right,8.6448,,0.0,0.0,0.0,0.0,1.0,block_order/blockC.xlsx,,,,,,,,,,,,,,,,,,,,,,,,,,,,,,,,,,,,,
,,,,,753153,1,2024-07-12_17h28.52.294,experiment,2024.1.5,Win32,59.88023952,6691931c2c63981b064e1f0c,6691bbbfa334351baf4fd09a,,,,,,,,,,,,,,,,,,,,,,,,,,,,,,,,,,,,,,,,,,,,,,,,,,,,,,,,,,,,589.1547,597.0573,-0.069444444,-0.136111153,1.0,0.0,0.0,1.8955,compass,0.0,0.0,0.0,29.0,1.0,SoundStimuli/BetteDavisEyes_KimCarnes_Cover5S.wav,,,,,,,,,,,,,,,,,,,,,,,,,,,,,,,,,,,,,,,,,,,,,,,,,,,,,
,,,,,753153,1,2024-07-12_17h28.52.294,experiment,2024.1.5,Win32,59.88023952,6691931c2c63981b064e1f0c,6691bbbfa334351baf4fd09a,,,,,,,,,,,,,,,,,,,,,,,,,,,,,,,,,,,,,,,,,,,,,,,,,,,,,,,,,,,,597.0685,603.6679,-0.182407379,0.1324074,1.0,0.0,0.0,0.5844,compass,0.0,1.0,1.0,31.0,1.0,SoundStimuli/TossinAndTurnin_BobbyLewis_Cover5S.wav,,,,,,,,,,,,,,,,,,,,,,,,,,,,,,,,,,,,,,,,,,,,,,,,,,,,,
,,,,,753153,1,2024-07-12_17h28.52.294,experiment,2024.1.5,Win32,59.88023952,6691931c2c63981b064e1f0c,6691bbbfa334351baf4fd09a,,,,,,,,,,,,,,,,,,,,,,,,,,,,,,,,,,,,,,,,,,,,,,,,,,,,,,,,,,,,603.6848,610.141,-0.137962977,0.172222208,1.0,0.0,0.0,0.4332,compass,0.0,2.0,2.0,27.0,1.0,SoundStimuli/EyeOfTheTiger_Survivor_Original5S.wav,,,,,,,,,,,,,,,,,,,,,,,,,,,,,,,,,,,,,,,,,,,,,,,,,,,,,
,,,,,753153,1,2024-07-12_17h28.52.294,experiment,2024.1.5,Win32,59.88023952,6691931c2c63981b064e1f0c,6691bbbfa334351baf4fd09a,,,,,,,,,,,,,,,,,,,,,,,,,,,,,,,,,,,,,,,,,,,,,,,,,,,,,,,,,,,,610.1504,616.9544,-0.141666624,-0.076851845,1.0,0.0,0.0,0.7853,compass,0.0,3.0,3.0,8.0,1.0,SoundStimuli/EndlessLove_DianaRossLionelRichie_Original5S.wav,,,,,,,,,,,,,,,,,,,,,,,,,,,,,,,,,,,,,,,,,,,,,,,,,,,,,
,,,,,753153,1,2024-07-12_17h28.52.294,experiment,2024.1.5,Win32,59.88023952,6691931c2c63981b064e1f0c,6691bbbfa334351baf4fd09a,,,,,,,,,,,,,,,,,,,,,,,,,,,,,,,,,,,,,,,,,,,,,,,,,,,,,,,,,,,,616.9792,623.7247,0.063888903,0.048148155,1.0,0.0,0.0,0.7215,compass,0.0,4.0,4.0,3.0,1.0,SoundStimuli/PartyRockAnthem_LMFAO_Cover5S.wav,,,,,,,,,,,,,,,,,,,,,,,,,,,,,,,,,,,,,,,,,,,,,,,,,,,,,
,,,,,753153,1,2024-07-12_17h28.52.294,experiment,2024.1.5,Win32,59.88023952,6691931c2c63981b064e1f0c,6691bbbfa334351baf4fd09a,,,,,,,,,,,,,,,,,,,,,,,,,,,,,,,,,,,,,,,,,,,,,,,,,,,,,,,,,,,,623.7402,629.8705,0.063888903,0.048148155,1.0,0.0,0.0,0.1179,compass,0.0,5.0,5.0,12.0,1.0,SoundStimuli/UnbreakMyHeart_ToniBraxton_Cover5S.wav,,,,,,,,,,,,,,,,,,,,,,,,,,,,,,,,,,,,,,,,,,,,,,,,,,,,,
,,,,,753153,1,2024-07-12_17h28.52.294,experiment,2024.1.5,Win32,59.88023952,6691931c2c63981b064e1f0c,6691bbbfa334351baf4fd09a,,,,,,,,,,,,,,,,,,,,,,,,,,,,,,,,,,,,,,,,,,,,,,,,,,,,,,,,,,,,629.8856,637.6215,-0.053703661,-0.083333333,1.0,0.0,0.0,1.7294,compass,0.0,6.0,6.0,21.0,1.0,SoundStimuli/BridgeOverTroubledWater_SimonAndGarfunkel_Cover5S.wav,,,,,,,,,,,,,,,,,,,,,,,,,,,,,,,,,,,,,,,,,,,,,,,,,,,,,
,,,,,753153,1,2024-07-12_17h28.52.294,experiment,2024.1.5,Win32,59.88023952,6691931c2c63981b064e1f0c,6691bbbfa334351baf4fd09a,,,,,,,,,,,,,,,,,,,,,,,,,,,,,,,,,,,,,,,,,,,,,,,,,,,,,,,,,,,,637.6392,644.3704,0.054629644,-0.063888903,1.0,0.0,0.0,0.7226,compass,0.0,7.0,7.0,30.0,1.0,SoundStimuli/SomebodyThatIUsedtoKnow_Gotye_Cover5S.wav,,,,,,,,,,,,,,,,,,,,,,,,,,,,,,,,,,,,,,,,,,,,,,,,,,,,,
,,,,,753153,1,2024-07-12_17h28.52.294,experiment,2024.1.5,Win32,59.88023952,6691931c2c63981b064e1f0c,6691bbbfa334351baf4fd09a,,,,,,,,,,,,,,,,,,,,,,,,,,,,,,,,,,,,,,,,,,,,,,,,,,,,,,,,,,,,644.3846,650.9403,0.07222225,-0.08425928,1.0,0.0,0.0,0.5426,compass,0.0,8.0,8.0,32.0,1.0,SoundStimuli/Dilemma_NellyKellyRowland_Original5S.wav,,,,,,,,,,,,,,,,,,,,,,,,,,,,,,,,,,,,,,,,,,,,,,,,,,,,,
,,,,,753153,1,2024-07-12_17h28.52.294,experiment,2024.1.5,Win32,59.88023952,6691931c2c63981b064e1f0c,6691bbbfa334351baf4fd09a,,,,,,,,,,,,,,,,,,,,,,,,,,,,,,,,,,,,,,,,,,,,,,,,,,,,,,,,,,,,650.9597,657.5785,-0.047222208,0.038888896,1.0,0.0,0.0,0.5954,compass,0.0,9.0,9.0,33.0,1.0,SoundStimuli/TheBoyIsMine_BrandyMonica_Cover5S.wav,,,,,,,,,,,,,,,,,,,,,,,,,,,,,,,,,,,,,,,,,,,,,,,,,,,,,
,,,,,753153,1,2024-07-12_17h28.52.294,experiment,2024.1.5,Win32,59.88023952,6691931c2c63981b064e1f0c,6691bbbfa334351baf4fd09a,,,,,,,,,,,,,,,,,,,,,,,,,,,,,,,,,,,,,,,,,,,,,,,,,,,,,,,,,,,,657.5924,664.251,0.193518533,0.170370349,1.0,0.0,0.0,0.6506,compass,0.0,10.0,10.0,26.0,1.0,SoundStimuli/TheSign_AceOfBase_Original5S.wav,,,,,,,,,,,,,,,,,,,,,,,,,,,,,,,,,,,,,,,,,,,,,,,,,,,,,
,,,,,753153,1,2024-07-12_17h28.52.294,experiment,2024.1.5,Win32,59.88023952,6691931c2c63981b064e1f0c,6691bbbfa334351baf4fd09a,,,,,,,,,,,,,,,,,,,,,,,,,,,,,,,,,,,,,,,,,,,,,,,,,,,,,,,,,,,,664.2702,670.9752,-0.170370384,-0.087962963,1.0,0.0,0.0,0.6845,compass,0.0,11.0,11.0,9.0,1.0,SoundStimuli/HowDoILive_LeAnnRimes_Original5S.wav,,,,,,,,,,,,,,,,,,,,,,,,,,,,,,,,,,,,,,,,,,,,,,,,,,,,,
,,,,,753153,1,2024-07-12_17h28.52.294,experiment,2024.1.5,Win32,59.88023952,6691931c2c63981b064e1f0c,6691bbbfa334351baf4fd09a,,,,,,,,,,,,,,,,,,,,,,,,,,,,,,,,,,,,,,,,,,,,,,,,,,,,,,,,,,,,670.9889,678.975,0.074074074,-0.074074074,1.0,0.0,0.0,1.9796,compass,0.0,12.0,12.0,24.0,1.0,SoundStimuli/Kiss_Prince_Original5S.wav,,,,,,,,,,,,,,,,,,,,,,,,,,,,,,,,,,,,,,,,,,,,,,,,,,,,,
,,,,,753153,1,2024-07-12_17h28.52.294,experiment,2024.1.5,Win32,59.88023952,6691931c2c63981b064e1f0c,6691bbbfa334351baf4fd09a,,,,,,,,,,,,,,,,,,,,,,,,,,,,,,,,,,,,,,,,,,,,,,,,,,,,,,,,,,,,678.9935,685.6466,0.088888875,0.062037044,1.0,0.0,0.0,0.6503,compass,0.0,13.0,13.0,22.0,1.0,SoundStimuli/Happy_PharellWilliams_Cover5S.wav,,,,,,,,,,,,,,,,,,,,,,,,,,,,,,,,,,,,,,,,,,,,,,,,,,,,,
,,,,,753153,1,2024-07-12_17h28.52.294,experiment,2024.1.5,Win32,59.88023952,6691931c2c63981b064e1f0c,6691bbbfa334351baf4fd09a,,,,,,,,,,,,,,,,,,,,,,,,,,,,,,,,,,,,,,,,,,,,,,,,,,,,,,,,,,,,685.6605,696.246,0.089814857,0.062037044,1.0,0.0,0.0,4.5837,compass,0.0,14.0,14.0,6.0,1.0,SoundStimuli/SaveYourTears_TheWeekndArianaGrande_Original5S.wav,,,,,,,,,,,,,,,,,,,,,,,,,,,,,,,,,,,,,,,,,,,,,,,,,,,,,
,,,,,753153,1,2024-07-12_17h28.52.294,experiment,2024.1.5,Win32,59.88023952,6691931c2c63981b064e1f0c,6691bbbfa334351baf4fd09a,,,,,,,,,,,,,,,,,,,,,,,,,,,,,,,,,,,,,,,,,,,,,,,,,,,,,,,,,,,,696.2685,704.7873,0.109259288,-0.150000042,1.0,0.0,0.0,2.4998,compass,0.0,15.0,15.0,14.0,1.0,SoundStimuli/LikeARollingStone_BobDylan_Cover5S.wav,,,,,,,,,,,,,,,,,,,,,,,,,,,,,,,,,,,,,,,,,,,,,,,,,,,,,
,,,,,753153,1,2024-07-12_17h28.52.294,experiment,2024.1.5,Win32,59.88023952,6691931c2c63981b064e1f0c,6691bbbfa334351baf4fd09a,,,,,,,,,,,,,,,,,,,,,,,,,,,,,,,,,,,,,,,,,,,,,,,,,,,,,,,,,,,,704.8035,711.8999,0.109259288,-0.150000042,1.0,0.0,0.0,1.0841,compass,0.0,16.0,16.0,23.0,1.0,SoundStimuli/IWalkTheLine_JohnnyCash_Cover5S.wav,,,,,,,,,,,,,,,,,,,,,,,,,,,,,,,,,,,,,,,,,,,,,,,,,,,,,
,,,,,753153,1,2024-07-12_17h28.52.294,experiment,2024.1.5,Win32,59.88023952,6691931c2c63981b064e1f0c,6691bbbfa334351baf4fd09a,,,,,,,,,,,,,,,,,,,,,,,,,,,,,,,,,,,,,,,,,,,,,,,,,,,,,,,,,,,,711.92,721.8087,-0.183333291,0.123148141,1.0,0.0,0.0,3.8756,compass,0.0,17.0,17.0,20.0,1.0,SoundStimuli/FlashdanceWhatAFeeling_IreneCara_Cover5S.wav,,,,,,,,,,,,,,,,,,,,,,,,,,,,,,,,,,,,,,,,,,,,,,,,,,,,,
,,,,,753153,1,2024-07-12_17h28.52.294,experiment,2024.1.5,Win32,59.88023952,6691931c2c63981b064e1f0c,6691bbbfa334351baf4fd09a,,,,,,,,,,,,,,,,,,,,,,,,,,,,,,,,,,,,,,,,,,,,,,,,,,,,,,,,,,,,721.8314,730.4745,0.074074074,-0.093518504,1.0,0.0,0.0,2.6244,compass,0.0,18.0,18.0,18.0,1.0,SoundStimuli/Weak_SWV_Original5S.wav,,,,,,,,,,,,,,,,,,,,,,,,,,,,,,,,,,,,,,,,,,,,,,,,,,,,,
,,,,,753153,1,2024-07-12_17h28.52.294,experiment,2024.1.5,Win32,59.88023952,6691931c2c63981b064e1f0c,6691bbbfa334351baf4fd09a,,,,,,,,,,,,,,,,,,,,,,,,,,,,,,,,,,,,,,,,,,,,,,,,,,,,,,,,,,,,730.4904,738.4124,-0.062962921,-0.107407393,1.0,0.0,0.0,1.9163,compass,0.0,19.0,19.0,17.0,1.0,SoundStimuli/IWannaDanceWithSomebody_WhitneyHouston_Cover5S.wav,,,,,,,,,,,,,,,,,,,,,,,,,,,,,,,,,,,,,,,,,,,,,,,,,,,,,
,,,,,753153,1,2024-07-12_17h28.52.294,experiment,2024.1.5,Win32,59.88023952,6691931c2c63981b064e1f0c,6691bbbfa334351baf4fd09a,,,,,,,,,,,,,,,,,,,,,,,,,,,,,,,,,,,,,,,,,,,,,,,,,,,,,,,,,,,,738.4323,745.5164,0.074999986,0.083333333,1.0,0.0,0.0,1.0816,compass,0.0,20.0,20.0,34.0,1.0,SoundStimuli/Irreplaceable_Beyonce_Original5S.wav,,,,,,,,,,,,,,,,,,,,,,,,,,,,,,,,,,,,,,,,,,,,,,,,,,,,,
,,,,,753153,1,2024-07-12_17h28.52.294,experiment,2024.1.5,Win32,59.88023952,6691931c2c63981b064e1f0c,6691bbbfa334351baf4fd09a,,,,,,,,,,,,,,,,,,,,,,,,,,,,,,,,,,,,,,,,,,,,,,,,,,,,,,,,,,,,745.5273,753.13,0.116666653,-0.111111111,1.0,0.0,0.0,1.5921,compass,0.0,21.0,21.0,7.0,1.0,SoundStimuli/MackTheKnife_BobbyDarin_Original5S.wav,,,,,,,,,,,,,,,,,,,,,,,,,,,,,,,,,,,,,,,,,,,,,,,,,,,,,
,,,,,753153,1,2024-07-12_17h28.52.294,experiment,2024.1.5,Win32,59.88023952,6691931c2c63981b064e1f0c,6691bbbfa334351baf4fd09a,,,,,,,,,,,,,,,,,,,,,,,,,,,,,,,,,,,,,,,,,,,,,,,,,,,,,,,,,,,,753.1482,762.7036,-0.088888875,0.125,1.0,0.0,0.0,3.555,compass,0.0,22.0,22.0,2.0,1.0,SoundStimuli/SmellsLikeTeenSpirit_Nirvana_Cover5S.wav,,,,,,,,,,,,,,,,,,,,,,,,,,,,,,,,,,,,,,,,,,,,,,,,,,,,,
,,,,,753153,1,2024-07-12_17h28.52.294,experiment,2024.1.5,Win32,59.88023952,6691931c2c63981b064e1f0c,6691bbbfa334351baf4fd09a,,,,,,,,,,,,,,,,,,,,,,,,,,,,,,,,,,,,,,,,,,,,,,,,,,,,,,,,,,,,762.7124,769.683,0.117592635,0.146296289,1.0,0.0,0.0,0.9581,compass,0.0,23.0,23.0,11.0,1.0,SoundStimuli/BlurredLines_RobinThicke_Original5S.wav,,,,,,,,,,,,,,,,,,,,,,,,,,,,,,,,,,,,,,,,,,,,,,,,,,,,,
,,,,,753153,1,2024-07-12_17h28.52.294,experiment,2024.1.5,Win32,59.88023952,6691931c2c63981b064e1f0c,6691bbbfa334351baf4fd09a,,,,,,,,,,,,,,,,,,,,,,,,,,,,,,,,,,,,,,,,,,,,,,,,,,,,,,,,,,,,769.6935,777.2538,0.117592635,0.146296289,1.0,0.0,0.0,1.5494,compass,0.0,24.0,24.0,1.0,1.0,SoundStimuli/Smooth_SantanaRobThomas_Cover5S.wav,,,,,,,,,,,,,,,,,,,,,,,,,,,,,,,,,,,,,,,,,,,,,,,,,,,,,
,,,,,753153,1,2024-07-12_17h28.52.294,experiment,2024.1.5,Win32,59.88023952,6691931c2c63981b064e1f0c,6691bbbfa334351baf4fd09a,,,,,,,,,,,,,,,,,,,,,,,,,,,,,,,,,,,,,,,,,,,,,,,,,,,,,,,,,,,,777.2738,784.1621,0.124074088,0.162037037,1.0,0.0,0.0,0.8694,compass,0.0,25.0,25.0,10.0,1.0,SoundStimuli/LeFreak_Chic_Original5S.wav,,,,,,,,,,,,,,,,,,,,,,,,,,,,,,,,,,,,,,,,,,,,,,,,,,,,,
,,,,,753153,1,2024-07-12_17h28.52.294,experiment,2024.1.5,Win32,59.88023952,6691931c2c63981b064e1f0c,6691bbbfa334351baf4fd09a,,,,,,,,,,,,,,,,,,,,,,,,,,,,,,,,,,,,,,,,,,,,,,,,,,,,,,,,,,,,784.175,792.8947,0.137962977,-0.117592635,1.0,0.0,0.0,2.7108,compass,0.0,26.0,26.0,16.0,1.0,SoundStimuli/ItsAllInTheGame_TommyEdwards_Original5S.wav,,,,,,,,,,,,,,,,,,,,,,,,,,,,,,,,,,,,,,,,,,,,,,,,,,,,,
,,,,,753153,1,2024-07-12_17h28.52.294,experiment,2024.1.5,Win32,59.88023952,6691931c2c63981b064e1f0c,6691bbbfa334351baf4fd09a,,,,,,,,,,,,,,,,,,,,,,,,,,,,,,,,,,,,,,,,,,,,,,,,,,,,,,,,,,,,792.9113,799.8299,0.124074088,-0.062037044,1.0,0.0,0.0,0.9106,compass,0.0,27.0,27.0,13.0,1.0,SoundStimuli/Perfect_EdSheeran_Original5S.wav,,,,,,,,,,,,,,,,,,,,,,,,,,,,,,,,,,,,,,,,,,,,,,,,,,,,,
,,,,,753153,1,2024-07-12_17h28.52.294,experiment,2024.1.5,Win32,59.88023952,6691931c2c63981b064e1f0c,6691bbbfa334351baf4fd09a,,,,,,,,,,,,,,,,,,,,,,,,,,,,,,,,,,,,,,,,,,,,,,,,,,,,,,,,,,,,799.8461,807.7247,-0.076851809,0.070370356,1.0,0.0,0.0,1.8737,compass,0.0,28.0,28.0,5.0,1.0,SoundStimuli/JoyToTheWorld_ThreeDogNight_Cover5S.wav,,,,,,,,,,,,,,,,,,,,,,,,,,,,,,,,,,,,,,,,,,,,,,,,,,,,,
,,,,,753153,1,2024-07-12_17h28.52.294,experiment,2024.1.5,Win32,59.88023952,6691931c2c63981b064e1f0c,6691bbbfa334351baf4fd09a,,,,,,,,,,,,,,,,,,,,,,,,,,,,,,,,,,,,,,,,,,,,,,,,,,,,,,,,,,,,807.7349,815.4335,0.12037037,-0.076851845,1.0,0.0,0.0,1.6882,compass,0.0,29.0,29.0,4.0,1.0,SoundStimuli/Dreams_FleetwoodMac_Cover5S.wav,,,,,,,,,,,,,,,,,,,,,,,,,,,,,,,,,,,,,,,,,,,,,,,,,,,,,
,,,,,753153,1,2024-07-12_17h28.52.294,experiment,2024.1.5,Win32,59.88023952,6691931c2c63981b064e1f0c,6691bbbfa334351baf4fd09a,,,,,,,,,,,,,,,,,,,,,,,,,,,,,,,,,,,,,,,,,,,,,,,,,,,,,,,,,,,,815.45,823.0579,0.112037023,0.076851845,1.0,0.0,0.0,1.604,compass,0.0,30.0,30.0,15.0,1.0,SoundStimuli/CrazyInLove_BeyonceFtJayZ_Original5S.wav,,,,,,,,,,,,,,,,,,,,,,,,,,,,,,,,,,,,,,,,,,,,,,,,,,,,,
,,,,,753153,1,2024-07-12_17h28.52.294,experiment,2024.1.5,Win32,59.88023952,6691931c2c63981b064e1f0c,6691bbbfa334351baf4fd09a,,,,,,,,,,,,,,,,,,,,,,,,,,,,,,,,,,,,,,,,,,,,,,,,,,,,,,,,,,,,823.0683,830.1621,-0.080555527,-0.107407393,1.0,0.0,0.0,1.0835,compass,0.0,31.0,31.0,19.0,1.0,SoundStimuli/YouLightUpMyLife_DebbyBoone_Cover5S.wav,,,,,,,,,,,,,,,,,,,,,,,,,,,,,,,,,,,,,,,,,,,,,,,,,,,,,
,,,,,753153,1,2024-07-12_17h28.52.294,experiment,2024.1.5,Win32,59.88023952,6691931c2c63981b064e1f0c,6691bbbfa334351baf4fd09a,,,,,,,,,,,,,,,,,,,,,,,,,,,,,,,,,,,,,,,,,,,,,,,,,,,,,,,,,,,,830.1713,838.1416,0.109259288,0.023148148,1.0,0.0,0.0,1.9587,compass,0.0,32.0,32.0,25.0,1.0,SoundStimuli/IllMakeLoveToYou_BoyzIIMen_Original5S.wav,,,,,,,,,,,,,,,,,,,,,,,,,,,,,,,,,,,,,,,,,,,,,,,,,,,,,
,,,,,753153,1,2024-07-12_17h28.52.294,experiment,2024.1.5,Win32,59.88023952,6691931c2c63981b064e1f0c,6691bbbfa334351baf4fd09a,,,,,,,,,,,,,,,,,,,,,,,,,,,,,,,,,,,,,,,,,,,,,,,,,,,,,,,,,,,,838.1504,845.7871,-0.085185157,-0.118518547,1.0,0.0,0.0,1.625,compass,0.0,33.0,33.0,28.0,1.0,SoundStimuli/IWantToHoldYourHand_TheBeatles_Cover5S.wav,,,,,,,,,,,,,,,,,,,,,,,,,,,,,,,,,,,,,,,,,,,,,,,,,,,,,
,,,,,753153,1,2024-07-12_17h28.52.294,experiment,2024.1.5,Win32,59.88023952,6691931c2c63981b064e1f0c,6691bbbfa334351baf4fd09a,,,,,,,,,,,,,,,,,,,,,,,,,,,,,,,,,,,,,,,,,,,,,,,,,,,,,,,,,,,,845.7968,853.0382,0.124074088,-0.112963005,1.0,0.0,0.0,1.2294,compass,0.0,34.0,34.0,0.0,1.0,SoundStimuli/GimmeShelter_RollingStones_Cover5S.wav,,,,,,,,,,,,,,,,,,,,,,,,,,,,,,,,,,,,,,,,,,,,,,,,,,,,,
,,,,,753153,1,2024-07-12_17h28.52.294,experiment,2024.1.5,Win32,59.88023952,6691931c2c63981b064e1f0c,6691bbbfa334351baf4fd09a,,,,,,,,,,,,,,,,,,,,,,,,,,,,,,,,,,,,,,,,,,,,,,,,,,,,,,,,,,,,,,,,,,,,,,,,,,,853.0385,889.9957,space,36.9493,,889.9957,895.3916,right,5.376,,0.0,1.0,1.0,1.0,1.0,block_order/blockB.xlsx,,,,,,,,,,,,,,,,,,,,,,,,,,,,,,,,,,,,,
,,,,,753153,1,2024-07-12_17h28.52.294,experiment,2024.1.5,Win32,59.88023952,6691931c2c63981b064e1f0c,6691bbbfa334351baf4fd09a,,,,,,,,,,,,,,,,,,,,,,,,,,,,,,,,,,,,,,,,,,,,,,,,,,,,,,,,,,,,895.4121,902.0793,0.061111097,-0.099074116,1.0,0.0,0.0,0.6666,compass,0.0,0.0,0.0,10.0,1.0,SoundStimuli/BadDay_DanielPowter_Cover5S.wav,,,,,,,,,,,,,,,,,,,,,,,,,,,,,,,,,,,,,,,,,,,,,,,,,,,,,
,,,,,753153,1,2024-07-12_17h28.52.294,experiment,2024.1.5,Win32,59.88023952,6691931c2c63981b064e1f0c,6691bbbfa334351baf4fd09a,,,,,,,,,,,,,,,,,,,,,,,,,,,,,,,,,,,,,,,,,,,,,,,,,,,,,,,,,,,,902.092,909.746,-0.181481467,0.263888889,1.0,0.0,0.0,1.6408,compass,0.0,1.0,1.0,6.0,1.0,SoundStimuli/Levitating_DuaLipa_Cover5S.wav,,,,,,,,,,,,,,,,,,,,,,,,,,,,,,,,,,,,,,,,,,,,,,,,,,,,,
,,,,,753153,1,2024-07-12_17h28.52.294,experiment,2024.1.5,Win32,59.88023952,6691931c2c63981b064e1f0c,6691bbbfa334351baf4fd09a,,,,,,,,,,,,,,,,,,,,,,,,,,,,,,,,,,,,,,,,,,,,,,,,,,,,,,,,,,,,909.7568,916.1888,0.132407436,0.264814818,1.0,0.0,0.0,0.4168,compass,0.0,2.0,2.0,28.0,1.0,SoundStimuli/ComeAndGetYourLove_Redbone_Original5S.wav,,,,,,,,,,,,,,,,,,,,,,,,,,,,,,,,,,,,,,,,,,,,,,,,,,,,,
,,,,,753153,1,2024-07-12_17h28.52.294,experiment,2024.1.5,Win32,59.88023952,6691931c2c63981b064e1f0c,6691bbbfa334351baf4fd09a,,,,,,,,,,,,,,,,,,,,,,,,,,,,,,,,,,,,,,,,,,,,,,,,,,,,,,,,,,,,916.1985,922.7043,0.132407436,0.264814818,1.0,0.0,0.0,0.4949,compass,0.0,3.0,3.0,7.0,1.0,SoundStimuli/NoOne_AliciaKeys_Cover5S.wav,,,,,,,,,,,,,,,,,,,,,,,,,,,,,,,,,,,,,,,,,,,,,,,,,,,,,
,,,,,753153,1,2024-07-12_17h28.52.294,experiment,2024.1.5,Win32,59.88023952,6691931c2c63981b064e1f0c,6691bbbfa334351baf4fd09a,,,,,,,,,,,,,,,,,,,,,,,,,,,,,,,,,,,,,,,,,,,,,,,,,,,,,,,,,,,,922.719,929.5584,0.131481524,-0.069444444,1.0,0.0,0.0,0.8335,compass,0.0,4.0,4.0,19.0,1.0,SoundStimuli/LetsGetItOn_MarvinGaye_Cover5S.wav,,,,,,,,,,,,,,,,,,,,,,,,,,,,,,,,,,,,,,,,,,,,,,,,,,,,,
,,,,,753153,1,2024-07-12_17h28.52.294,experiment,2024.1.5,Win32,59.88023952,6691931c2c63981b064e1f0c,6691bbbfa334351baf4fd09a,,,,,,,,,,,,,,,,,,,,,,,,,,,,,,,,,,,,,,,,,,,,,,,,,,,,,,,,,,,,929.5727,936.4135,0.131481524,-0.101851852,1.0,0.0,0.0,0.8339,compass,0.0,5.0,5.0,32.0,1.0,SoundStimuli/HeatWaves_GlassAnimals_Original5S.wav,,,,,,,,,,,,,,,,,,,,,,,,,,,,,,,,,,,,,,,,,,,,,,,,,,,,,
,,,,,753153,1,2024-07-12_17h28.52.294,experiment,2024.1.5,Win32,59.88023952,6691931c2c63981b064e1f0c,6691bbbfa334351baf4fd09a,,,,,,,,,,,,,,,,,,,,,,,,,,,,,,,,,,,,,,,,,,,,,,,,,,,,,,,,,,,,936.4242,943.9543,-0.218518504,0.142592571,1.0,0.0,0.0,1.5142,compass,0.0,6.0,6.0,25.0,1.0,SoundStimuli/Respect_ArethaFranklin_Original5S.wav,,,,,,,,,,,,,,,,,,,,,,,,,,,,,,,,,,,,,,,,,,,,,,,,,,,,,
,,,,,753153,1,2024-07-12_17h28.52.294,experiment,2024.1.5,Win32,59.88023952,6691931c2c63981b064e1f0c,6691bbbfa334351baf4fd09a,,,,,,,,,,,,,,,,,,,,,,,,,,,,,,,,,,,,,,,,,,,,,,,,,,,,,,,,,,,,943.973,952.5589,0.078703704,-0.053703697,1.0,0.0,0.0,2.5785,compass,0.0,7.0,7.0,18.0,1.0,SoundStimuli/AnotherOneBitesTheDust_Queen_Original5S.wav,,,,,,,,,,,,,,,,,,,,,,,,,,,,,,,,,,,,,,,,,,,,,,,,,,,,,
,,,,,753153,1,2024-07-12_17h28.52.294,experiment,2024.1.5,Win32,59.88023952,6691931c2c63981b064e1f0c,6691bbbfa334351baf4fd09a,,,,,,,,,,,,,,,,,,,,,,,,,,,,,,,,,,,,,,,,,,,,,,,,,,,,,,,,,,,,952.5735,959.1428,0.180555556,0.133333312,1.0,0.0,0.0,0.5628,compass,0.0,8.0,8.0,5.0,1.0,SoundStimuli/MyGirl_TheTemptations_Original5S.wav,,,,,,,,,,,,,,,,,,,,,,,,,,,,,,,,,,,,,,,,,,,,,,,,,,,,,
,,,,,753153,1,2024-07-12_17h28.52.294,experiment,2024.1.5,Win32,59.88023952,6691931c2c63981b064e1f0c,6691bbbfa334351baf4fd09a,,,,,,,,,,,,,,,,,,,,,,,,,,,,,,,,,,,,,,,,,,,,,,,,,,,,,,,,,,,,959.1551,966.6636,0.180555556,0.133333312,1.0,0.0,0.0,1.4929,compass,0.0,9.0,9.0,23.0,1.0,SoundStimuli/StrawberryFieldsForever_TheBeatles_Original5S.wav,,,,,,,,,,,,,,,,,,,,,,,,,,,,,,,,,,,,,,,,,,,,,,,,,,,,,
,,,,,753153,1,2024-07-12_17h28.52.294,experiment,2024.1.5,Win32,59.88023952,6691931c2c63981b064e1f0c,6691bbbfa334351baf4fd09a,,,,,,,,,,,,,,,,,,,,,,,,,,,,,,,,,,,,,,,,,,,,,,,,,,,,,,,,,,,,966.6815,975.9286,0.17777782,-0.079629651,0.0,0.0,1.0,3.2379,compass,0.0,10.0,10.0,20.0,1.0,SoundStimuli/HeyYa_Outkast_Cover5S.wav,,,,,,,,,,,,,,,,,,,,,,,,,,,,,,,,,,,,,,,,,,,,,,,,,,,,,
,,,,,753153,1,2024-07-12_17h28.52.294,experiment,2024.1.5,Win32,59.88023952,6691931c2c63981b064e1f0c,6691bbbfa334351baf4fd09a,,,,,,,,,,,,,,,,,,,,,,,,,,,,,,,,,,,,,,,,,,,,,,,,,,,,,,,,,,,,975.9291,982.8373,-0.145370342,0.24537037,1.0,0.0,0.0,0.8973,compass,0.0,11.0,11.0,33.0,1.0,SoundStimuli/StandByMe_BenEKing_Cover5S.wav,,,,,,,,,,,,,,,,,,,,,,,,,,,,,,,,,,,,,,,,,,,,,,,,,,,,,
,,,,,753153,1,2024-07-12_17h28.52.294,experiment,2024.1.5,Win32,59.88023952,6691931c2c63981b064e1f0c,6691bbbfa334351baf4fd09a,,,,,,,,,,,,,,,,,,,,,,,,,,,,,,,,,,,,,,,,,,,,,,,,,,,,,,,,,,,,982.8446,990.1277,0.136111153,0.2574074,1.0,0.0,0.0,1.2707,compass,0.0,12.0,12.0,8.0,1.0,SoundStimuli/LikeAPrayer_Madonna_Original5S.wav,,,,,,,,,,,,,,,,,,,,,,,,,,,,,,,,,,,,,,,,,,,,,,,,,,,,,
,,,,,753153,1,2024-07-12_17h28.52.294,experiment,2024.1.5,Win32,59.88023952,6691931c2c63981b064e1f0c,6691bbbfa334351baf4fd09a,,,,,,,,,,,,,,,,,,,,,,,,,,,,,,,,,,,,,,,,,,,,,,,,,,,,,,,,,,,,990.1388,996.9125,-0.149999972,0.255555559,1.0,0.0,0.0,0.7706,compass,0.0,13.0,13.0,3.0,1.0,SoundStimuli/NoScrubs_TLC_Original5S.wav,,,,,,,,,,,,,,,,,,,,,,,,,,,,,,,,,,,,,,,,,,,,,,,,,,,,,
,,,,,753153,1,2024-07-12_17h28.52.294,experiment,2024.1.5,Win32,59.88023952,6691931c2c63981b064e1f0c,6691bbbfa334351baf4fd09a,,,,,,,,,,,,,,,,,,,,,,,,,,,,,,,,,,,,,,,,,,,,,,,,,,,,,,,,,,,,996.9202,1005.3293,-0.047222208,0.27037036,0.0,0.0,1.0,2.3893,compass,0.0,14.0,14.0,1.0,1.0,SoundStimuli/Stronger_KanyeWest_Original5S.wav,,,,,,,,,,,,,,,,,,,,,,,,,,,,,,,,,,,,,,,,,,,,,,,,,,,,,
,,,,,753153,1,2024-07-12_17h28.52.294,experiment,2024.1.5,Win32,59.88023952,6691931c2c63981b064e1f0c,6691bbbfa334351baf4fd09a,,,,,,,,,,,,,,,,,,,,,,,,,,,,,,,,,,,,,,,,,,,,,,,,,,,,,,,,,,,,1005.3395,1011.7324,-0.155555513,0.158333319,1.0,0.0,0.0,0.3752,compass,0.0,15.0,15.0,34.0,1.0,SoundStimuli/AChangeIsGonnaCome_SamCooke_Cover5S.wav,,,,,,,,,,,,,,,,,,,,,,,,,,,,,,,,,,,,,,,,,,,,,,,,,,,,,
,,,,,753153,1,2024-07-12_17h28.52.294,experiment,2024.1.5,Win32,59.88023952,6691931c2c63981b064e1f0c,6691bbbfa334351baf4fd09a,,,,,,,,,,,,,,,,,,,,,,,,,,,,,,,,,,,,,,,,,,,,,,,,,,,,,,,,,,,,1011.7533,1019.108,0.091666681,0.308333326,1.0,0.0,0.0,1.3333,compass,0.0,16.0,16.0,27.0,1.0,SoundStimuli/ShapeofYou_EdSheeran_Original5S.wav,,,,,,,,,,,,,,,,,,,,,,,,,,,,,,,,,,,,,,,,,,,,,,,,,,,,,
,,,,,753153,1,2024-07-12_17h28.52.294,experiment,2024.1.5,Win32,59.88023952,6691931c2c63981b064e1f0c,6691bbbfa334351baf4fd09a,,,,,,,,,,,,,,,,,,,,,,,,,,,,,,,,,,,,,,,,,,,,,,,,,,,,,,,,,,,,1019.1253,1026.2252,-0.186111097,0.230555552,1.0,0.0,0.0,1.0774,compass,0.0,17.0,17.0,0.0,1.0,SoundStimuli/StayinAlive_BeeGees_Original5S.wav,,,,,,,,,,,,,,,,,,,,,,,,,,,,,,,,,,,,,,,,,,,,,,,,,,,,,
,,,,,753153,1,2024-07-12_17h28.52.294,experiment,2024.1.5,Win32,59.88023952,6691931c2c63981b064e1f0c,6691bbbfa334351baf4fd09a,,,,,,,,,,,,,,,,,,,,,,,,,,,,,,,,,,,,,,,,,,,,,,,,,,,,,,,,,,,,1026.2346,1032.7059,-0.178703661,0.221296293,1.0,0.0,0.0,0.4552,compass,0.0,18.0,18.0,14.0,1.0,SoundStimuli/BlindingLights_TheWeeknd_Original5S.wav,,,,,,,,,,,,,,,,,,,,,,,,,,,,,,,,,,,,,,,,,,,,,,,,,,,,,
,,,,,753153,1,2024-07-12_17h28.52.294,experiment,2024.1.5,Win32,59.88023952,6691931c2c63981b064e1f0c,6691bbbfa334351baf4fd09a,,,,,,,,,,,,,,,,,,,,,,,,,,,,,,,,,,,,,,,,,,,,,,,,,,,,,,,,,,,,1032.7246,1041.9342,0.150000042,0.249074071,1.0,0.0,0.0,3.2084,compass,0.0,19.0,19.0,4.0,1.0,SoundStimuli/GetUrFreakOn_MissyElliot_Original5S.wav,,,,,,,,,,,,,,,,,,,,,,,,,,,,,,,,,,,,,,,,,,,,,,,,,,,,,
,,,,,753153,1,2024-07-12_17h28.52.294,experiment,2024.1.5,Win32,59.88023952,6691931c2c63981b064e1f0c,6691bbbfa334351baf4fd09a,,,,,,,,,,,,,,,,,,,,,,,,,,,,,,,,,,,,,,,,,,,,,,,,,,,,,,,,,,,,1041.947,1050.997,0.147222236,0.243518511,1.0,0.0,0.0,3.0421,compass,0.0,20.0,20.0,17.0,1.0,SoundStimuli/Fallin_AliciaKeys_Original5S.wav,,,,,,,,,,,,,,,,,,,,,,,,,,,,,,,,,,,,,,,,,,,,,,,,,,,,,
,,,,,753153,1,2024-07-12_17h28.52.294,experiment,2024.1.5,Win32,59.88023952,6691931c2c63981b064e1f0c,6691bbbfa334351baf4fd09a,,,,,,,,,,,,,,,,,,,,,,,,,,,,,,,,,,,,,,,,,,,,,,,,,,,,,,,,,,,,1051.0115,1058.4544,0.146296325,0.288888878,1.0,0.0,0.0,1.4371,compass,0.0,21.0,21.0,24.0,1.0,SoundStimuli/UptownFunk_MarkRonson_Original5S.wav,,,,,,,,,,,,,,,,,,,,,,,,,,,,,,,,,,,,,,,,,,,,,,,,,,,,,
,,,,,753153,1,2024-07-12_17h28.52.294,experiment,2024.1.5,Win32,59.88023952,6691931c2c63981b064e1f0c,6691bbbfa334351baf4fd09a,,,,,,,,,,,,,,,,,,,,,,,,,,,,,,,,,,,,,,,,,,,,,,,,,,,,,,,,,,,,1058.4643,1066.0378,0.101851852,0.309259256,1.0,0.0,0.0,1.5561,compass,0.0,22.0,22.0,21.0,1.0,SoundStimuli/GoodGollyMissMolly_LittleRichard_Cover5S.wav,,,,,,,,,,,,,,,,,,,,,,,,,,,,,,,,,,,,,,,,,,,,,,,,,,,,,
,,,,,753153,1,2024-07-12_17h28.52.294,experiment,2024.1.5,Win32,59.88023952,6691931c2c63981b064e1f0c,6691bbbfa334351baf4fd09a,,,,,,,,,,,,,,,,,,,,,,,,,,,,,,,,,,,,,,,,,,,,,,,,,,,,,,,,,,,,1066.0476,1073.3296,-0.19259255,-0.115740741,1.0,0.0,0.0,1.2645,compass,0.0,23.0,23.0,13.0,1.0,SoundStimuli/GodOnlyKnows_TheBeachBoys_Cover5S.wav,,,,,,,,,,,,,,,,,,,,,,,,,,,,,,,,,,,,,,,,,,,,,,,,,,,,,
,,,,,753153,1,2024-07-12_17h28.52.294,experiment,2024.1.5,Win32,59.88023952,6691931c2c63981b064e1f0c,6691bbbfa334351baf4fd09a,,,,,,,,,,,,,,,,,,,,,,,,,,,,,,,,,,,,,,,,,,,,,,,,,,,,,,,,,,,,1073.3404,1080.2953,0.123148176,0.14444443,1.0,0.0,0.0,0.9446,compass,0.0,24.0,24.0,30.0,1.0,SoundStimuli/PokerFace_LadyGaga_Original5S.wav,,,,,,,,,,,,,,,,,,,,,,,,,,,,,,,,,,,,,,,,,,,,,,,,,,,,,
,,,,,753153,1,2024-07-12_17h28.52.294,experiment,2024.1.5,Win32,59.88023952,6691931c2c63981b064e1f0c,6691bbbfa334351baf4fd09a,,,,,,,,,,,,,,,,,,,,,,,,,,,,,,,,,,,,,,,,,,,,,,,,,,,,,,,,,,,,1080.3053,1086.9768,-0.146296254,-0.112037023,1.0,0.0,0.0,0.6671,compass,0.0,25.0,25.0,2.0,1.0,SoundStimuli/Mood_24kGoldnianndior_Cover5S.wav,,,,,,,,,,,,,,,,,,,,,,,,,,,,,,,,,,,,,,,,,,,,,,,,,,,,,
,,,,,753153,1,2024-07-12_17h28.52.294,experiment,2024.1.5,Win32,59.88023952,6691931c2c63981b064e1f0c,6691bbbfa334351baf4fd09a,,,,,,,,,,,,,,,,,,,,,,,,,,,,,,,,,,,,,,,,,,,,,,,,,,,,,,,,,,,,1087.0046,1094.9353,0.25462963,-0.194444444,0.0,0.0,1.0,1.9097,compass,0.0,26.0,26.0,11.0,1.0,SoundStimuli/Superstition_StevieWonder_Cover5S.wav,,,,,,,,,,,,,,,,,,,,,,,,,,,,,,,,,,,,,,,,,,,,,,,,,,,,,
,,,,,753153,1,2024-07-12_17h28.52.294,experiment,2024.1.5,Win32,59.88023952,6691931c2c63981b064e1f0c,6691bbbfa334351baf4fd09a,,,,,,,,,,,,,,,,,,,,,,,,,,,,,,,,,,,,,,,,,,,,,,,,,,,,,,,,,,,,1094.9662,1101.7685,-0.191666638,0.142592571,1.0,0.0,0.0,0.7919,compass,0.0,27.0,27.0,16.0,1.0,SoundStimuli/BohemianRhapsody_Queen_Original5S.wav,,,,,,,,,,,,,,,,,,,,,,,,,,,,,,,,,,,,,,,,,,,,,,,,,,,,,
,,,,,753153,1,2024-07-12_17h28.52.294,experiment,2024.1.5,Win32,59.88023952,6691931c2c63981b064e1f0c,6691bbbfa334351baf4fd09a,,,,,,,,,,,,,,,,,,,,,,,,,,,,,,,,,,,,,,,,,,,,,,,,,,,,,,,,,,,,1101.8024,1109.1221,-0.14907406,0.091666645,1.0,0.0,0.0,1.3129,compass,0.0,28.0,28.0,29.0,1.0,SoundStimuli/OldTownRoad_LilNasX_Original5S.wav,,,,,,,,,,,,,,,,,,,,,,,,,,,,,,,,,,,,,,,,,,,,,,,,,,,,,
,,,,,753153,1,2024-07-12_17h28.52.294,experiment,2024.1.5,Win32,59.88023952,6691931c2c63981b064e1f0c,6691bbbfa334351baf4fd09a,,,,,,,,,,,,,,,,,,,,,,,,,,,,,,,,,,,,,,,,,,,,,,,,,,,,,,,,,,,,1109.1459,1118.6037,0.095370399,0.2462963,0.0,0.0,1.0,3.4397,compass,0.0,29.0,29.0,9.0,1.0,SoundStimuli/Despacito_LuisFonsiDaddyYankee_Cover5S.wav,,,,,,,,,,,,,,,,,,,,,,,,,,,,,,,,,,,,,,,,,,,,,,,,,,,,,
,,,,,753153,1,2024-07-12_17h28.52.294,experiment,2024.1.5,Win32,59.88023952,6691931c2c63981b064e1f0c,6691bbbfa334351baf4fd09a,,,,,,,,,,,,,,,,,,,,,,,,,,,,,,,,,,,,,,,,,,,,,,,,,,,,,,,,,,,,1118.6343,1125.768,0.137962977,-0.261111153,1.0,0.0,0.0,1.1248,compass,0.0,30.0,30.0,15.0,1.0,SoundStimuli/TikTok_Kesha_Cover5S.wav,,,,,,,,,,,,,,,,,,,,,,,,,,,,,,,,,,,,,,,,,,,,,,,,,,,,,
,,,,,753153,1,2024-07-12_17h28.52.294,experiment,2024.1.5,Win32,59.88023952,6691931c2c63981b064e1f0c,6691bbbfa334351baf4fd09a,,,,,,,,,,,,,,,,,,,,,,,,,,,,,,,,,,,,,,,,,,,,,,,,,,,,,,,,,,,,1125.7688,1132.393,0.080555598,0.134259259,1.0,0.0,0.0,0.6044,compass,0.0,31.0,31.0,22.0,1.0,SoundStimuli/RockWithYou_MichaelJackson_Original5S.wav,,,,,,,,,,,,,,,,,,,,,,,,,,,,,,,,,,,,,,,,,,,,,,,,,,,,,
,,,,,753153,1,2024-07-12_17h28.52.294,experiment,2024.1.5,Win32,59.88023952,6691931c2c63981b064e1f0c,6691bbbfa334351baf4fd09a,,,,,,,,,,,,,,,,,,,,,,,,,,,,,,,,,,,,,,,,,,,,,,,,,,,,,,,,,,,,1132.4178,1139.0178,-0.12962963,0.192592586,1.0,0.0,0.0,0.5836,compass,0.0,32.0,32.0,12.0,1.0,SoundStimuli/IWillAlwaysLoveYou_WhitneyHouston_Cover5S.wav,,,,,,,,,,,,,,,,,,,,,,,,,,,,,,,,,,,,,,,,,,,,,,,,,,,,,
,,,,,753153,1,2024-07-12_17h28.52.294,experiment,2024.1.5,Win32,59.88023952,6691931c2c63981b064e1f0c,6691bbbfa334351baf4fd09a,,,,,,,,,,,,,,,,,,,,,,,,,,,,,,,,,,,,,,,,,,,,,,,,,,,,,,,,,,,,1139.0419,1147.7317,-0.176851838,-0.050925926,1.0,0.0,0.0,2.6725,compass,0.0,33.0,33.0,26.0,1.0,SoundStimuli/LivinOnAPrayer_BonJovi_Cover5S.wav,,,,,,,,,,,,,,,,,,,,,,,,,,,,,,,,,,,,,,,,,,,,,,,,,,,,,
,,,,,753153,1,2024-07-12_17h28.52.294,experiment,2024.1.5,Win32,59.88023952,6691931c2c63981b064e1f0c,6691bbbfa334351baf4fd09a,,,,,,,,,,,,,,,,,,,,,,,,,,,,,,,,,,,,,,,,,,,,,,,,,,,,,,,,,,,,1147.7509,1156.7481,-0.176851838,-0.050925926,1.0,0.0,0.0,2.9793,compass,0.0,34.0,34.0,31.0,1.0,SoundStimuli/TheBattleOfNewOrleans_JohnnyHorton_Cover5S.wav,,,,,,,,,,,,,,,,,,,,,,,,,,,,,,,,,,,,,,,,,,,,,,,,,,,,,
,,,,,753153,1,2024-07-12_17h28.52.294,experiment,2024.1.5,Win32,59.88023952,6691931c2c63981b064e1f0c,6691bbbfa334351baf4fd09a,,,,,,,,,,,,,,,,,,,,,,,,,,,,,,,,,,,,,,,,,,,,,,,,,,,,,,,,,,,,,,,,,,,,,,,,,,,1156.7487,1216.5396,space,59.7529,,1216.5398,1221.3177,right,4.7496,,0.0,2.0,2.0,2.0,1.0,block_order/blockA.xlsx,,,,,,,,,,,,,,,,,,,,,,,,,,,,,,,,,,,,,
,,,,,753153,1,2024-07-12_17h28.52.294,experiment,2024.1.5,Win32,59.88023952,6691931c2c63981b064e1f0c,6691bbbfa334351baf4fd09a,,,,,,,,,,,,,,,,,,,,,,,,,,,,,,,,,,,,,,,,,,,,,,,,,,,,,,,,,,,,1221.3519,1228.0605,-0.181481467,0.151851831,1.0,0.0,0.0,0.7017,compass,0.0,0.0,0.0,30.0,1.0,SoundStimuli/SomebodyThatIUsedtoKnow_Gotye_Original5S.wav,,,,,,,,,,,,,,,,,,,,,,,,,,,,,,,,,,,,,,,,,,,,,,,,,,,,,
,,,,,753153,1,2024-07-12_17h28.52.294,experiment,2024.1.5,Win32,59.88023952,6691931c2c63981b064e1f0c,6691bbbfa334351baf4fd09a,,,,,,,,,,,,,,,,,,,,,,,,,,,,,,,,,,,,,,,,,,,,,,,,,,,,,,,,,,,,1228.0913,1235.5056,-0.207407422,-0.085185192,1.0,0.0,0.0,1.4032,compass,0.0,1.0,1.0,14.0,1.0,SoundStimuli/LikeARollingStone_BobDylan_Original5S.wav,,,,,,,,,,,,,,,,,,,,,,,,,,,,,,,,,,,,,,,,,,,,,,,,,,,,,
,,,,,753153,1,2024-07-12_17h28.52.294,experiment,2024.1.5,Win32,59.88023952,6691931c2c63981b064e1f0c,6691bbbfa334351baf4fd09a,,,,,,,,,,,,,,,,,,,,,,,,,,,,,,,,,,,,,,,,,,,,,,,,,,,,,,,,,,,,1235.5389,1242.11,-0.095370328,0.096296275,1.0,0.0,0.0,0.5697,compass,0.0,2.0,2.0,26.0,1.0,SoundStimuli/TheSign_AceOfBase_Cover5S.wav,,,,,,,,,,,,,,,,,,,,,,,,,,,,,,,,,,,,,,,,,,,,,,,,,,,,,
,,,,,753153,1,2024-07-12_17h28.52.294,experiment,2024.1.5,Win32,59.88023952,6691931c2c63981b064e1f0c,6691bbbfa334351baf4fd09a,,,,,,,,,,,,,,,,,,,,,,,,,,,,,,,,,,,,,,,,,,,,,,,,,,,,,,,,,,,,1242.1388,1249.0393,-0.193518533,-0.037962984,1.0,0.0,0.0,0.8956,compass,0.0,3.0,3.0,24.0,1.0,SoundStimuli/Kiss_Prince_Cover5S.wav,,,,,,,,,,,,,,,,,,,,,,,,,,,,,,,,,,,,,,,,,,,,,,,,,,,,,
,,,,,753153,1,2024-07-12_17h28.52.294,experiment,2024.1.5,Win32,59.88023952,6691931c2c63981b064e1f0c,6691bbbfa334351baf4fd09a,,,,,,,,,,,,,,,,,,,,,,,,,,,,,,,,,,,,,,,,,,,,,,,,,,,,,,,,,,,,1249.0683,1256.2689,-0.193518533,-0.037962984,1.0,0.0,0.0,1.1807,compass,0.0,4.0,4.0,2.0,1.0,SoundStimuli/SmellsLikeTeenSpirit_Nirvana_Original5S.wav,,,,,,,,,,,,,,,,,,,,,,,,,,,,,,,,,,,,,,,,,,,,,,,,,,,,,
,,,,,753153,1,2024-07-12_17h28.52.294,experiment,2024.1.5,Win32,59.88023952,6691931c2c63981b064e1f0c,6691bbbfa334351baf4fd09a,,,,,,,,,,,,,,,,,,,,,,,,,,,,,,,,,,,,,,,,,,,,,,,,,,,,,,,,,,,,1256.3009,1267.9777,-0.126851824,-0.101851852,1.0,0.0,0.0,5.6625,compass,0.0,5.0,5.0,8.0,1.0,SoundStimuli/EndlessLove_DianaRossLionelRichie_Cover5S.wav,,,,,,,,,,,,,,,,,,,,,,,,,,,,,,,,,,,,,,,,,,,,,,,,,,,,,
,,,,,753153,1,2024-07-12_17h28.52.294,experiment,2024.1.5,Win32,59.88023952,6691931c2c63981b064e1f0c,6691bbbfa334351baf4fd09a,,,,,,,,,,,,,,,,,,,,,,,,,,,,,,,,,,,,,,,,,,,,,,,,,,,,,,,,,,,,1268.007,1275.2271,0.212962963,0.110185164,1.0,0.0,0.0,1.2087,compass,0.0,6.0,6.0,3.0,1.0,SoundStimuli/PartyRockAnthem_LMFAO_Original5S.wav,,,,,,,,,,,,,,,,,,,,,,,,,,,,,,,,,,,,,,,,,,,,,,,,,,,,,
,,,,,753153,1,2024-07-12_17h28.52.294,experiment,2024.1.5,Win32,59.88023952,6691931c2c63981b064e1f0c,6691bbbfa334351baf4fd09a,,,,,,,,,,,,,,,,,,,,,,,,,,,,,,,,,,,,,,,,,,,,,,,,,,,,,,,,,,,,1275.2597,1284.6936,0.109259288,-0.098148134,1.0,0.0,0.0,3.4247,compass,0.0,7.0,7.0,4.0,1.0,SoundStimuli/Dreams_FleetwoodMac_Original5S.wav,,,,,,,,,,,,,,,,,,,,,,,,,,,,,,,,,,,,,,,,,,,,,,,,,,,,,
,,,,,753153,1,2024-07-12_17h28.52.294,experiment,2024.1.5,Win32,59.88023952,6691931c2c63981b064e1f0c,6691bbbfa334351baf4fd09a,,,,,,,,,,,,,,,,,,,,,,,,,,,,,,,,,,,,,,,,,,,,,,,,,,,,,,,,,,,,1284.73,1292.0189,0.109259288,-0.098148134,1.0,0.0,0.0,1.2708,compass,0.0,8.0,8.0,34.0,1.0,SoundStimuli/Irreplaceable_Beyonce_Cover5S.wav,,,,,,,,,,,,,,,,,,,,,,,,,,,,,,,,,,,,,,,,,,,,,,,,,,,,,
,,,,,753153,1,2024-07-12_17h28.52.294,experiment,2024.1.5,Win32,59.88023952,6691931c2c63981b064e1f0c,6691bbbfa334351baf4fd09a,,,,,,,,,,,,,,,,,,,,,,,,,,,,,,,,,,,,,,,,,,,,,,,,,,,,,,,,,,,,1292.0518,1302.7342,-0.291666667,-0.267592607,1.0,0.0,0.0,4.6731,compass,0.0,9.0,9.0,33.0,1.0,SoundStimuli/TheBoyIsMine_BrandyMonica_Original5S.wav,,,,,,,,,,,,,,,,,,,,,,,,,,,,,,,,,,,,,,,,,,,,,,,,,,,,,
,,,,,753153,1,2024-07-12_17h28.52.294,experiment,2024.1.5,Win32,59.88023952,6691931c2c63981b064e1f0c,6691bbbfa334351baf4fd09a,,,,,,,,,,,,,,,,,,,,,,,,,,,,,,,,,,,,,,,,,,,,,,,,,,,,,,,,,,,,1302.7628,1310.1436,-0.174074032,-0.150000042,1.0,0.0,0.0,1.3746,compass,0.0,10.0,10.0,12.0,1.0,SoundStimuli/UnbreakMyHeart_ToniBraxton_Original5S.wav,,,,,,,,,,,,,,,,,,,,,,,,,,,,,,,,,,,,,,,,,,,,,,,,,,,,,
,,,,,753153,1,2024-07-12_17h28.52.294,experiment,2024.1.5,Win32,59.88023952,6691931c2c63981b064e1f0c,6691bbbfa334351baf4fd09a,,,,,,,,,,,,,,,,,,,,,,,,,,,,,,,,,,,,,,,,,,,,,,,,,,,,,,,,,,,,1310.1725,1320.9775,0.042592578,0.066666674,1.0,0.0,0.0,4.7921,compass,0.0,11.0,11.0,27.0,1.0,SoundStimuli/EyeOfTheTiger_Survivor_Cover5S.wav,,,,,,,,,,,,,,,,,,,,,,,,,,,,,,,,,,,,,,,,,,,,,,,,,,,,,
,,,,,753153,1,2024-07-12_17h28.52.294,experiment,2024.1.5,Win32,59.88023952,6691931c2c63981b064e1f0c,6691bbbfa334351baf4fd09a,,,,,,,,,,,,,,,,,,,,,,,,,,,,,,,,,,,,,,,,,,,,,,,,,,,,,,,,,,,,1321.0115,1330.4224,0.066666709,-0.087962963,1.0,0.0,0.0,3.4042,compass,0.0,12.0,12.0,16.0,1.0,SoundStimuli/ItsAllInTheGame_TommyEdwards_Cover5S.wav,,,,,,,,,,,,,,,,,,,,,,,,,,,,,,,,,,,,,,,,,,,,,,,,,,,,,
,,,,,753153,1,2024-07-12_17h28.52.294,experiment,2024.1.5,Win32,59.88023952,6691931c2c63981b064e1f0c,6691bbbfa334351baf4fd09a,,,,,,,,,,,,,,,,,,,,,,,,,,,,,,,,,,,,,,,,,,,,,,,,,,,,,,,,,,,,1330.4499,1338.6651,-0.14444443,-0.062037044,1.0,0.0,0.0,2.2047,compass,0.0,13.0,13.0,9.0,1.0,SoundStimuli/HowDoILive_LeAnnRimes_Cover5S.wav,,,,,,,,,,,,,,,,,,,,,,,,,,,,,,,,,,,,,,,,,,,,,,,,,,,,,
,,,,,753153,1,2024-07-12_17h28.52.294,experiment,2024.1.5,Win32,59.88023952,6691931c2c63981b064e1f0c,6691bbbfa334351baf4fd09a,,,,,,,,,,,,,,,,,,,,,,,,,,,,,,,,,,,,,,,,,,,,,,,,,,,,,,,,,,,,1338.6999,1347.3103,0.055555556,-0.107407393,1.0,0.0,0.0,2.6043,compass,0.0,14.0,14.0,15.0,1.0,SoundStimuli/CrazyInLove_BeyonceFtJayZ_Cover5S.wav,,,,,,,,,,,,,,,,,,,,,,,,,,,,,,,,,,,,,,,,,,,,,,,,,,,,,
,,,,,753153,1,2024-07-12_17h28.52.294,experiment,2024.1.5,Win32,59.88023952,6691931c2c63981b064e1f0c,6691bbbfa334351baf4fd09a,,,,,,,,,,,,,,,,,,,,,,,,,,,,,,,,,,,,,,,,,,,,,,,,,,,,,,,,,,,,1347.3381,1355.8119,0.074999986,0.099074081,1.0,0.0,0.0,2.4591,compass,0.0,15.0,15.0,28.0,1.0,SoundStimuli/IWantToHoldYourHand_TheBeatles_Original5S.wav,,,,,,,,,,,,,,,,,,,,,,,,,,,,,,,,,,,,,,,,,,,,,,,,,,,,,
,,,,,753153,1,2024-07-12_17h28.52.294,experiment,2024.1.5,Win32,59.88023952,6691931c2c63981b064e1f0c,6691bbbfa334351baf4fd09a,,,,,,,,,,,,,,,,,,,,,,,,,,,,,,,,,,,,,,,,,,,,,,,,,,,,,,,,,,,,1355.8449,1365.3316,-0.158333319,0.159259266,1.0,0.0,0.0,3.4793,compass,0.0,16.0,16.0,0.0,1.0,SoundStimuli/GimmeShelter_RollingStones_Original5S.wav,,,,,,,,,,,,,,,,,,,,,,,,,,,,,,,,,,,,,,,,,,,,,,,,,,,,,
,,,,,753153,1,2024-07-12_17h28.52.294,experiment,2024.1.5,Win32,59.88023952,6691931c2c63981b064e1f0c,6691bbbfa334351baf4fd09a,,,,,,,,,,,,,,,,,,,,,,,,,,,,,,,,,,,,,,,,,,,,,,,,,,,,,,,,,,,,1365.3613,1374.9565,0.078703704,0.219444434,1.0,0.0,0.0,3.5756,compass,0.0,17.0,17.0,20.0,1.0,SoundStimuli/FlashdanceWhatAFeeling_IreneCara_Original5S.wav,,,,,,,,,,,,,,,,,,,,,,,,,,,,,,,,,,,,,,,,,,,,,,,,,,,,,
,,,,,753153,1,2024-07-12_17h28.52.294,experiment,2024.1.5,Win32,59.88023952,6691931c2c63981b064e1f0c,6691bbbfa334351baf4fd09a,,,,,,,,,,,,,,,,,,,,,,,,,,,,,,,,,,,,,,,,,,,,,,,,,,,,,,,,,,,,1374.9915,1382.0401,0.078703704,0.219444434,1.0,0.0,0.0,1.0346,compass,0.0,18.0,18.0,29.0,1.0,SoundStimuli/BetteDavisEyes_KimCarnes_Original5S.wav,,,,,,,,,,,,,,,,,,,,,,,,,,,,,,,,,,,,,,,,,,,,,,,,,,,,,
,,,,,753153,1,2024-07-12_17h28.52.294,experiment,2024.1.5,Win32,59.88023952,6691931c2c63981b064e1f0c,6691bbbfa334351baf4fd09a,,,,,,,,,,,,,,,,,,,,,,,,,,,,,,,,,,,,,,,,,,,,,,,,,,,,,,,,,,,,1382.0745,1388.9148,0.115740741,-0.066666674,1.0,0.0,0.0,0.8335,compass,0.0,19.0,19.0,13.0,1.0,SoundStimuli/Perfect_EdSheeran_Cover5S.wav,,,,,,,,,,,,,,,,,,,,,,,,,,,,,,,,,,,,,,,,,,,,,,,,,,,,,
,,,,,753153,1,2024-07-12_17h28.52.294,experiment,2024.1.5,Win32,59.88023952,6691931c2c63981b064e1f0c,6691bbbfa334351baf4fd09a,,,,,,,,,,,,,,,,,,,,,,,,,,,,,,,,,,,,,,,,,,,,,,,,,,,,,,,,,,,,1388.9437,1397.2901,-0.081481439,-0.135185171,1.0,0.0,0.0,2.3337,compass,0.0,20.0,20.0,23.0,1.0,SoundStimuli/IWalkTheLine_JohnnyCash_Original5S.wav,,,,,,,,,,,,,,,,,,,,,,,,,,,,,,,,,,,,,,,,,,,,,,,,,,,,,
,,,,,753153,1,2024-07-12_17h28.52.294,experiment,2024.1.5,Win32,59.88023952,6691931c2c63981b064e1f0c,6691bbbfa334351baf4fd09a,,,,,,,,,,,,,,,,,,,,,,,,,,,,,,,,,,,,,,,,,,,,,,,,,,,,,,,,,,,,1397.3241,1403.9795,0.170370384,0.076851845,1.0,0.0,0.0,0.6478,compass,0.0,21.0,21.0,1.0,1.0,SoundStimuli/Smooth_SantanaRobThomas_Original5S.wav,,,,,,,,,,,,,,,,,,,,,,,,,,,,,,,,,,,,,,,,,,,,,,,,,,,,,
,,,,,753153,1,2024-07-12_17h28.52.294,experiment,2024.1.5,Win32,59.88023952,6691931c2c63981b064e1f0c,6691bbbfa334351baf4fd09a,,,,,,,,,,,,,,,,,,,,,,,,,,,,,,,,,,,,,,,,,,,,,,,,,,,,,,,,,,,,1404.0123,1411.9561,-0.187962921,0.026851831,1.0,0.0,0.0,1.9373,compass,0.0,22.0,22.0,7.0,1.0,SoundStimuli/MackTheKnife_BobbyDarin_Cover5S.wav,,,,,,,,,,,,,,,,,,,,,,,,,,,,,,,,,,,,,,,,,,,,,,,,,,,,,
,,,,,753153,1,2024-07-12_17h28.52.294,experiment,2024.1.5,Win32,59.88023952,6691931c2c63981b064e1f0c,6691bbbfa334351baf4fd09a,,,,,,,,,,,,,,,,,,,,,,,,,,,,,,,,,,,,,,,,,,,,,,,,,,,,,,,,,,,,1411.9797,1419.9769,0.07222225,-0.095370399,1.0,0.0,0.0,1.9787,compass,0.0,23.0,23.0,21.0,1.0,SoundStimuli/BridgeOverTroubledWater_SimonAndGarfunkel_Original5S.wav,,,,,,,,,,,,,,,,,,,,,,,,,,,,,,,,,,,,,,,,,,,,,,,,,,,,,
,,,,,753153,1,2024-07-12_17h28.52.294,experiment,2024.1.5,Win32,59.88023952,6691931c2c63981b064e1f0c,6691bbbfa334351baf4fd09a,,,,,,,,,,,,,,,,,,,,,,,,,,,,,,,,,,,,,,,,,,,,,,,,,,,,,,,,,,,,1420.003,1432.2065,-0.017592607,-0.087037051,1.0,0.0,0.0,6.183,compass,0.0,24.0,24.0,19.0,1.0,SoundStimuli/YouLightUpMyLife_DebbyBoone_Original5S.wav,,,,,,,,,,,,,,,,,,,,,,,,,,,,,,,,,,,,,,,,,,,,,,,,,,,,,
,,,,,753153,1,2024-07-12_17h28.52.294,experiment,2024.1.5,Win32,59.88023952,6691931c2c63981b064e1f0c,6691bbbfa334351baf4fd09a,,,,,,,,,,,,,,,,,,,,,,,,,,,,,,,,,,,,,,,,,,,,,,,,,,,,,,,,,,,,1432.2402,1440.4019,0.112037023,0.054629608,1.0,0.0,0.0,2.1535,compass,0.0,25.0,25.0,11.0,1.0,SoundStimuli/BlurredLines_RobinThicke_Cover5S.wav,,,,,,,,,,,,,,,,,,,,,,,,,,,,,,,,,,,,,,,,,,,,,,,,,,,,,
,,,,,753153,1,2024-07-12_17h28.52.294,experiment,2024.1.5,Win32,59.88023952,6691931c2c63981b064e1f0c,6691bbbfa334351baf4fd09a,,,,,,,,,,,,,,,,,,,,,,,,,,,,,,,,,,,,,,,,,,,,,,,,,,,,,,,,,,,,1440.4358,1447.2285,0.05740745,-0.12037037,1.0,0.0,0.0,0.7861,compass,0.0,26.0,26.0,25.0,1.0,SoundStimuli/IllMakeLoveToYou_BoyzIIMen_Cover5S.wav,,,,,,,,,,,,,,,,,,,,,,,,,,,,,,,,,,,,,,,,,,,,,,,,,,,,,
,,,,,753153,1,2024-07-12_17h28.52.294,experiment,2024.1.5,Win32,59.88023952,6691931c2c63981b064e1f0c,6691bbbfa334351baf4fd09a,,,,,,,,,,,,,,,,,,,,,,,,,,,,,,,,,,,,,,,,,,,,,,,,,,,,,,,,,,,,1447.2555,1455.7074,0.103703746,0.041666667,1.0,0.0,0.0,2.4319,compass,0.0,27.0,27.0,22.0,1.0,SoundStimuli/Happy_PharellWilliams_Original5S.wav,,,,,,,,,,,,,,,,,,,,,,,,,,,,,,,,,,,,,,,,,,,,,,,,,,,,,
,,,,,753153,1,2024-07-12_17h28.52.294,experiment,2024.1.5,Win32,59.88023952,6691931c2c63981b064e1f0c,6691bbbfa334351baf4fd09a,,,,,,,,,,,,,,,,,,,,,,,,,,,,,,,,,,,,,,,,,,,,,,,,,,,,,,,,,,,,1455.7512,1464.4566,0.103703746,0.041666667,1.0,0.0,0.0,2.6875,compass,0.0,28.0,28.0,32.0,1.0,SoundStimuli/Dilemma_NellyKellyRowland_Cover5S.wav,,,,,,,,,,,,,,,,,,,,,,,,,,,,,,,,,,,,,,,,,,,,,,,,,,,,,
,,,,,753153,1,2024-07-12_17h28.52.294,experiment,2024.1.5,Win32,59.88023952,6691931c2c63981b064e1f0c,6691bbbfa334351baf4fd09a,,,,,,,,,,,,,,,,,,,,,,,,,,,,,,,,,,,,,,,,,,,,,,,,,,,,,,,,,,,,1464.484,1472.5619,0.103703746,0.041666667,1.0,0.0,0.0,2.0633,compass,0.0,29.0,29.0,10.0,1.0,SoundStimuli/LeFreak_Chic_Cover5S.wav,,,,,,,,,,,,,,,,,,,,,,,,,,,,,,,,,,,,,,,,,,,,,,,,,,,,,
,,,,,753153,1,2024-07-12_17h28.52.294,experiment,2024.1.5,Win32,59.88023952,6691931c2c63981b064e1f0c,6691bbbfa334351baf4fd09a,,,,,,,,,,,,,,,,,,,,,,,,,,,,,,,,,,,,,,,,,,,,,,,,,,,,,,,,,,,,1472.6051,1481.4355,0.021296325,-0.037037037,1.0,0.0,0.0,2.8112,compass,0.0,30.0,30.0,18.0,1.0,SoundStimuli/Weak_SWV_Cover5S.wav,,,,,,,,,,,,,,,,,,,,,,,,,,,,,,,,,,,,,,,,,,,,,,,,,,,,,
,,,,,753153,1,2024-07-12_17h28.52.294,experiment,2024.1.5,Win32,59.88023952,6691931c2c63981b064e1f0c,6691bbbfa334351baf4fd09a,,,,,,,,,,,,,,,,,,,,,,,,,,,,,,,,,,,,,,,,,,,,,,,,,,,,,,,,,,,,1481.4462,1489.256,0.085185228,0.099999993,1.0,0.0,0.0,1.7924,compass,0.0,31.0,31.0,17.0,1.0,SoundStimuli/IWannaDanceWithSomebody_WhitneyHouston_Original5S.wav,,,,,,,,,,,,,,,,,,,,,,,,,,,,,,,,,,,,,,,,,,,,,,,,,,,,,
,,,,,753153,1,2024-07-12_17h28.52.294,experiment,2024.1.5,Win32,59.88023952,6691931c2c63981b064e1f0c,6691bbbfa334351baf4fd09a,,,,,,,,,,,,,,,,,,,,,,,,,,,,,,,,,,,,,,,,,,,,,,,,,,,,,,,,,,,,1489.2922,1496.1443,-0.055555556,-0.121296282,1.0,0.0,0.0,0.8329,compass,0.0,32.0,32.0,6.0,1.0,SoundStimuli/SaveYourTears_TheWeekndArianaGrande_Cover5S.wav,,,,,,,,,,,,,,,,,,,,,,,,,,,,,,,,,,,,,,,,,,,,,,,,,,,,,
,,,,,753153,1,2024-07-12_17h28.52.294,experiment,2024.1.5,Win32,59.88023952,6691931c2c63981b064e1f0c,6691bbbfa334351baf4fd09a,,,,,,,,,,,,,,,,,,,,,,,,,,,,,,,,,,,,,,,,,,,,,,,,,,,,,,,,,,,,1496.1455,1504.978,0.148148148,0.03148146,1.0,0.0,0.0,2.8132,compass,0.0,33.0,33.0,5.0,1.0,SoundStimuli/JoyToTheWorld_ThreeDogNight_Original5S.wav,,,,,,,,,,,,,,,,,,,,,,,,,,,,,,,,,,,,,,,,,,,,,,,,,,,,,
,,,,,753153,1,2024-07-12_17h28.52.294,experiment,2024.1.5,Win32,59.88023952,6691931c2c63981b064e1f0c,6691bbbfa334351baf4fd09a,,,,,,,,,,,,,,,,,,,,,,,,,,,,,,,,,,,,,,,,,,,,,,,,,,,,,,,,,,,,1505.0092,1512.173,0.140740783,0.02870369,1.0,0.0,0.0,1.1538,compass,0.0,34.0,34.0,31.0,1.0,SoundStimuli/TossinAndTurnin_BobbyLewis_Original5S.wav,,,,,,,,,,,,,,,,,,,,,,,,,,,,,,,,,,,,,,,,,,,,,,,,,,,,,
,,,,,753153,1,2024-07-12_17h28.52.294,experiment,2024.1.5,Win32,59.88023952,6691931c2c63981b064e1f0c,6691bbbfa334351baf4fd09a,,,,,,,,,,,,,,,,,,,,,,,,,,,,,,,,,,,,,,,,,,,,,,,,,,,,,,,,,,,,,,,,,,,,,,,,,,,1512.1733,1512.1736,,,,1512.1737,1512.1739,,,,0.0,3.0,3.0,3.0,1.0,block_order/blockD.xlsx,,,,,,,,,,,,,,,,,,,,,,,,,,,,,,,,,,,,,
,,,,,753153,1,2024-07-12_17h28.52.294,experiment,2024.1.5,Win32,59.88023952,6691931c2c63981b064e1f0c,6691bbbfa334351baf4fd09a,,,,,,,,,,,,,,,,,,,,,,,,,,,,,,,,,,,,,,,,,,,,,,,,,,,,,,,,,,,,,,,,,,,,,,,,,,,,,,,,,,,,,,,,,,,22.0,Item 3,I learned basic piano at around 12 years old to present. I was involved also in the Choir and Orchestra playing the viola during my school years,Item 2,Spotify,5.0,7.0,cleaning,Often,Sometimes,Often,Often,Rarely,Rarely,Rarely,Sometimes,Sometimes,Sometimes,Sometimes,Rarely,Never,Rarely,Sometimes,Rarely,Rap,Pop,Ballad,Hip hop,I listen to more mainstream music when in the past I used to seek out new artists.,I tend to favorite specific songs rather than a genre or an artist.,0.0,0.0,0.0,0.0,1.0,,
,,,,,753153,1,2024-07-12_17h28.52.294,experiment,2024.1.5,Win32,59.88023952,6691931c2c63981b064e1f0c,6691bbbfa334351baf4fd09a,,,,,,,,,,,,,,,,,,,,,,,,,,,,,,,,,,,,,,,,,,,,,,,,,,,,,,,,,,,,,,,,,,,,,,,,,,,,,,,,,,,,,,,,,,,,,,,,,,,,,,,,,,,,,,,,,,,,,,,,,,,,,,1885.1287,1887.1037
