welcome.started,welcome.stopped,space_to_continue.keys,space_to_continue.rt,space_to_continue.duration,participant,session,date,expName,psychopyVersion,OS,frameRate,STUDY_ID,SESSION_ID,consent.consent,consent.consent_recontact,consent_check.started,consent_check.stopped,calibration_ready.started,calibration_ready.stopped,cal_ready.keys,cal_ready.rt,cal_ready.duration,calibration.started,calibration.stopped,mouse.x,mouse.y,mouse.leftButton,mouse.midButton,mouse.rightButton,mouse.time,mouse.clicked_name,move_on.keys,move_on.rt,move_on.duration,run_cal.thisRepN,run_cal.thisTrialN,run_cal.thisN,run_cal.thisIndex,run_cal.ran,emotion_training_ready.started,emotion_training_ready.stopped,training_move_on.keys,training_move_on.rt,training_move_on.duration,examples.started,examples.stopped,emotion_scale.started,emotion_scale.stopped,scale_next.keys,scale_next.rt,scale_next.duration,instructions.started,instructions.stopped,next.keys,next.rt,next.duration,practice_task.started,practice_task.stopped,mouse_rating_2.x,mouse_rating_2.y,mouse_rating_2.leftButton,mouse_rating_2.midButton,mouse_rating_2.rightButton,mouse_rating_2.time,mouse_rating_2.clicked_name,ready.started,ready.stopped,key_resp.keys,key_resp.rt,key_resp.duration,set_group.started,set_group.stopped,task.started,task.stopped,mouse_rating.x,mouse_rating.y,mouse_rating.leftButton,mouse_rating.midButton,mouse_rating.rightButton,mouse_rating.time,mouse_rating.clicked_name,trials.thisRepN,trials.thisTrialN,trials.thisN,trials.thisIndex,trials.ran,clip,short_break.started,short_break.stopped,space_to_move_on.keys,space_to_move_on.rt,space_to_move_on.duration,instruction_reminder.started,instruction_reminder.stopped,reminder_move_on.keys,reminder_move_on.rt,reminder_move_on.duration,blocks.thisRepN,blocks.thisTrialN,blocks.thisN,blocks.thisIndex,blocks.ran,block,post_survey.age,post_survey.musician,post_survey.music_making,post_survey.listen_time,post_survey.medium,post_survey.music_seeking,post_survey.music_choice,post_survey.activities,post_survey.question1.Classic rock,post_survey.question1.Latin,post_survey.question1.Metal,post_survey.question1.Pop,post_survey.question1.Ambient,post_survey.question1.Electronic (EDM),post_survey.question1.R&B,post_survey.question1.Alternative rock,post_survey.question1.A cappella,post_survey.question1.Country,post_survey.question1.Reggae,post_survey.question1.Hip hop,post_survey.question1.Classical,post_survey.question1.Disco,post_survey.question1.Jazz,post_survey.question1.Folk/indie,post_survey.genres_ranked.text1,post_survey.genres_ranked.text2,post_survey.genres_ranked.text3,post_survey.habit_change,show_exp.thisRepN,show_exp.thisTrialN,show_exp.thisN,show_exp.thisIndex,show_exp.ran,goodbye.started,goodbye.stopped
0.0002,2.0492,space,2.0431,,775549,1,2024-07-12_19h19.01.215,experiment,2024.1.5,Win32,144.9275362,6691931c2c63981b064e1f0c,6691b86bf6ae03b54151c579,,,,,,,,,,,,,,,,,,,,,,,,,,,,,,,,,,,,,,,,,,,,,,,,,,,,,,,,,,,,,,,,,,,,,,,,,,,,,,,,,,,,,,,,,,,,,,,,,,,,,,,,,,,,,,,,,,,,,,,,,,,,,
,,,,,775549,1,2024-07-12_19h19.01.215,experiment,2024.1.5,Win32,144.9275362,6691931c2c63981b064e1f0c,6691b86bf6ae03b54151c579,yes,yes,,,,,,,,,,,,,,,,,,,,,,,,,,,,,,,,,,,,,,,,,,,,,,,,,,,,,,,,,,,,,,,,,,,,,,,,,,,,,,,,,,,,,,,,,,,,,,,,,,,,,,,,,,,,,,,,,,,,,,,,,,,
,,,,,775549,1,2024-07-12_19h19.01.215,experiment,2024.1.5,Win32,144.9275362,6691931c2c63981b064e1f0c,6691b86bf6ae03b54151c579,,,46.1416,46.1417,,,,,,,,,,,,,,,,,,,,,,,,,,,,,,,,,,,,,,,,,,,,,,,,,,,,,,,,,,,,,,,,,,,,,,,,,,,,,,,,,,,,,,,,,,,,,,,,,,,,,,,,,,,,,,,,,,,,,,,,,
,,,,,775549,1,2024-07-12_19h19.01.215,experiment,2024.1.5,Win32,144.9275362,6691931c2c63981b064e1f0c,6691b86bf6ae03b54151c579,,,,,46.1428,48.8698,space,2.7151,,48.8705,83.0886,"[-0.03333333333333333,-0.010185185185185186]","[-0.4074074074074074,-0.42592592592592593]","[1,1]","[0,0]","[0,0]","[13.672299999952315,27.518799999952307]","[""play_button""]",y,33.1995,,0.0,0.0,0.0,0.0,1.0,,,,,,,,,,,,,,,,,,,,,,,,,,,,,,,,,,,,,,,,,,,,,,,,,,,,,,,,,,,,,,,,,,,,,,,,,,,,,,,,,,,,,,,,,,,,,,,,,,,
,,,,,775549,1,2024-07-12_19h19.01.215,experiment,2024.1.5,Win32,144.9275362,6691931c2c63981b064e1f0c,6691b86bf6ae03b54151c579,,,,,,,,,,,,,,,,,,,,,,,,,,,83.0889,95.4268,space,12.3253,,95.427,215.4335,215.4336,238.7956,right,19.8578,,238.7956,245.0427,space,6.233,,245.0429,252.6273,0.256481481,-0.111111111,1.0,0.0,0.0,1.5836,compass_2,252.6275,254.3358,space,1.7016,,254.3359,254.3359,254.3518,263.8933,0.20462963,0.089814815,1.0,0.0,0.0,3.5356,compass,0.0,0.0,0.0,25.0,1.0,SoundStimuli/Respect_ArethaFranklin_Original5S.wav,,,,,,,,,,,,,,,,,,,,,,,,,,,,,,,,,,,,,,,,,,,,,,,,,,,
,,,,,775549,1,2024-07-12_19h19.01.215,experiment,2024.1.5,Win32,144.9275362,6691931c2c63981b064e1f0c,6691b86bf6ae03b54151c579,,,,,,,,,,,,,,,,,,,,,,,,,,,,,,,,,,,,,,,,,,,,,,,,,,,,,,,,,,,,263.8981,272.2832,0.224074074,0.161111111,1.0,0.0,0.0,2.3825,compass,0.0,1.0,1.0,0.0,1.0,SoundStimuli/StayinAlive_BeeGees_Original5S.wav,,,,,,,,,,,,,,,,,,,,,,,,,,,,,,,,,,,,,,,,,,,,,,,,,,,
,,,,,775549,1,2024-07-12_19h19.01.215,experiment,2024.1.5,Win32,144.9275362,6691931c2c63981b064e1f0c,6691b86bf6ae03b54151c579,,,,,,,,,,,,,,,,,,,,,,,,,,,,,,,,,,,,,,,,,,,,,,,,,,,,,,,,,,,,272.2883,279.7428,0.248148148,-0.102777778,1.0,0.0,0.0,1.4517,compass,0.0,2.0,2.0,20.0,1.0,SoundStimuli/HeyYa_Outkast_Cover5S.wav,,,,,,,,,,,,,,,,,,,,,,,,,,,,,,,,,,,,,,,,,,,,,,,,,,,
,,,,,775549,1,2024-07-12_19h19.01.215,experiment,2024.1.5,Win32,144.9275362,6691931c2c63981b064e1f0c,6691b86bf6ae03b54151c579,,,,,,,,,,,,,,,,,,,,,,,,,,,,,,,,,,,,,,,,,,,,,,,,,,,,,,,,,,,,279.7477,286.7857,-0.088888889,-0.165740741,1.0,0.0,0.0,1.0348,compass,0.0,3.0,3.0,2.0,1.0,SoundStimuli/Mood_24kGoldnianndior_Cover5S.wav,,,,,,,,,,,,,,,,,,,,,,,,,,,,,,,,,,,,,,,,,,,,,,,,,,,
,,,,,775549,1,2024-07-12_19h19.01.215,experiment,2024.1.5,Win32,144.9275362,6691931c2c63981b064e1f0c,6691b86bf6ae03b54151c579,,,,,,,,,,,,,,,,,,,,,,,,,,,,,,,,,,,,,,,,,,,,,,,,,,,,,,,,,,,,286.7905,294.7315,0.171296296,0.19537037,1.0,0.0,0.0,1.9378,compass,0.0,4.0,4.0,17.0,1.0,SoundStimuli/Fallin_AliciaKeys_Original5S.wav,,,,,,,,,,,,,,,,,,,,,,,,,,,,,,,,,,,,,,,,,,,,,,,,,,,
,,,,,775549,1,2024-07-12_19h19.01.215,experiment,2024.1.5,Win32,144.9275362,6691931c2c63981b064e1f0c,6691b86bf6ae03b54151c579,,,,,,,,,,,,,,,,,,,,,,,,,,,,,,,,,,,,,,,,,,,,,,,,,,,,,,,,,,,,294.7364,302.0105,0.194444444,0.193518519,1.0,0.0,0.0,1.2711,compass,0.0,5.0,5.0,33.0,1.0,SoundStimuli/StandByMe_BenEKing_Cover5S.wav,,,,,,,,,,,,,,,,,,,,,,,,,,,,,,,,,,,,,,,,,,,,,,,,,,,
,,,,,775549,1,2024-07-12_19h19.01.215,experiment,2024.1.5,Win32,144.9275362,6691931c2c63981b064e1f0c,6691b86bf6ae03b54151c579,,,,,,,,,,,,,,,,,,,,,,,,,,,,,,,,,,,,,,,,,,,,,,,,,,,,,,,,,,,,302.0158,312.6096,0.25,-0.122222222,1.0,0.0,0.0,4.591,compass,0.0,6.0,6.0,11.0,1.0,SoundStimuli/Superstition_StevieWonder_Cover5S.wav,,,,,,,,,,,,,,,,,,,,,,,,,,,,,,,,,,,,,,,,,,,,,,,,,,,
,,,,,775549,1,2024-07-12_19h19.01.215,experiment,2024.1.5,Win32,144.9275362,6691931c2c63981b064e1f0c,6691b86bf6ae03b54151c579,,,,,,,,,,,,,,,,,,,,,,,,,,,,,,,,,,,,,,,,,,,,,,,,,,,,,,,,,,,,312.6147,320.0416,-0.219444444,-0.132407407,1.0,0.0,0.0,1.4239,compass,0.0,7.0,7.0,26.0,1.0,SoundStimuli/LivinOnAPrayer_BonJovi_Cover5S.wav,,,,,,,,,,,,,,,,,,,,,,,,,,,,,,,,,,,,,,,,,,,,,,,,,,,
,,,,,775549,1,2024-07-12_19h19.01.215,experiment,2024.1.5,Win32,144.9275362,6691931c2c63981b064e1f0c,6691b86bf6ae03b54151c579,,,,,,,,,,,,,,,,,,,,,,,,,,,,,,,,,,,,,,,,,,,,,,,,,,,,,,,,,,,,320.0463,327.7583,0.085185185,-0.131481481,1.0,0.0,0.0,1.7086,compass,0.0,8.0,8.0,19.0,1.0,SoundStimuli/LetsGetItOn_MarvinGaye_Cover5S.wav,,,,,,,,,,,,,,,,,,,,,,,,,,,,,,,,,,,,,,,,,,,,,,,,,,,
,,,,,775549,1,2024-07-12_19h19.01.215,experiment,2024.1.5,Win32,144.9275362,6691931c2c63981b064e1f0c,6691b86bf6ae03b54151c579,,,,,,,,,,,,,,,,,,,,,,,,,,,,,,,,,,,,,,,,,,,,,,,,,,,,,,,,,,,,327.7635,334.2663,0.249074074,0.132407407,1.0,0.0,0.0,0.5002,compass,0.0,9.0,9.0,28.0,1.0,SoundStimuli/ComeAndGetYourLove_Redbone_Original5S.wav,,,,,,,,,,,,,,,,,,,,,,,,,,,,,,,,,,,,,,,,,,,,,,,,,,,
,,,,,775549,1,2024-07-12_19h19.01.215,experiment,2024.1.5,Win32,144.9275362,6691931c2c63981b064e1f0c,6691b86bf6ae03b54151c579,,,,,,,,,,,,,,,,,,,,,,,,,,,,,,,,,,,,,,,,,,,,,,,,,,,,,,,,,,,,334.2716,341.5661,0.218518519,0.116666667,1.0,0.0,0.0,1.2919,compass,0.0,10.0,10.0,3.0,1.0,SoundStimuli/NoScrubs_TLC_Original5S.wav,,,,,,,,,,,,,,,,,,,,,,,,,,,,,,,,,,,,,,,,,,,,,,,,,,,
,,,,,775549,1,2024-07-12_19h19.01.215,experiment,2024.1.5,Win32,144.9275362,6691931c2c63981b064e1f0c,6691b86bf6ae03b54151c579,,,,,,,,,,,,,,,,,,,,,,,,,,,,,,,,,,,,,,,,,,,,,,,,,,,,,,,,,,,,341.5711,349.8868,0.183333333,0.147222222,1.0,0.0,0.0,2.313,compass,0.0,11.0,11.0,29.0,1.0,SoundStimuli/OldTownRoad_LilNasX_Original5S.wav,,,,,,,,,,,,,,,,,,,,,,,,,,,,,,,,,,,,,,,,,,,,,,,,,,,
,,,,,775549,1,2024-07-12_19h19.01.215,experiment,2024.1.5,Win32,144.9275362,6691931c2c63981b064e1f0c,6691b86bf6ae03b54151c579,,,,,,,,,,,,,,,,,,,,,,,,,,,,,,,,,,,,,,,,,,,,,,,,,,,,,,,,,,,,349.8919,356.2977,0.175,0.134259259,1.0,0.0,0.0,0.4029,compass,0.0,12.0,12.0,34.0,1.0,SoundStimuli/AChangeIsGonnaCome_SamCooke_Cover5S.wav,,,,,,,,,,,,,,,,,,,,,,,,,,,,,,,,,,,,,,,,,,,,,,,,,,,
,,,,,775549,1,2024-07-12_19h19.01.215,experiment,2024.1.5,Win32,144.9275362,6691931c2c63981b064e1f0c,6691b86bf6ae03b54151c579,,,,,,,,,,,,,,,,,,,,,,,,,,,,,,,,,,,,,,,,,,,,,,,,,,,,,,,,,,,,356.3026,372.5089,0.073148148,-0.177777778,1.0,0.0,0.0,10.2031,compass,0.0,13.0,13.0,9.0,1.0,SoundStimuli/Despacito_LuisFonsiDaddyYankee_Cover5S.wav,,,,,,,,,,,,,,,,,,,,,,,,,,,,,,,,,,,,,,,,,,,,,,,,,,,
,,,,,775549,1,2024-07-12_19h19.01.215,experiment,2024.1.5,Win32,144.9275362,6691931c2c63981b064e1f0c,6691b86bf6ae03b54151c579,,,,,,,,,,,,,,,,,,,,,,,,,,,,,,,,,,,,,,,,,,,,,,,,,,,,,,,,,,,,372.5141,398.5203,,,,,,,,0.0,14.0,14.0,13.0,1.0,SoundStimuli/GodOnlyKnows_TheBeachBoys_Cover5S.wav,,,,,,,,,,,,,,,,,,,,,,,,,,,,,,,,,,,,,,,,,,,,,,,,,,,
,,,,,775549,1,2024-07-12_19h19.01.215,experiment,2024.1.5,Win32,144.9275362,6691931c2c63981b064e1f0c,6691b86bf6ae03b54151c579,,,,,,,,,,,,,,,,,,,,,,,,,,,,,,,,,,,,,,,,,,,,,,,,,,,,,,,,,,,,398.5205,407.1746,0.271296296,-0.152777778,1.0,0.0,0.0,2.6533,compass,0.0,15.0,15.0,23.0,1.0,SoundStimuli/StrawberryFieldsForever_TheBeatles_Original5S.wav,,,,,,,,,,,,,,,,,,,,,,,,,,,,,,,,,,,,,,,,,,,,,,,,,,,
,,,,,775549,1,2024-07-12_19h19.01.215,experiment,2024.1.5,Win32,144.9275362,6691931c2c63981b064e1f0c,6691b86bf6ae03b54151c579,,,,,,,,,,,,,,,,,,,,,,,,,,,,,,,,,,,,,,,,,,,,,,,,,,,,,,,,,,,,407.1799,420.6283,0.239814815,0.136111111,1.0,0.0,0.0,7.4459,compass,0.0,16.0,16.0,24.0,1.0,SoundStimuli/UptownFunk_MarkRonson_Original5S.wav,,,,,,,,,,,,,,,,,,,,,,,,,,,,,,,,,,,,,,,,,,,,,,,,,,,
,,,,,775549,1,2024-07-12_19h19.01.215,experiment,2024.1.5,Win32,144.9275362,6691931c2c63981b064e1f0c,6691b86bf6ae03b54151c579,,,,,,,,,,,,,,,,,,,,,,,,,,,,,,,,,,,,,,,,,,,,,,,,,,,,,,,,,,,,420.634,437.9299,0.214814815,-0.266666667,1.0,0.0,0.0,11.2936,compass,0.0,17.0,17.0,5.0,1.0,SoundStimuli/MyGirl_TheTemptations_Original5S.wav,,,,,,,,,,,,,,,,,,,,,,,,,,,,,,,,,,,,,,,,,,,,,,,,,,,
,,,,,775549,1,2024-07-12_19h19.01.215,experiment,2024.1.5,Win32,144.9275362,6691931c2c63981b064e1f0c,6691b86bf6ae03b54151c579,,,,,,,,,,,,,,,,,,,,,,,,,,,,,,,,,,,,,,,,,,,,,,,,,,,,,,,,,,,,437.9351,452.1268,0.25462963,-0.201851852,1.0,0.0,0.0,8.189,compass,0.0,18.0,18.0,7.0,1.0,SoundStimuli/NoOne_AliciaKeys_Cover5S.wav,,,,,,,,,,,,,,,,,,,,,,,,,,,,,,,,,,,,,,,,,,,,,,,,,,,
,,,,,775549,1,2024-07-12_19h19.01.215,experiment,2024.1.5,Win32,144.9275362,6691931c2c63981b064e1f0c,6691b86bf6ae03b54151c579,,,,,,,,,,,,,,,,,,,,,,,,,,,,,,,,,,,,,,,,,,,,,,,,,,,,,,,,,,,,452.132,468.0463,0.187037037,-0.137962963,1.0,0.0,0.0,9.9115,compass,0.0,19.0,19.0,4.0,1.0,SoundStimuli/GetUrFreakOn_MissyElliot_Original5S.wav,,,,,,,,,,,,,,,,,,,,,,,,,,,,,,,,,,,,,,,,,,,,,,,,,,,
,,,,,775549,1,2024-07-12_19h19.01.215,experiment,2024.1.5,Win32,144.9275362,6691931c2c63981b064e1f0c,6691b86bf6ae03b54151c579,,,,,,,,,,,,,,,,,,,,,,,,,,,,,,,,,,,,,,,,,,,,,,,,,,,,,,,,,,,,468.0513,479.736,0.124074074,-0.212962963,1.0,0.0,0.0,5.6819,compass,0.0,20.0,20.0,21.0,1.0,SoundStimuli/GoodGollyMissMolly_LittleRichard_Cover5S.wav,,,,,,,,,,,,,,,,,,,,,,,,,,,,,,,,,,,,,,,,,,,,,,,,,,,
,,,,,775549,1,2024-07-12_19h19.01.215,experiment,2024.1.5,Win32,144.9275362,6691931c2c63981b064e1f0c,6691b86bf6ae03b54151c579,,,,,,,,,,,,,,,,,,,,,,,,,,,,,,,,,,,,,,,,,,,,,,,,,,,,,,,,,,,,479.7417,486.348,-0.176851852,-0.202777778,1.0,0.0,0.0,0.6042,compass,0.0,21.0,21.0,12.0,1.0,SoundStimuli/IWillAlwaysLoveYou_WhitneyHouston_Cover5S.wav,,,,,,,,,,,,,,,,,,,,,,,,,,,,,,,,,,,,,,,,,,,,,,,,,,,
,,,,,775549,1,2024-07-12_19h19.01.215,experiment,2024.1.5,Win32,144.9275362,6691931c2c63981b064e1f0c,6691b86bf6ae03b54151c579,,,,,,,,,,,,,,,,,,,,,,,,,,,,,,,,,,,,,,,,,,,,,,,,,,,,,,,,,,,,486.3482,494.4189,0.273148148,0.168518519,1.0,0.0,0.0,2.0699,compass,0.0,22.0,22.0,8.0,1.0,SoundStimuli/LikeAPrayer_Madonna_Original5S.wav,,,,,,,,,,,,,,,,,,,,,,,,,,,,,,,,,,,,,,,,,,,,,,,,,,,
,,,,,775549,1,2024-07-12_19h19.01.215,experiment,2024.1.5,Win32,144.9275362,6691931c2c63981b064e1f0c,6691b86bf6ae03b54151c579,,,,,,,,,,,,,,,,,,,,,,,,,,,,,,,,,,,,,,,,,,,,,,,,,,,,,,,,,,,,494.4241,509.0394,0.178703704,0.144444444,1.0,0.0,0.0,8.6127,compass,0.0,23.0,23.0,27.0,1.0,SoundStimuli/ShapeofYou_EdSheeran_Original5S.wav,,,,,,,,,,,,,,,,,,,,,,,,,,,,,,,,,,,,,,,,,,,,,,,,,,,
,,,,,775549,1,2024-07-12_19h19.01.215,experiment,2024.1.5,Win32,144.9275362,6691931c2c63981b064e1f0c,6691b86bf6ae03b54151c579,,,,,,,,,,,,,,,,,,,,,,,,,,,,,,,,,,,,,,,,,,,,,,,,,,,,,,,,,,,,509.0444,516.2282,-0.102777778,-0.137037037,1.0,0.0,0.0,1.1807,compass,0.0,24.0,24.0,15.0,1.0,SoundStimuli/TikTok_Kesha_Cover5S.wav,,,,,,,,,,,,,,,,,,,,,,,,,,,,,,,,,,,,,,,,,,,,,,,,,,,
,,,,,775549,1,2024-07-12_19h19.01.215,experiment,2024.1.5,Win32,144.9275362,6691931c2c63981b064e1f0c,6691b86bf6ae03b54151c579,,,,,,,,,,,,,,,,,,,,,,,,,,,,,,,,,,,,,,,,,,,,,,,,,,,,,,,,,,,,516.2329,534.5439,-0.105555556,-0.190740741,1.0,0.0,0.0,12.3078,compass,0.0,25.0,25.0,10.0,1.0,SoundStimuli/BadDay_DanielPowter_Cover5S.wav,,,,,,,,,,,,,,,,,,,,,,,,,,,,,,,,,,,,,,,,,,,,,,,,,,,
,,,,,775549,1,2024-07-12_19h19.01.215,experiment,2024.1.5,Win32,144.9275362,6691931c2c63981b064e1f0c,6691b86bf6ae03b54151c579,,,,,,,,,,,,,,,,,,,,,,,,,,,,,,,,,,,,,,,,,,,,,,,,,,,,,,,,,,,,534.549,548.7338,0.260185185,-0.106481481,1.0,0.0,0.0,8.182,compass,0.0,26.0,26.0,22.0,1.0,SoundStimuli/RockWithYou_MichaelJackson_Original5S.wav,,,,,,,,,,,,,,,,,,,,,,,,,,,,,,,,,,,,,,,,,,,,,,,,,,,
,,,,,775549,1,2024-07-12_19h19.01.215,experiment,2024.1.5,Win32,144.9275362,6691931c2c63981b064e1f0c,6691b86bf6ae03b54151c579,,,,,,,,,,,,,,,,,,,,,,,,,,,,,,,,,,,,,,,,,,,,,,,,,,,,,,,,,,,,548.7341,558.5896,0.243518519,-0.210185185,1.0,0.0,0.0,3.8549,compass,0.0,27.0,27.0,1.0,1.0,SoundStimuli/Stronger_KanyeWest_Original5S.wav,,,,,,,,,,,,,,,,,,,,,,,,,,,,,,,,,,,,,,,,,,,,,,,,,,,
,,,,,775549,1,2024-07-12_19h19.01.215,experiment,2024.1.5,Win32,144.9275362,6691931c2c63981b064e1f0c,6691b86bf6ae03b54151c579,,,,,,,,,,,,,,,,,,,,,,,,,,,,,,,,,,,,,,,,,,,,,,,,,,,,,,,,,,,,558.5947,571.7447,0.131481481,-0.083333333,1.0,0.0,0.0,7.1472,compass,0.0,28.0,28.0,31.0,1.0,SoundStimuli/TheBattleOfNewOrleans_JohnnyHorton_Cover5S.wav,,,,,,,,,,,,,,,,,,,,,,,,,,,,,,,,,,,,,,,,,,,,,,,,,,,
,,,,,775549,1,2024-07-12_19h19.01.215,experiment,2024.1.5,Win32,144.9275362,6691931c2c63981b064e1f0c,6691b86bf6ae03b54151c579,,,,,,,,,,,,,,,,,,,,,,,,,,,,,,,,,,,,,,,,,,,,,,,,,,,,,,,,,,,,571.7504,590.6926,0.166666667,0.063888889,1.0,0.0,0.0,12.9399,compass,0.0,29.0,29.0,14.0,1.0,SoundStimuli/BlindingLights_TheWeeknd_Original5S.wav,,,,,,,,,,,,,,,,,,,,,,,,,,,,,,,,,,,,,,,,,,,,,,,,,,,
,,,,,775549,1,2024-07-12_19h19.01.215,experiment,2024.1.5,Win32,144.9275362,6691931c2c63981b064e1f0c,6691b86bf6ae03b54151c579,,,,,,,,,,,,,,,,,,,,,,,,,,,,,,,,,,,,,,,,,,,,,,,,,,,,,,,,,,,,590.6976,603.3962,0.22962963,0.099074074,1.0,0.0,0.0,6.6957,compass,0.0,30.0,30.0,18.0,1.0,SoundStimuli/AnotherOneBitesTheDust_Queen_Original5S.wav,,,,,,,,,,,,,,,,,,,,,,,,,,,,,,,,,,,,,,,,,,,,,,,,,,,
,,,,,775549,1,2024-07-12_19h19.01.215,experiment,2024.1.5,Win32,144.9275362,6691931c2c63981b064e1f0c,6691b86bf6ae03b54151c579,,,,,,,,,,,,,,,,,,,,,,,,,,,,,,,,,,,,,,,,,,,,,,,,,,,,,,,,,,,,603.4014,629.4074,,,,,,,,0.0,31.0,31.0,16.0,1.0,SoundStimuli/BohemianRhapsody_Queen_Original5S.wav,,,,,,,,,,,,,,,,,,,,,,,,,,,,,,,,,,,,,,,,,,,,,,,,,,,
,,,,,775549,1,2024-07-12_19h19.01.215,experiment,2024.1.5,Win32,144.9275362,6691931c2c63981b064e1f0c,6691b86bf6ae03b54151c579,,,,,,,,,,,,,,,,,,,,,,,,,,,,,,,,,,,,,,,,,,,,,,,,,,,,,,,,,,,,629.4124,638.5687,-0.113888889,0.216666667,1.0,0.0,0.0,3.1535,compass,0.0,32.0,32.0,6.0,1.0,SoundStimuli/Levitating_DuaLipa_Cover5S.wav,,,,,,,,,,,,,,,,,,,,,,,,,,,,,,,,,,,,,,,,,,,,,,,,,,,
,,,,,775549,1,2024-07-12_19h19.01.215,experiment,2024.1.5,Win32,144.9275362,6691931c2c63981b064e1f0c,6691b86bf6ae03b54151c579,,,,,,,,,,,,,,,,,,,,,,,,,,,,,,,,,,,,,,,,,,,,,,,,,,,,,,,,,,,,638.5737,646.4174,0.196296296,0.17037037,1.0,0.0,0.0,1.8406,compass,0.0,33.0,33.0,30.0,1.0,SoundStimuli/PokerFace_LadyGaga_Original5S.wav,,,,,,,,,,,,,,,,,,,,,,,,,,,,,,,,,,,,,,,,,,,,,,,,,,,
,,,,,775549,1,2024-07-12_19h19.01.215,experiment,2024.1.5,Win32,144.9275362,6691931c2c63981b064e1f0c,6691b86bf6ae03b54151c579,,,,,,,,,,,,,,,,,,,,,,,,,,,,,,,,,,,,,,,,,,,,,,,,,,,,,,,,,,,,646.4223,654.3633,0.212037037,-0.218518519,1.0,0.0,0.0,1.938,compass,0.0,34.0,34.0,32.0,1.0,SoundStimuli/HeatWaves_GlassAnimals_Original5S.wav,,,,,,,,,,,,,,,,,,,,,,,,,,,,,,,,,,,,,,,,,,,,,,,,,,,
,,,,,775549,1,2024-07-12_19h19.01.215,experiment,2024.1.5,Win32,144.9275362,6691931c2c63981b064e1f0c,6691b86bf6ae03b54151c579,,,,,,,,,,,,,,,,,,,,,,,,,,,,,,,,,,,,,,,,,,,,,,,,,,,,,,,,,,,,,,,,,,,,,,,,,,,654.3691,856.85,space,202.4743,,856.85,863.3857,right,6.5292,,0.0,0.0,0.0,0.0,1.0,block_order/blockA.xlsx,,,,,,,,,,,,,,,,,,,,,,,,,,,,,,,,,,,
,,,,,775549,1,2024-07-12_19h19.01.215,experiment,2024.1.5,Win32,144.9275362,6691931c2c63981b064e1f0c,6691b86bf6ae03b54151c579,,,,,,,,,,,,,,,,,,,,,,,,,,,,,,,,,,,,,,,,,,,,,,,,,,,,,,,,,,,,863.3955,870.4565,0.237962963,-0.173148148,1.0,0.0,0.0,1.0561,compass,0.0,0.0,0.0,18.0,1.0,SoundStimuli/Weak_SWV_Original5S.wav,,,,,,,,,,,,,,,,,,,,,,,,,,,,,,,,,,,,,,,,,,,,,,,,,,,
,,,,,775549,1,2024-07-12_19h19.01.215,experiment,2024.1.5,Win32,144.9275362,6691931c2c63981b064e1f0c,6691b86bf6ae03b54151c579,,,,,,,,,,,,,,,,,,,,,,,,,,,,,,,,,,,,,,,,,,,,,,,,,,,,,,,,,,,,870.4627,878.458,0.1,-0.125925926,1.0,0.0,0.0,1.9936,compass,0.0,1.0,1.0,15.0,1.0,SoundStimuli/CrazyInLove_BeyonceFtJayZ_Original5S.wav,,,,,,,,,,,,,,,,,,,,,,,,,,,,,,,,,,,,,,,,,,,,,,,,,,,
,,,,,775549,1,2024-07-12_19h19.01.215,experiment,2024.1.5,Win32,144.9275362,6691931c2c63981b064e1f0c,6691b86bf6ae03b54151c579,,,,,,,,,,,,,,,,,,,,,,,,,,,,,,,,,,,,,,,,,,,,,,,,,,,,,,,,,,,,878.4639,893.8008,0.098148148,-0.180555556,1.0,0.0,0.0,9.3351,compass,0.0,2.0,2.0,32.0,1.0,SoundStimuli/Dilemma_NellyKellyRowland_Original5S.wav,,,,,,,,,,,,,,,,,,,,,,,,,,,,,,,,,,,,,,,,,,,,,,,,,,,
,,,,,775549,1,2024-07-12_19h19.01.215,experiment,2024.1.5,Win32,144.9275362,6691931c2c63981b064e1f0c,6691b86bf6ae03b54151c579,,,,,,,,,,,,,,,,,,,,,,,,,,,,,,,,,,,,,,,,,,,,,,,,,,,,,,,,,,,,893.8061,906.1922,0.231481481,-0.077777778,1.0,0.0,0.0,6.3837,compass,0.0,3.0,3.0,0.0,1.0,SoundStimuli/GimmeShelter_RollingStones_Cover5S.wav,,,,,,,,,,,,,,,,,,,,,,,,,,,,,,,,,,,,,,,,,,,,,,,,,,,
,,,,,775549,1,2024-07-12_19h19.01.215,experiment,2024.1.5,Win32,144.9275362,6691931c2c63981b064e1f0c,6691b86bf6ae03b54151c579,,,,,,,,,,,,,,,,,,,,,,,,,,,,,,,,,,,,,,,,,,,,,,,,,,,,,,,,,,,,906.1978,914.7904,0.271296296,0.221296296,1.0,0.0,0.0,2.5909,compass,0.0,4.0,4.0,26.0,1.0,SoundStimuli/TheSign_AceOfBase_Original5S.wav,,,,,,,,,,,,,,,,,,,,,,,,,,,,,,,,,,,,,,,,,,,,,,,,,,,
,,,,,775549,1,2024-07-12_19h19.01.215,experiment,2024.1.5,Win32,144.9275362,6691931c2c63981b064e1f0c,6691b86bf6ae03b54151c579,,,,,,,,,,,,,,,,,,,,,,,,,,,,,,,,,,,,,,,,,,,,,,,,,,,,,,,,,,,,914.7953,922.5484,-0.119444444,-0.15,1.0,0.0,0.0,1.7502,compass,0.0,5.0,5.0,30.0,1.0,SoundStimuli/SomebodyThatIUsedtoKnow_Gotye_Cover5S.wav,,,,,,,,,,,,,,,,,,,,,,,,,,,,,,,,,,,,,,,,,,,,,,,,,,,
,,,,,775549,1,2024-07-12_19h19.01.215,experiment,2024.1.5,Win32,144.9275362,6691931c2c63981b064e1f0c,6691b86bf6ae03b54151c579,,,,,,,,,,,,,,,,,,,,,,,,,,,,,,,,,,,,,,,,,,,,,,,,,,,,,,,,,,,,922.5532,936.3981,0.146296296,-0.155555556,1.0,0.0,0.0,7.8416,compass,0.0,6.0,6.0,11.0,1.0,SoundStimuli/BlurredLines_RobinThicke_Original5S.wav,,,,,,,,,,,,,,,,,,,,,,,,,,,,,,,,,,,,,,,,,,,,,,,,,,,
,,,,,775549,1,2024-07-12_19h19.01.215,experiment,2024.1.5,Win32,144.9275362,6691931c2c63981b064e1f0c,6691b86bf6ae03b54151c579,,,,,,,,,,,,,,,,,,,,,,,,,,,,,,,,,,,,,,,,,,,,,,,,,,,,,,,,,,,,936.4029,943.4757,0.146296296,-0.15462963,1.0,0.0,0.0,1.0697,compass,0.0,7.0,7.0,25.0,1.0,SoundStimuli/IllMakeLoveToYou_BoyzIIMen_Original5S.wav,,,,,,,,,,,,,,,,,,,,,,,,,,,,,,,,,,,,,,,,,,,,,,,,,,,
,,,,,775549,1,2024-07-12_19h19.01.215,experiment,2024.1.5,Win32,144.9275362,6691931c2c63981b064e1f0c,6691b86bf6ae03b54151c579,,,,,,,,,,,,,,,,,,,,,,,,,,,,,,,,,,,,,,,,,,,,,,,,,,,,,,,,,,,,943.4805,951.1577,0.146296296,-0.15462963,1.0,0.0,0.0,1.6741,compass,0.0,8.0,8.0,8.0,1.0,SoundStimuli/EndlessLove_DianaRossLionelRichie_Original5S.wav,,,,,,,,,,,,,,,,,,,,,,,,,,,,,,,,,,,,,,,,,,,,,,,,,,,
,,,,,775549,1,2024-07-12_19h19.01.215,experiment,2024.1.5,Win32,144.9275362,6691931c2c63981b064e1f0c,6691b86bf6ae03b54151c579,,,,,,,,,,,,,,,,,,,,,,,,,,,,,,,,,,,,,,,,,,,,,,,,,,,,,,,,,,,,951.1623,958.77,-0.268518519,-0.207407407,1.0,0.0,0.0,1.6046,compass,0.0,9.0,9.0,13.0,1.0,SoundStimuli/Perfect_EdSheeran_Original5S.wav,,,,,,,,,,,,,,,,,,,,,,,,,,,,,,,,,,,,,,,,,,,,,,,,,,,
,,,,,775549,1,2024-07-12_19h19.01.215,experiment,2024.1.5,Win32,144.9275362,6691931c2c63981b064e1f0c,6691b86bf6ae03b54151c579,,,,,,,,,,,,,,,,,,,,,,,,,,,,,,,,,,,,,,,,,,,,,,,,,,,,,,,,,,,,958.7752,967.987,0.176851852,0.10462963,1.0,0.0,0.0,3.209,compass,0.0,10.0,10.0,22.0,1.0,SoundStimuli/Happy_PharellWilliams_Cover5S.wav,,,,,,,,,,,,,,,,,,,,,,,,,,,,,,,,,,,,,,,,,,,,,,,,,,,
,,,,,775549,1,2024-07-12_19h19.01.215,experiment,2024.1.5,Win32,144.9275362,6691931c2c63981b064e1f0c,6691b86bf6ae03b54151c579,,,,,,,,,,,,,,,,,,,,,,,,,,,,,,,,,,,,,,,,,,,,,,,,,,,,,,,,,,,,967.9922,979.4403,0.267592593,-0.184259259,1.0,0.0,0.0,5.4454,compass,0.0,11.0,11.0,24.0,1.0,SoundStimuli/Kiss_Prince_Original5S.wav,,,,,,,,,,,,,,,,,,,,,,,,,,,,,,,,,,,,,,,,,,,,,,,,,,,
,,,,,775549,1,2024-07-12_19h19.01.215,experiment,2024.1.5,Win32,144.9275362,6691931c2c63981b064e1f0c,6691b86bf6ae03b54151c579,,,,,,,,,,,,,,,,,,,,,,,,,,,,,,,,,,,,,,,,,,,,,,,,,,,,,,,,,,,,979.4457,997.9921,0.162962963,-0.126851852,1.0,0.0,0.0,12.5438,compass,0.0,12.0,12.0,23.0,1.0,SoundStimuli/IWalkTheLine_JohnnyCash_Cover5S.wav,,,,,,,,,,,,,,,,,,,,,,,,,,,,,,,,,,,,,,,,,,,,,,,,,,,
,,,,,775549,1,2024-07-12_19h19.01.215,experiment,2024.1.5,Win32,144.9275362,6691931c2c63981b064e1f0c,6691b86bf6ae03b54151c579,,,,,,,,,,,,,,,,,,,,,,,,,,,,,,,,,,,,,,,,,,,,,,,,,,,,,,,,,,,,997.997,1004.514,-0.237037037,-0.197222222,1.0,0.0,0.0,0.5138,compass,0.0,13.0,13.0,6.0,1.0,SoundStimuli/SaveYourTears_TheWeekndArianaGrande_Original5S.wav,,,,,,,,,,,,,,,,,,,,,,,,,,,,,,,,,,,,,,,,,,,,,,,,,,,
,,,,,775549,1,2024-07-12_19h19.01.215,experiment,2024.1.5,Win32,144.9275362,6691931c2c63981b064e1f0c,6691b86bf6ae03b54151c579,,,,,,,,,,,,,,,,,,,,,,,,,,,,,,,,,,,,,,,,,,,,,,,,,,,,,,,,,,,,1004.5189,1013.3003,-0.237037037,-0.198148148,1.0,0.0,0.0,2.7784,compass,0.0,14.0,14.0,21.0,1.0,SoundStimuli/BridgeOverTroubledWater_SimonAndGarfunkel_Cover5S.wav,,,,,,,,,,,,,,,,,,,,,,,,,,,,,,,,,,,,,,,,,,,,,,,,,,,
,,,,,775549,1,2024-07-12_19h19.01.215,experiment,2024.1.5,Win32,144.9275362,6691931c2c63981b064e1f0c,6691b86bf6ae03b54151c579,,,,,,,,,,,,,,,,,,,,,,,,,,,,,,,,,,,,,,,,,,,,,,,,,,,,,,,,,,,,1013.3055,1021.0933,0.185185185,0.148148148,1.0,0.0,0.0,1.7851,compass,0.0,15.0,15.0,5.0,1.0,SoundStimuli/JoyToTheWorld_ThreeDogNight_Cover5S.wav,,,,,,,,,,,,,,,,,,,,,,,,,,,,,,,,,,,,,,,,,,,,,,,,,,,
,,,,,775549,1,2024-07-12_19h19.01.215,experiment,2024.1.5,Win32,144.9275362,6691931c2c63981b064e1f0c,6691b86bf6ae03b54151c579,,,,,,,,,,,,,,,,,,,,,,,,,,,,,,,,,,,,,,,,,,,,,,,,,,,,,,,,,,,,1021.0982,1033.4288,0.262962963,0.092592593,1.0,0.0,0.0,6.3274,compass,0.0,16.0,16.0,3.0,1.0,SoundStimuli/PartyRockAnthem_LMFAO_Cover5S.wav,,,,,,,,,,,,,,,,,,,,,,,,,,,,,,,,,,,,,,,,,,,,,,,,,,,
,,,,,775549,1,2024-07-12_19h19.01.215,experiment,2024.1.5,Win32,144.9275362,6691931c2c63981b064e1f0c,6691b86bf6ae03b54151c579,,,,,,,,,,,,,,,,,,,,,,,,,,,,,,,,,,,,,,,,,,,,,,,,,,,,,,,,,,,,1033.4337,1040.687,0.201851852,0.086111111,1.0,0.0,0.0,1.2503,compass,0.0,17.0,17.0,12.0,1.0,SoundStimuli/UnbreakMyHeart_ToniBraxton_Cover5S.wav,,,,,,,,,,,,,,,,,,,,,,,,,,,,,,,,,,,,,,,,,,,,,,,,,,,
,,,,,775549,1,2024-07-12_19h19.01.215,experiment,2024.1.5,Win32,144.9275362,6691931c2c63981b064e1f0c,6691b86bf6ae03b54151c579,,,,,,,,,,,,,,,,,,,,,,,,,,,,,,,,,,,,,,,,,,,,,,,,,,,,,,,,,,,,1040.6916,1059.7181,0.24537037,0.044444444,1.0,0.0,0.0,13.0233,compass,0.0,18.0,18.0,10.0,1.0,SoundStimuli/LeFreak_Chic_Original5S.wav,,,,,,,,,,,,,,,,,,,,,,,,,,,,,,,,,,,,,,,,,,,,,,,,,,,
,,,,,775549,1,2024-07-12_19h19.01.215,experiment,2024.1.5,Win32,144.9275362,6691931c2c63981b064e1f0c,6691b86bf6ae03b54151c579,,,,,,,,,,,,,,,,,,,,,,,,,,,,,,,,,,,,,,,,,,,,,,,,,,,,,,,,,,,,1059.7232,1072.0119,0.284259259,-0.166666667,1.0,0.0,0.0,6.2859,compass,0.0,19.0,19.0,19.0,1.0,SoundStimuli/YouLightUpMyLife_DebbyBoone_Cover5S.wav,,,,,,,,,,,,,,,,,,,,,,,,,,,,,,,,,,,,,,,,,,,,,,,,,,,
,,,,,775549,1,2024-07-12_19h19.01.215,experiment,2024.1.5,Win32,144.9275362,6691931c2c63981b064e1f0c,6691b86bf6ae03b54151c579,,,,,,,,,,,,,,,,,,,,,,,,,,,,,,,,,,,,,,,,,,,,,,,,,,,,,,,,,,,,1072.017,1078.9366,0.15462963,0.122222222,1.0,0.0,0.0,0.9168,compass,0.0,20.0,20.0,20.0,1.0,SoundStimuli/FlashdanceWhatAFeeling_IreneCara_Cover5S.wav,,,,,,,,,,,,,,,,,,,,,,,,,,,,,,,,,,,,,,,,,,,,,,,,,,,
,,,,,775549,1,2024-07-12_19h19.01.215,experiment,2024.1.5,Win32,144.9275362,6691931c2c63981b064e1f0c,6691b86bf6ae03b54151c579,,,,,,,,,,,,,,,,,,,,,,,,,,,,,,,,,,,,,,,,,,,,,,,,,,,,,,,,,,,,1078.9415,1088.7995,-0.265740741,-0.176851852,1.0,0.0,0.0,3.8546,compass,0.0,21.0,21.0,28.0,1.0,SoundStimuli/IWantToHoldYourHand_TheBeatles_Cover5S.wav,,,,,,,,,,,,,,,,,,,,,,,,,,,,,,,,,,,,,,,,,,,,,,,,,,,
,,,,,775549,1,2024-07-12_19h19.01.215,experiment,2024.1.5,Win32,144.9275362,6691931c2c63981b064e1f0c,6691b86bf6ae03b54151c579,,,,,,,,,,,,,,,,,,,,,,,,,,,,,,,,,,,,,,,,,,,,,,,,,,,,,,,,,,,,1088.8044,1096.8356,-0.265740741,-0.176851852,1.0,0.0,0.0,2.0283,compass,0.0,22.0,22.0,29.0,1.0,SoundStimuli/BetteDavisEyes_KimCarnes_Cover5S.wav,,,,,,,,,,,,,,,,,,,,,,,,,,,,,,,,,,,,,,,,,,,,,,,,,,,
,,,,,775549,1,2024-07-12_19h19.01.215,experiment,2024.1.5,Win32,144.9275362,6691931c2c63981b064e1f0c,6691b86bf6ae03b54151c579,,,,,,,,,,,,,,,,,,,,,,,,,,,,,,,,,,,,,,,,,,,,,,,,,,,,,,,,,,,,1096.8407,1111.2756,0.227777778,-0.122222222,1.0,0.0,0.0,8.432,compass,0.0,23.0,23.0,4.0,1.0,SoundStimuli/Dreams_FleetwoodMac_Cover5S.wav,,,,,,,,,,,,,,,,,,,,,,,,,,,,,,,,,,,,,,,,,,,,,,,,,,,
,,,,,775549,1,2024-07-12_19h19.01.215,experiment,2024.1.5,Win32,144.9275362,6691931c2c63981b064e1f0c,6691b86bf6ae03b54151c579,,,,,,,,,,,,,,,,,,,,,,,,,,,,,,,,,,,,,,,,,,,,,,,,,,,,,,,,,,,,1111.2805,1118.6517,0.241666667,0.230555556,1.0,0.0,0.0,1.3682,compass,0.0,24.0,24.0,31.0,1.0,SoundStimuli/TossinAndTurnin_BobbyLewis_Cover5S.wav,,,,,,,,,,,,,,,,,,,,,,,,,,,,,,,,,,,,,,,,,,,,,,,,,,,
,,,,,775549,1,2024-07-12_19h19.01.215,experiment,2024.1.5,Win32,144.9275362,6691931c2c63981b064e1f0c,6691b86bf6ae03b54151c579,,,,,,,,,,,,,,,,,,,,,,,,,,,,,,,,,,,,,,,,,,,,,,,,,,,,,,,,,,,,1118.6564,1127.8757,-0.114814815,-0.152777778,1.0,0.0,0.0,3.216,compass,0.0,25.0,25.0,9.0,1.0,SoundStimuli/HowDoILive_LeAnnRimes_Original5S.wav,,,,,,,,,,,,,,,,,,,,,,,,,,,,,,,,,,,,,,,,,,,,,,,,,,,
,,,,,775549,1,2024-07-12_19h19.01.215,experiment,2024.1.5,Win32,144.9275362,6691931c2c63981b064e1f0c,6691b86bf6ae03b54151c579,,,,,,,,,,,,,,,,,,,,,,,,,,,,,,,,,,,,,,,,,,,,,,,,,,,,,,,,,,,,1127.8805,1141.9476,0.205555556,0.051851852,1.0,0.0,0.0,8.064,compass,0.0,26.0,26.0,1.0,1.0,SoundStimuli/Smooth_SantanaRobThomas_Cover5S.wav,,,,,,,,,,,,,,,,,,,,,,,,,,,,,,,,,,,,,,,,,,,,,,,,,,,
,,,,,775549,1,2024-07-12_19h19.01.215,experiment,2024.1.5,Win32,144.9275362,6691931c2c63981b064e1f0c,6691b86bf6ae03b54151c579,,,,,,,,,,,,,,,,,,,,,,,,,,,,,,,,,,,,,,,,,,,,,,,,,,,,,,,,,,,,1141.9526,1148.282,0.223148148,-0.163888889,1.0,0.0,0.0,0.3264,compass,0.0,27.0,27.0,33.0,1.0,SoundStimuli/TheBoyIsMine_BrandyMonica_Cover5S.wav,,,,,,,,,,,,,,,,,,,,,,,,,,,,,,,,,,,,,,,,,,,,,,,,,,,
,,,,,775549,1,2024-07-12_19h19.01.215,experiment,2024.1.5,Win32,144.9275362,6691931c2c63981b064e1f0c,6691b86bf6ae03b54151c579,,,,,,,,,,,,,,,,,,,,,,,,,,,,,,,,,,,,,,,,,,,,,,,,,,,,,,,,,,,,1148.287,1157.6517,0.12962963,0.155555556,1.0,0.0,0.0,3.3619,compass,0.0,28.0,28.0,27.0,1.0,SoundStimuli/EyeOfTheTiger_Survivor_Original5S.wav,,,,,,,,,,,,,,,,,,,,,,,,,,,,,,,,,,,,,,,,,,,,,,,,,,,
,,,,,775549,1,2024-07-12_19h19.01.215,experiment,2024.1.5,Win32,144.9275362,6691931c2c63981b064e1f0c,6691b86bf6ae03b54151c579,,,,,,,,,,,,,,,,,,,,,,,,,,,,,,,,,,,,,,,,,,,,,,,,,,,,,,,,,,,,1157.6567,1166.3893,0.12962963,0.155555556,1.0,0.0,0.0,2.7298,compass,0.0,29.0,29.0,34.0,1.0,SoundStimuli/Irreplaceable_Beyonce_Original5S.wav,,,,,,,,,,,,,,,,,,,,,,,,,,,,,,,,,,,,,,,,,,,,,,,,,,,
,,,,,775549,1,2024-07-12_19h19.01.215,experiment,2024.1.5,Win32,144.9275362,6691931c2c63981b064e1f0c,6691b86bf6ae03b54151c579,,,,,,,,,,,,,,,,,,,,,,,,,,,,,,,,,,,,,,,,,,,,,,,,,,,,,,,,,,,,1166.3944,1175.5993,0.178703704,-0.253703704,1.0,0.0,0.0,3.2021,compass,0.0,30.0,30.0,14.0,1.0,SoundStimuli/LikeARollingStone_BobDylan_Cover5S.wav,,,,,,,,,,,,,,,,,,,,,,,,,,,,,,,,,,,,,,,,,,,,,,,,,,,
,,,,,775549,1,2024-07-12_19h19.01.215,experiment,2024.1.5,Win32,144.9275362,6691931c2c63981b064e1f0c,6691b86bf6ae03b54151c579,,,,,,,,,,,,,,,,,,,,,,,,,,,,,,,,,,,,,,,,,,,,,,,,,,,,,,,,,,,,1175.6042,1186.0177,0.211111111,0.162037037,1.0,0.0,0.0,4.4105,compass,0.0,31.0,31.0,7.0,1.0,SoundStimuli/MackTheKnife_BobbyDarin_Original5S.wav,,,,,,,,,,,,,,,,,,,,,,,,,,,,,,,,,,,,,,,,,,,,,,,,,,,
,,,,,775549,1,2024-07-12_19h19.01.215,experiment,2024.1.5,Win32,144.9275362,6691931c2c63981b064e1f0c,6691b86bf6ae03b54151c579,,,,,,,,,,,,,,,,,,,,,,,,,,,,,,,,,,,,,,,,,,,,,,,,,,,,,,,,,,,,1186.0226,1192.2689,-0.241666667,-0.224074074,1.0,0.0,0.0,0.2433,compass,0.0,32.0,32.0,17.0,1.0,SoundStimuli/IWannaDanceWithSomebody_WhitneyHouston_Cover5S.wav,,,,,,,,,,,,,,,,,,,,,,,,,,,,,,,,,,,,,,,,,,,,,,,,,,,
,,,,,775549,1,2024-07-12_19h19.01.215,experiment,2024.1.5,Win32,144.9275362,6691931c2c63981b064e1f0c,6691b86bf6ae03b54151c579,,,,,,,,,,,,,,,,,,,,,,,,,,,,,,,,,,,,,,,,,,,,,,,,,,,,,,,,,,,,1192.2735,1208.6535,-0.148148148,0.092592593,1.0,0.0,0.0,10.3769,compass,0.0,33.0,33.0,2.0,1.0,SoundStimuli/SmellsLikeTeenSpirit_Nirvana_Cover5S.wav,,,,,,,,,,,,,,,,,,,,,,,,,,,,,,,,,,,,,,,,,,,,,,,,,,,
,,,,,775549,1,2024-07-12_19h19.01.215,experiment,2024.1.5,Win32,144.9275362,6691931c2c63981b064e1f0c,6691b86bf6ae03b54151c579,,,,,,,,,,,,,,,,,,,,,,,,,,,,,,,,,,,,,,,,,,,,,,,,,,,,,,,,,,,,1208.6583,1215.3769,0.201851852,-0.166666667,1.0,0.0,0.0,0.7154,compass,0.0,34.0,34.0,16.0,1.0,SoundStimuli/ItsAllInTheGame_TommyEdwards_Original5S.wav,,,,,,,,,,,,,,,,,,,,,,,,,,,,,,,,,,,,,,,,,,,,,,,,,,,
,,,,,775549,1,2024-07-12_19h19.01.215,experiment,2024.1.5,Win32,144.9275362,6691931c2c63981b064e1f0c,6691b86bf6ae03b54151c579,,,,,,,,,,,,,,,,,,,,,,,,,,,,,,,,,,,,,,,,,,,,,,,,,,,,,,,,,,,,,,,,,,,,,,,,,,,1215.3819,1527.6092,space,312.2245,,1527.6092,1534.307,right,6.6894,,0.0,1.0,1.0,1.0,1.0,block_order/blockB.xlsx,,,,,,,,,,,,,,,,,,,,,,,,,,,,,,,,,,,
,,,,,775549,1,2024-07-12_19h19.01.215,experiment,2024.1.5,Win32,144.9275362,6691931c2c63981b064e1f0c,6691b86bf6ae03b54151c579,,,,,,,,,,,,,,,,,,,,,,,,,,,,,,,,,,,,,,,,,,,,,,,,,,,,,,,,,,,,1534.3166,1540.9616,-0.125925926,-0.173148148,1.0,0.0,0.0,0.6394,compass,0.0,0.0,0.0,8.0,1.0,SoundStimuli/LikeAPrayer_Madonna_Cover5S.wav,,,,,,,,,,,,,,,,,,,,,,,,,,,,,,,,,,,,,,,,,,,,,,,,,,,
,,,,,775549,1,2024-07-12_19h19.01.215,experiment,2024.1.5,Win32,144.9275362,6691931c2c63981b064e1f0c,6691b86bf6ae03b54151c579,,,,,,,,,,,,,,,,,,,,,,,,,,,,,,,,,,,,,,,,,,,,,,,,,,,,,,,,,,,,1540.9674,1548.3033,-0.232407407,-0.212037037,1.0,0.0,0.0,1.3341,compass,0.0,1.0,1.0,12.0,1.0,SoundStimuli/IWillAlwaysLoveYou_WhitneyHouston_Original5S.wav,,,,,,,,,,,,,,,,,,,,,,,,,,,,,,,,,,,,,,,,,,,,,,,,,,,
,,,,,775549,1,2024-07-12_19h19.01.215,experiment,2024.1.5,Win32,144.9275362,6691931c2c63981b064e1f0c,6691b86bf6ae03b54151c579,,,,,,,,,,,,,,,,,,,,,,,,,,,,,,,,,,,,,,,,,,,,,,,,,,,,,,,,,,,,1548.3094,1558.6244,-0.107407407,-0.202777778,1.0,0.0,0.0,4.3137,compass,0.0,2.0,2.0,16.0,1.0,SoundStimuli/BohemianRhapsody_Queen_Cover5S.wav,,,,,,,,,,,,,,,,,,,,,,,,,,,,,,,,,,,,,,,,,,,,,,,,,,,
,,,,,775549,1,2024-07-12_19h19.01.215,experiment,2024.1.5,Win32,144.9275362,6691931c2c63981b064e1f0c,6691b86bf6ae03b54151c579,,,,,,,,,,,,,,,,,,,,,,,,,,,,,,,,,,,,,,,,,,,,,,,,,,,,,,,,,,,,1558.632,1565.0832,0.233333333,0.211111111,1.0,0.0,0.0,0.4446,compass,0.0,3.0,3.0,15.0,1.0,SoundStimuli/TikTok_Kesha_Original5S.wav,,,,,,,,,,,,,,,,,,,,,,,,,,,,,,,,,,,,,,,,,,,,,,,,,,,
,,,,,775549,1,2024-07-12_19h19.01.215,experiment,2024.1.5,Win32,144.9275362,6691931c2c63981b064e1f0c,6691b86bf6ae03b54151c579,,,,,,,,,,,,,,,,,,,,,,,,,,,,,,,,,,,,,,,,,,,,,,,,,,,,,,,,,,,,1565.0879,1571.5011,0.273148148,-0.146296296,1.0,0.0,0.0,0.4095,compass,0.0,4.0,4.0,30.0,1.0,SoundStimuli/PokerFace_LadyGaga_Cover5S.wav,,,,,,,,,,,,,,,,,,,,,,,,,,,,,,,,,,,,,,,,,,,,,,,,,,,
,,,,,775549,1,2024-07-12_19h19.01.215,experiment,2024.1.5,Win32,144.9275362,6691931c2c63981b064e1f0c,6691b86bf6ae03b54151c579,,,,,,,,,,,,,,,,,,,,,,,,,,,,,,,,,,,,,,,,,,,,,,,,,,,,,,,,,,,,1571.5062,1578.7314,-0.298148148,-0.234259259,1.0,0.0,0.0,1.2225,compass,0.0,5.0,5.0,29.0,1.0,SoundStimuli/OldTownRoad_LilNasX_Cover5S.wav,,,,,,,,,,,,,,,,,,,,,,,,,,,,,,,,,,,,,,,,,,,,,,,,,,,
,,,,,775549,1,2024-07-12_19h19.01.215,experiment,2024.1.5,Win32,144.9275362,6691931c2c63981b064e1f0c,6691b86bf6ae03b54151c579,,,,,,,,,,,,,,,,,,,,,,,,,,,,,,,,,,,,,,,,,,,,,,,,,,,,,,,,,,,,1578.7367,1587.6358,0.114814815,0.094444444,1.0,0.0,0.0,2.8963,compass,0.0,6.0,6.0,0.0,1.0,SoundStimuli/StayinAlive_BeeGees_Cover5S.wav,,,,,,,,,,,,,,,,,,,,,,,,,,,,,,,,,,,,,,,,,,,,,,,,,,,
,,,,,775549,1,2024-07-12_19h19.01.215,experiment,2024.1.5,Win32,144.9275362,6691931c2c63981b064e1f0c,6691b86bf6ae03b54151c579,,,,,,,,,,,,,,,,,,,,,,,,,,,,,,,,,,,,,,,,,,,,,,,,,,,,,,,,,,,,1587.6409,1602.3261,0.080555556,0.184259259,1.0,0.0,0.0,8.6826,compass,0.0,7.0,7.0,4.0,1.0,SoundStimuli/GetUrFreakOn_MissyElliot_Cover5S.wav,,,,,,,,,,,,,,,,,,,,,,,,,,,,,,,,,,,,,,,,,,,,,,,,,,,
,,,,,775549,1,2024-07-12_19h19.01.215,experiment,2024.1.5,Win32,144.9275362,6691931c2c63981b064e1f0c,6691b86bf6ae03b54151c579,,,,,,,,,,,,,,,,,,,,,,,,,,,,,,,,,,,,,,,,,,,,,,,,,,,,,,,,,,,,1602.3317,1613.8,0.194444444,-0.149074074,1.0,0.0,0.0,5.4663,compass,0.0,8.0,8.0,18.0,1.0,SoundStimuli/AnotherOneBitesTheDust_Queen_Cover5S.wav,,,,,,,,,,,,,,,,,,,,,,,,,,,,,,,,,,,,,,,,,,,,,,,,,,,
,,,,,775549,1,2024-07-12_19h19.01.215,experiment,2024.1.5,Win32,144.9275362,6691931c2c63981b064e1f0c,6691b86bf6ae03b54151c579,,,,,,,,,,,,,,,,,,,,,,,,,,,,,,,,,,,,,,,,,,,,,,,,,,,,,,,,,,,,1613.8052,1621.9688,-0.140740741,-0.14537037,1.0,0.0,0.0,2.1609,compass,0.0,9.0,9.0,2.0,1.0,SoundStimuli/Mood_24kGoldnianndior_Original5S.wav,,,,,,,,,,,,,,,,,,,,,,,,,,,,,,,,,,,,,,,,,,,,,,,,,,,
,,,,,775549,1,2024-07-12_19h19.01.215,experiment,2024.1.5,Win32,144.9275362,6691931c2c63981b064e1f0c,6691b86bf6ae03b54151c579,,,,,,,,,,,,,,,,,,,,,,,,,,,,,,,,,,,,,,,,,,,,,,,,,,,,,,,,,,,,1621.9744,1639.3793,0.157407407,-0.147222222,1.0,0.0,0.0,11.4031,compass,0.0,10.0,10.0,3.0,1.0,SoundStimuli/NoScrubs_TLC_Cover5S.wav,,,,,,,,,,,,,,,,,,,,,,,,,,,,,,,,,,,,,,,,,,,,,,,,,,,
,,,,,775549,1,2024-07-12_19h19.01.215,experiment,2024.1.5,Win32,144.9275362,6691931c2c63981b064e1f0c,6691b86bf6ae03b54151c579,,,,,,,,,,,,,,,,,,,,,,,,,,,,,,,,,,,,,,,,,,,,,,,,,,,,,,,,,,,,1639.3849,1650.0702,0.262037037,0.062962963,1.0,0.0,0.0,4.6815,compass,0.0,11.0,11.0,14.0,1.0,SoundStimuli/BlindingLights_TheWeeknd_Cover5S.wav,,,,,,,,,,,,,,,,,,,,,,,,,,,,,,,,,,,,,,,,,,,,,,,,,,,
,,,,,775549,1,2024-07-12_19h19.01.215,experiment,2024.1.5,Win32,144.9275362,6691931c2c63981b064e1f0c,6691b86bf6ae03b54151c579,,,,,,,,,,,,,,,,,,,,,,,,,,,,,,,,,,,,,,,,,,,,,,,,,,,,,,,,,,,,1650.0758,1657.2033,-0.189814815,-0.117592593,1.0,0.0,0.0,1.1252,compass,0.0,12.0,12.0,5.0,1.0,SoundStimuli/MyGirl_TheTemptations_Cover5S.wav,,,,,,,,,,,,,,,,,,,,,,,,,,,,,,,,,,,,,,,,,,,,,,,,,,,
,,,,,775549,1,2024-07-12_19h19.01.215,experiment,2024.1.5,Win32,144.9275362,6691931c2c63981b064e1f0c,6691b86bf6ae03b54151c579,,,,,,,,,,,,,,,,,,,,,,,,,,,,,,,,,,,,,,,,,,,,,,,,,,,,,,,,,,,,1657.2078,1666.1288,-0.146296296,0.123148148,1.0,0.0,0.0,2.9175,compass,0.0,13.0,13.0,28.0,1.0,SoundStimuli/ComeAndGetYourLove_Redbone_Cover5S.wav,,,,,,,,,,,,,,,,,,,,,,,,,,,,,,,,,,,,,,,,,,,,,,,,,,,
,,,,,775549,1,2024-07-12_19h19.01.215,experiment,2024.1.5,Win32,144.9275362,6691931c2c63981b064e1f0c,6691b86bf6ae03b54151c579,,,,,,,,,,,,,,,,,,,,,,,,,,,,,,,,,,,,,,,,,,,,,,,,,,,,,,,,,,,,1666.1344,1673.0959,0.126851852,0.135185185,1.0,0.0,0.0,0.9595,compass,0.0,14.0,14.0,20.0,1.0,SoundStimuli/HeyYa_Outkast_Original5S.wav,,,,,,,,,,,,,,,,,,,,,,,,,,,,,,,,,,,,,,,,,,,,,,,,,,,
,,,,,775549,1,2024-07-12_19h19.01.215,experiment,2024.1.5,Win32,144.9275362,6691931c2c63981b064e1f0c,6691b86bf6ae03b54151c579,,,,,,,,,,,,,,,,,,,,,,,,,,,,,,,,,,,,,,,,,,,,,,,,,,,,,,,,,,,,1673.1019,1684.5977,0.184259259,0.117592593,1.0,0.0,0.0,5.4947,compass,0.0,15.0,15.0,11.0,1.0,SoundStimuli/Superstition_StevieWonder_Original5S.wav,,,,,,,,,,,,,,,,,,,,,,,,,,,,,,,,,,,,,,,,,,,,,,,,,,,
,,,,,775549,1,2024-07-12_19h19.01.215,experiment,2024.1.5,Win32,144.9275362,6691931c2c63981b064e1f0c,6691b86bf6ae03b54151c579,,,,,,,,,,,,,,,,,,,,,,,,,,,,,,,,,,,,,,,,,,,,,,,,,,,,,,,,,,,,1684.6032,1696.7869,0.138888889,0.117592593,1.0,0.0,0.0,6.1819,compass,0.0,16.0,16.0,7.0,1.0,SoundStimuli/NoOne_AliciaKeys_Original5S.wav,,,,,,,,,,,,,,,,,,,,,,,,,,,,,,,,,,,,,,,,,,,,,,,,,,,
,,,,,775549,1,2024-07-12_19h19.01.215,experiment,2024.1.5,Win32,144.9275362,6691931c2c63981b064e1f0c,6691b86bf6ae03b54151c579,,,,,,,,,,,,,,,,,,,,,,,,,,,,,,,,,,,,,,,,,,,,,,,,,,,,,,,,,,,,1696.7928,1704.5796,0.15,0.177777778,1.0,0.0,0.0,1.7851,compass,0.0,17.0,17.0,25.0,1.0,SoundStimuli/Respect_ArethaFranklin_Cover5S.wav,,,,,,,,,,,,,,,,,,,,,,,,,,,,,,,,,,,,,,,,,,,,,,,,,,,
,,,,,775549,1,2024-07-12_19h19.01.215,experiment,2024.1.5,Win32,144.9275362,6691931c2c63981b064e1f0c,6691b86bf6ae03b54151c579,,,,,,,,,,,,,,,,,,,,,,,,,,,,,,,,,,,,,,,,,,,,,,,,,,,,,,,,,,,,1704.5843,1716.8317,0.188888889,0.080555556,1.0,0.0,0.0,6.2441,compass,0.0,18.0,18.0,23.0,1.0,SoundStimuli/StrawberryFieldsForever_TheBeatles_Cover5S.wav,,,,,,,,,,,,,,,,,,,,,,,,,,,,,,,,,,,,,,,,,,,,,,,,,,,
,,,,,775549,1,2024-07-12_19h19.01.215,experiment,2024.1.5,Win32,144.9275362,6691931c2c63981b064e1f0c,6691b86bf6ae03b54151c579,,,,,,,,,,,,,,,,,,,,,,,,,,,,,,,,,,,,,,,,,,,,,,,,,,,,,,,,,,,,1716.837,1726.417,0.112962963,0.083333333,1.0,0.0,0.0,3.5774,compass,0.0,19.0,19.0,32.0,1.0,SoundStimuli/HeatWaves_GlassAnimals_Cover5S.wav,,,,,,,,,,,,,,,,,,,,,,,,,,,,,,,,,,,,,,,,,,,,,,,,,,,
,,,,,775549,1,2024-07-12_19h19.01.215,experiment,2024.1.5,Win32,144.9275362,6691931c2c63981b064e1f0c,6691b86bf6ae03b54151c579,,,,,,,,,,,,,,,,,,,,,,,,,,,,,,,,,,,,,,,,,,,,,,,,,,,,,,,,,,,,1726.4219,1735.2046,-0.157407407,-0.125925926,1.0,0.0,0.0,2.7821,compass,0.0,20.0,20.0,27.0,1.0,SoundStimuli/ShapeofYou_EdSheeran_Cover5S.wav,,,,,,,,,,,,,,,,,,,,,,,,,,,,,,,,,,,,,,,,,,,,,,,,,,,
,,,,,775549,1,2024-07-12_19h19.01.215,experiment,2024.1.5,Win32,144.9275362,6691931c2c63981b064e1f0c,6691b86bf6ae03b54151c579,,,,,,,,,,,,,,,,,,,,,,,,,,,,,,,,,,,,,,,,,,,,,,,,,,,,,,,,,,,,1735.2113,1742.4124,0.212037037,0.126851852,1.0,0.0,0.0,1.1946,compass,0.0,21.0,21.0,24.0,1.0,SoundStimuli/UptownFunk_MarkRonson_Cover5S.wav,,,,,,,,,,,,,,,,,,,,,,,,,,,,,,,,,,,,,,,,,,,,,,,,,,,
,,,,,775549,1,2024-07-12_19h19.01.215,experiment,2024.1.5,Win32,144.9275362,6691931c2c63981b064e1f0c,6691b86bf6ae03b54151c579,,,,,,,,,,,,,,,,,,,,,,,,,,,,,,,,,,,,,,,,,,,,,,,,,,,,,,,,,,,,1742.417,1750.4215,-0.178703704,-0.114814815,1.0,0.0,0.0,2.001,compass,0.0,22.0,22.0,10.0,1.0,SoundStimuli/BadDay_DanielPowter_Original5S.wav,,,,,,,,,,,,,,,,,,,,,,,,,,,,,,,,,,,,,,,,,,,,,,,,,,,
,,,,,775549,1,2024-07-12_19h19.01.215,experiment,2024.1.5,Win32,144.9275362,6691931c2c63981b064e1f0c,6691b86bf6ae03b54151c579,,,,,,,,,,,,,,,,,,,,,,,,,,,,,,,,,,,,,,,,,,,,,,,,,,,,,,,,,,,,1750.4272,1761.1592,-0.150925926,0.134259259,1.0,0.0,0.0,4.7304,compass,0.0,23.0,23.0,26.0,1.0,SoundStimuli/LivinOnAPrayer_BonJovi_Original5S.wav,,,,,,,,,,,,,,,,,,,,,,,,,,,,,,,,,,,,,,,,,,,,,,,,,,,
,,,,,775549,1,2024-07-12_19h19.01.215,experiment,2024.1.5,Win32,144.9275362,6691931c2c63981b064e1f0c,6691b86bf6ae03b54151c579,,,,,,,,,,,,,,,,,,,,,,,,,,,,,,,,,,,,,,,,,,,,,,,,,,,,,,,,,,,,1761.1656,1773.161,0.187037037,-0.140740741,1.0,0.0,0.0,5.994,compass,0.0,24.0,24.0,17.0,1.0,SoundStimuli/Fallin_AliciaKeys_Cover5S.wav,,,,,,,,,,,,,,,,,,,,,,,,,,,,,,,,,,,,,,,,,,,,,,,,,,,
,,,,,775549,1,2024-07-12_19h19.01.215,experiment,2024.1.5,Win32,144.9275362,6691931c2c63981b064e1f0c,6691b86bf6ae03b54151c579,,,,,,,,,,,,,,,,,,,,,,,,,,,,,,,,,,,,,,,,,,,,,,,,,,,,,,,,,,,,1773.1661,1782.9893,0.190740741,-0.071296296,1.0,0.0,0.0,3.8205,compass,0.0,25.0,25.0,22.0,1.0,SoundStimuli/RockWithYou_MichaelJackson_Cover5S.wav,,,,,,,,,,,,,,,,,,,,,,,,,,,,,,,,,,,,,,,,,,,,,,,,,,,
,,,,,775549,1,2024-07-12_19h19.01.215,experiment,2024.1.5,Win32,144.9275362,6691931c2c63981b064e1f0c,6691b86bf6ae03b54151c579,,,,,,,,,,,,,,,,,,,,,,,,,,,,,,,,,,,,,,,,,,,,,,,,,,,,,,,,,,,,1782.9955,1789.5118,-0.142592593,-0.144444444,1.0,0.0,0.0,0.5144,compass,0.0,26.0,26.0,33.0,1.0,SoundStimuli/StandByMe_BenEKing_Original5S.wav,,,,,,,,,,,,,,,,,,,,,,,,,,,,,,,,,,,,,,,,,,,,,,,,,,,
,,,,,775549,1,2024-07-12_19h19.01.215,experiment,2024.1.5,Win32,144.9275362,6691931c2c63981b064e1f0c,6691b86bf6ae03b54151c579,,,,,,,,,,,,,,,,,,,,,,,,,,,,,,,,,,,,,,,,,,,,,,,,,,,,,,,,,,,,1789.5207,1797.6587,-0.109259259,-0.178703704,1.0,0.0,0.0,2.1329,compass,0.0,27.0,27.0,34.0,1.0,SoundStimuli/AChangeIsGonnaCome_SamCooke_Original5S.wav,,,,,,,,,,,,,,,,,,,,,,,,,,,,,,,,,,,,,,,,,,,,,,,,,,,
,,,,,775549,1,2024-07-12_19h19.01.215,experiment,2024.1.5,Win32,144.9275362,6691931c2c63981b064e1f0c,6691b86bf6ae03b54151c579,,,,,,,,,,,,,,,,,,,,,,,,,,,,,,,,,,,,,,,,,,,,,,,,,,,,,,,,,,,,1797.6643,1814.2516,-0.071296296,-0.119444444,1.0,0.0,0.0,10.5855,compass,0.0,28.0,28.0,19.0,1.0,SoundStimuli/LetsGetItOn_MarvinGaye_Original5S.wav,,,,,,,,,,,,,,,,,,,,,,,,,,,,,,,,,,,,,,,,,,,,,,,,,,,
,,,,,775549,1,2024-07-12_19h19.01.215,experiment,2024.1.5,Win32,144.9275362,6691931c2c63981b064e1f0c,6691b86bf6ae03b54151c579,,,,,,,,,,,,,,,,,,,,,,,,,,,,,,,,,,,,,,,,,,,,,,,,,,,,,,,,,,,,1814.2574,1825.2818,0.169444444,-0.119444444,1.0,0.0,0.0,5.0226,compass,0.0,29.0,29.0,21.0,1.0,SoundStimuli/GoodGollyMissMolly_LittleRichard_Original5S.wav,,,,,,,,,,,,,,,,,,,,,,,,,,,,,,,,,,,,,,,,,,,,,,,,,,,
,,,,,775549,1,2024-07-12_19h19.01.215,experiment,2024.1.5,Win32,144.9275362,6691931c2c63981b064e1f0c,6691b86bf6ae03b54151c579,,,,,,,,,,,,,,,,,,,,,,,,,,,,,,,,,,,,,,,,,,,,,,,,,,,,,,,,,,,,1825.2874,1833.4351,0.143518519,-0.2,1.0,0.0,0.0,2.146,compass,0.0,30.0,30.0,13.0,1.0,SoundStimuli/GodOnlyKnows_TheBeachBoys_Original5S.wav,,,,,,,,,,,,,,,,,,,,,,,,,,,,,,,,,,,,,,,,,,,,,,,,,,,
,,,,,775549,1,2024-07-12_19h19.01.215,experiment,2024.1.5,Win32,144.9275362,6691931c2c63981b064e1f0c,6691b86bf6ae03b54151c579,,,,,,,,,,,,,,,,,,,,,,,,,,,,,,,,,,,,,,,,,,,,,,,,,,,,,,,,,,,,1833.4398,1840.6309,0.227777778,0.190740741,1.0,0.0,0.0,1.1879,compass,0.0,31.0,31.0,31.0,1.0,SoundStimuli/TheBattleOfNewOrleans_JohnnyHorton_Original5S.wav,,,,,,,,,,,,,,,,,,,,,,,,,,,,,,,,,,,,,,,,,,,,,,,,,,,
,,,,,775549,1,2024-07-12_19h19.01.215,experiment,2024.1.5,Win32,144.9275362,6691931c2c63981b064e1f0c,6691b86bf6ae03b54151c579,,,,,,,,,,,,,,,,,,,,,,,,,,,,,,,,,,,,,,,,,,,,,,,,,,,,,,,,,,,,1840.6358,1849.999,0.217592593,0.097222222,1.0,0.0,0.0,3.3599,compass,0.0,32.0,32.0,6.0,1.0,SoundStimuli/Levitating_DuaLipa_Original5S.wav,,,,,,,,,,,,,,,,,,,,,,,,,,,,,,,,,,,,,,,,,,,,,,,,,,,
,,,,,775549,1,2024-07-12_19h19.01.215,experiment,2024.1.5,Win32,144.9275362,6691931c2c63981b064e1f0c,6691b86bf6ae03b54151c579,,,,,,,,,,,,,,,,,,,,,,,,,,,,,,,,,,,,,,,,,,,,,,,,,,,,,,,,,,,,1850.0046,1861.8984,0.118518519,0.038888889,1.0,0.0,0.0,5.8899,compass,0.0,33.0,33.0,1.0,1.0,SoundStimuli/Stronger_KanyeWest_Cover5S.wav,,,,,,,,,,,,,,,,,,,,,,,,,,,,,,,,,,,,,,,,,,,,,,,,,,,
,,,,,775549,1,2024-07-12_19h19.01.215,experiment,2024.1.5,Win32,144.9275362,6691931c2c63981b064e1f0c,6691b86bf6ae03b54151c579,,,,,,,,,,,,,,,,,,,,,,,,,,,,,,,,,,,,,,,,,,,,,,,,,,,,,,,,,,,,1861.9033,1869.1405,0.20462963,0.225925926,1.0,0.0,0.0,1.234,compass,0.0,34.0,34.0,9.0,1.0,SoundStimuli/Despacito_LuisFonsiDaddyYankee_Original5S.wav,,,,,,,,,,,,,,,,,,,,,,,,,,,,,,,,,,,,,,,,,,,,,,,,,,,
,,,,,775549,1,2024-07-12_19h19.01.215,experiment,2024.1.5,Win32,144.9275362,6691931c2c63981b064e1f0c,6691b86bf6ae03b54151c579,,,,,,,,,,,,,,,,,,,,,,,,,,,,,,,,,,,,,,,,,,,,,,,,,,,,,,,,,,,,,,,,,,,,,,,,,,,1869.1467,1876.8463,space,7.6956,,1876.8464,1879.7904,right,2.9372,,0.0,2.0,2.0,2.0,1.0,block_order/blockC.xlsx,,,,,,,,,,,,,,,,,,,,,,,,,,,,,,,,,,,
,,,,,775549,1,2024-07-12_19h19.01.215,experiment,2024.1.5,Win32,144.9275362,6691931c2c63981b064e1f0c,6691b86bf6ae03b54151c579,,,,,,,,,,,,,,,,,,,,,,,,,,,,,,,,,,,,,,,,,,,,,,,,,,,,,,,,,,,,1879.7956,1886.7855,0.151851852,0.194444444,1.0,0.0,0.0,0.9871,compass,0.0,0.0,0.0,31.0,1.0,SoundStimuli/TossinAndTurnin_BobbyLewis_Original5S.wav,,,,,,,,,,,,,,,,,,,,,,,,,,,,,,,,,,,,,,,,,,,,,,,,,,,
,,,,,775549,1,2024-07-12_19h19.01.215,experiment,2024.1.5,Win32,144.9275362,6691931c2c63981b064e1f0c,6691b86bf6ae03b54151c579,,,,,,,,,,,,,,,,,,,,,,,,,,,,,,,,,,,,,,,,,,,,,,,,,,,,,,,,,,,,1886.7917,1893.4946,-0.125,0.235185185,1.0,0.0,0.0,0.7019,compass,0.0,1.0,1.0,10.0,1.0,SoundStimuli/LeFreak_Chic_Cover5S.wav,,,,,,,,,,,,,,,,,,,,,,,,,,,,,,,,,,,,,,,,,,,,,,,,,,,
,,,,,775549,1,2024-07-12_19h19.01.215,experiment,2024.1.5,Win32,144.9275362,6691931c2c63981b064e1f0c,6691b86bf6ae03b54151c579,,,,,,,,,,,,,,,,,,,,,,,,,,,,,,,,,,,,,,,,,,,,,,,,,,,,,,,,,,,,1893.4995,1901.2109,-0.136111111,-0.125925926,1.0,0.0,0.0,1.7088,compass,0.0,2.0,2.0,25.0,1.0,SoundStimuli/IllMakeLoveToYou_BoyzIIMen_Cover5S.wav,,,,,,,,,,,,,,,,,,,,,,,,,,,,,,,,,,,,,,,,,,,,,,,,,,,
,,,,,775549,1,2024-07-12_19h19.01.215,experiment,2024.1.5,Win32,144.9275362,6691931c2c63981b064e1f0c,6691b86bf6ae03b54151c579,,,,,,,,,,,,,,,,,,,,,,,,,,,,,,,,,,,,,,,,,,,,,,,,,,,,,,,,,,,,1901.2163,1909.6153,-0.20462963,-0.172222222,1.0,0.0,0.0,2.3967,compass,0.0,3.0,3.0,30.0,1.0,SoundStimuli/SomebodyThatIUsedtoKnow_Gotye_Original5S.wav,,,,,,,,,,,,,,,,,,,,,,,,,,,,,,,,,,,,,,,,,,,,,,,,,,,
,,,,,775549,1,2024-07-12_19h19.01.215,experiment,2024.1.5,Win32,144.9275362,6691931c2c63981b064e1f0c,6691b86bf6ae03b54151c579,,,,,,,,,,,,,,,,,,,,,,,,,,,,,,,,,,,,,,,,,,,,,,,,,,,,,,,,,,,,1909.6233,1916.5137,-0.262037037,-0.261111111,1.0,0.0,0.0,0.8837,compass,0.0,4.0,4.0,32.0,1.0,SoundStimuli/Dilemma_NellyKellyRowland_Cover5S.wav,,,,,,,,,,,,,,,,,,,,,,,,,,,,,,,,,,,,,,,,,,,,,,,,,,,
,,,,,775549,1,2024-07-12_19h19.01.215,experiment,2024.1.5,Win32,144.9275362,6691931c2c63981b064e1f0c,6691b86bf6ae03b54151c579,,,,,,,,,,,,,,,,,,,,,,,,,,,,,,,,,,,,,,,,,,,,,,,,,,,,,,,,,,,,1916.5194,1927.9804,0.224074074,0.146296296,1.0,0.0,0.0,5.46,compass,0.0,5.0,5.0,28.0,1.0,SoundStimuli/IWantToHoldYourHand_TheBeatles_Original5S.wav,,,,,,,,,,,,,,,,,,,,,,,,,,,,,,,,,,,,,,,,,,,,,,,,,,,
,,,,,775549,1,2024-07-12_19h19.01.215,experiment,2024.1.5,Win32,144.9275362,6691931c2c63981b064e1f0c,6691b86bf6ae03b54151c579,,,,,,,,,,,,,,,,,,,,,,,,,,,,,,,,,,,,,,,,,,,,,,,,,,,,,,,,,,,,1927.9899,1936.8631,0.222222222,0.103703704,1.0,0.0,0.0,2.8685,compass,0.0,6.0,6.0,21.0,1.0,SoundStimuli/BridgeOverTroubledWater_SimonAndGarfunkel_Original5S.wav,,,,,,,,,,,,,,,,,,,,,,,,,,,,,,,,,,,,,,,,,,,,,,,,,,,
,,,,,775549,1,2024-07-12_19h19.01.215,experiment,2024.1.5,Win32,144.9275362,6691931c2c63981b064e1f0c,6691b86bf6ae03b54151c579,,,,,,,,,,,,,,,,,,,,,,,,,,,,,,,,,,,,,,,,,,,,,,,,,,,,,,,,,,,,1936.8695,1944.3715,0.24537037,0.151851852,1.0,0.0,0.0,1.5006,compass,0.0,7.0,7.0,23.0,1.0,SoundStimuli/IWalkTheLine_JohnnyCash_Original5S.wav,,,,,,,,,,,,,,,,,,,,,,,,,,,,,,,,,,,,,,,,,,,,,,,,,,,
,,,,,775549,1,2024-07-12_19h19.01.215,experiment,2024.1.5,Win32,144.9275362,6691931c2c63981b064e1f0c,6691b86bf6ae03b54151c579,,,,,,,,,,,,,,,,,,,,,,,,,,,,,,,,,,,,,,,,,,,,,,,,,,,,,,,,,,,,1944.3789,1956.741,0.190740741,0.060185185,1.0,0.0,0.0,6.3552,compass,0.0,8.0,8.0,3.0,1.0,SoundStimuli/PartyRockAnthem_LMFAO_Original5S.wav,,,,,,,,,,,,,,,,,,,,,,,,,,,,,,,,,,,,,,,,,,,,,,,,,,,
,,,,,775549,1,2024-07-12_19h19.01.215,experiment,2024.1.5,Win32,144.9275362,6691931c2c63981b064e1f0c,6691b86bf6ae03b54151c579,,,,,,,,,,,,,,,,,,,,,,,,,,,,,,,,,,,,,,,,,,,,,,,,,,,,,,,,,,,,1956.7459,1968.3961,0.256481481,0.234259259,1.0,0.0,0.0,5.6471,compass,0.0,9.0,9.0,24.0,1.0,SoundStimuli/Kiss_Prince_Cover5S.wav,,,,,,,,,,,,,,,,,,,,,,,,,,,,,,,,,,,,,,,,,,,,,,,,,,,
,,,,,775549,1,2024-07-12_19h19.01.215,experiment,2024.1.5,Win32,144.9275362,6691931c2c63981b064e1f0c,6691b86bf6ae03b54151c579,,,,,,,,,,,,,,,,,,,,,,,,,,,,,,,,,,,,,,,,,,,,,,,,,,,,,,,,,,,,1968.4018,1975.4671,-0.240740741,0.292592593,1.0,0.0,0.0,1.0631,compass,0.0,10.0,10.0,2.0,1.0,SoundStimuli/SmellsLikeTeenSpirit_Nirvana_Original5S.wav,,,,,,,,,,,,,,,,,,,,,,,,,,,,,,,,,,,,,,,,,,,,,,,,,,,
,,,,,775549,1,2024-07-12_19h19.01.215,experiment,2024.1.5,Win32,144.9275362,6691931c2c63981b064e1f0c,6691b86bf6ae03b54151c579,,,,,,,,,,,,,,,,,,,,,,,,,,,,,,,,,,,,,,,,,,,,,,,,,,,,,,,,,,,,1975.4728,1982.3294,0.184259259,0.086111111,1.0,0.0,0.0,0.8547,compass,0.0,11.0,11.0,20.0,1.0,SoundStimuli/FlashdanceWhatAFeeling_IreneCara_Original5S.wav,,,,,,,,,,,,,,,,,,,,,,,,,,,,,,,,,,,,,,,,,,,,,,,,,,,
,,,,,775549,1,2024-07-12_19h19.01.215,experiment,2024.1.5,Win32,144.9275362,6691931c2c63981b064e1f0c,6691b86bf6ae03b54151c579,,,,,,,,,,,,,,,,,,,,,,,,,,,,,,,,,,,,,,,,,,,,,,,,,,,,,,,,,,,,1982.3359,1989.726,0.142592593,0.150925926,1.0,0.0,0.0,1.3889,compass,0.0,12.0,12.0,26.0,1.0,SoundStimuli/TheSign_AceOfBase_Cover5S.wav,,,,,,,,,,,,,,,,,,,,,,,,,,,,,,,,,,,,,,,,,,,,,,,,,,,
,,,,,775549,1,2024-07-12_19h19.01.215,experiment,2024.1.5,Win32,144.9275362,6691931c2c63981b064e1f0c,6691b86bf6ae03b54151c579,,,,,,,,,,,,,,,,,,,,,,,,,,,,,,,,,,,,,,,,,,,,,,,,,,,,,,,,,,,,1989.7308,1999.4787,-0.062962963,-0.161111111,1.0,0.0,0.0,3.7446,compass,0.0,13.0,13.0,19.0,1.0,SoundStimuli/YouLightUpMyLife_DebbyBoone_Original5S.wav,,,,,,,,,,,,,,,,,,,,,,,,,,,,,,,,,,,,,,,,,,,,,,,,,,,
,,,,,775549,1,2024-07-12_19h19.01.215,experiment,2024.1.5,Win32,144.9275362,6691931c2c63981b064e1f0c,6691b86bf6ae03b54151c579,,,,,,,,,,,,,,,,,,,,,,,,,,,,,,,,,,,,,,,,,,,,,,,,,,,,,,,,,,,,1999.4842,2009.7836,0.216666667,0.085185185,1.0,0.0,0.0,4.2977,compass,0.0,14.0,14.0,33.0,1.0,SoundStimuli/TheBoyIsMine_BrandyMonica_Original5S.wav,,,,,,,,,,,,,,,,,,,,,,,,,,,,,,,,,,,,,,,,,,,,,,,,,,,
,,,,,775549,1,2024-07-12_19h19.01.215,experiment,2024.1.5,Win32,144.9275362,6691931c2c63981b064e1f0c,6691b86bf6ae03b54151c579,,,,,,,,,,,,,,,,,,,,,,,,,,,,,,,,,,,,,,,,,,,,,,,,,,,,,,,,,,,,2009.7893,2034.8102,-0.158333333,-0.133333333,1.0,0.0,0.0,19.0174,compass,0.0,15.0,15.0,18.0,1.0,SoundStimuli/Weak_SWV_Cover5S.wav,,,,,,,,,,,,,,,,,,,,,,,,,,,,,,,,,,,,,,,,,,,,,,,,,,,
,,,,,775549,1,2024-07-12_19h19.01.215,experiment,2024.1.5,Win32,144.9275362,6691931c2c63981b064e1f0c,6691b86bf6ae03b54151c579,,,,,,,,,,,,,,,,,,,,,,,,,,,,,,,,,,,,,,,,,,,,,,,,,,,,,,,,,,,,2034.8158,2048.5418,0.271296296,0.147222222,1.0,0.0,0.0,7.7235,compass,0.0,16.0,16.0,17.0,1.0,SoundStimuli/IWannaDanceWithSomebody_WhitneyHouston_Original5S.wav,,,,,,,,,,,,,,,,,,,,,,,,,,,,,,,,,,,,,,,,,,,,,,,,,,,
,,,,,775549,1,2024-07-12_19h19.01.215,experiment,2024.1.5,Win32,144.9275362,6691931c2c63981b064e1f0c,6691b86bf6ae03b54151c579,,,,,,,,,,,,,,,,,,,,,,,,,,,,,,,,,,,,,,,,,,,,,,,,,,,,,,,,,,,,2048.5473,2067.6283,-0.15462963,-0.187962963,1.0,0.0,0.0,13.0788,compass,0.0,17.0,17.0,13.0,1.0,SoundStimuli/Perfect_EdSheeran_Cover5S.wav,,,,,,,,,,,,,,,,,,,,,,,,,,,,,,,,,,,,,,,,,,,,,,,,,,,
,,,,,775549,1,2024-07-12_19h19.01.215,experiment,2024.1.5,Win32,144.9275362,6691931c2c63981b064e1f0c,6691b86bf6ae03b54151c579,,,,,,,,,,,,,,,,,,,,,,,,,,,,,,,,,,,,,,,,,,,,,,,,,,,,,,,,,,,,2067.6334,2078.304,0.155555556,0.10462963,1.0,0.0,0.0,4.6678,compass,0.0,18.0,18.0,4.0,1.0,SoundStimuli/Dreams_FleetwoodMac_Original5S.wav,,,,,,,,,,,,,,,,,,,,,,,,,,,,,,,,,,,,,,,,,,,,,,,,,,,
,,,,,775549,1,2024-07-12_19h19.01.215,experiment,2024.1.5,Win32,144.9275362,6691931c2c63981b064e1f0c,6691b86bf6ae03b54151c579,,,,,,,,,,,,,,,,,,,,,,,,,,,,,,,,,,,,,,,,,,,,,,,,,,,,,,,,,,,,2078.3088,2088.4517,0.157407407,0.062037037,1.0,0.0,0.0,4.1399,compass,0.0,19.0,19.0,34.0,1.0,SoundStimuli/Irreplaceable_Beyonce_Cover5S.wav,,,,,,,,,,,,,,,,,,,,,,,,,,,,,,,,,,,,,,,,,,,,,,,,,,,
,,,,,775549,1,2024-07-12_19h19.01.215,experiment,2024.1.5,Win32,144.9275362,6691931c2c63981b064e1f0c,6691b86bf6ae03b54151c579,,,,,,,,,,,,,,,,,,,,,,,,,,,,,,,,,,,,,,,,,,,,,,,,,,,,,,,,,,,,2088.4566,2099.7311,0.116666667,0.061111111,1.0,0.0,0.0,5.2719,compass,0.0,20.0,20.0,14.0,1.0,SoundStimuli/LikeARollingStone_BobDylan_Original5S.wav,,,,,,,,,,,,,,,,,,,,,,,,,,,,,,,,,,,,,,,,,,,,,,,,,,,
,,,,,775549,1,2024-07-12_19h19.01.215,experiment,2024.1.5,Win32,144.9275362,6691931c2c63981b064e1f0c,6691b86bf6ae03b54151c579,,,,,,,,,,,,,,,,,,,,,,,,,,,,,,,,,,,,,,,,,,,,,,,,,,,,,,,,,,,,2099.7361,2113.6293,0.116666667,0.061111111,1.0,0.0,0.0,7.8903,compass,0.0,21.0,21.0,16.0,1.0,SoundStimuli/ItsAllInTheGame_TommyEdwards_Cover5S.wav,,,,,,,,,,,,,,,,,,,,,,,,,,,,,,,,,,,,,,,,,,,,,,,,,,,
,,,,,775549,1,2024-07-12_19h19.01.215,experiment,2024.1.5,Win32,144.9275362,6691931c2c63981b064e1f0c,6691b86bf6ae03b54151c579,,,,,,,,,,,,,,,,,,,,,,,,,,,,,,,,,,,,,,,,,,,,,,,,,,,,,,,,,,,,2113.6346,2133.5703,0.116666667,0.061111111,1.0,0.0,0.0,13.9331,compass,0.0,22.0,22.0,9.0,1.0,SoundStimuli/HowDoILive_LeAnnRimes_Cover5S.wav,,,,,,,,,,,,,,,,,,,,,,,,,,,,,,,,,,,,,,,,,,,,,,,,,,,
,,,,,775549,1,2024-07-12_19h19.01.215,experiment,2024.1.5,Win32,144.9275362,6691931c2c63981b064e1f0c,6691b86bf6ae03b54151c579,,,,,,,,,,,,,,,,,,,,,,,,,,,,,,,,,,,,,,,,,,,,,,,,,,,,,,,,,,,,2133.5753,2154.9767,0.083333333,0.083333333,1.0,0.0,0.0,15.3985,compass,0.0,23.0,23.0,6.0,1.0,SoundStimuli/SaveYourTears_TheWeekndArianaGrande_Cover5S.wav,,,,,,,,,,,,,,,,,,,,,,,,,,,,,,,,,,,,,,,,,,,,,,,,,,,
,,,,,775549,1,2024-07-12_19h19.01.215,experiment,2024.1.5,Win32,144.9275362,6691931c2c63981b064e1f0c,6691b86bf6ae03b54151c579,,,,,,,,,,,,,,,,,,,,,,,,,,,,,,,,,,,,,,,,,,,,,,,,,,,,,,,,,,,,2154.9817,2167.5344,0.083333333,0.083333333,1.0,0.0,0.0,6.5498,compass,0.0,24.0,24.0,15.0,1.0,SoundStimuli/CrazyInLove_BeyonceFtJayZ_Cover5S.wav,,,,,,,,,,,,,,,,,,,,,,,,,,,,,,,,,,,,,,,,,,,,,,,,,,,
,,,,,775549,1,2024-07-12_19h19.01.215,experiment,2024.1.5,Win32,144.9275362,6691931c2c63981b064e1f0c,6691b86bf6ae03b54151c579,,,,,,,,,,,,,,,,,,,,,,,,,,,,,,,,,,,,,,,,,,,,,,,,,,,,,,,,,,,,2167.5393,2177.8765,-0.133333333,0.074074074,1.0,0.0,0.0,4.3342,compass,0.0,25.0,25.0,7.0,1.0,SoundStimuli/MackTheKnife_BobbyDarin_Cover5S.wav,,,,,,,,,,,,,,,,,,,,,,,,,,,,,,,,,,,,,,,,,,,,,,,,,,,
,,,,,775549,1,2024-07-12_19h19.01.215,experiment,2024.1.5,Win32,144.9275362,6691931c2c63981b064e1f0c,6691b86bf6ae03b54151c579,,,,,,,,,,,,,,,,,,,,,,,,,,,,,,,,,,,,,,,,,,,,,,,,,,,,,,,,,,,,2177.8815,2184.3151,0.281481481,0.090740741,1.0,0.0,0.0,0.4306,compass,0.0,26.0,26.0,0.0,1.0,SoundStimuli/GimmeShelter_RollingStones_Original5S.wav,,,,,,,,,,,,,,,,,,,,,,,,,,,,,,,,,,,,,,,,,,,,,,,,,,,
,,,,,775549,1,2024-07-12_19h19.01.215,experiment,2024.1.5,Win32,144.9275362,6691931c2c63981b064e1f0c,6691b86bf6ae03b54151c579,,,,,,,,,,,,,,,,,,,,,,,,,,,,,,,,,,,,,,,,,,,,,,,,,,,,,,,,,,,,2184.3198,2192.4346,0.281481481,0.090740741,1.0,0.0,0.0,2.1116,compass,0.0,27.0,27.0,29.0,1.0,SoundStimuli/BetteDavisEyes_KimCarnes_Original5S.wav,,,,,,,,,,,,,,,,,,,,,,,,,,,,,,,,,,,,,,,,,,,,,,,,,,,
,,,,,775549,1,2024-07-12_19h19.01.215,experiment,2024.1.5,Win32,144.9275362,6691931c2c63981b064e1f0c,6691b86bf6ae03b54151c579,,,,,,,,,,,,,,,,,,,,,,,,,,,,,,,,,,,,,,,,,,,,,,,,,,,,,,,,,,,,2192.4395,2201.6655,0.203703704,0.105555556,1.0,0.0,0.0,3.2229,compass,0.0,28.0,28.0,8.0,1.0,SoundStimuli/EndlessLove_DianaRossLionelRichie_Cover5S.wav,,,,,,,,,,,,,,,,,,,,,,,,,,,,,,,,,,,,,,,,,,,,,,,,,,,
,,,,,775549,1,2024-07-12_19h19.01.215,experiment,2024.1.5,Win32,144.9275362,6691931c2c63981b064e1f0c,6691b86bf6ae03b54151c579,,,,,,,,,,,,,,,,,,,,,,,,,,,,,,,,,,,,,,,,,,,,,,,,,,,,,,,,,,,,2201.6716,2209.4097,0.203703704,0.10462963,1.0,0.0,0.0,1.7363,compass,0.0,29.0,29.0,11.0,1.0,SoundStimuli/BlurredLines_RobinThicke_Cover5S.wav,,,,,,,,,,,,,,,,,,,,,,,,,,,,,,,,,,,,,,,,,,,,,,,,,,,
,,,,,775549,1,2024-07-12_19h19.01.215,experiment,2024.1.5,Win32,144.9275362,6691931c2c63981b064e1f0c,6691b86bf6ae03b54151c579,,,,,,,,,,,,,,,,,,,,,,,,,,,,,,,,,,,,,,,,,,,,,,,,,,,,,,,,,,,,2209.4146,2216.2859,0.203703704,0.10462963,1.0,0.0,0.0,0.8683,compass,0.0,30.0,30.0,22.0,1.0,SoundStimuli/Happy_PharellWilliams_Original5S.wav,,,,,,,,,,,,,,,,,,,,,,,,,,,,,,,,,,,,,,,,,,,,,,,,,,,
,,,,,775549,1,2024-07-12_19h19.01.215,experiment,2024.1.5,Win32,144.9275362,6691931c2c63981b064e1f0c,6691b86bf6ae03b54151c579,,,,,,,,,,,,,,,,,,,,,,,,,,,,,,,,,,,,,,,,,,,,,,,,,,,,,,,,,,,,2216.2909,2226.5447,0.212037037,0.098148148,1.0,0.0,0.0,4.2507,compass,0.0,31.0,31.0,27.0,1.0,SoundStimuli/EyeOfTheTiger_Survivor_Cover5S.wav,,,,,,,,,,,,,,,,,,,,,,,,,,,,,,,,,,,,,,,,,,,,,,,,,,,
,,,,,775549,1,2024-07-12_19h19.01.215,experiment,2024.1.5,Win32,144.9275362,6691931c2c63981b064e1f0c,6691b86bf6ae03b54151c579,,,,,,,,,,,,,,,,,,,,,,,,,,,,,,,,,,,,,,,,,,,,,,,,,,,,,,,,,,,,2226.5502,2232.7263,-0.169444444,-0.114814815,1.0,0.0,0.0,0.1736,compass,0.0,32.0,32.0,12.0,1.0,SoundStimuli/UnbreakMyHeart_ToniBraxton_Original5S.wav,,,,,,,,,,,,,,,,,,,,,,,,,,,,,,,,,,,,,,,,,,,,,,,,,,,
,,,,,775549,1,2024-07-12_19h19.01.215,experiment,2024.1.5,Win32,144.9275362,6691931c2c63981b064e1f0c,6691b86bf6ae03b54151c579,,,,,,,,,,,,,,,,,,,,,,,,,,,,,,,,,,,,,,,,,,,,,,,,,,,,,,,,,,,,2232.7317,2240.2624,0.157407407,0.182407407,1.0,0.0,0.0,1.5281,compass,0.0,33.0,33.0,1.0,1.0,SoundStimuli/Smooth_SantanaRobThomas_Original5S.wav,,,,,,,,,,,,,,,,,,,,,,,,,,,,,,,,,,,,,,,,,,,,,,,,,,,
,,,,,775549,1,2024-07-12_19h19.01.215,experiment,2024.1.5,Win32,144.9275362,6691931c2c63981b064e1f0c,6691b86bf6ae03b54151c579,,,,,,,,,,,,,,,,,,,,,,,,,,,,,,,,,,,,,,,,,,,,,,,,,,,,,,,,,,,,2240.2669,2246.569,0.217592593,-0.14537037,1.0,0.0,0.0,0.2986,compass,0.0,34.0,34.0,5.0,1.0,SoundStimuli/JoyToTheWorld_ThreeDogNight_Original5S.wav,,,,,,,,,,,,,,,,,,,,,,,,,,,,,,,,,,,,,,,,,,,,,,,,,,,
,,,,,775549,1,2024-07-12_19h19.01.215,experiment,2024.1.5,Win32,144.9275362,6691931c2c63981b064e1f0c,6691b86bf6ae03b54151c579,,,,,,,,,,,,,,,,,,,,,,,,,,,,,,,,,,,,,,,,,,,,,,,,,,,,,,,,,,,,,,,,,,,,,,,,,,,2246.5741,2246.5742,,,,2246.5742,2246.5742,,,,0.0,3.0,3.0,3.0,1.0,block_order/blockD.xlsx,,,,,,,,,,,,,,,,,,,,,,,,,,,,,,,,,,,
,,,,,775549,1,2024-07-12_19h19.01.215,experiment,2024.1.5,Win32,144.9275362,6691931c2c63981b064e1f0c,6691b86bf6ae03b54151c579,,,,,,,,,,,,,,,,,,,,,,,,,,,,,,,,,,,,,,,,,,,,,,,,,,,,,,,,,,,,,,,,,,,,,,,,,,,,,,,,,,,,,,,,,,,21.0,Item 2,Not a musician,Item 4,"Spotify, YouTube",6.0,7.0,"gaming, hanging out with friends, exercising, driving",Rarely,Rarely,Often,Sometimes,Sometimes,Sometimes,Rarely,Often,Never,Rarely,Never,Often,Rarely,Rarely,Rarely,Sometimes,Alternative,Metal,Rap,"I went from liking only a few genres or songs to putting all my listening into only Metal, to then listen to almost any genre now! My preference is very optimistic but I don't take the time to discover new music that much.",0.0,0.0,0.0,0.0,1.0,,
,,,,,775549,1,2024-07-12_19h19.01.215,experiment,2024.1.5,Win32,144.9275362,6691931c2c63981b064e1f0c,6691b86bf6ae03b54151c579,,,,,,,,,,,,,,,,,,,,,,,,,,,,,,,,,,,,,,,,,,,,,,,,,,,,,,,,,,,,,,,,,,,,,,,,,,,,,,,,,,,,,,,,,,,,,,,,,,,,,,,,,,,,,,,,,,,,,,,,,,,,2506.9551,2509.427
