welcome.started,welcome.stopped,space_to_continue.keys,space_to_continue.rt,space_to_continue.duration,participant,session,date,expName,psychopyVersion,OS,frameRate,STUDY_ID,SESSION_ID,consent.consent,consent.consent_recontact,consent_check.started,consent_check.stopped,calibration_ready.started,calibration_ready.stopped,cal_ready.keys,cal_ready.rt,cal_ready.duration,calibration.started,calibration.stopped,mouse.x,mouse.y,mouse.leftButton,mouse.midButton,mouse.rightButton,mouse.time,mouse.clicked_name,move_on.keys,move_on.rt,move_on.duration,run_cal.thisRepN,run_cal.thisTrialN,run_cal.thisN,run_cal.thisIndex,run_cal.ran,emotion_training_ready.started,emotion_training_ready.stopped,training_move_on.keys,training_move_on.rt,training_move_on.duration,examples.started,examples.stopped,emotion_scale.started,emotion_scale.stopped,scale_next.keys,scale_next.rt,scale_next.duration,instructions.started,instructions.stopped,next.keys,next.rt,next.duration,practice_task.started,practice_task.stopped,mouse_rating_2.x,mouse_rating_2.y,mouse_rating_2.leftButton,mouse_rating_2.midButton,mouse_rating_2.rightButton,mouse_rating_2.time,mouse_rating_2.clicked_name,ready.started,ready.stopped,key_resp.keys,key_resp.rt,key_resp.duration,set_group.started,set_group.stopped,task.started,task.stopped,mouse_rating.x,mouse_rating.y,mouse_rating.leftButton,mouse_rating.midButton,mouse_rating.rightButton,mouse_rating.time,mouse_rating.clicked_name,trials.thisRepN,trials.thisTrialN,trials.thisN,trials.thisIndex,trials.ran,clip,short_break.started,short_break.stopped,space_to_move_on.keys,space_to_move_on.rt,space_to_move_on.duration,instruction_reminder.started,instruction_reminder.stopped,reminder_move_on.keys,reminder_move_on.rt,reminder_move_on.duration,blocks.thisRepN,blocks.thisTrialN,blocks.thisN,blocks.thisIndex,blocks.ran,block,post_survey.age,post_survey.musician,post_survey.listen_time,post_survey.music_making,post_survey.medium,post_survey.music_seeking,post_survey.music_choice,post_survey.activities,post_survey.question1.A cappella,post_survey.question1.Latin,post_survey.question1.R&B,post_survey.question1.Classic rock,post_survey.question1.Ambient,post_survey.question1.Reggae,post_survey.question1.Metal,post_survey.question1.Pop,post_survey.question1.Jazz,post_survey.question1.Electronic (EDM),post_survey.question1.Folk/indie,post_survey.question1.Hip hop,post_survey.question1.Disco,post_survey.question1.Classical,post_survey.question1.Country,post_survey.question1.Alternative rock,post_survey.other_genres,post_survey.genres_ranked.text1,post_survey.genres_ranked.text2,post_survey.genres_ranked.text3,post_survey.habit_change,post_survey.habits,show_exp.thisRepN,show_exp.thisTrialN,show_exp.thisN,show_exp.thisIndex,show_exp.ran,goodbye.started,goodbye.stopped
0.0051,1.6197,space,1.5805,,798641,1,2024-07-12_19h43.10.807,experiment,2024.1.5,Win32,60.60606061,6691931c2c63981b064e1f0c,6691bc46139b538a1a432b1c,,,,,,,,,,,,,,,,,,,,,,,,,,,,,,,,,,,,,,,,,,,,,,,,,,,,,,,,,,,,,,,,,,,,,,,,,,,,,,,,,,,,,,,,,,,,,,,,,,,,,,,,,,,,,,,,,,,,,,,,,,,,,,,
,,,,,798641,1,2024-07-12_19h43.10.807,experiment,2024.1.5,Win32,60.60606061,6691931c2c63981b064e1f0c,6691bc46139b538a1a432b1c,yes,yes,,,,,,,,,,,,,,,,,,,,,,,,,,,,,,,,,,,,,,,,,,,,,,,,,,,,,,,,,,,,,,,,,,,,,,,,,,,,,,,,,,,,,,,,,,,,,,,,,,,,,,,,,,,,,,,,,,,,,,,,,,,,,
,,,,,798641,1,2024-07-12_19h43.10.807,experiment,2024.1.5,Win32,60.60606061,6691931c2c63981b064e1f0c,6691bc46139b538a1a432b1c,,,19.5838,19.5841,,,,,,,,,,,,,,,,,,,,,,,,,,,,,,,,,,,,,,,,,,,,,,,,,,,,,,,,,,,,,,,,,,,,,,,,,,,,,,,,,,,,,,,,,,,,,,,,,,,,,,,,,,,,,,,,,,,,,,,,,,,
,,,,,798641,1,2024-07-12_19h43.10.807,experiment,2024.1.5,Win32,60.60606061,6691931c2c63981b064e1f0c,6691bc46139b538a1a432b1c,,,,,19.5875,20.6573,space,1.0421,,20.6592,39.7074,"[0.004629686143663194,0.002777777777777778,-0.007407379150390625,-0.01481475830078125]","[-0.41388888888888886,-0.4379630194769965,-0.3907407972547743,-0.4027777777777778]","[1,1,1,1]","[0,0,0,0]","[0,0,0,0]","[7.2309999999999945,15.219799999997008,15.801699999995549,16.584799999997017]","[""play_button"",""play_button"",""play_button""]",y,17.9995,,0.0,0.0,0.0,0.0,1.0,,,,,,,,,,,,,,,,,,,,,,,,,,,,,,,,,,,,,,,,,,,,,,,,,,,,,,,,,,,,,,,,,,,,,,,,,,,,,,,,,,,,,,,,,,,,,,,,,,,,,
,,,,,798641,1,2024-07-12_19h43.10.807,experiment,2024.1.5,Win32,60.60606061,6691931c2c63981b064e1f0c,6691bc46139b538a1a432b1c,,,,,,,,,,,,,,,,,,,,,,,,,,,39.7099,55.3465,space,15.6027,,55.3467,175.3614,175.3617,181.8137,right,2.9129,,181.814,186.2669,space,4.4083,,186.2671,198.7756,0.132407464,-0.158333333,1.0,0.0,0.0,6.4974,compass_2,198.7759,200.1478,space,1.3527,,200.1482,200.1619,200.2043,207.0069,0.150925954,-0.116666667,1.0,0.0,0.0,0.7994,compass,0.0,0.0,0.0,19.0,1.0,SoundStimuli/YouLightUpMyLife_DebbyBoone_Original5S.wav,,,,,,,,,,,,,,,,,,,,,,,,,,,,,,,,,,,,,,,,,,,,,,,,,,,,,
,,,,,798641,1,2024-07-12_19h43.10.807,experiment,2024.1.5,Win32,60.60606061,6691931c2c63981b064e1f0c,6691bc46139b538a1a432b1c,,,,,,,,,,,,,,,,,,,,,,,,,,,,,,,,,,,,,,,,,,,,,,,,,,,,,,,,,,,,207.019,215.3061,-0.190740712,0.226851845,1.0,0.0,0.0,2.2838,compass,0.0,1.0,1.0,33.0,1.0,SoundStimuli/TheBoyIsMine_BrandyMonica_Original5S.wav,,,,,,,,,,,,,,,,,,,,,,,,,,,,,,,,,,,,,,,,,,,,,,,,,,,,,
,,,,,798641,1,2024-07-12_19h43.10.807,experiment,2024.1.5,Win32,60.60606061,6691931c2c63981b064e1f0c,6691bc46139b538a1a432b1c,,,,,,,,,,,,,,,,,,,,,,,,,,,,,,,,,,,,,,,,,,,,,,,,,,,,,,,,,,,,215.3187,222.0585,0.182407464,-0.177777778,1.0,0.0,0.0,0.735,compass,0.0,2.0,2.0,13.0,1.0,SoundStimuli/Perfect_EdSheeran_Cover5S.wav,,,,,,,,,,,,,,,,,,,,,,,,,,,,,,,,,,,,,,,,,,,,,,,,,,,,,
,,,,,798641,1,2024-07-12_19h43.10.807,experiment,2024.1.5,Win32,60.60606061,6691931c2c63981b064e1f0c,6691bc46139b538a1a432b1c,,,,,,,,,,,,,,,,,,,,,,,,,,,,,,,,,,,,,,,,,,,,,,,,,,,,,,,,,,,,222.0742,228.3887,0.215740797,0.251851845,1.0,0.0,0.0,0.3019,compass,0.0,3.0,3.0,3.0,1.0,SoundStimuli/PartyRockAnthem_LMFAO_Original5S.wav,,,,,,,,,,,,,,,,,,,,,,,,,,,,,,,,,,,,,,,,,,,,,,,,,,,,,
,,,,,798641,1,2024-07-12_19h43.10.807,experiment,2024.1.5,Win32,60.60606061,6691931c2c63981b064e1f0c,6691bc46139b538a1a432b1c,,,,,,,,,,,,,,,,,,,,,,,,,,,,,,,,,,,,,,,,,,,,,,,,,,,,,,,,,,,,228.4036,234.7699,0.076851908,-0.1,1.0,0.0,0.0,0.3647,compass,0.0,4.0,4.0,8.0,1.0,SoundStimuli/EndlessLove_DianaRossLionelRichie_Cover5S.wav,,,,,,,,,,,,,,,,,,,,,,,,,,,,,,,,,,,,,,,,,,,,,,,,,,,,,
,,,,,798641,1,2024-07-12_19h43.10.807,experiment,2024.1.5,Win32,60.60606061,6691931c2c63981b064e1f0c,6691bc46139b538a1a432b1c,,,,,,,,,,,,,,,,,,,,,,,,,,,,,,,,,,,,,,,,,,,,,,,,,,,,,,,,,,,,234.7817,242.5683,-0.222222222,0.198148134,1.0,0.0,0.0,1.783,compass,0.0,5.0,5.0,10.0,1.0,SoundStimuli/LeFreak_Chic_Cover5S.wav,,,,,,,,,,,,,,,,,,,,,,,,,,,,,,,,,,,,,,,,,,,,,,,,,,,,,
,,,,,798641,1,2024-07-12_19h43.10.807,experiment,2024.1.5,Win32,60.60606061,6691931c2c63981b064e1f0c,6691bc46139b538a1a432b1c,,,,,,,,,,,,,,,,,,,,,,,,,,,,,,,,,,,,,,,,,,,,,,,,,,,,,,,,,,,,242.5813,249.2182,-0.222222222,0.198148134,1.0,0.0,0.0,0.631,compass,0.0,6.0,6.0,7.0,1.0,SoundStimuli/MackTheKnife_BobbyDarin_Cover5S.wav,,,,,,,,,,,,,,,,,,,,,,,,,,,,,,,,,,,,,,,,,,,,,,,,,,,,,
,,,,,798641,1,2024-07-12_19h43.10.807,experiment,2024.1.5,Win32,60.60606061,6691931c2c63981b064e1f0c,6691bc46139b538a1a432b1c,,,,,,,,,,,,,,,,,,,,,,,,,,,,,,,,,,,,,,,,,,,,,,,,,,,,,,,,,,,,249.2305,255.6509,-0.163888889,-0.158333333,1.0,0.0,0.0,0.4174,compass,0.0,7.0,7.0,21.0,1.0,SoundStimuli/BridgeOverTroubledWater_SimonAndGarfunkel_Original5S.wav,,,,,,,,,,,,,,,,,,,,,,,,,,,,,,,,,,,,,,,,,,,,,,,,,,,,,
,,,,,798641,1,2024-07-12_19h43.10.807,experiment,2024.1.5,Win32,60.60606061,6691931c2c63981b064e1f0c,6691bc46139b538a1a432b1c,,,,,,,,,,,,,,,,,,,,,,,,,,,,,,,,,,,,,,,,,,,,,,,,,,,,,,,,,,,,255.6626,262.0495,0.152777778,0.121296268,1.0,0.0,0.0,0.381,compass,0.0,8.0,8.0,11.0,1.0,SoundStimuli/BlurredLines_RobinThicke_Cover5S.wav,,,,,,,,,,,,,,,,,,,,,,,,,,,,,,,,,,,,,,,,,,,,,,,,,,,,,
,,,,,798641,1,2024-07-12_19h43.10.807,experiment,2024.1.5,Win32,60.60606061,6691931c2c63981b064e1f0c,6691bc46139b538a1a432b1c,,,,,,,,,,,,,,,,,,,,,,,,,,,,,,,,,,,,,,,,,,,,,,,,,,,,,,,,,,,,262.0617,268.4512,0.086111111,-0.15648151,1.0,0.0,0.0,0.3856,compass,0.0,9.0,9.0,18.0,1.0,SoundStimuli/Weak_SWV_Cover5S.wav,,,,,,,,,,,,,,,,,,,,,,,,,,,,,,,,,,,,,,,,,,,,,,,,,,,,,
,,,,,798641,1,2024-07-12_19h43.10.807,experiment,2024.1.5,Win32,60.60606061,6691931c2c63981b064e1f0c,6691bc46139b538a1a432b1c,,,,,,,,,,,,,,,,,,,,,,,,,,,,,,,,,,,,,,,,,,,,,,,,,,,,,,,,,,,,268.4665,275.0644,-0.139814758,-0.116666667,1.0,0.0,0.0,0.5807,compass,0.0,10.0,10.0,16.0,1.0,SoundStimuli/ItsAllInTheGame_TommyEdwards_Cover5S.wav,,,,,,,,,,,,,,,,,,,,,,,,,,,,,,,,,,,,,,,,,,,,,,,,,,,,,
,,,,,798641,1,2024-07-12_19h43.10.807,experiment,2024.1.5,Win32,60.60606061,6691931c2c63981b064e1f0c,6691bc46139b538a1a432b1c,,,,,,,,,,,,,,,,,,,,,,,,,,,,,,,,,,,,,,,,,,,,,,,,,,,,,,,,,,,,275.0761,281.2137,0.178703732,0.162037023,1.0,0.0,0.0,0.1332,compass,0.0,11.0,11.0,17.0,1.0,SoundStimuli/IWannaDanceWithSomebody_WhitneyHouston_Original5S.wav,,,,,,,,,,,,,,,,,,,,,,,,,,,,,,,,,,,,,,,,,,,,,,,,,,,,,
,,,,,798641,1,2024-07-12_19h43.10.807,experiment,2024.1.5,Win32,60.60606061,6691931c2c63981b064e1f0c,6691bc46139b538a1a432b1c,,,,,,,,,,,,,,,,,,,,,,,,,,,,,,,,,,,,,,,,,,,,,,,,,,,,,,,,,,,,281.2258,287.5807,0.178703732,0.162037023,1.0,0.0,0.0,0.3502,compass,0.0,12.0,12.0,22.0,1.0,SoundStimuli/Happy_PharellWilliams_Original5S.wav,,,,,,,,,,,,,,,,,,,,,,,,,,,,,,,,,,,,,,,,,,,,,,,,,,,,,
,,,,,798641,1,2024-07-12_19h43.10.807,experiment,2024.1.5,Win32,60.60606061,6691931c2c63981b064e1f0c,6691bc46139b538a1a432b1c,,,,,,,,,,,,,,,,,,,,,,,,,,,,,,,,,,,,,,,,,,,,,,,,,,,,,,,,,,,,287.5923,294.0118,0.161111111,-0.232407464,1.0,0.0,0.0,0.4166,compass,0.0,13.0,13.0,25.0,1.0,SoundStimuli/IllMakeLoveToYou_BoyzIIMen_Cover5S.wav,,,,,,,,,,,,,,,,,,,,,,,,,,,,,,,,,,,,,,,,,,,,,,,,,,,,,
,,,,,798641,1,2024-07-12_19h43.10.807,experiment,2024.1.5,Win32,60.60606061,6691931c2c63981b064e1f0c,6691bc46139b538a1a432b1c,,,,,,,,,,,,,,,,,,,,,,,,,,,,,,,,,,,,,,,,,,,,,,,,,,,,,,,,,,,,294.0233,300.7772,-0.294444444,-0.123148176,1.0,0.0,0.0,0.7498,compass,0.0,14.0,14.0,6.0,1.0,SoundStimuli/SaveYourTears_TheWeekndArianaGrande_Cover5S.wav,,,,,,,,,,,,,,,,,,,,,,,,,,,,,,,,,,,,,,,,,,,,,,,,,,,,,
,,,,,798641,1,2024-07-12_19h43.10.807,experiment,2024.1.5,Win32,60.60606061,6691931c2c63981b064e1f0c,6691bc46139b538a1a432b1c,,,,,,,,,,,,,,,,,,,,,,,,,,,,,,,,,,,,,,,,,,,,,,,,,,,,,,,,,,,,300.7889,308.9598,-0.147222222,0.200925912,1.0,0.0,0.0,2.1662,compass,0.0,15.0,15.0,26.0,1.0,SoundStimuli/TheSign_AceOfBase_Cover5S.wav,,,,,,,,,,,,,,,,,,,,,,,,,,,,,,,,,,,,,,,,,,,,,,,,,,,,,
,,,,,798641,1,2024-07-12_19h43.10.807,experiment,2024.1.5,Win32,60.60606061,6691931c2c63981b064e1f0c,6691bc46139b538a1a432b1c,,,,,,,,,,,,,,,,,,,,,,,,,,,,,,,,,,,,,,,,,,,,,,,,,,,,,,,,,,,,308.9719,315.4526,-0.137962935,-0.140740755,1.0,0.0,0.0,0.4625,compass,0.0,16.0,16.0,23.0,1.0,SoundStimuli/IWalkTheLine_JohnnyCash_Original5S.wav,,,,,,,,,,,,,,,,,,,,,,,,,,,,,,,,,,,,,,,,,,,,,,,,,,,,,
,,,,,798641,1,2024-07-12_19h43.10.807,experiment,2024.1.5,Win32,60.60606061,6691931c2c63981b064e1f0c,6691bc46139b538a1a432b1c,,,,,,,,,,,,,,,,,,,,,,,,,,,,,,,,,,,,,,,,,,,,,,,,,,,,,,,,,,,,315.4674,321.8385,0.137037065,-0.144444444,1.0,0.0,0.0,0.3675,compass,0.0,17.0,17.0,4.0,1.0,SoundStimuli/Dreams_FleetwoodMac_Original5S.wav,,,,,,,,,,,,,,,,,,,,,,,,,,,,,,,,,,,,,,,,,,,,,,,,,,,,,
,,,,,798641,1,2024-07-12_19h43.10.807,experiment,2024.1.5,Win32,60.60606061,6691931c2c63981b064e1f0c,6691bc46139b538a1a432b1c,,,,,,,,,,,,,,,,,,,,,,,,,,,,,,,,,,,,,,,,,,,,,,,,,,,,,,,,,,,,321.8504,328.1959,0.18148151,0.10370369,1.0,0.0,0.0,0.3408,compass,0.0,18.0,18.0,28.0,1.0,SoundStimuli/IWantToHoldYourHand_TheBeatles_Original5S.wav,,,,,,,,,,,,,,,,,,,,,,,,,,,,,,,,,,,,,,,,,,,,,,,,,,,,,
,,,,,798641,1,2024-07-12_19h43.10.807,experiment,2024.1.5,Win32,60.60606061,6691931c2c63981b064e1f0c,6691bc46139b538a1a432b1c,,,,,,,,,,,,,,,,,,,,,,,,,,,,,,,,,,,,,,,,,,,,,,,,,,,,,,,,,,,,328.2088,336.0813,0.188888889,0.105555556,1.0,0.0,0.0,1.8583,compass,0.0,19.0,19.0,27.0,1.0,SoundStimuli/EyeOfTheTiger_Survivor_Cover5S.wav,,,,,,,,,,,,,,,,,,,,,,,,,,,,,,,,,,,,,,,,,,,,,,,,,,,,,
,,,,,798641,1,2024-07-12_19h43.10.807,experiment,2024.1.5,Win32,60.60606061,6691931c2c63981b064e1f0c,6691bc46139b538a1a432b1c,,,,,,,,,,,,,,,,,,,,,,,,,,,,,,,,,,,,,,,,,,,,,,,,,,,,,,,,,,,,336.0996,342.7229,0.127777778,-0.227777778,1.0,0.0,0.0,0.6134,compass,0.0,20.0,20.0,14.0,1.0,SoundStimuli/LikeARollingStone_BobDylan_Original5S.wav,,,,,,,,,,,,,,,,,,,,,,,,,,,,,,,,,,,,,,,,,,,,,,,,,,,,,
,,,,,798641,1,2024-07-12_19h43.10.807,experiment,2024.1.5,Win32,60.60606061,6691931c2c63981b064e1f0c,6691bc46139b538a1a432b1c,,,,,,,,,,,,,,,,,,,,,,,,,,,,,,,,,,,,,,,,,,,,,,,,,,,,,,,,,,,,342.735,349.1071,0.196296353,0.067592578,1.0,0.0,0.0,0.3686,compass,0.0,21.0,21.0,0.0,1.0,SoundStimuli/GimmeShelter_RollingStones_Original5S.wav,,,,,,,,,,,,,,,,,,,,,,,,,,,,,,,,,,,,,,,,,,,,,,,,,,,,,
,,,,,798641,1,2024-07-12_19h43.10.807,experiment,2024.1.5,Win32,60.60606061,6691931c2c63981b064e1f0c,6691bc46139b538a1a432b1c,,,,,,,,,,,,,,,,,,,,,,,,,,,,,,,,,,,,,,,,,,,,,,,,,,,,,,,,,,,,349.1185,355.6563,-0.188888889,0.166666667,1.0,0.0,0.0,0.5334,compass,0.0,22.0,22.0,2.0,1.0,SoundStimuli/SmellsLikeTeenSpirit_Nirvana_Original5S.wav,,,,,,,,,,,,,,,,,,,,,,,,,,,,,,,,,,,,,,,,,,,,,,,,,,,,,
,,,,,798641,1,2024-07-12_19h43.10.807,experiment,2024.1.5,Win32,60.60606061,6691931c2c63981b064e1f0c,6691bc46139b538a1a432b1c,,,,,,,,,,,,,,,,,,,,,,,,,,,,,,,,,,,,,,,,,,,,,,,,,,,,,,,,,,,,355.6712,362.0404,0.178703732,0.142592578,1.0,0.0,0.0,0.352,compass,0.0,23.0,23.0,1.0,1.0,SoundStimuli/Smooth_SantanaRobThomas_Original5S.wav,,,,,,,,,,,,,,,,,,,,,,,,,,,,,,,,,,,,,,,,,,,,,,,,,,,,,
,,,,,798641,1,2024-07-12_19h43.10.807,experiment,2024.1.5,Win32,60.60606061,6691931c2c63981b064e1f0c,6691bc46139b538a1a432b1c,,,,,,,,,,,,,,,,,,,,,,,,,,,,,,,,,,,,,,,,,,,,,,,,,,,,,,,,,,,,362.0544,368.5352,0.174074131,-0.119444444,1.0,0.0,0.0,0.4648,compass,0.0,24.0,24.0,24.0,1.0,SoundStimuli/Kiss_Prince_Cover5S.wav,,,,,,,,,,,,,,,,,,,,,,,,,,,,,,,,,,,,,,,,,,,,,,,,,,,,,
,,,,,798641,1,2024-07-12_19h43.10.807,experiment,2024.1.5,Win32,60.60606061,6691931c2c63981b064e1f0c,6691bc46139b538a1a432b1c,,,,,,,,,,,,,,,,,,,,,,,,,,,,,,,,,,,,,,,,,,,,,,,,,,,,,,,,,,,,368.547,374.9192,-0.222222222,-0.154629644,1.0,0.0,0.0,0.3683,compass,0.0,25.0,25.0,30.0,1.0,SoundStimuli/SomebodyThatIUsedtoKnow_Gotye_Original5S.wav,,,,,,,,,,,,,,,,,,,,,,,,,,,,,,,,,,,,,,,,,,,,,,,,,,,,,
,,,,,798641,1,2024-07-12_19h43.10.807,experiment,2024.1.5,Win32,60.60606061,6691931c2c63981b064e1f0c,6691bc46139b538a1a432b1c,,,,,,,,,,,,,,,,,,,,,,,,,,,,,,,,,,,,,,,,,,,,,,,,,,,,,,,,,,,,374.9349,381.3999,0.177777778,0.181481467,1.0,0.0,0.0,0.461,compass,0.0,26.0,26.0,31.0,1.0,SoundStimuli/TossinAndTurnin_BobbyLewis_Original5S.wav,,,,,,,,,,,,,,,,,,,,,,,,,,,,,,,,,,,,,,,,,,,,,,,,,,,,,
,,,,,798641,1,2024-07-12_19h43.10.807,experiment,2024.1.5,Win32,60.60606061,6691931c2c63981b064e1f0c,6691bc46139b538a1a432b1c,,,,,,,,,,,,,,,,,,,,,,,,,,,,,,,,,,,,,,,,,,,,,,,,,,,,,,,,,,,,381.412,388.2827,-0.14351849,-0.135185199,1.0,0.0,0.0,0.8635,compass,0.0,27.0,27.0,9.0,1.0,SoundStimuli/HowDoILive_LeAnnRimes_Cover5S.wav,,,,,,,,,,,,,,,,,,,,,,,,,,,,,,,,,,,,,,,,,,,,,,,,,,,,,
,,,,,798641,1,2024-07-12_19h43.10.807,experiment,2024.1.5,Win32,60.60606061,6691931c2c63981b064e1f0c,6691bc46139b538a1a432b1c,,,,,,,,,,,,,,,,,,,,,,,,,,,,,,,,,,,,,,,,,,,,,,,,,,,,,,,,,,,,388.2951,394.7152,0.240740797,-0.085185199,1.0,0.0,0.0,0.4161,compass,0.0,28.0,28.0,32.0,1.0,SoundStimuli/Dilemma_NellyKellyRowland_Cover5S.wav,,,,,,,,,,,,,,,,,,,,,,,,,,,,,,,,,,,,,,,,,,,,,,,,,,,,,
,,,,,798641,1,2024-07-12_19h43.10.807,experiment,2024.1.5,Win32,60.60606061,6691931c2c63981b064e1f0c,6691bc46139b538a1a432b1c,,,,,,,,,,,,,,,,,,,,,,,,,,,,,,,,,,,,,,,,,,,,,,,,,,,,,,,,,,,,394.726,401.1973,0.240740797,-0.085185199,1.0,0.0,0.0,0.4667,compass,0.0,29.0,29.0,29.0,1.0,SoundStimuli/BetteDavisEyes_KimCarnes_Original5S.wav,,,,,,,,,,,,,,,,,,,,,,,,,,,,,,,,,,,,,,,,,,,,,,,,,,,,,
,,,,,798641,1,2024-07-12_19h43.10.807,experiment,2024.1.5,Win32,60.60606061,6691931c2c63981b064e1f0c,6691bc46139b538a1a432b1c,,,,,,,,,,,,,,,,,,,,,,,,,,,,,,,,,,,,,,,,,,,,,,,,,,,,,,,,,,,,401.208,407.6299,-0.098148092,-0.178703732,1.0,0.0,0.0,0.4159,compass,0.0,30.0,30.0,12.0,1.0,SoundStimuli/UnbreakMyHeart_ToniBraxton_Original5S.wav,,,,,,,,,,,,,,,,,,,,,,,,,,,,,,,,,,,,,,,,,,,,,,,,,,,,,
,,,,,798641,1,2024-07-12_19h43.10.807,experiment,2024.1.5,Win32,60.60606061,6691931c2c63981b064e1f0c,6691bc46139b538a1a432b1c,,,,,,,,,,,,,,,,,,,,,,,,,,,,,,,,,,,,,,,,,,,,,,,,,,,,,,,,,,,,407.6421,414.0633,-0.162036981,0.087037023,1.0,0.0,0.0,0.4175,compass,0.0,31.0,31.0,15.0,1.0,SoundStimuli/CrazyInLove_BeyonceFtJayZ_Cover5S.wav,,,,,,,,,,,,,,,,,,,,,,,,,,,,,,,,,,,,,,,,,,,,,,,,,,,,,
,,,,,798641,1,2024-07-12_19h43.10.807,experiment,2024.1.5,Win32,60.60606061,6691931c2c63981b064e1f0c,6691bc46139b538a1a432b1c,,,,,,,,,,,,,,,,,,,,,,,,,,,,,,,,,,,,,,,,,,,,,,,,,,,,,,,,,,,,414.0751,420.9786,0.03148151,0.100925912,1.0,0.0,0.0,0.9002,compass,0.0,32.0,32.0,5.0,1.0,SoundStimuli/JoyToTheWorld_ThreeDogNight_Original5S.wav,,,,,,,,,,,,,,,,,,,,,,,,,,,,,,,,,,,,,,,,,,,,,,,,,,,,,
,,,,,798641,1,2024-07-12_19h43.10.807,experiment,2024.1.5,Win32,60.60606061,6691931c2c63981b064e1f0c,6691bc46139b538a1a432b1c,,,,,,,,,,,,,,,,,,,,,,,,,,,,,,,,,,,,,,,,,,,,,,,,,,,,,,,,,,,,420.9905,427.4611,0.03148151,0.100925912,1.0,0.0,0.0,0.4595,compass,0.0,33.0,33.0,20.0,1.0,SoundStimuli/FlashdanceWhatAFeeling_IreneCara_Original5S.wav,,,,,,,,,,,,,,,,,,,,,,,,,,,,,,,,,,,,,,,,,,,,,,,,,,,,,
,,,,,798641,1,2024-07-12_19h43.10.807,experiment,2024.1.5,Win32,60.60606061,6691931c2c63981b064e1f0c,6691bc46139b538a1a432b1c,,,,,,,,,,,,,,,,,,,,,,,,,,,,,,,,,,,,,,,,,,,,,,,,,,,,,,,,,,,,427.4731,433.7941,0.134259288,-0.143518533,1.0,0.0,0.0,0.3165,compass,0.0,34.0,34.0,34.0,1.0,SoundStimuli/Irreplaceable_Beyonce_Cover5S.wav,,,,,,,,,,,,,,,,,,,,,,,,,,,,,,,,,,,,,,,,,,,,,,,,,,,,,
,,,,,798641,1,2024-07-12_19h43.10.807,experiment,2024.1.5,Win32,60.60606061,6691931c2c63981b064e1f0c,6691bc46139b538a1a432b1c,,,,,,,,,,,,,,,,,,,,,,,,,,,,,,,,,,,,,,,,,,,,,,,,,,,,,,,,,,,,,,,,,,,,,,,,,,,433.8058,558.2726,space,124.4445,,558.2729,566.0327,right,7.7339,,0.0,0.0,0.0,0.0,1.0,block_order/blockD.xlsx,,,,,,,,,,,,,,,,,,,,,,,,,,,,,,,,,,,,,
,,,,,798641,1,2024-07-12_19h43.10.807,experiment,2024.1.5,Win32,60.60606061,6691931c2c63981b064e1f0c,6691bc46139b538a1a432b1c,,,,,,,,,,,,,,,,,,,,,,,,,,,,,,,,,,,,,,,,,,,,,,,,,,,,,,,,,,,,566.0628,572.5255,0.163888889,0.173148134,1.0,0.0,0.0,0.4497,compass,0.0,0.0,0.0,14.0,1.0,SoundStimuli/BlindingLights_TheWeeknd_Original5S.wav,,,,,,,,,,,,,,,,,,,,,,,,,,,,,,,,,,,,,,,,,,,,,,,,,,,,,
,,,,,798641,1,2024-07-12_19h43.10.807,experiment,2024.1.5,Win32,60.60606061,6691931c2c63981b064e1f0c,6691bc46139b538a1a432b1c,,,,,,,,,,,,,,,,,,,,,,,,,,,,,,,,,,,,,,,,,,,,,,,,,,,,,,,,,,,,572.5419,578.9427,0.163888889,0.173148134,1.0,0.0,0.0,0.3852,compass,0.0,1.0,1.0,30.0,1.0,SoundStimuli/PokerFace_LadyGaga_Original5S.wav,,,,,,,,,,,,,,,,,,,,,,,,,,,,,,,,,,,,,,,,,,,,,,,,,,,,,
,,,,,798641,1,2024-07-12_19h43.10.807,experiment,2024.1.5,Win32,60.60606061,6691931c2c63981b064e1f0c,6691bc46139b538a1a432b1c,,,,,,,,,,,,,,,,,,,,,,,,,,,,,,,,,,,,,,,,,,,,,,,,,,,,,,,,,,,,578.9545,585.3596,-0.283333333,0.114814801,1.0,0.0,0.0,0.4027,compass,0.0,2.0,2.0,18.0,1.0,SoundStimuli/AnotherOneBitesTheDust_Queen_Original5S.wav,,,,,,,,,,,,,,,,,,,,,,,,,,,,,,,,,,,,,,,,,,,,,,,,,,,,,
,,,,,798641,1,2024-07-12_19h43.10.807,experiment,2024.1.5,Win32,60.60606061,6691931c2c63981b064e1f0c,6691bc46139b538a1a432b1c,,,,,,,,,,,,,,,,,,,,,,,,,,,,,,,,,,,,,,,,,,,,,,,,,,,,,,,,,,,,585.3748,591.8058,0.122222222,0.116666667,1.0,0.0,0.0,0.4152,compass,0.0,3.0,3.0,24.0,1.0,SoundStimuli/UptownFunk_MarkRonson_Original5S.wav,,,,,,,,,,,,,,,,,,,,,,,,,,,,,,,,,,,,,,,,,,,,,,,,,,,,,
,,,,,798641,1,2024-07-12_19h43.10.807,experiment,2024.1.5,Win32,60.60606061,6691931c2c63981b064e1f0c,6691bc46139b538a1a432b1c,,,,,,,,,,,,,,,,,,,,,,,,,,,,,,,,,,,,,,,,,,,,,,,,,,,,,,,,,,,,591.8213,598.3237,0.162963019,-0.14629631,1.0,0.0,0.0,0.5012,compass,0.0,4.0,4.0,19.0,1.0,SoundStimuli/LetsGetItOn_MarvinGaye_Cover5S.wav,,,,,,,,,,,,,,,,,,,,,,,,,,,,,,,,,,,,,,,,,,,,,,,,,,,,,
,,,,,798641,1,2024-07-12_19h43.10.807,experiment,2024.1.5,Win32,60.60606061,6691931c2c63981b064e1f0c,6691bc46139b538a1a432b1c,,,,,,,,,,,,,,,,,,,,,,,,,,,,,,,,,,,,,,,,,,,,,,,,,,,,,,,,,,,,598.3353,604.9375,-0.187962935,0.144444444,1.0,0.0,0.0,0.599,compass,0.0,5.0,5.0,6.0,1.0,SoundStimuli/Levitating_DuaLipa_Cover5S.wav,,,,,,,,,,,,,,,,,,,,,,,,,,,,,,,,,,,,,,,,,,,,,,,,,,,,,
,,,,,798641,1,2024-07-12_19h43.10.807,experiment,2024.1.5,Win32,60.60606061,6691931c2c63981b064e1f0c,6691bc46139b538a1a432b1c,,,,,,,,,,,,,,,,,,,,,,,,,,,,,,,,,,,,,,,,,,,,,,,,,,,,,,,,,,,,604.9501,611.4551,0.088888889,0.088888889,1.0,0.0,0.0,0.4983,compass,0.0,6.0,6.0,5.0,1.0,SoundStimuli/MyGirl_TheTemptations_Original5S.wav,,,,,,,,,,,,,,,,,,,,,,,,,,,,,,,,,,,,,,,,,,,,,,,,,,,,,
,,,,,798641,1,2024-07-12_19h43.10.807,experiment,2024.1.5,Win32,60.60606061,6691931c2c63981b064e1f0c,6691bc46139b538a1a432b1c,,,,,,,,,,,,,,,,,,,,,,,,,,,,,,,,,,,,,,,,,,,,,,,,,,,,,,,,,,,,611.4727,619.0192,-0.072222222,0.092592578,1.0,0.0,0.0,1.5332,compass,0.0,7.0,7.0,25.0,1.0,SoundStimuli/Respect_ArethaFranklin_Original5S.wav,,,,,,,,,,,,,,,,,,,,,,,,,,,,,,,,,,,,,,,,,,,,,,,,,,,,,
,,,,,798641,1,2024-07-12_19h43.10.807,experiment,2024.1.5,Win32,60.60606061,6691931c2c63981b064e1f0c,6691bc46139b538a1a432b1c,,,,,,,,,,,,,,,,,,,,,,,,,,,,,,,,,,,,,,,,,,,,,,,,,,,,,,,,,,,,619.0303,625.6864,0.101851908,-0.107407422,1.0,0.0,0.0,0.6499,compass,0.0,8.0,8.0,26.0,1.0,SoundStimuli/LivinOnAPrayer_BonJovi_Cover5S.wav,,,,,,,,,,,,,,,,,,,,,,,,,,,,,,,,,,,,,,,,,,,,,,,,,,,,,
,,,,,798641,1,2024-07-12_19h43.10.807,experiment,2024.1.5,Win32,60.60606061,6691931c2c63981b064e1f0c,6691bc46139b538a1a432b1c,,,,,,,,,,,,,,,,,,,,,,,,,,,,,,,,,,,,,,,,,,,,,,,,,,,,,,,,,,,,625.7005,632.1172,0.089814843,0.145370356,1.0,0.0,0.0,0.4135,compass,0.0,9.0,9.0,7.0,1.0,SoundStimuli/NoOne_AliciaKeys_Cover5S.wav,,,,,,,,,,,,,,,,,,,,,,,,,,,,,,,,,,,,,,,,,,,,,,,,,,,,,
,,,,,798641,1,2024-07-12_19h43.10.807,experiment,2024.1.5,Win32,60.60606061,6691931c2c63981b064e1f0c,6691bc46139b538a1a432b1c,,,,,,,,,,,,,,,,,,,,,,,,,,,,,,,,,,,,,,,,,,,,,,,,,,,,,,,,,,,,632.128,641.184,-0.1,0.202777778,1.0,0.0,0.0,3.0495,compass,0.0,10.0,10.0,4.0,1.0,SoundStimuli/GetUrFreakOn_MissyElliot_Original5S.wav,,,,,,,,,,,,,,,,,,,,,,,,,,,,,,,,,,,,,,,,,,,,,,,,,,,,,
,,,,,798641,1,2024-07-12_19h43.10.807,experiment,2024.1.5,Win32,60.60606061,6691931c2c63981b064e1f0c,6691bc46139b538a1a432b1c,,,,,,,,,,,,,,,,,,,,,,,,,,,,,,,,,,,,,,,,,,,,,,,,,,,,,,,,,,,,641.1957,647.9823,0.164814843,0.045370356,1.0,0.0,0.0,0.7826,compass,0.0,11.0,11.0,34.0,1.0,SoundStimuli/AChangeIsGonnaCome_SamCooke_Cover5S.wav,,,,,,,,,,,,,,,,,,,,,,,,,,,,,,,,,,,,,,,,,,,,,,,,,,,,,
,,,,,798641,1,2024-07-12_19h43.10.807,experiment,2024.1.5,Win32,60.60606061,6691931c2c63981b064e1f0c,6691bc46139b538a1a432b1c,,,,,,,,,,,,,,,,,,,,,,,,,,,,,,,,,,,,,,,,,,,,,,,,,,,,,,,,,,,,647.9933,654.3329,0.157407464,0.124074046,1.0,0.0,0.0,0.3307,compass,0.0,12.0,12.0,27.0,1.0,SoundStimuli/ShapeofYou_EdSheeran_Original5S.wav,,,,,,,,,,,,,,,,,,,,,,,,,,,,,,,,,,,,,,,,,,,,,,,,,,,,,
,,,,,798641,1,2024-07-12_19h43.10.807,experiment,2024.1.5,Win32,60.60606061,6691931c2c63981b064e1f0c,6691bc46139b538a1a432b1c,,,,,,,,,,,,,,,,,,,,,,,,,,,,,,,,,,,,,,,,,,,,,,,,,,,,,,,,,,,,654.3469,660.7803,0.157407464,0.124074046,1.0,0.0,0.0,0.416,compass,0.0,13.0,13.0,8.0,1.0,SoundStimuli/LikeAPrayer_Madonna_Original5S.wav,,,,,,,,,,,,,,,,,,,,,,,,,,,,,,,,,,,,,,,,,,,,,,,,,,,,,
,,,,,798641,1,2024-07-12_19h43.10.807,experiment,2024.1.5,Win32,60.60606061,6691931c2c63981b064e1f0c,6691bc46139b538a1a432b1c,,,,,,,,,,,,,,,,,,,,,,,,,,,,,,,,,,,,,,,,,,,,,,,,,,,,,,,,,,,,660.7914,667.2481,0.157407464,0.124074046,1.0,0.0,0.0,0.4519,compass,0.0,14.0,14.0,28.0,1.0,SoundStimuli/ComeAndGetYourLove_Redbone_Original5S.wav,,,,,,,,,,,,,,,,,,,,,,,,,,,,,,,,,,,,,,,,,,,,,,,,,,,,,
,,,,,798641,1,2024-07-12_19h43.10.807,experiment,2024.1.5,Win32,60.60606061,6691931c2c63981b064e1f0c,6691bc46139b538a1a432b1c,,,,,,,,,,,,,,,,,,,,,,,,,,,,,,,,,,,,,,,,,,,,,,,,,,,,,,,,,,,,667.2636,674.3125,-0.015740712,-0.075925954,1.0,0.0,0.0,1.0462,compass,0.0,15.0,15.0,31.0,1.0,SoundStimuli/TheBattleOfNewOrleans_JohnnyHorton_Cover5S.wav,,,,,,,,,,,,,,,,,,,,,,,,,,,,,,,,,,,,,,,,,,,,,,,,,,,,,
,,,,,798641,1,2024-07-12_19h43.10.807,experiment,2024.1.5,Win32,60.60606061,6691931c2c63981b064e1f0c,6691bc46139b538a1a432b1c,,,,,,,,,,,,,,,,,,,,,,,,,,,,,,,,,,,,,,,,,,,,,,,,,,,,,,,,,,,,674.3246,680.7444,-0.169444444,-0.190740755,1.0,0.0,0.0,0.4155,compass,0.0,16.0,16.0,13.0,1.0,SoundStimuli/GodOnlyKnows_TheBeachBoys_Cover5S.wav,,,,,,,,,,,,,,,,,,,,,,,,,,,,,,,,,,,,,,,,,,,,,,,,,,,,,
,,,,,798641,1,2024-07-12_19h43.10.807,experiment,2024.1.5,Win32,60.60606061,6691931c2c63981b064e1f0c,6691bc46139b538a1a432b1c,,,,,,,,,,,,,,,,,,,,,,,,,,,,,,,,,,,,,,,,,,,,,,,,,,,,,,,,,,,,680.7553,687.2109,0.079629686,-0.242592621,1.0,0.0,0.0,0.4509,compass,0.0,17.0,17.0,20.0,1.0,SoundStimuli/HeyYa_Outkast_Cover5S.wav,,,,,,,,,,,,,,,,,,,,,,,,,,,,,,,,,,,,,,,,,,,,,,,,,,,,,
,,,,,798641,1,2024-07-12_19h43.10.807,experiment,2024.1.5,Win32,60.60606061,6691931c2c63981b064e1f0c,6691bc46139b538a1a432b1c,,,,,,,,,,,,,,,,,,,,,,,,,,,,,,,,,,,,,,,,,,,,,,,,,,,,,,,,,,,,687.223,693.8439,-0.17870369,-0.198148176,1.0,0.0,0.0,0.6178,compass,0.0,18.0,18.0,17.0,1.0,SoundStimuli/Fallin_AliciaKeys_Original5S.wav,,,,,,,,,,,,,,,,,,,,,,,,,,,,,,,,,,,,,,,,,,,,,,,,,,,,,
,,,,,798641,1,2024-07-12_19h43.10.807,experiment,2024.1.5,Win32,60.60606061,6691931c2c63981b064e1f0c,6691bc46139b538a1a432b1c,,,,,,,,,,,,,,,,,,,,,,,,,,,,,,,,,,,,,,,,,,,,,,,,,,,,,,,,,,,,693.8572,702.2922,-0.229629601,0.114814801,1.0,0.0,0.0,2.4326,compass,0.0,19.0,19.0,32.0,1.0,SoundStimuli/HeatWaves_GlassAnimals_Original5S.wav,,,,,,,,,,,,,,,,,,,,,,,,,,,,,,,,,,,,,,,,,,,,,,,,,,,,,
,,,,,798641,1,2024-07-12_19h43.10.807,experiment,2024.1.5,Win32,60.60606061,6691931c2c63981b064e1f0c,6691bc46139b538a1a432b1c,,,,,,,,,,,,,,,,,,,,,,,,,,,,,,,,,,,,,,,,,,,,,,,,,,,,,,,,,,,,702.3042,708.8073,0.167592621,0.145370356,1.0,0.0,0.0,0.4986,compass,0.0,20.0,20.0,22.0,1.0,SoundStimuli/RockWithYou_MichaelJackson_Original5S.wav,,,,,,,,,,,,,,,,,,,,,,,,,,,,,,,,,,,,,,,,,,,,,,,,,,,,,
,,,,,798641,1,2024-07-12_19h43.10.807,experiment,2024.1.5,Win32,60.60606061,6691931c2c63981b064e1f0c,6691bc46139b538a1a432b1c,,,,,,,,,,,,,,,,,,,,,,,,,,,,,,,,,,,,,,,,,,,,,,,,,,,,,,,,,,,,708.8194,715.024,0.221296353,0.059259245,1.0,0.0,0.0,0.2002,compass,0.0,21.0,21.0,12.0,1.0,SoundStimuli/IWillAlwaysLoveYou_WhitneyHouston_Cover5S.wav,,,,,,,,,,,,,,,,,,,,,,,,,,,,,,,,,,,,,,,,,,,,,,,,,,,,,
,,,,,798641,1,2024-07-12_19h43.10.807,experiment,2024.1.5,Win32,60.60606061,6691931c2c63981b064e1f0c,6691bc46139b538a1a432b1c,,,,,,,,,,,,,,,,,,,,,,,,,,,,,,,,,,,,,,,,,,,,,,,,,,,,,,,,,,,,715.0355,721.5554,-0.16851849,0.165740734,1.0,0.0,0.0,0.5155,compass,0.0,22.0,22.0,3.0,1.0,SoundStimuli/NoScrubs_TLC_Original5S.wav,,,,,,,,,,,,,,,,,,,,,,,,,,,,,,,,,,,,,,,,,,,,,,,,,,,,,
,,,,,798641,1,2024-07-12_19h43.10.807,experiment,2024.1.5,Win32,60.60606061,6691931c2c63981b064e1f0c,6691bc46139b538a1a432b1c,,,,,,,,,,,,,,,,,,,,,,,,,,,,,,,,,,,,,,,,,,,,,,,,,,,,,,,,,,,,721.5669,727.9713,0.245370399,0.121296268,1.0,0.0,0.0,0.3996,compass,0.0,23.0,23.0,1.0,1.0,SoundStimuli/Stronger_KanyeWest_Original5S.wav,,,,,,,,,,,,,,,,,,,,,,,,,,,,,,,,,,,,,,,,,,,,,,,,,,,,,
,,,,,798641,1,2024-07-12_19h43.10.807,experiment,2024.1.5,Win32,60.60606061,6691931c2c63981b064e1f0c,6691bc46139b538a1a432b1c,,,,,,,,,,,,,,,,,,,,,,,,,,,,,,,,,,,,,,,,,,,,,,,,,,,,,,,,,,,,727.9828,734.476,0.245370399,0.121296268,1.0,0.0,0.0,0.4887,compass,0.0,24.0,24.0,0.0,1.0,SoundStimuli/StayinAlive_BeeGees_Original5S.wav,,,,,,,,,,,,,,,,,,,,,,,,,,,,,,,,,,,,,,,,,,,,,,,,,,,,,
,,,,,798641,1,2024-07-12_19h43.10.807,experiment,2024.1.5,Win32,60.60606061,6691931c2c63981b064e1f0c,6691bc46139b538a1a432b1c,,,,,,,,,,,,,,,,,,,,,,,,,,,,,,,,,,,,,,,,,,,,,,,,,,,,,,,,,,,,734.4908,740.9533,-0.126851824,-0.133333333,1.0,0.0,0.0,0.4468,compass,0.0,25.0,25.0,2.0,1.0,SoundStimuli/Mood_24kGoldnianndior_Cover5S.wav,,,,,,,,,,,,,,,,,,,,,,,,,,,,,,,,,,,,,,,,,,,,,,,,,,,,,
,,,,,798641,1,2024-07-12_19h43.10.807,experiment,2024.1.5,Win32,60.60606061,6691931c2c63981b064e1f0c,6691bc46139b538a1a432b1c,,,,,,,,,,,,,,,,,,,,,,,,,,,,,,,,,,,,,,,,,,,,,,,,,,,,,,,,,,,,740.965,747.6529,0.233333333,-0.172222222,1.0,0.0,0.0,0.6838,compass,0.0,26.0,26.0,15.0,1.0,SoundStimuli/TikTok_Kesha_Cover5S.wav,,,,,,,,,,,,,,,,,,,,,,,,,,,,,,,,,,,,,,,,,,,,,,,,,,,,,
,,,,,798641,1,2024-07-12_19h43.10.807,experiment,2024.1.5,Win32,60.60606061,6691931c2c63981b064e1f0c,6691bc46139b538a1a432b1c,,,,,,,,,,,,,,,,,,,,,,,,,,,,,,,,,,,,,,,,,,,,,,,,,,,,,,,,,,,,747.6654,754.1858,0.173148176,0.140740712,1.0,0.0,0.0,0.5179,compass,0.0,27.0,27.0,29.0,1.0,SoundStimuli/OldTownRoad_LilNasX_Original5S.wav,,,,,,,,,,,,,,,,,,,,,,,,,,,,,,,,,,,,,,,,,,,,,,,,,,,,,
,,,,,798641,1,2024-07-12_19h43.10.807,experiment,2024.1.5,Win32,60.60606061,6691931c2c63981b064e1f0c,6691bc46139b538a1a432b1c,,,,,,,,,,,,,,,,,,,,,,,,,,,,,,,,,,,,,,,,,,,,,,,,,,,,,,,,,,,,754.1973,760.7514,-0.210185157,0.117592578,1.0,0.0,0.0,0.5492,compass,0.0,28.0,28.0,16.0,1.0,SoundStimuli/BohemianRhapsody_Queen_Original5S.wav,,,,,,,,,,,,,,,,,,,,,,,,,,,,,,,,,,,,,,,,,,,,,,,,,,,,,
,,,,,798641,1,2024-07-12_19h43.10.807,experiment,2024.1.5,Win32,60.60606061,6691931c2c63981b064e1f0c,6691bc46139b538a1a432b1c,,,,,,,,,,,,,,,,,,,,,,,,,,,,,,,,,,,,,,,,,,,,,,,,,,,,,,,,,,,,760.7626,767.9673,-0.162962935,-0.132407422,1.0,0.0,0.0,1.2008,compass,0.0,29.0,29.0,10.0,1.0,SoundStimuli/BadDay_DanielPowter_Cover5S.wav,,,,,,,,,,,,,,,,,,,,,,,,,,,,,,,,,,,,,,,,,,,,,,,,,,,,,
,,,,,798641,1,2024-07-12_19h43.10.807,experiment,2024.1.5,Win32,60.60606061,6691931c2c63981b064e1f0c,6691bc46139b538a1a432b1c,,,,,,,,,,,,,,,,,,,,,,,,,,,,,,,,,,,,,,,,,,,,,,,,,,,,,,,,,,,,767.9806,774.418,0.142592621,-0.209259288,1.0,0.0,0.0,0.4344,compass,0.0,30.0,30.0,23.0,1.0,SoundStimuli/StrawberryFieldsForever_TheBeatles_Original5S.wav,,,,,,,,,,,,,,,,,,,,,,,,,,,,,,,,,,,,,,,,,,,,,,,,,,,,,
,,,,,798641,1,2024-07-12_19h43.10.807,experiment,2024.1.5,Win32,60.60606061,6691931c2c63981b064e1f0c,6691bc46139b538a1a432b1c,,,,,,,,,,,,,,,,,,,,,,,,,,,,,,,,,,,,,,,,,,,,,,,,,,,,,,,,,,,,774.4312,780.8859,0.089814843,0.042592578,1.0,0.0,0.0,0.4525,compass,0.0,31.0,31.0,21.0,1.0,SoundStimuli/GoodGollyMissMolly_LittleRichard_Cover5S.wav,,,,,,,,,,,,,,,,,,,,,,,,,,,,,,,,,,,,,,,,,,,,,,,,,,,,,
,,,,,798641,1,2024-07-12_19h43.10.807,experiment,2024.1.5,Win32,60.60606061,6691931c2c63981b064e1f0c,6691bc46139b538a1a432b1c,,,,,,,,,,,,,,,,,,,,,,,,,,,,,,,,,,,,,,,,,,,,,,,,,,,,,,,,,,,,780.9023,786.9818,-0.161111111,-0.15,1.0,0.0,0.0,0.0668,compass,0.0,32.0,32.0,11.0,1.0,SoundStimuli/Superstition_StevieWonder_Cover5S.wav,,,,,,,,,,,,,,,,,,,,,,,,,,,,,,,,,,,,,,,,,,,,,,,,,,,,,
,,,,,798641,1,2024-07-12_19h43.10.807,experiment,2024.1.5,Win32,60.60606061,6691931c2c63981b064e1f0c,6691bc46139b538a1a432b1c,,,,,,,,,,,,,,,,,,,,,,,,,,,,,,,,,,,,,,,,,,,,,,,,,,,,,,,,,,,,786.993,793.6135,0.204629686,-0.190740755,1.0,0.0,0.0,0.6165,compass,0.0,33.0,33.0,9.0,1.0,SoundStimuli/Despacito_LuisFonsiDaddyYankee_Cover5S.wav,,,,,,,,,,,,,,,,,,,,,,,,,,,,,,,,,,,,,,,,,,,,,,,,,,,,,
,,,,,798641,1,2024-07-12_19h43.10.807,experiment,2024.1.5,Win32,60.60606061,6691931c2c63981b064e1f0c,6691bc46139b538a1a432b1c,,,,,,,,,,,,,,,,,,,,,,,,,,,,,,,,,,,,,,,,,,,,,,,,,,,,,,,,,,,,793.6246,799.9627,0.204629686,-0.190740755,1.0,0.0,0.0,0.3331,compass,0.0,34.0,34.0,33.0,1.0,SoundStimuli/StandByMe_BenEKing_Cover5S.wav,,,,,,,,,,,,,,,,,,,,,,,,,,,,,,,,,,,,,,,,,,,,,,,,,,,,,
,,,,,798641,1,2024-07-12_19h43.10.807,experiment,2024.1.5,Win32,60.60606061,6691931c2c63981b064e1f0c,6691bc46139b538a1a432b1c,,,,,,,,,,,,,,,,,,,,,,,,,,,,,,,,,,,,,,,,,,,,,,,,,,,,,,,,,,,,,,,,,,,,,,,,,,,799.9628,803.0772,space,3.0994,,803.0774,805.6309,right,2.5395,,0.0,1.0,1.0,1.0,1.0,block_order/blockA.xlsx,,,,,,,,,,,,,,,,,,,,,,,,,,,,,,,,,,,,,
,,,,,798641,1,2024-07-12_19h43.10.807,experiment,2024.1.5,Win32,60.60606061,6691931c2c63981b064e1f0c,6691bc46139b538a1a432b1c,,,,,,,,,,,,,,,,,,,,,,,,,,,,,,,,,,,,,,,,,,,,,,,,,,,,,,,,,,,,805.6544,812.0774,-0.122222222,0.099074046,1.0,0.0,0.0,0.4143,compass,0.0,0.0,0.0,31.0,1.0,SoundStimuli/TossinAndTurnin_BobbyLewis_Cover5S.wav,,,,,,,,,,,,,,,,,,,,,,,,,,,,,,,,,,,,,,,,,,,,,,,,,,,,,
,,,,,798641,1,2024-07-12_19h43.10.807,experiment,2024.1.5,Win32,60.60606061,6691931c2c63981b064e1f0c,6691bc46139b538a1a432b1c,,,,,,,,,,,,,,,,,,,,,,,,,,,,,,,,,,,,,,,,,,,,,,,,,,,,,,,,,,,,812.0886,821.5115,-0.187962935,0.152777778,1.0,0.0,0.0,3.418,compass,0.0,1.0,1.0,0.0,1.0,SoundStimuli/GimmeShelter_RollingStones_Cover5S.wav,,,,,,,,,,,,,,,,,,,,,,,,,,,,,,,,,,,,,,,,,,,,,,,,,,,,,
,,,,,798641,1,2024-07-12_19h43.10.807,experiment,2024.1.5,Win32,60.60606061,6691931c2c63981b064e1f0c,6691bc46139b538a1a432b1c,,,,,,,,,,,,,,,,,,,,,,,,,,,,,,,,,,,,,,,,,,,,,,,,,,,,,,,,,,,,821.5247,828.2753,0.217592621,-0.153703732,1.0,0.0,0.0,0.7503,compass,0.0,2.0,2.0,7.0,1.0,SoundStimuli/MackTheKnife_BobbyDarin_Original5S.wav,,,,,,,,,,,,,,,,,,,,,,,,,,,,,,,,,,,,,,,,,,,,,,,,,,,,,
,,,,,798641,1,2024-07-12_19h43.10.807,experiment,2024.1.5,Win32,60.60606061,6691931c2c63981b064e1f0c,6691bc46139b538a1a432b1c,,,,,,,,,,,,,,,,,,,,,,,,,,,,,,,,,,,,,,,,,,,,,,,,,,,,,,,,,,,,828.2882,834.3917,0.208333333,-0.113888889,1.0,0.0,0.0,0.0968,compass,0.0,3.0,3.0,13.0,1.0,SoundStimuli/Perfect_EdSheeran_Original5S.wav,,,,,,,,,,,,,,,,,,,,,,,,,,,,,,,,,,,,,,,,,,,,,,,,,,,,,
,,,,,798641,1,2024-07-12_19h43.10.807,experiment,2024.1.5,Win32,60.60606061,6691931c2c63981b064e1f0c,6691bc46139b538a1a432b1c,,,,,,,,,,,,,,,,,,,,,,,,,,,,,,,,,,,,,,,,,,,,,,,,,,,,,,,,,,,,834.4032,840.8425,-0.216666667,-0.138888889,1.0,0.0,0.0,0.4354,compass,0.0,4.0,4.0,28.0,1.0,SoundStimuli/IWantToHoldYourHand_TheBeatles_Cover5S.wav,,,,,,,,,,,,,,,,,,,,,,,,,,,,,,,,,,,,,,,,,,,,,,,,,,,,,
,,,,,798641,1,2024-07-12_19h43.10.807,experiment,2024.1.5,Win32,60.60606061,6691931c2c63981b064e1f0c,6691bc46139b538a1a432b1c,,,,,,,,,,,,,,,,,,,,,,,,,,,,,,,,,,,,,,,,,,,,,,,,,,,,,,,,,,,,840.9732,847.349,-0.223148134,0.227777778,1.0,0.0,0.0,0.374,compass,0.0,5.0,5.0,27.0,1.0,SoundStimuli/EyeOfTheTiger_Survivor_Original5S.wav,,,,,,,,,,,,,,,,,,,,,,,,,,,,,,,,,,,,,,,,,,,,,,,,,,,,,
,,,,,798641,1,2024-07-12_19h43.10.807,experiment,2024.1.5,Win32,60.60606061,6691931c2c63981b064e1f0c,6691bc46139b538a1a432b1c,,,,,,,,,,,,,,,,,,,,,,,,,,,,,,,,,,,,,,,,,,,,,,,,,,,,,,,,,,,,847.3641,853.8048,0.147222222,0.15,1.0,0.0,0.0,0.4309,compass,0.0,6.0,6.0,20.0,1.0,SoundStimuli/FlashdanceWhatAFeeling_IreneCara_Cover5S.wav,,,,,,,,,,,,,,,,,,,,,,,,,,,,,,,,,,,,,,,,,,,,,,,,,,,,,
,,,,,798641,1,2024-07-12_19h43.10.807,experiment,2024.1.5,Win32,60.60606061,6691931c2c63981b064e1f0c,6691bc46139b538a1a432b1c,,,,,,,,,,,,,,,,,,,,,,,,,,,,,,,,,,,,,,,,,,,,,,,,,,,,,,,,,,,,853.8169,860.2374,0.210185242,-0.227777778,1.0,0.0,0.0,0.4122,compass,0.0,7.0,7.0,17.0,1.0,SoundStimuli/IWannaDanceWithSomebody_WhitneyHouston_Cover5S.wav,,,,,,,,,,,,,,,,,,,,,,,,,,,,,,,,,,,,,,,,,,,,,,,,,,,,,
,,,,,798641,1,2024-07-12_19h43.10.807,experiment,2024.1.5,Win32,60.60606061,6691931c2c63981b064e1f0c,6691bc46139b538a1a432b1c,,,,,,,,,,,,,,,,,,,,,,,,,,,,,,,,,,,,,,,,,,,,,,,,,,,,,,,,,,,,860.2483,867.0373,0.147222222,-0.151851866,1.0,0.0,0.0,0.7819,compass,0.0,8.0,8.0,14.0,1.0,SoundStimuli/LikeARollingStone_BobDylan_Cover5S.wav,,,,,,,,,,,,,,,,,,,,,,,,,,,,,,,,,,,,,,,,,,,,,,,,,,,,,
,,,,,798641,1,2024-07-12_19h43.10.807,experiment,2024.1.5,Win32,60.60606061,6691931c2c63981b064e1f0c,6691bc46139b538a1a432b1c,,,,,,,,,,,,,,,,,,,,,,,,,,,,,,,,,,,,,,,,,,,,,,,,,,,,,,,,,,,,867.0493,873.5029,0.212037065,0.076851824,1.0,0.0,0.0,0.4481,compass,0.0,9.0,9.0,15.0,1.0,SoundStimuli/CrazyInLove_BeyonceFtJayZ_Original5S.wav,,,,,,,,,,,,,,,,,,,,,,,,,,,,,,,,,,,,,,,,,,,,,,,,,,,,,
,,,,,798641,1,2024-07-12_19h43.10.807,experiment,2024.1.5,Win32,60.60606061,6691931c2c63981b064e1f0c,6691bc46139b538a1a432b1c,,,,,,,,,,,,,,,,,,,,,,,,,,,,,,,,,,,,,,,,,,,,,,,,,,,,,,,,,,,,873.5142,879.9079,0.197222222,0.12870369,1.0,0.0,0.0,0.388,compass,0.0,10.0,10.0,26.0,1.0,SoundStimuli/TheSign_AceOfBase_Original5S.wav,,,,,,,,,,,,,,,,,,,,,,,,,,,,,,,,,,,,,,,,,,,,,,,,,,,,,
,,,,,798641,1,2024-07-12_19h43.10.807,experiment,2024.1.5,Win32,60.60606061,6691931c2c63981b064e1f0c,6691bc46139b538a1a432b1c,,,,,,,,,,,,,,,,,,,,,,,,,,,,,,,,,,,,,,,,,,,,,,,,,,,,,,,,,,,,879.923,886.3011,0.197222222,0.12870369,1.0,0.0,0.0,0.3639,compass,0.0,11.0,11.0,32.0,1.0,SoundStimuli/Dilemma_NellyKellyRowland_Original5S.wav,,,,,,,,,,,,,,,,,,,,,,,,,,,,,,,,,,,,,,,,,,,,,,,,,,,,,
,,,,,798641,1,2024-07-12_19h43.10.807,experiment,2024.1.5,Win32,60.60606061,6691931c2c63981b064e1f0c,6691bc46139b538a1a432b1c,,,,,,,,,,,,,,,,,,,,,,,,,,,,,,,,,,,,,,,,,,,,,,,,,,,,,,,,,,,,886.3142,892.7166,0.197222222,0.12870369,1.0,0.0,0.0,0.3987,compass,0.0,12.0,12.0,3.0,1.0,SoundStimuli/PartyRockAnthem_LMFAO_Cover5S.wav,,,,,,,,,,,,,,,,,,,,,,,,,,,,,,,,,,,,,,,,,,,,,,,,,,,,,
,,,,,798641,1,2024-07-12_19h43.10.807,experiment,2024.1.5,Win32,60.60606061,6691931c2c63981b064e1f0c,6691bc46139b538a1a432b1c,,,,,,,,,,,,,,,,,,,,,,,,,,,,,,,,,,,,,,,,,,,,,,,,,,,,,,,,,,,,892.7274,899.2155,0.197222222,-0.159259288,1.0,0.0,0.0,0.4824,compass,0.0,13.0,13.0,19.0,1.0,SoundStimuli/YouLightUpMyLife_DebbyBoone_Cover5S.wav,,,,,,,,,,,,,,,,,,,,,,,,,,,,,,,,,,,,,,,,,,,,,,,,,,,,,
,,,,,798641,1,2024-07-12_19h43.10.807,experiment,2024.1.5,Win32,60.60606061,6691931c2c63981b064e1f0c,6691bc46139b538a1a432b1c,,,,,,,,,,,,,,,,,,,,,,,,,,,,,,,,,,,,,,,,,,,,,,,,,,,,,,,,,,,,899.2273,905.7647,0.173148176,0.189814801,1.0,0.0,0.0,0.5326,compass,0.0,14.0,14.0,22.0,1.0,SoundStimuli/Happy_PharellWilliams_Cover5S.wav,,,,,,,,,,,,,,,,,,,,,,,,,,,,,,,,,,,,,,,,,,,,,,,,,,,,,
,,,,,798641,1,2024-07-12_19h43.10.807,experiment,2024.1.5,Win32,60.60606061,6691931c2c63981b064e1f0c,6691bc46139b538a1a432b1c,,,,,,,,,,,,,,,,,,,,,,,,,,,,,,,,,,,,,,,,,,,,,,,,,,,,,,,,,,,,905.7772,912.6647,-0.138888889,0.137037023,1.0,0.0,0.0,0.8822,compass,0.0,15.0,15.0,5.0,1.0,SoundStimuli/JoyToTheWorld_ThreeDogNight_Cover5S.wav,,,,,,,,,,,,,,,,,,,,,,,,,,,,,,,,,,,,,,,,,,,,,,,,,,,,,
,,,,,798641,1,2024-07-12_19h43.10.807,experiment,2024.1.5,Win32,60.60606061,6691931c2c63981b064e1f0c,6691bc46139b538a1a432b1c,,,,,,,,,,,,,,,,,,,,,,,,,,,,,,,,,,,,,,,,,,,,,,,,,,,,,,,,,,,,912.6764,919.3463,0.165740797,0.167592578,1.0,0.0,0.0,0.6668,compass,0.0,16.0,16.0,34.0,1.0,SoundStimuli/Irreplaceable_Beyonce_Original5S.wav,,,,,,,,,,,,,,,,,,,,,,,,,,,,,,,,,,,,,,,,,,,,,,,,,,,,,
,,,,,798641,1,2024-07-12_19h43.10.807,experiment,2024.1.5,Win32,60.60606061,6691931c2c63981b064e1f0c,6691bc46139b538a1a432b1c,,,,,,,,,,,,,,,,,,,,,,,,,,,,,,,,,,,,,,,,,,,,,,,,,,,,,,,,,,,,919.3573,925.7788,0.165740797,-0.155555556,1.0,0.0,0.0,0.4162,compass,0.0,17.0,17.0,1.0,1.0,SoundStimuli/Smooth_SantanaRobThomas_Cover5S.wav,,,,,,,,,,,,,,,,,,,,,,,,,,,,,,,,,,,,,,,,,,,,,,,,,,,,,
,,,,,798641,1,2024-07-12_19h43.10.807,experiment,2024.1.5,Win32,60.60606061,6691931c2c63981b064e1f0c,6691bc46139b538a1a432b1c,,,,,,,,,,,,,,,,,,,,,,,,,,,,,,,,,,,,,,,,,,,,,,,,,,,,,,,,,,,,925.7896,932.9621,-0.194444444,0.12870369,1.0,0.0,0.0,1.1673,compass,0.0,18.0,18.0,33.0,1.0,SoundStimuli/TheBoyIsMine_BrandyMonica_Cover5S.wav,,,,,,,,,,,,,,,,,,,,,,,,,,,,,,,,,,,,,,,,,,,,,,,,,,,,,
,,,,,798641,1,2024-07-12_19h43.10.807,experiment,2024.1.5,Win32,60.60606061,6691931c2c63981b064e1f0c,6691bc46139b538a1a432b1c,,,,,,,,,,,,,,,,,,,,,,,,,,,,,,,,,,,,,,,,,,,,,,,,,,,,,,,,,,,,932.9746,939.4271,0.140740797,-0.176851866,1.0,0.0,0.0,0.4476,compass,0.0,19.0,19.0,23.0,1.0,SoundStimuli/IWalkTheLine_JohnnyCash_Cover5S.wav,,,,,,,,,,,,,,,,,,,,,,,,,,,,,,,,,,,,,,,,,,,,,,,,,,,,,
,,,,,798641,1,2024-07-12_19h43.10.807,experiment,2024.1.5,Win32,60.60606061,6691931c2c63981b064e1f0c,6691bc46139b538a1a432b1c,,,,,,,,,,,,,,,,,,,,,,,,,,,,,,,,,,,,,,,,,,,,,,,,,,,,,,,,,,,,939.438,945.6294,-0.169444444,0.163888889,1.0,0.0,0.0,0.1862,compass,0.0,20.0,20.0,2.0,1.0,SoundStimuli/SmellsLikeTeenSpirit_Nirvana_Cover5S.wav,,,,,,,,,,,,,,,,,,,,,,,,,,,,,,,,,,,,,,,,,,,,,,,,,,,,,
,,,,,798641,1,2024-07-12_19h43.10.807,experiment,2024.1.5,Win32,60.60606061,6691931c2c63981b064e1f0c,6691bc46139b538a1a432b1c,,,,,,,,,,,,,,,,,,,,,,,,,,,,,,,,,,,,,,,,,,,,,,,,,,,,,,,,,,,,945.6444,952.1253,0.102777778,0.141666667,1.0,0.0,0.0,0.4655,compass,0.0,21.0,21.0,10.0,1.0,SoundStimuli/LeFreak_Chic_Original5S.wav,,,,,,,,,,,,,,,,,,,,,,,,,,,,,,,,,,,,,,,,,,,,,,,,,,,,,
,,,,,798641,1,2024-07-12_19h43.10.807,experiment,2024.1.5,Win32,60.60606061,6691931c2c63981b064e1f0c,6691bc46139b538a1a432b1c,,,,,,,,,,,,,,,,,,,,,,,,,,,,,,,,,,,,,,,,,,,,,,,,,,,,,,,,,,,,952.1374,958.6614,0.102777778,0.141666667,1.0,0.0,0.0,0.5197,compass,0.0,22.0,22.0,24.0,1.0,SoundStimuli/Kiss_Prince_Original5S.wav,,,,,,,,,,,,,,,,,,,,,,,,,,,,,,,,,,,,,,,,,,,,,,,,,,,,,
,,,,,798641,1,2024-07-12_19h43.10.807,experiment,2024.1.5,Win32,60.60606061,6691931c2c63981b064e1f0c,6691bc46139b538a1a432b1c,,,,,,,,,,,,,,,,,,,,,,,,,,,,,,,,,,,,,,,,,,,,,,,,,,,,,,,,,,,,958.6773,966.3302,-0.070370314,-0.204629644,1.0,0.0,0.0,1.6394,compass,0.0,23.0,23.0,9.0,1.0,SoundStimuli/HowDoILive_LeAnnRimes_Original5S.wav,,,,,,,,,,,,,,,,,,,,,,,,,,,,,,,,,,,,,,,,,,,,,,,,,,,,,
,,,,,798641,1,2024-07-12_19h43.10.807,experiment,2024.1.5,Win32,60.60606061,6691931c2c63981b064e1f0c,6691bc46139b538a1a432b1c,,,,,,,,,,,,,,,,,,,,,,,,,,,,,,,,,,,,,,,,,,,,,,,,,,,,,,,,,,,,966.3481,972.7852,0.133333333,-0.237037065,1.0,0.0,0.0,0.4284,compass,0.0,24.0,24.0,8.0,1.0,SoundStimuli/EndlessLove_DianaRossLionelRichie_Original5S.wav,,,,,,,,,,,,,,,,,,,,,,,,,,,,,,,,,,,,,,,,,,,,,,,,,,,,,
,,,,,798641,1,2024-07-12_19h43.10.807,experiment,2024.1.5,Win32,60.60606061,6691931c2c63981b064e1f0c,6691bc46139b538a1a432b1c,,,,,,,,,,,,,,,,,,,,,,,,,,,,,,,,,,,,,,,,,,,,,,,,,,,,,,,,,,,,972.8059,979.4064,-0.197222222,0.189814801,1.0,0.0,0.0,0.5837,compass,0.0,25.0,25.0,30.0,1.0,SoundStimuli/SomebodyThatIUsedtoKnow_Gotye_Cover5S.wav,,,,,,,,,,,,,,,,,,,,,,,,,,,,,,,,,,,,,,,,,,,,,,,,,,,,,
,,,,,798641,1,2024-07-12_19h43.10.807,experiment,2024.1.5,Win32,60.60606061,6691931c2c63981b064e1f0c,6691bc46139b538a1a432b1c,,,,,,,,,,,,,,,,,,,,,,,,,,,,,,,,,,,,,,,,,,,,,,,,,,,,,,,,,,,,979.4175,989.6062,-0.147222222,-0.207407422,1.0,0.0,0.0,4.1845,compass,0.0,26.0,26.0,6.0,1.0,SoundStimuli/SaveYourTears_TheWeekndArianaGrande_Original5S.wav,,,,,,,,,,,,,,,,,,,,,,,,,,,,,,,,,,,,,,,,,,,,,,,,,,,,,
,,,,,798641,1,2024-07-12_19h43.10.807,experiment,2024.1.5,Win32,60.60606061,6691931c2c63981b064e1f0c,6691bc46139b538a1a432b1c,,,,,,,,,,,,,,,,,,,,,,,,,,,,,,,,,,,,,,,,,,,,,,,,,,,,,,,,,,,,989.6196,996.9027,-0.172222222,-0.184259288,1.0,0.0,0.0,1.2798,compass,0.0,27.0,27.0,12.0,1.0,SoundStimuli/UnbreakMyHeart_ToniBraxton_Cover5S.wav,,,,,,,,,,,,,,,,,,,,,,,,,,,,,,,,,,,,,,,,,,,,,,,,,,,,,
,,,,,798641,1,2024-07-12_19h43.10.807,experiment,2024.1.5,Win32,60.60606061,6691931c2c63981b064e1f0c,6691bc46139b538a1a432b1c,,,,,,,,,,,,,,,,,,,,,,,,,,,,,,,,,,,,,,,,,,,,,,,,,,,,,,,,,,,,996.9142,1004.4845,0.196296353,-0.209259288,1.0,0.0,0.0,1.5505,compass,0.0,28.0,28.0,4.0,1.0,SoundStimuli/Dreams_FleetwoodMac_Cover5S.wav,,,,,,,,,,,,,,,,,,,,,,,,,,,,,,,,,,,,,,,,,,,,,,,,,,,,,
,,,,,798641,1,2024-07-12_19h43.10.807,experiment,2024.1.5,Win32,60.60606061,6691931c2c63981b064e1f0c,6691bc46139b538a1a432b1c,,,,,,,,,,,,,,,,,,,,,,,,,,,,,,,,,,,,,,,,,,,,,,,,,,,,,,,,,,,,1004.4963,1010.8869,0.080555556,0.149074067,1.0,0.0,0.0,0.3867,compass,0.0,29.0,29.0,11.0,1.0,SoundStimuli/BlurredLines_RobinThicke_Original5S.wav,,,,,,,,,,,,,,,,,,,,,,,,,,,,,,,,,,,,,,,,,,,,,,,,,,,,,
,,,,,798641,1,2024-07-12_19h43.10.807,experiment,2024.1.5,Win32,60.60606061,6691931c2c63981b064e1f0c,6691bc46139b538a1a432b1c,,,,,,,,,,,,,,,,,,,,,,,,,,,,,,,,,,,,,,,,,,,,,,,,,,,,,,,,,,,,1010.8998,1017.0033,0.108333333,-0.107407422,1.0,0.0,0.0,0.0989,compass,0.0,30.0,30.0,29.0,1.0,SoundStimuli/BetteDavisEyes_KimCarnes_Cover5S.wav,,,,,,,,,,,,,,,,,,,,,,,,,,,,,,,,,,,,,,,,,,,,,,,,,,,,,
,,,,,798641,1,2024-07-12_19h43.10.807,experiment,2024.1.5,Win32,60.60606061,6691931c2c63981b064e1f0c,6691bc46139b538a1a432b1c,,,,,,,,,,,,,,,,,,,,,,,,,,,,,,,,,,,,,,,,,,,,,,,,,,,,,,,,,,,,1017.0176,1023.4505,-0.126851824,-0.227777778,1.0,0.0,0.0,0.4174,compass,0.0,31.0,31.0,16.0,1.0,SoundStimuli/ItsAllInTheGame_TommyEdwards_Original5S.wav,,,,,,,,,,,,,,,,,,,,,,,,,,,,,,,,,,,,,,,,,,,,,,,,,,,,,
,,,,,798641,1,2024-07-12_19h43.10.807,experiment,2024.1.5,Win32,60.60606061,6691931c2c63981b064e1f0c,6691bc46139b538a1a432b1c,,,,,,,,,,,,,,,,,,,,,,,,,,,,,,,,,,,,,,,,,,,,,,,,,,,,,,,,,,,,1023.4642,1029.8515,0.129629686,-0.237037065,1.0,0.0,0.0,0.3854,compass,0.0,32.0,32.0,25.0,1.0,SoundStimuli/IllMakeLoveToYou_BoyzIIMen_Original5S.wav,,,,,,,,,,,,,,,,,,,,,,,,,,,,,,,,,,,,,,,,,,,,,,,,,,,,,
,,,,,798641,1,2024-07-12_19h43.10.807,experiment,2024.1.5,Win32,60.60606061,6691931c2c63981b064e1f0c,6691bc46139b538a1a432b1c,,,,,,,,,,,,,,,,,,,,,,,,,,,,,,,,,,,,,,,,,,,,,,,,,,,,,,,,,,,,1029.8667,1036.3811,0.117592621,-0.175925954,1.0,0.0,0.0,0.4993,compass,0.0,33.0,33.0,18.0,1.0,SoundStimuli/Weak_SWV_Original5S.wav,,,,,,,,,,,,,,,,,,,,,,,,,,,,,,,,,,,,,,,,,,,,,,,,,,,,,
,,,,,798641,1,2024-07-12_19h43.10.807,experiment,2024.1.5,Win32,60.60606061,6691931c2c63981b064e1f0c,6691bc46139b538a1a432b1c,,,,,,,,,,,,,,,,,,,,,,,,,,,,,,,,,,,,,,,,,,,,,,,,,,,,,,,,,,,,1036.3927,1042.8806,-0.194444444,-0.187962977,1.0,0.0,0.0,0.4836,compass,0.0,34.0,34.0,21.0,1.0,SoundStimuli/BridgeOverTroubledWater_SimonAndGarfunkel_Cover5S.wav,,,,,,,,,,,,,,,,,,,,,,,,,,,,,,,,,,,,,,,,,,,,,,,,,,,,,
,,,,,798641,1,2024-07-12_19h43.10.807,experiment,2024.1.5,Win32,60.60606061,6691931c2c63981b064e1f0c,6691bc46139b538a1a432b1c,,,,,,,,,,,,,,,,,,,,,,,,,,,,,,,,,,,,,,,,,,,,,,,,,,,,,,,,,,,,,,,,,,,,,,,,,,,1042.8808,1045.2829,space,2.3864,,1045.283,1046.4633,right,1.1683,,0.0,2.0,2.0,2.0,1.0,block_order/blockB.xlsx,,,,,,,,,,,,,,,,,,,,,,,,,,,,,,,,,,,,,
,,,,,798641,1,2024-07-12_19h43.10.807,experiment,2024.1.5,Win32,60.60606061,6691931c2c63981b064e1f0c,6691bc46139b538a1a432b1c,,,,,,,,,,,,,,,,,,,,,,,,,,,,,,,,,,,,,,,,,,,,,,,,,,,,,,,,,,,,1046.4869,1054.7288,-0.141666667,0.137962935,1.0,0.0,0.0,2.2372,compass,0.0,0.0,0.0,4.0,1.0,SoundStimuli/GetUrFreakOn_MissyElliot_Cover5S.wav,,,,,,,,,,,,,,,,,,,,,,,,,,,,,,,,,,,,,,,,,,,,,,,,,,,,,
,,,,,798641,1,2024-07-12_19h43.10.807,experiment,2024.1.5,Win32,60.60606061,6691931c2c63981b064e1f0c,6691bc46139b538a1a432b1c,,,,,,,,,,,,,,,,,,,,,,,,,,,,,,,,,,,,,,,,,,,,,,,,,,,,,,,,,,,,1054.7406,1064.5774,-0.112036981,0.130555556,1.0,0.0,0.0,3.8327,compass,0.0,1.0,1.0,2.0,1.0,SoundStimuli/Mood_24kGoldnianndior_Original5S.wav,,,,,,,,,,,,,,,,,,,,,,,,,,,,,,,,,,,,,,,,,,,,,,,,,,,,,
,,,,,798641,1,2024-07-12_19h43.10.807,experiment,2024.1.5,Win32,60.60606061,6691931c2c63981b064e1f0c,6691bc46139b538a1a432b1c,,,,,,,,,,,,,,,,,,,,,,,,,,,,,,,,,,,,,,,,,,,,,,,,,,,,,,,,,,,,1064.5901,1071.1103,-0.139814758,-0.15648151,1.0,0.0,0.0,0.5165,compass,0.0,2.0,2.0,16.0,1.0,SoundStimuli/BohemianRhapsody_Queen_Cover5S.wav,,,,,,,,,,,,,,,,,,,,,,,,,,,,,,,,,,,,,,,,,,,,,,,,,,,,,
,,,,,798641,1,2024-07-12_19h43.10.807,experiment,2024.1.5,Win32,60.60606061,6691931c2c63981b064e1f0c,6691bc46139b538a1a432b1c,,,,,,,,,,,,,,,,,,,,,,,,,,,,,,,,,,,,,,,,,,,,,,,,,,,,,,,,,,,,1071.1216,1077.7784,0.269444444,0.171296289,1.0,0.0,0.0,0.6516,compass,0.0,3.0,3.0,20.0,1.0,SoundStimuli/HeyYa_Outkast_Original5S.wav,,,,,,,,,,,,,,,,,,,,,,,,,,,,,,,,,,,,,,,,,,,,,,,,,,,,,
,,,,,798641,1,2024-07-12_19h43.10.807,experiment,2024.1.5,Win32,60.60606061,6691931c2c63981b064e1f0c,6691bc46139b538a1a432b1c,,,,,,,,,,,,,,,,,,,,,,,,,,,,,,,,,,,,,,,,,,,,,,,,,,,,,,,,,,,,1077.7903,1084.3091,-0.16851849,-0.105555556,1.0,0.0,0.0,0.5168,compass,0.0,4.0,4.0,17.0,1.0,SoundStimuli/Fallin_AliciaKeys_Cover5S.wav,,,,,,,,,,,,,,,,,,,,,,,,,,,,,,,,,,,,,,,,,,,,,,,,,,,,,
,,,,,798641,1,2024-07-12_19h43.10.807,experiment,2024.1.5,Win32,60.60606061,6691931c2c63981b064e1f0c,6691bc46139b538a1a432b1c,,,,,,,,,,,,,,,,,,,,,,,,,,,,,,,,,,,,,,,,,,,,,,,,,,,,,,,,,,,,1084.3201,1091.6073,0.219444444,0.084259245,1.0,0.0,0.0,1.2821,compass,0.0,5.0,5.0,14.0,1.0,SoundStimuli/BlindingLights_TheWeeknd_Cover5S.wav,,,,,,,,,,,,,,,,,,,,,,,,,,,,,,,,,,,,,,,,,,,,,,,,,,,,,
,,,,,798641,1,2024-07-12_19h43.10.807,experiment,2024.1.5,Win32,60.60606061,6691931c2c63981b064e1f0c,6691bc46139b538a1a432b1c,,,,,,,,,,,,,,,,,,,,,,,,,,,,,,,,,,,,,,,,,,,,,,,,,,,,,,,,,,,,1091.6193,1098.007,0.25648151,-0.185185199,1.0,0.0,0.0,0.3824,compass,0.0,6.0,6.0,34.0,1.0,SoundStimuli/AChangeIsGonnaCome_SamCooke_Original5S.wav,,,,,,,,,,,,,,,,,,,,,,,,,,,,,,,,,,,,,,,,,,,,,,,,,,,,,
,,,,,798641,1,2024-07-12_19h43.10.807,experiment,2024.1.5,Win32,60.60606061,6691931c2c63981b064e1f0c,6691bc46139b538a1a432b1c,,,,,,,,,,,,,,,,,,,,,,,,,,,,,,,,,,,,,,,,,,,,,,,,,,,,,,,,,,,,1098.0194,1104.1554,0.188888889,0.220370356,1.0,0.0,0.0,0.1326,compass,0.0,7.0,7.0,24.0,1.0,SoundStimuli/UptownFunk_MarkRonson_Cover5S.wav,,,,,,,,,,,,,,,,,,,,,,,,,,,,,,,,,,,,,,,,,,,,,,,,,,,,,
,,,,,798641,1,2024-07-12_19h43.10.807,experiment,2024.1.5,Win32,60.60606061,6691931c2c63981b064e1f0c,6691bc46139b538a1a432b1c,,,,,,,,,,,,,,,,,,,,,,,,,,,,,,,,,,,,,,,,,,,,,,,,,,,,,,,,,,,,1104.1667,1110.7052,0.212963019,-0.114814843,1.0,0.0,0.0,0.5316,compass,0.0,8.0,8.0,12.0,1.0,SoundStimuli/IWillAlwaysLoveYou_WhitneyHouston_Original5S.wav,,,,,,,,,,,,,,,,,,,,,,,,,,,,,,,,,,,,,,,,,,,,,,,,,,,,,
,,,,,798641,1,2024-07-12_19h43.10.807,experiment,2024.1.5,Win32,60.60606061,6691931c2c63981b064e1f0c,6691bc46139b538a1a432b1c,,,,,,,,,,,,,,,,,,,,,,,,,,,,,,,,,,,,,,,,,,,,,,,,,,,,,,,,,,,,1110.7173,1117.5039,0.212963019,-0.114814843,1.0,0.0,0.0,0.7833,compass,0.0,9.0,9.0,5.0,1.0,SoundStimuli/MyGirl_TheTemptations_Cover5S.wav,,,,,,,,,,,,,,,,,,,,,,,,,,,,,,,,,,,,,,,,,,,,,,,,,,,,,
,,,,,798641,1,2024-07-12_19h43.10.807,experiment,2024.1.5,Win32,60.60606061,6691931c2c63981b064e1f0c,6691bc46139b538a1a432b1c,,,,,,,,,,,,,,,,,,,,,,,,,,,,,,,,,,,,,,,,,,,,,,,,,,,,,,,,,,,,1117.5154,1123.9863,-0.190740712,-0.153703732,1.0,0.0,0.0,0.4629,compass,0.0,10.0,10.0,10.0,1.0,SoundStimuli/BadDay_DanielPowter_Original5S.wav,,,,,,,,,,,,,,,,,,,,,,,,,,,,,,,,,,,,,,,,,,,,,,,,,,,,,
,,,,,798641,1,2024-07-12_19h43.10.807,experiment,2024.1.5,Win32,60.60606061,6691931c2c63981b064e1f0c,6691bc46139b538a1a432b1c,,,,,,,,,,,,,,,,,,,,,,,,,,,,,,,,,,,,,,,,,,,,,,,,,,,,,,,,,,,,1123.9975,1130.4707,0.13148151,-0.226851908,1.0,0.0,0.0,0.468,compass,0.0,11.0,11.0,33.0,1.0,SoundStimuli/StandByMe_BenEKing_Original5S.wav,,,,,,,,,,,,,,,,,,,,,,,,,,,,,,,,,,,,,,,,,,,,,,,,,,,,,
,,,,,798641,1,2024-07-12_19h43.10.807,experiment,2024.1.5,Win32,60.60606061,6691931c2c63981b064e1f0c,6691bc46139b538a1a432b1c,,,,,,,,,,,,,,,,,,,,,,,,,,,,,,,,,,,,,,,,,,,,,,,,,,,,,,,,,,,,1130.4821,1136.9182,0.188888889,-0.155555556,1.0,0.0,0.0,0.4313,compass,0.0,12.0,12.0,6.0,1.0,SoundStimuli/Levitating_DuaLipa_Original5S.wav,,,,,,,,,,,,,,,,,,,,,,,,,,,,,,,,,,,,,,,,,,,,,,,,,,,,,
,,,,,798641,1,2024-07-12_19h43.10.807,experiment,2024.1.5,Win32,60.60606061,6691931c2c63981b064e1f0c,6691bc46139b538a1a432b1c,,,,,,,,,,,,,,,,,,,,,,,,,,,,,,,,,,,,,,,,,,,,,,,,,,,,,,,,,,,,1136.93,1143.5497,0.179629686,0.174074067,1.0,0.0,0.0,0.6026,compass,0.0,13.0,13.0,15.0,1.0,SoundStimuli/TikTok_Kesha_Original5S.wav,,,,,,,,,,,,,,,,,,,,,,,,,,,,,,,,,,,,,,,,,,,,,,,,,,,,,
,,,,,798641,1,2024-07-12_19h43.10.807,experiment,2024.1.5,Win32,60.60606061,6691931c2c63981b064e1f0c,6691bc46139b538a1a432b1c,,,,,,,,,,,,,,,,,,,,,,,,,,,,,,,,,,,,,,,,,,,,,,,,,,,,,,,,,,,,1143.5618,1150.166,-0.173148092,0.175,1.0,0.0,0.0,0.6004,compass,0.0,14.0,14.0,23.0,1.0,SoundStimuli/StrawberryFieldsForever_TheBeatles_Cover5S.wav,,,,,,,,,,,,,,,,,,,,,,,,,,,,,,,,,,,,,,,,,,,,,,,,,,,,,
,,,,,798641,1,2024-07-12_19h43.10.807,experiment,2024.1.5,Win32,60.60606061,6691931c2c63981b064e1f0c,6691bc46139b538a1a432b1c,,,,,,,,,,,,,,,,,,,,,,,,,,,,,,,,,,,,,,,,,,,,,,,,,,,,,,,,,,,,1150.1795,1156.5826,0.190740797,-0.162962977,1.0,0.0,0.0,0.3999,compass,0.0,15.0,15.0,29.0,1.0,SoundStimuli/OldTownRoad_LilNasX_Cover5S.wav,,,,,,,,,,,,,,,,,,,,,,,,,,,,,,,,,,,,,,,,,,,,,,,,,,,,,
,,,,,798641,1,2024-07-12_19h43.10.807,experiment,2024.1.5,Win32,60.60606061,6691931c2c63981b064e1f0c,6691bc46139b538a1a432b1c,,,,,,,,,,,,,,,,,,,,,,,,,,,,,,,,,,,,,,,,,,,,,,,,,,,,,,,,,,,,1156.5936,1163.1618,0.182407464,-0.137037065,1.0,0.0,0.0,0.5496,compass,0.0,16.0,16.0,9.0,1.0,SoundStimuli/Despacito_LuisFonsiDaddyYankee_Original5S.wav,,,,,,,,,,,,,,,,,,,,,,,,,,,,,,,,,,,,,,,,,,,,,,,,,,,,,
,,,,,798641,1,2024-07-12_19h43.10.807,experiment,2024.1.5,Win32,60.60606061,6691931c2c63981b064e1f0c,6691bc46139b538a1a432b1c,,,,,,,,,,,,,,,,,,,,,,,,,,,,,,,,,,,,,,,,,,,,,,,,,,,,,,,,,,,,1163.1744,1169.3472,-0.160185157,-0.144444444,1.0,0.0,0.0,0.164,compass,0.0,17.0,17.0,1.0,1.0,SoundStimuli/Stronger_KanyeWest_Cover5S.wav,,,,,,,,,,,,,,,,,,,,,,,,,,,,,,,,,,,,,,,,,,,,,,,,,,,,,
,,,,,798641,1,2024-07-12_19h43.10.807,experiment,2024.1.5,Win32,60.60606061,6691931c2c63981b064e1f0c,6691bc46139b538a1a432b1c,,,,,,,,,,,,,,,,,,,,,,,,,,,,,,,,,,,,,,,,,,,,,,,,,,,,,,,,,,,,1169.3583,1176.0988,0.197222222,0.248148134,1.0,0.0,0.0,0.7358,compass,0.0,18.0,18.0,26.0,1.0,SoundStimuli/LivinOnAPrayer_BonJovi_Original5S.wav,,,,,,,,,,,,,,,,,,,,,,,,,,,,,,,,,,,,,,,,,,,,,,,,,,,,,
,,,,,798641,1,2024-07-12_19h43.10.807,experiment,2024.1.5,Win32,60.60606061,6691931c2c63981b064e1f0c,6691bc46139b538a1a432b1c,,,,,,,,,,,,,,,,,,,,,,,,,,,,,,,,,,,,,,,,,,,,,,,,,,,,,,,,,,,,1176.1127,1182.6139,0.197222222,0.248148134,1.0,0.0,0.0,0.5004,compass,0.0,19.0,19.0,21.0,1.0,SoundStimuli/GoodGollyMissMolly_LittleRichard_Original5S.wav,,,,,,,,,,,,,,,,,,,,,,,,,,,,,,,,,,,,,,,,,,,,,,,,,,,,,
,,,,,798641,1,2024-07-12_19h43.10.807,experiment,2024.1.5,Win32,60.60606061,6691931c2c63981b064e1f0c,6691bc46139b538a1a432b1c,,,,,,,,,,,,,,,,,,,,,,,,,,,,,,,,,,,,,,,,,,,,,,,,,,,,,,,,,,,,1182.6266,1189.0789,0.191666667,-0.153703732,1.0,0.0,0.0,0.4499,compass,0.0,20.0,20.0,7.0,1.0,SoundStimuli/NoOne_AliciaKeys_Original5S.wav,,,,,,,,,,,,,,,,,,,,,,,,,,,,,,,,,,,,,,,,,,,,,,,,,,,,,
,,,,,798641,1,2024-07-12_19h43.10.807,experiment,2024.1.5,Win32,60.60606061,6691931c2c63981b064e1f0c,6691bc46139b538a1a432b1c,,,,,,,,,,,,,,,,,,,,,,,,,,,,,,,,,,,,,,,,,,,,,,,,,,,,,,,,,,,,1189.0919,1195.5937,0.212037065,-0.168518533,1.0,0.0,0.0,0.4998,compass,0.0,21.0,21.0,19.0,1.0,SoundStimuli/LetsGetItOn_MarvinGaye_Original5S.wav,,,,,,,,,,,,,,,,,,,,,,,,,,,,,,,,,,,,,,,,,,,,,,,,,,,,,
,,,,,798641,1,2024-07-12_19h43.10.807,experiment,2024.1.5,Win32,60.60606061,6691931c2c63981b064e1f0c,6691bc46139b538a1a432b1c,,,,,,,,,,,,,,,,,,,,,,,,,,,,,,,,,,,,,,,,,,,,,,,,,,,,,,,,,,,,1195.606,1202.1228,0.212037065,-0.168518533,1.0,0.0,0.0,0.4998,compass,0.0,22.0,22.0,31.0,1.0,SoundStimuli/TheBattleOfNewOrleans_JohnnyHorton_Original5S.wav,,,,,,,,,,,,,,,,,,,,,,,,,,,,,,,,,,,,,,,,,,,,,,,,,,,,,
,,,,,798641,1,2024-07-12_19h43.10.807,experiment,2024.1.5,Win32,60.60606061,6691931c2c63981b064e1f0c,6691bc46139b538a1a432b1c,,,,,,,,,,,,,,,,,,,,,,,,,,,,,,,,,,,,,,,,,,,,,,,,,,,,,,,,,,,,1202.1361,1208.6096,0.200925954,0.084259245,1.0,0.0,0.0,0.4668,compass,0.0,23.0,23.0,0.0,1.0,SoundStimuli/StayinAlive_BeeGees_Cover5S.wav,,,,,,,,,,,,,,,,,,,,,,,,,,,,,,,,,,,,,,,,,,,,,,,,,,,,,
,,,,,798641,1,2024-07-12_19h43.10.807,experiment,2024.1.5,Win32,60.60606061,6691931c2c63981b064e1f0c,6691bc46139b538a1a432b1c,,,,,,,,,,,,,,,,,,,,,,,,,,,,,,,,,,,,,,,,,,,,,,,,,,,,,,,,,,,,1208.6218,1215.1081,0.200925954,0.084259245,1.0,0.0,0.0,0.4826,compass,0.0,24.0,24.0,32.0,1.0,SoundStimuli/HeatWaves_GlassAnimals_Cover5S.wav,,,,,,,,,,,,,,,,,,,,,,,,,,,,,,,,,,,,,,,,,,,,,,,,,,,,,
,,,,,798641,1,2024-07-12_19h43.10.807,experiment,2024.1.5,Win32,60.60606061,6691931c2c63981b064e1f0c,6691bc46139b538a1a432b1c,,,,,,,,,,,,,,,,,,,,,,,,,,,,,,,,,,,,,,,,,,,,,,,,,,,,,,,,,,,,1215.125,1221.5412,-0.247222222,-0.192592621,1.0,0.0,0.0,0.4008,compass,0.0,25.0,25.0,13.0,1.0,SoundStimuli/GodOnlyKnows_TheBeachBoys_Original5S.wav,,,,,,,,,,,,,,,,,,,,,,,,,,,,,,,,,,,,,,,,,,,,,,,,,,,,,
,,,,,798641,1,2024-07-12_19h43.10.807,experiment,2024.1.5,Win32,60.60606061,6691931c2c63981b064e1f0c,6691bc46139b538a1a432b1c,,,,,,,,,,,,,,,,,,,,,,,,,,,,,,,,,,,,,,,,,,,,,,,,,,,,,,,,,,,,1221.5528,1227.9899,-0.205555556,0.12870369,1.0,0.0,0.0,0.4338,compass,0.0,26.0,26.0,11.0,1.0,SoundStimuli/Superstition_StevieWonder_Original5S.wav,,,,,,,,,,,,,,,,,,,,,,,,,,,,,,,,,,,,,,,,,,,,,,,,,,,,,
,,,,,798641,1,2024-07-12_19h43.10.807,experiment,2024.1.5,Win32,60.60606061,6691931c2c63981b064e1f0c,6691bc46139b538a1a432b1c,,,,,,,,,,,,,,,,,,,,,,,,,,,,,,,,,,,,,,,,,,,,,,,,,,,,,,,,,,,,1228.0011,1234.4723,0.164814843,0.179629623,1.0,0.0,0.0,0.4655,compass,0.0,27.0,27.0,27.0,1.0,SoundStimuli/ShapeofYou_EdSheeran_Cover5S.wav,,,,,,,,,,,,,,,,,,,,,,,,,,,,,,,,,,,,,,,,,,,,,,,,,,,,,
,,,,,798641,1,2024-07-12_19h43.10.807,experiment,2024.1.5,Win32,60.60606061,6691931c2c63981b064e1f0c,6691bc46139b538a1a432b1c,,,,,,,,,,,,,,,,,,,,,,,,,,,,,,,,,,,,,,,,,,,,,,,,,,,,,,,,,,,,1234.4832,1241.0058,0.164814843,0.179629623,1.0,0.0,0.0,0.5155,compass,0.0,28.0,28.0,8.0,1.0,SoundStimuli/LikeAPrayer_Madonna_Cover5S.wav,,,,,,,,,,,,,,,,,,,,,,,,,,,,,,,,,,,,,,,,,,,,,,,,,,,,,
,,,,,798641,1,2024-07-12_19h43.10.807,experiment,2024.1.5,Win32,60.60606061,6691931c2c63981b064e1f0c,6691bc46139b538a1a432b1c,,,,,,,,,,,,,,,,,,,,,,,,,,,,,,,,,,,,,,,,,,,,,,,,,,,,,,,,,,,,1241.0211,1247.3048,-0.161111111,-0.116666667,1.0,0.0,0.0,0.2679,compass,0.0,29.0,29.0,18.0,1.0,SoundStimuli/AnotherOneBitesTheDust_Queen_Cover5S.wav,,,,,,,,,,,,,,,,,,,,,,,,,,,,,,,,,,,,,,,,,,,,,,,,,,,,,
,,,,,798641,1,2024-07-12_19h43.10.807,experiment,2024.1.5,Win32,60.60606061,6691931c2c63981b064e1f0c,6691bc46139b538a1a432b1c,,,,,,,,,,,,,,,,,,,,,,,,,,,,,,,,,,,,,,,,,,,,,,,,,,,,,,,,,,,,1247.3177,1253.8715,-0.180555556,0.208333333,1.0,0.0,0.0,0.5513,compass,0.0,30.0,30.0,25.0,1.0,SoundStimuli/Respect_ArethaFranklin_Cover5S.wav,,,,,,,,,,,,,,,,,,,,,,,,,,,,,,,,,,,,,,,,,,,,,,,,,,,,,
,,,,,798641,1,2024-07-12_19h43.10.807,experiment,2024.1.5,Win32,60.60606061,6691931c2c63981b064e1f0c,6691bc46139b538a1a432b1c,,,,,,,,,,,,,,,,,,,,,,,,,,,,,,,,,,,,,,,,,,,,,,,,,,,,,,,,,,,,1253.8898,1260.4022,0.170370399,0.167592578,1.0,0.0,0.0,0.4975,compass,0.0,31.0,31.0,30.0,1.0,SoundStimuli/PokerFace_LadyGaga_Cover5S.wav,,,,,,,,,,,,,,,,,,,,,,,,,,,,,,,,,,,,,,,,,,,,,,,,,,,,,
,,,,,798641,1,2024-07-12_19h43.10.807,experiment,2024.1.5,Win32,60.60606061,6691931c2c63981b064e1f0c,6691bc46139b538a1a432b1c,,,,,,,,,,,,,,,,,,,,,,,,,,,,,,,,,,,,,,,,,,,,,,,,,,,,,,,,,,,,1260.4136,1268.3535,-0.239814801,0.169444444,1.0,0.0,0.0,1.9359,compass,0.0,32.0,32.0,28.0,1.0,SoundStimuli/ComeAndGetYourLove_Redbone_Cover5S.wav,,,,,,,,,,,,,,,,,,,,,,,,,,,,,,,,,,,,,,,,,,,,,,,,,,,,,
,,,,,798641,1,2024-07-12_19h43.10.807,experiment,2024.1.5,Win32,60.60606061,6691931c2c63981b064e1f0c,6691bc46139b538a1a432b1c,,,,,,,,,,,,,,,,,,,,,,,,,,,,,,,,,,,,,,,,,,,,,,,,,,,,,,,,,,,,1268.3653,1274.9813,0.211111111,-0.10648151,1.0,0.0,0.0,0.602,compass,0.0,33.0,33.0,22.0,1.0,SoundStimuli/RockWithYou_MichaelJackson_Cover5S.wav,,,,,,,,,,,,,,,,,,,,,,,,,,,,,,,,,,,,,,,,,,,,,,,,,,,,,
,,,,,798641,1,2024-07-12_19h43.10.807,experiment,2024.1.5,Win32,60.60606061,6691931c2c63981b064e1f0c,6691bc46139b538a1a432b1c,,,,,,,,,,,,,,,,,,,,,,,,,,,,,,,,,,,,,,,,,,,,,,,,,,,,,,,,,,,,1274.9932,1281.4656,-0.190740712,-0.135185199,1.0,0.0,0.0,0.4636,compass,0.0,34.0,34.0,3.0,1.0,SoundStimuli/NoScrubs_TLC_Cover5S.wav,,,,,,,,,,,,,,,,,,,,,,,,,,,,,,,,,,,,,,,,,,,,,,,,,,,,,
,,,,,798641,1,2024-07-12_19h43.10.807,experiment,2024.1.5,Win32,60.60606061,6691931c2c63981b064e1f0c,6691bc46139b538a1a432b1c,,,,,,,,,,,,,,,,,,,,,,,,,,,,,,,,,,,,,,,,,,,,,,,,,,,,,,,,,,,,,,,,,,,,,,,,,,,1281.4657,1281.4659,,,,1281.4659,1281.4659,,,,0.0,3.0,3.0,3.0,1.0,block_order/blockC.xlsx,,,,,,,,,,,,,,,,,,,,,,,,,,,,,,,,,,,,,
,,,,,798641,1,2024-07-12_19h43.10.807,experiment,2024.1.5,Win32,60.60606061,6691931c2c63981b064e1f0c,6691bc46139b538a1a432b1c,,,,,,,,,,,,,,,,,,,,,,,,,,,,,,,,,,,,,,,,,,,,,,,,,,,,,,,,,,,,,,,,,,,,,,,,,,,,,,,,,,,,,,,,,,,29.0,Item 2,Item 3,I am not a musician currently. I was in a chorus group for about three years in middle school from ages 12-14.,"YouTube, Radio",2.0,5.0,"Driving, exercising, cooking",Never,Sometimes,Often,Rarely,Sometimes,Never,Never,Always,Rarely,Often,Rarely,Always,Sometimes,Never,Sometimes,Often,,Hip-Hop,R&B,EDM,I have recently started listening to EDM more. For about the past year now.,"I mostly listen to Hip-hop, R&B, and EDM.",0.0,0.0,0.0,0.0,1.0,,
,,,,,798641,1,2024-07-12_19h43.10.807,experiment,2024.1.5,Win32,60.60606061,6691931c2c63981b064e1f0c,6691bc46139b538a1a432b1c,,,,,,,,,,,,,,,,,,,,,,,,,,,,,,,,,,,,,,,,,,,,,,,,,,,,,,,,,,,,,,,,,,,,,,,,,,,,,,,,,,,,,,,,,,,,,,,,,,,,,,,,,,,,,,,,,,,,,,,,,,,,,,1579.78,1581.7309
