welcome.started,welcome.stopped,space_to_continue.keys,space_to_continue.rt,space_to_continue.duration,participant,session,date,expName,psychopyVersion,OS,frameRate,STUDY_ID,SESSION_ID,consent.consent,consent.consent_recontact,consent_check.started,consent_check.stopped,calibration_ready.started,calibration_ready.stopped,cal_ready.keys,cal_ready.rt,cal_ready.duration,calibration.started,calibration.stopped,mouse.x,mouse.y,mouse.leftButton,mouse.midButton,mouse.rightButton,mouse.time,mouse.clicked_name,move_on.keys,move_on.rt,move_on.duration,run_cal.thisRepN,run_cal.thisTrialN,run_cal.thisN,run_cal.thisIndex,run_cal.ran,emotion_training_ready.started,emotion_training_ready.stopped,training_move_on.keys,training_move_on.rt,training_move_on.duration,examples.started,examples.stopped,emotion_scale.started,emotion_scale.stopped,scale_next.keys,scale_next.rt,scale_next.duration,instructions.started,instructions.stopped,next.keys,next.rt,next.duration,practice_task.started,practice_task.stopped,mouse_rating_2.x,mouse_rating_2.y,mouse_rating_2.leftButton,mouse_rating_2.midButton,mouse_rating_2.rightButton,mouse_rating_2.time,mouse_rating_2.clicked_name,ready.started,ready.stopped,key_resp.keys,key_resp.rt,key_resp.duration,set_group.started,set_group.stopped,task.started,task.stopped,mouse_rating.x,mouse_rating.y,mouse_rating.leftButton,mouse_rating.midButton,mouse_rating.rightButton,mouse_rating.time,mouse_rating.clicked_name,trials.thisRepN,trials.thisTrialN,trials.thisN,trials.thisIndex,trials.ran,clip,short_break.started,short_break.stopped,space_to_move_on.keys,space_to_move_on.rt,space_to_move_on.duration,instruction_reminder.started,instruction_reminder.stopped,reminder_move_on.keys,reminder_move_on.rt,reminder_move_on.duration,blocks.thisRepN,blocks.thisTrialN,blocks.thisN,blocks.thisIndex,blocks.ran,block,post_survey.age,post_survey.musician,post_survey.music_making,post_survey.listen_time,post_survey.medium,post_survey.music_seeking,post_survey.music_choice,post_survey.activities,post_survey.question1.Jazz,post_survey.question1.R&B,post_survey.question1.Latin,post_survey.question1.Pop,post_survey.question1.Reggae,post_survey.question1.Classical,post_survey.question1.Alternative rock,post_survey.question1.Hip hop,post_survey.question1.Electronic (EDM),post_survey.question1.Disco,post_survey.question1.Folk/indie,post_survey.question1.Country,post_survey.question1.A cappella,post_survey.question1.Ambient,post_survey.question1.Metal,post_survey.question1.Classic rock,post_survey.other_genres,post_survey.genres_ranked.text1,post_survey.genres_ranked.text2,post_survey.genres_ranked.text3,post_survey.habit_change,post_survey.habits,show_exp.thisRepN,show_exp.thisTrialN,show_exp.thisN,show_exp.thisIndex,show_exp.ran,goodbye.started,goodbye.stopped
0.0,11.801,space,11.763,,799961,1,2024-07-12_18h54.04.730,experiment,2024.1.5,Win32,30.39513678,6691931c2c63981b064e1f0c,6691b3f1a8d561924cf6515e,,,,,,,,,,,,,,,,,,,,,,,,,,,,,,,,,,,,,,,,,,,,,,,,,,,,,,,,,,,,,,,,,,,,,,,,,,,,,,,,,,,,,,,,,,,,,,,,,,,,,,,,,,,,,,,,,,,,,,,,,,,,,,,
,,,,,799961,1,2024-07-12_18h54.04.730,experiment,2024.1.5,Win32,30.39513678,6691931c2c63981b064e1f0c,6691b3f1a8d561924cf6515e,yes,no,,,,,,,,,,,,,,,,,,,,,,,,,,,,,,,,,,,,,,,,,,,,,,,,,,,,,,,,,,,,,,,,,,,,,,,,,,,,,,,,,,,,,,,,,,,,,,,,,,,,,,,,,,,,,,,,,,,,,,,,,,,,,
,,,,,799961,1,2024-07-12_18h54.04.730,experiment,2024.1.5,Win32,30.39513678,6691931c2c63981b064e1f0c,6691b3f1a8d561924cf6515e,,,28.78,28.781,,,,,,,,,,,,,,,,,,,,,,,,,,,,,,,,,,,,,,,,,,,,,,,,,,,,,,,,,,,,,,,,,,,,,,,,,,,,,,,,,,,,,,,,,,,,,,,,,,,,,,,,,,,,,,,,,,,,,,,,,,,
,,,,,799961,1,2024-07-12_18h54.04.730,experiment,2024.1.5,Win32,30.39513678,6691931c2c63981b064e1f0c,6691b3f1a8d561924cf6515e,,,,,28.786,35.005,space,6.166,,35.009,73.611,"[-0.018518518518518517,-0.01273148148148148]","[-0.41087962962962965,-0.4050925925925926]","[1,1]","[0,0]","[0,0]","[29.72,31.233999999999995]","[""play_button""]",y,37.569,,0.0,0.0,0.0,0.0,1.0,,,,,,,,,,,,,,,,,,,,,,,,,,,,,,,,,,,,,,,,,,,,,,,,,,,,,,,,,,,,,,,,,,,,,,,,,,,,,,,,,,,,,,,,,,,,,,,,,,,,,
,,,,,799961,1,2024-07-12_18h54.04.730,experiment,2024.1.5,Win32,30.39513678,6691931c2c63981b064e1f0c,6691b3f1a8d561924cf6515e,,,,,,,,,,,,,,,,,,,,,,,,,,,73.612,115.756,space,42.017,,115.756,235.766,235.768,251.77,right,12.46,,251.77,264.889,space,12.973,,264.89,271.699,0.1875,-0.206018519,1.0,0.0,0.0,0.802,compass_2,271.7,275.444,space,3.704,,275.445,275.445,275.485,283.282,0.229166667,-0.153935185,1.0,0.0,0.0,1.743,compass,0.0,0.0,0.0,33.0,1.0,SoundStimuli/StandByMe_BenEKing_Original5S.wav,,,,,,,,,,,,,,,,,,,,,,,,,,,,,,,,,,,,,,,,,,,,,,,,,,,,,
,,,,,799961,1,2024-07-12_18h54.04.730,experiment,2024.1.5,Win32,30.39513678,6691931c2c63981b064e1f0c,6691b3f1a8d561924cf6515e,,,,,,,,,,,,,,,,,,,,,,,,,,,,,,,,,,,,,,,,,,,,,,,,,,,,,,,,,,,,283.285,289.947,0.173611111,0.180555556,1.0,0.0,0.0,0.657,compass,0.0,1.0,1.0,3.0,1.0,SoundStimuli/NoScrubs_TLC_Cover5S.wav,,,,,,,,,,,,,,,,,,,,,,,,,,,,,,,,,,,,,,,,,,,,,,,,,,,,,
,,,,,799961,1,2024-07-12_18h54.04.730,experiment,2024.1.5,Win32,30.39513678,6691931c2c63981b064e1f0c,6691b3f1a8d561924cf6515e,,,,,,,,,,,,,,,,,,,,,,,,,,,,,,,,,,,,,,,,,,,,,,,,,,,,,,,,,,,,289.952,296.901,0.173611111,0.112268519,1.0,0.0,0.0,0.944,compass,0.0,2.0,2.0,13.0,1.0,SoundStimuli/GodOnlyKnows_TheBeachBoys_Original5S.wav,,,,,,,,,,,,,,,,,,,,,,,,,,,,,,,,,,,,,,,,,,,,,,,,,,,,,
,,,,,799961,1,2024-07-12_18h54.04.730,experiment,2024.1.5,Win32,30.39513678,6691931c2c63981b064e1f0c,6691b3f1a8d561924cf6515e,,,,,,,,,,,,,,,,,,,,,,,,,,,,,,,,,,,,,,,,,,,,,,,,,,,,,,,,,,,,296.905,304.032,0.206018519,0.195601852,1.0,0.0,0.0,1.12,compass,0.0,3.0,3.0,26.0,1.0,SoundStimuli/LivinOnAPrayer_BonJovi_Original5S.wav,,,,,,,,,,,,,,,,,,,,,,,,,,,,,,,,,,,,,,,,,,,,,,,,,,,,,
,,,,,799961,1,2024-07-12_18h54.04.730,experiment,2024.1.5,Win32,30.39513678,6691931c2c63981b064e1f0c,6691b3f1a8d561924cf6515e,,,,,,,,,,,,,,,,,,,,,,,,,,,,,,,,,,,,,,,,,,,,,,,,,,,,,,,,,,,,304.033,310.064,-0.076388889,0.175925926,1.0,0.0,0.0,0.015,compass,0.0,4.0,4.0,28.0,1.0,SoundStimuli/ComeAndGetYourLove_Redbone_Cover5S.wav,,,,,,,,,,,,,,,,,,,,,,,,,,,,,,,,,,,,,,,,,,,,,,,,,,,,,
,,,,,799961,1,2024-07-12_18h54.04.730,experiment,2024.1.5,Win32,30.39513678,6691931c2c63981b064e1f0c,6691b3f1a8d561924cf6515e,,,,,,,,,,,,,,,,,,,,,,,,,,,,,,,,,,,,,,,,,,,,,,,,,,,,,,,,,,,,310.068,316.816,0.195601852,0.113425926,1.0,0.0,0.0,0.735,compass,0.0,5.0,5.0,9.0,1.0,SoundStimuli/Despacito_LuisFonsiDaddyYankee_Original5S.wav,,,,,,,,,,,,,,,,,,,,,,,,,,,,,,,,,,,,,,,,,,,,,,,,,,,,,
,,,,,799961,1,2024-07-12_18h54.04.730,experiment,2024.1.5,Win32,30.39513678,6691931c2c63981b064e1f0c,6691b3f1a8d561924cf6515e,,,,,,,,,,,,,,,,,,,,,,,,,,,,,,,,,,,,,,,,,,,,,,,,,,,,,,,,,,,,316.817,323.062,0.173611111,-0.136574074,1.0,0.0,0.0,0.171,compass,0.0,6.0,6.0,16.0,1.0,SoundStimuli/BohemianRhapsody_Queen_Cover5S.wav,,,,,,,,,,,,,,,,,,,,,,,,,,,,,,,,,,,,,,,,,,,,,,,,,,,,,
,,,,,799961,1,2024-07-12_18h54.04.730,experiment,2024.1.5,Win32,30.39513678,6691931c2c63981b064e1f0c,6691b3f1a8d561924cf6515e,,,,,,,,,,,,,,,,,,,,,,,,,,,,,,,,,,,,,,,,,,,,,,,,,,,,,,,,,,,,323.066,331.475,-0.150462963,-0.130787037,1.0,0.0,0.0,2.393,compass,0.0,7.0,7.0,5.0,1.0,SoundStimuli/MyGirl_TheTemptations_Cover5S.wav,,,,,,,,,,,,,,,,,,,,,,,,,,,,,,,,,,,,,,,,,,,,,,,,,,,,,
,,,,,799961,1,2024-07-12_18h54.04.730,experiment,2024.1.5,Win32,30.39513678,6691931c2c63981b064e1f0c,6691b3f1a8d561924cf6515e,,,,,,,,,,,,,,,,,,,,,,,,,,,,,,,,,,,,,,,,,,,,,,,,,,,,,,,,,,,,331.476,337.91,0.175925926,-0.097222222,1.0,0.0,0.0,0.417,compass,0.0,8.0,8.0,7.0,1.0,SoundStimuli/NoOne_AliciaKeys_Original5S.wav,,,,,,,,,,,,,,,,,,,,,,,,,,,,,,,,,,,,,,,,,,,,,,,,,,,,,
,,,,,799961,1,2024-07-12_18h54.04.730,experiment,2024.1.5,Win32,30.39513678,6691931c2c63981b064e1f0c,6691b3f1a8d561924cf6515e,,,,,,,,,,,,,,,,,,,,,,,,,,,,,,,,,,,,,,,,,,,,,,,,,,,,,,,,,,,,337.912,344.444,-0.114583333,-0.127314815,1.0,0.0,0.0,0.516,compass,0.0,9.0,9.0,10.0,1.0,SoundStimuli/BadDay_DanielPowter_Original5S.wav,,,,,,,,,,,,,,,,,,,,,,,,,,,,,,,,,,,,,,,,,,,,,,,,,,,,,
,,,,,799961,1,2024-07-12_18h54.04.730,experiment,2024.1.5,Win32,30.39513678,6691931c2c63981b064e1f0c,6691b3f1a8d561924cf6515e,,,,,,,,,,,,,,,,,,,,,,,,,,,,,,,,,,,,,,,,,,,,,,,,,,,,,,,,,,,,344.447,350.67,-0.233796296,0.1875,1.0,0.0,0.0,0.217,compass,0.0,10.0,10.0,0.0,1.0,SoundStimuli/StayinAlive_BeeGees_Cover5S.wav,,,,,,,,,,,,,,,,,,,,,,,,,,,,,,,,,,,,,,,,,,,,,,,,,,,,,
,,,,,799961,1,2024-07-12_18h54.04.730,experiment,2024.1.5,Win32,30.39513678,6691931c2c63981b064e1f0c,6691b3f1a8d561924cf6515e,,,,,,,,,,,,,,,,,,,,,,,,,,,,,,,,,,,,,,,,,,,,,,,,,,,,,,,,,,,,350.67,359.061,-0.185185185,0.163194444,1.0,0.0,0.0,2.386,compass,0.0,11.0,11.0,1.0,1.0,SoundStimuli/Stronger_KanyeWest_Cover5S.wav,,,,,,,,,,,,,,,,,,,,,,,,,,,,,,,,,,,,,,,,,,,,,,,,,,,,,
,,,,,799961,1,2024-07-12_18h54.04.730,experiment,2024.1.5,Win32,30.39513678,6691931c2c63981b064e1f0c,6691b3f1a8d561924cf6515e,,,,,,,,,,,,,,,,,,,,,,,,,,,,,,,,,,,,,,,,,,,,,,,,,,,,,,,,,,,,359.066,365.525,0.203703704,-0.130787037,1.0,0.0,0.0,0.451,compass,0.0,12.0,12.0,17.0,1.0,SoundStimuli/Fallin_AliciaKeys_Cover5S.wav,,,,,,,,,,,,,,,,,,,,,,,,,,,,,,,,,,,,,,,,,,,,,,,,,,,,,
,,,,,799961,1,2024-07-12_18h54.04.730,experiment,2024.1.5,Win32,30.39513678,6691931c2c63981b064e1f0c,6691b3f1a8d561924cf6515e,,,,,,,,,,,,,,,,,,,,,,,,,,,,,,,,,,,,,,,,,,,,,,,,,,,,,,,,,,,,365.526,371.966,0.162037037,0.173611111,1.0,0.0,0.0,0.424,compass,0.0,13.0,13.0,2.0,1.0,SoundStimuli/Mood_24kGoldnianndior_Original5S.wav,,,,,,,,,,,,,,,,,,,,,,,,,,,,,,,,,,,,,,,,,,,,,,,,,,,,,
,,,,,799961,1,2024-07-12_18h54.04.730,experiment,2024.1.5,Win32,30.39513678,6691931c2c63981b064e1f0c,6691b3f1a8d561924cf6515e,,,,,,,,,,,,,,,,,,,,,,,,,,,,,,,,,,,,,,,,,,,,,,,,,,,,,,,,,,,,371.967,378.575,0.111111111,-0.162037037,1.0,0.0,0.0,0.605,compass,0.0,14.0,14.0,34.0,1.0,SoundStimuli/AChangeIsGonnaCome_SamCooke_Original5S.wav,,,,,,,,,,,,,,,,,,,,,,,,,,,,,,,,,,,,,,,,,,,,,,,,,,,,,
,,,,,799961,1,2024-07-12_18h54.04.730,experiment,2024.1.5,Win32,30.39513678,6691931c2c63981b064e1f0c,6691b3f1a8d561924cf6515e,,,,,,,,,,,,,,,,,,,,,,,,,,,,,,,,,,,,,,,,,,,,,,,,,,,,,,,,,,,,378.576,384.757,0.283564815,0.263888889,1.0,0.0,0.0,0.168,compass,0.0,15.0,15.0,21.0,1.0,SoundStimuli/GoodGollyMissMolly_LittleRichard_Original5S.wav,,,,,,,,,,,,,,,,,,,,,,,,,,,,,,,,,,,,,,,,,,,,,,,,,,,,,
,,,,,799961,1,2024-07-12_18h54.04.730,experiment,2024.1.5,Win32,30.39513678,6691931c2c63981b064e1f0c,6691b3f1a8d561924cf6515e,,,,,,,,,,,,,,,,,,,,,,,,,,,,,,,,,,,,,,,,,,,,,,,,,,,,,,,,,,,,384.757,391.325,0.283564815,0.263888889,1.0,0.0,0.0,0.553,compass,0.0,16.0,16.0,32.0,1.0,SoundStimuli/HeatWaves_GlassAnimals_Cover5S.wav,,,,,,,,,,,,,,,,,,,,,,,,,,,,,,,,,,,,,,,,,,,,,,,,,,,,,
,,,,,799961,1,2024-07-12_18h54.04.730,experiment,2024.1.5,Win32,30.39513678,6691931c2c63981b064e1f0c,6691b3f1a8d561924cf6515e,,,,,,,,,,,,,,,,,,,,,,,,,,,,,,,,,,,,,,,,,,,,,,,,,,,,,,,,,,,,391.33,397.454,0.091435185,-0.133101852,1.0,0.0,0.0,0.114,compass,0.0,17.0,17.0,19.0,1.0,SoundStimuli/LetsGetItOn_MarvinGaye_Original5S.wav,,,,,,,,,,,,,,,,,,,,,,,,,,,,,,,,,,,,,,,,,,,,,,,,,,,,,
,,,,,799961,1,2024-07-12_18h54.04.730,experiment,2024.1.5,Win32,30.39513678,6691931c2c63981b064e1f0c,6691b3f1a8d561924cf6515e,,,,,,,,,,,,,,,,,,,,,,,,,,,,,,,,,,,,,,,,,,,,,,,,,,,,,,,,,,,,397.455,404.023,0.149305556,0.150462963,1.0,0.0,0.0,0.567,compass,0.0,18.0,18.0,31.0,1.0,SoundStimuli/TheBattleOfNewOrleans_JohnnyHorton_Original5S.wav,,,,,,,,,,,,,,,,,,,,,,,,,,,,,,,,,,,,,,,,,,,,,,,,,,,,,
,,,,,799961,1,2024-07-12_18h54.04.730,experiment,2024.1.5,Win32,30.39513678,6691931c2c63981b064e1f0c,6691b3f1a8d561924cf6515e,,,,,,,,,,,,,,,,,,,,,,,,,,,,,,,,,,,,,,,,,,,,,,,,,,,,,,,,,,,,404.024,410.525,-0.116898148,-0.122685185,1.0,0.0,0.0,0.488,compass,0.0,19.0,19.0,18.0,1.0,SoundStimuli/AnotherOneBitesTheDust_Queen_Cover5S.wav,,,,,,,,,,,,,,,,,,,,,,,,,,,,,,,,,,,,,,,,,,,,,,,,,,,,,
,,,,,799961,1,2024-07-12_18h54.04.730,experiment,2024.1.5,Win32,30.39513678,6691931c2c63981b064e1f0c,6691b3f1a8d561924cf6515e,,,,,,,,,,,,,,,,,,,,,,,,,,,,,,,,,,,,,,,,,,,,,,,,,,,,,,,,,,,,410.529,416.954,0.199074074,0.096064815,1.0,0.0,0.0,0.418,compass,0.0,20.0,20.0,29.0,1.0,SoundStimuli/OldTownRoad_LilNasX_Cover5S.wav,,,,,,,,,,,,,,,,,,,,,,,,,,,,,,,,,,,,,,,,,,,,,,,,,,,,,
,,,,,799961,1,2024-07-12_18h54.04.730,experiment,2024.1.5,Win32,30.39513678,6691931c2c63981b064e1f0c,6691b3f1a8d561924cf6515e,,,,,,,,,,,,,,,,,,,,,,,,,,,,,,,,,,,,,,,,,,,,,,,,,,,,,,,,,,,,416.955,423.459,0.208333333,0.136574074,1.0,0.0,0.0,0.49,compass,0.0,21.0,21.0,30.0,1.0,SoundStimuli/PokerFace_LadyGaga_Cover5S.wav,,,,,,,,,,,,,,,,,,,,,,,,,,,,,,,,,,,,,,,,,,,,,,,,,,,,,
,,,,,799961,1,2024-07-12_18h54.04.730,experiment,2024.1.5,Win32,30.39513678,6691931c2c63981b064e1f0c,6691b3f1a8d561924cf6515e,,,,,,,,,,,,,,,,,,,,,,,,,,,,,,,,,,,,,,,,,,,,,,,,,,,,,,,,,,,,423.464,429.9,0.208333333,0.145833333,1.0,0.0,0.0,0.434,compass,0.0,22.0,22.0,6.0,1.0,SoundStimuli/Levitating_DuaLipa_Original5S.wav,,,,,,,,,,,,,,,,,,,,,,,,,,,,,,,,,,,,,,,,,,,,,,,,,,,,,
,,,,,799961,1,2024-07-12_18h54.04.730,experiment,2024.1.5,Win32,30.39513678,6691931c2c63981b064e1f0c,6691b3f1a8d561924cf6515e,,,,,,,,,,,,,,,,,,,,,,,,,,,,,,,,,,,,,,,,,,,,,,,,,,,,,,,,,,,,429.901,436.403,0.194444444,0.168981481,1.0,0.0,0.0,0.498,compass,0.0,23.0,23.0,8.0,1.0,SoundStimuli/LikeAPrayer_Madonna_Cover5S.wav,,,,,,,,,,,,,,,,,,,,,,,,,,,,,,,,,,,,,,,,,,,,,,,,,,,,,
,,,,,799961,1,2024-07-12_18h54.04.730,experiment,2024.1.5,Win32,30.39513678,6691931c2c63981b064e1f0c,6691b3f1a8d561924cf6515e,,,,,,,,,,,,,,,,,,,,,,,,,,,,,,,,,,,,,,,,,,,,,,,,,,,,,,,,,,,,436.404,442.702,-0.224537037,-0.142361111,1.0,0.0,0.0,0.285,compass,0.0,24.0,24.0,12.0,1.0,SoundStimuli/IWillAlwaysLoveYou_WhitneyHouston_Original5S.wav,,,,,,,,,,,,,,,,,,,,,,,,,,,,,,,,,,,,,,,,,,,,,,,,,,,,,
,,,,,799961,1,2024-07-12_18h54.04.730,experiment,2024.1.5,Win32,30.39513678,6691931c2c63981b064e1f0c,6691b3f1a8d561924cf6515e,,,,,,,,,,,,,,,,,,,,,,,,,,,,,,,,,,,,,,,,,,,,,,,,,,,,,,,,,,,,442.703,449.287,0.210648148,0.136574074,1.0,0.0,0.0,0.572,compass,0.0,25.0,25.0,4.0,1.0,SoundStimuli/GetUrFreakOn_MissyElliot_Cover5S.wav,,,,,,,,,,,,,,,,,,,,,,,,,,,,,,,,,,,,,,,,,,,,,,,,,,,,,
,,,,,799961,1,2024-07-12_18h54.04.730,experiment,2024.1.5,Win32,30.39513678,6691931c2c63981b064e1f0c,6691b3f1a8d561924cf6515e,,,,,,,,,,,,,,,,,,,,,,,,,,,,,,,,,,,,,,,,,,,,,,,,,,,,,,,,,,,,449.288,455.654,0.210648148,0.137731481,1.0,0.0,0.0,0.354,compass,0.0,26.0,26.0,11.0,1.0,SoundStimuli/Superstition_StevieWonder_Original5S.wav,,,,,,,,,,,,,,,,,,,,,,,,,,,,,,,,,,,,,,,,,,,,,,,,,,,,,
,,,,,799961,1,2024-07-12_18h54.04.730,experiment,2024.1.5,Win32,30.39513678,6691931c2c63981b064e1f0c,6691b3f1a8d561924cf6515e,,,,,,,,,,,,,,,,,,,,,,,,,,,,,,,,,,,,,,,,,,,,,,,,,,,,,,,,,,,,455.656,462.121,0.210648148,0.137731481,1.0,0.0,0.0,0.454,compass,0.0,27.0,27.0,24.0,1.0,SoundStimuli/UptownFunk_MarkRonson_Cover5S.wav,,,,,,,,,,,,,,,,,,,,,,,,,,,,,,,,,,,,,,,,,,,,,,,,,,,,,
,,,,,799961,1,2024-07-12_18h54.04.730,experiment,2024.1.5,Win32,30.39513678,6691931c2c63981b064e1f0c,6691b3f1a8d561924cf6515e,,,,,,,,,,,,,,,,,,,,,,,,,,,,,,,,,,,,,,,,,,,,,,,,,,,,,,,,,,,,462.123,468.618,0.210648148,0.137731481,1.0,0.0,0.0,0.487,compass,0.0,28.0,28.0,20.0,1.0,SoundStimuli/HeyYa_Outkast_Original5S.wav,,,,,,,,,,,,,,,,,,,,,,,,,,,,,,,,,,,,,,,,,,,,,,,,,,,,,
,,,,,799961,1,2024-07-12_18h54.04.730,experiment,2024.1.5,Win32,30.39513678,6691931c2c63981b064e1f0c,6691b3f1a8d561924cf6515e,,,,,,,,,,,,,,,,,,,,,,,,,,,,,,,,,,,,,,,,,,,,,,,,,,,,,,,,,,,,468.619,475.002,-0.084490741,0.143518519,1.0,0.0,0.0,0.38,compass,0.0,29.0,29.0,23.0,1.0,SoundStimuli/StrawberryFieldsForever_TheBeatles_Cover5S.wav,,,,,,,,,,,,,,,,,,,,,,,,,,,,,,,,,,,,,,,,,,,,,,,,,,,,,
,,,,,799961,1,2024-07-12_18h54.04.730,experiment,2024.1.5,Win32,30.39513678,6691931c2c63981b064e1f0c,6691b3f1a8d561924cf6515e,,,,,,,,,,,,,,,,,,,,,,,,,,,,,,,,,,,,,,,,,,,,,,,,,,,,,,,,,,,,475.003,481.332,-0.134259259,0.185185185,1.0,0.0,0.0,0.316,compass,0.0,30.0,30.0,25.0,1.0,SoundStimuli/Respect_ArethaFranklin_Cover5S.wav,,,,,,,,,,,,,,,,,,,,,,,,,,,,,,,,,,,,,,,,,,,,,,,,,,,,,
,,,,,799961,1,2024-07-12_18h54.04.730,experiment,2024.1.5,Win32,30.39513678,6691931c2c63981b064e1f0c,6691b3f1a8d561924cf6515e,,,,,,,,,,,,,,,,,,,,,,,,,,,,,,,,,,,,,,,,,,,,,,,,,,,,,,,,,,,,481.334,488.135,0.162037037,-0.175925926,1.0,0.0,0.0,0.787,compass,0.0,31.0,31.0,27.0,1.0,SoundStimuli/ShapeofYou_EdSheeran_Cover5S.wav,,,,,,,,,,,,,,,,,,,,,,,,,,,,,,,,,,,,,,,,,,,,,,,,,,,,,
,,,,,799961,1,2024-07-12_18h54.04.730,experiment,2024.1.5,Win32,30.39513678,6691931c2c63981b064e1f0c,6691b3f1a8d561924cf6515e,,,,,,,,,,,,,,,,,,,,,,,,,,,,,,,,,,,,,,,,,,,,,,,,,,,,,,,,,,,,488.138,494.49,-0.27662037,-0.18287037,1.0,0.0,0.0,0.34,compass,0.0,32.0,32.0,22.0,1.0,SoundStimuli/RockWithYou_MichaelJackson_Cover5S.wav,,,,,,,,,,,,,,,,,,,,,,,,,,,,,,,,,,,,,,,,,,,,,,,,,,,,,
,,,,,799961,1,2024-07-12_18h54.04.730,experiment,2024.1.5,Win32,30.39513678,6691931c2c63981b064e1f0c,6691b3f1a8d561924cf6515e,,,,,,,,,,,,,,,,,,,,,,,,,,,,,,,,,,,,,,,,,,,,,,,,,,,,,,,,,,,,494.494,501.514,0.159722222,-0.171296296,1.0,0.0,0.0,1.015,compass,0.0,33.0,33.0,14.0,1.0,SoundStimuli/BlindingLights_TheWeeknd_Cover5S.wav,,,,,,,,,,,,,,,,,,,,,,,,,,,,,,,,,,,,,,,,,,,,,,,,,,,,,
,,,,,799961,1,2024-07-12_18h54.04.730,experiment,2024.1.5,Win32,30.39513678,6691931c2c63981b064e1f0c,6691b3f1a8d561924cf6515e,,,,,,,,,,,,,,,,,,,,,,,,,,,,,,,,,,,,,,,,,,,,,,,,,,,,,,,,,,,,501.514,507.896,0.19212963,0.143518519,1.0,0.0,0.0,0.363,compass,0.0,34.0,34.0,15.0,1.0,SoundStimuli/TikTok_Kesha_Original5S.wav,,,,,,,,,,,,,,,,,,,,,,,,,,,,,,,,,,,,,,,,,,,,,,,,,,,,,
,,,,,799961,1,2024-07-12_18h54.04.730,experiment,2024.1.5,Win32,30.39513678,6691931c2c63981b064e1f0c,6691b3f1a8d561924cf6515e,,,,,,,,,,,,,,,,,,,,,,,,,,,,,,,,,,,,,,,,,,,,,,,,,,,,,,,,,,,,,,,,,,,,,,,,,,,507.897,740.533,space,232.585,,740.533,748.512,right,7.911,,0.0,0.0,0.0,0.0,1.0,block_order/blockC.xlsx,,,,,,,,,,,,,,,,,,,,,,,,,,,,,,,,,,,,,
,,,,,799961,1,2024-07-12_18h54.04.730,experiment,2024.1.5,Win32,30.39513678,6691931c2c63981b064e1f0c,6691b3f1a8d561924cf6515e,,,,,,,,,,,,,,,,,,,,,,,,,,,,,,,,,,,,,,,,,,,,,,,,,,,,,,,,,,,,748.544,754.98,-0.199074074,0.203703704,1.0,0.0,0.0,0.426,compass,0.0,0.0,0.0,5.0,1.0,SoundStimuli/JoyToTheWorld_ThreeDogNight_Cover5S.wav,,,,,,,,,,,,,,,,,,,,,,,,,,,,,,,,,,,,,,,,,,,,,,,,,,,,,
,,,,,799961,1,2024-07-12_18h54.04.730,experiment,2024.1.5,Win32,30.39513678,6691931c2c63981b064e1f0c,6691b3f1a8d561924cf6515e,,,,,,,,,,,,,,,,,,,,,,,,,,,,,,,,,,,,,,,,,,,,,,,,,,,,,,,,,,,,754.982,761.546,0.221064815,0.18287037,1.0,0.0,0.0,0.552,compass,0.0,1.0,1.0,22.0,1.0,SoundStimuli/Happy_PharellWilliams_Cover5S.wav,,,,,,,,,,,,,,,,,,,,,,,,,,,,,,,,,,,,,,,,,,,,,,,,,,,,,
,,,,,799961,1,2024-07-12_18h54.04.730,experiment,2024.1.5,Win32,30.39513678,6691931c2c63981b064e1f0c,6691b3f1a8d561924cf6515e,,,,,,,,,,,,,,,,,,,,,,,,,,,,,,,,,,,,,,,,,,,,,,,,,,,,,,,,,,,,761.552,768.148,0.221064815,0.18287037,1.0,0.0,0.0,0.595,compass,0.0,2.0,2.0,10.0,1.0,SoundStimuli/LeFreak_Chic_Original5S.wav,,,,,,,,,,,,,,,,,,,,,,,,,,,,,,,,,,,,,,,,,,,,,,,,,,,,,
,,,,,799961,1,2024-07-12_18h54.04.730,experiment,2024.1.5,Win32,30.39513678,6691931c2c63981b064e1f0c,6691b3f1a8d561924cf6515e,,,,,,,,,,,,,,,,,,,,,,,,,,,,,,,,,,,,,,,,,,,,,,,,,,,,,,,,,,,,768.149,774.618,0.238425926,0.096064815,1.0,0.0,0.0,0.465,compass,0.0,3.0,3.0,27.0,1.0,SoundStimuli/EyeOfTheTiger_Survivor_Original5S.wav,,,,,,,,,,,,,,,,,,,,,,,,,,,,,,,,,,,,,,,,,,,,,,,,,,,,,
,,,,,799961,1,2024-07-12_18h54.04.730,experiment,2024.1.5,Win32,30.39513678,6691931c2c63981b064e1f0c,6691b3f1a8d561924cf6515e,,,,,,,,,,,,,,,,,,,,,,,,,,,,,,,,,,,,,,,,,,,,,,,,,,,,,,,,,,,,774.619,781.541,-0.155092593,-0.152777778,1.0,0.0,0.0,0.914,compass,0.0,4.0,4.0,14.0,1.0,SoundStimuli/LikeARollingStone_BobDylan_Cover5S.wav,,,,,,,,,,,,,,,,,,,,,,,,,,,,,,,,,,,,,,,,,,,,,,,,,,,,,
,,,,,799961,1,2024-07-12_18h54.04.730,experiment,2024.1.5,Win32,30.39513678,6691931c2c63981b064e1f0c,6691b3f1a8d561924cf6515e,,,,,,,,,,,,,,,,,,,,,,,,,,,,,,,,,,,,,,,,,,,,,,,,,,,,,,,,,,,,781.543,788.096,-0.215277778,0.106481481,1.0,0.0,0.0,0.548,compass,0.0,5.0,5.0,1.0,1.0,SoundStimuli/Smooth_SantanaRobThomas_Cover5S.wav,,,,,,,,,,,,,,,,,,,,,,,,,,,,,,,,,,,,,,,,,,,,,,,,,,,,,
,,,,,799961,1,2024-07-12_18h54.04.730,experiment,2024.1.5,Win32,30.39513678,6691931c2c63981b064e1f0c,6691b3f1a8d561924cf6515e,,,,,,,,,,,,,,,,,,,,,,,,,,,,,,,,,,,,,,,,,,,,,,,,,,,,,,,,,,,,788.098,794.483,0.16087963,0.1875,1.0,0.0,0.0,0.372,compass,0.0,6.0,6.0,34.0,1.0,SoundStimuli/Irreplaceable_Beyonce_Original5S.wav,,,,,,,,,,,,,,,,,,,,,,,,,,,,,,,,,,,,,,,,,,,,,,,,,,,,,
,,,,,799961,1,2024-07-12_18h54.04.730,experiment,2024.1.5,Win32,30.39513678,6691931c2c63981b064e1f0c,6691b3f1a8d561924cf6515e,,,,,,,,,,,,,,,,,,,,,,,,,,,,,,,,,,,,,,,,,,,,,,,,,,,,,,,,,,,,794.484,801.076,-0.136574074,-0.126157407,1.0,0.0,0.0,0.57,compass,0.0,7.0,7.0,17.0,1.0,SoundStimuli/IWannaDanceWithSomebody_WhitneyHouston_Cover5S.wav,,,,,,,,,,,,,,,,,,,,,,,,,,,,,,,,,,,,,,,,,,,,,,,,,,,,,
,,,,,799961,1,2024-07-12_18h54.04.730,experiment,2024.1.5,Win32,30.39513678,6691931c2c63981b064e1f0c,6691b3f1a8d561924cf6515e,,,,,,,,,,,,,,,,,,,,,,,,,,,,,,,,,,,,,,,,,,,,,,,,,,,,,,,,,,,,801.078,807.925,0.256944444,0.260416667,1.0,0.0,0.0,0.842,compass,0.0,8.0,8.0,6.0,1.0,SoundStimuli/SaveYourTears_TheWeekndArianaGrande_Original5S.wav,,,,,,,,,,,,,,,,,,,,,,,,,,,,,,,,,,,,,,,,,,,,,,,,,,,,,
,,,,,799961,1,2024-07-12_18h54.04.730,experiment,2024.1.5,Win32,30.39513678,6691931c2c63981b064e1f0c,6691b3f1a8d561924cf6515e,,,,,,,,,,,,,,,,,,,,,,,,,,,,,,,,,,,,,,,,,,,,,,,,,,,,,,,,,,,,807.926,815.086,0.186342593,-0.153935185,1.0,0.0,0.0,1.146,compass,0.0,9.0,9.0,13.0,1.0,SoundStimuli/Perfect_EdSheeran_Original5S.wav,,,,,,,,,,,,,,,,,,,,,,,,,,,,,,,,,,,,,,,,,,,,,,,,,,,,,
,,,,,799961,1,2024-07-12_18h54.04.730,experiment,2024.1.5,Win32,30.39513678,6691931c2c63981b064e1f0c,6691b3f1a8d561924cf6515e,,,,,,,,,,,,,,,,,,,,,,,,,,,,,,,,,,,,,,,,,,,,,,,,,,,,,,,,,,,,815.087,822.121,0.189814815,-0.173611111,1.0,0.0,0.0,1.024,compass,0.0,10.0,10.0,18.0,1.0,SoundStimuli/Weak_SWV_Original5S.wav,,,,,,,,,,,,,,,,,,,,,,,,,,,,,,,,,,,,,,,,,,,,,,,,,,,,,
,,,,,799961,1,2024-07-12_18h54.04.730,experiment,2024.1.5,Win32,30.39513678,6691931c2c63981b064e1f0c,6691b3f1a8d561924cf6515e,,,,,,,,,,,,,,,,,,,,,,,,,,,,,,,,,,,,,,,,,,,,,,,,,,,,,,,,,,,,822.13,828.59,-0.140046296,-0.116898148,1.0,0.0,0.0,0.448,compass,0.0,11.0,11.0,28.0,1.0,SoundStimuli/IWantToHoldYourHand_TheBeatles_Cover5S.wav,,,,,,,,,,,,,,,,,,,,,,,,,,,,,,,,,,,,,,,,,,,,,,,,,,,,,
,,,,,799961,1,2024-07-12_18h54.04.730,experiment,2024.1.5,Win32,30.39513678,6691931c2c63981b064e1f0c,6691b3f1a8d561924cf6515e,,,,,,,,,,,,,,,,,,,,,,,,,,,,,,,,,,,,,,,,,,,,,,,,,,,,,,,,,,,,828.59,835.042,-0.230324074,0.194444444,1.0,0.0,0.0,0.433,compass,0.0,12.0,12.0,31.0,1.0,SoundStimuli/TossinAndTurnin_BobbyLewis_Cover5S.wav,,,,,,,,,,,,,,,,,,,,,,,,,,,,,,,,,,,,,,,,,,,,,,,,,,,,,
,,,,,799961,1,2024-07-12_18h54.04.730,experiment,2024.1.5,Win32,30.39513678,6691931c2c63981b064e1f0c,6691b3f1a8d561924cf6515e,,,,,,,,,,,,,,,,,,,,,,,,,,,,,,,,,,,,,,,,,,,,,,,,,,,,,,,,,,,,835.044,843.045,-0.162037037,0.149305556,1.0,0.0,0.0,1.986,compass,0.0,13.0,13.0,12.0,1.0,SoundStimuli/UnbreakMyHeart_ToniBraxton_Cover5S.wav,,,,,,,,,,,,,,,,,,,,,,,,,,,,,,,,,,,,,,,,,,,,,,,,,,,,,
,,,,,799961,1,2024-07-12_18h54.04.730,experiment,2024.1.5,Win32,30.39513678,6691931c2c63981b064e1f0c,6691b3f1a8d561924cf6515e,,,,,,,,,,,,,,,,,,,,,,,,,,,,,,,,,,,,,,,,,,,,,,,,,,,,,,,,,,,,843.047,849.904,-0.266203704,-0.12962963,1.0,0.0,0.0,0.852,compass,0.0,14.0,14.0,16.0,1.0,SoundStimuli/ItsAllInTheGame_TommyEdwards_Original5S.wav,,,,,,,,,,,,,,,,,,,,,,,,,,,,,,,,,,,,,,,,,,,,,,,,,,,,,
,,,,,799961,1,2024-07-12_18h54.04.730,experiment,2024.1.5,Win32,30.39513678,6691931c2c63981b064e1f0c,6691b3f1a8d561924cf6515e,,,,,,,,,,,,,,,,,,,,,,,,,,,,,,,,,,,,,,,,,,,,,,,,,,,,,,,,,,,,849.906,856.925,0.118055556,-0.166666667,1.0,0.0,0.0,1.002,compass,0.0,15.0,15.0,24.0,1.0,SoundStimuli/Kiss_Prince_Original5S.wav,,,,,,,,,,,,,,,,,,,,,,,,,,,,,,,,,,,,,,,,,,,,,,,,,,,,,
,,,,,799961,1,2024-07-12_18h54.04.730,experiment,2024.1.5,Win32,30.39513678,6691931c2c63981b064e1f0c,6691b3f1a8d561924cf6515e,,,,,,,,,,,,,,,,,,,,,,,,,,,,,,,,,,,,,,,,,,,,,,,,,,,,,,,,,,,,856.929,863.439,-0.12037037,-0.15625,1.0,0.0,0.0,0.502,compass,0.0,16.0,16.0,9.0,1.0,SoundStimuli/HowDoILive_LeAnnRimes_Original5S.wav,,,,,,,,,,,,,,,,,,,,,,,,,,,,,,,,,,,,,,,,,,,,,,,,,,,,,
,,,,,799961,1,2024-07-12_18h54.04.730,experiment,2024.1.5,Win32,30.39513678,6691931c2c63981b064e1f0c,6691b3f1a8d561924cf6515e,,,,,,,,,,,,,,,,,,,,,,,,,,,,,,,,,,,,,,,,,,,,,,,,,,,,,,,,,,,,863.441,869.86,0.193287037,-0.174768519,1.0,0.0,0.0,0.408,compass,0.0,17.0,17.0,26.0,1.0,SoundStimuli/TheSign_AceOfBase_Original5S.wav,,,,,,,,,,,,,,,,,,,,,,,,,,,,,,,,,,,,,,,,,,,,,,,,,,,,,
,,,,,799961,1,2024-07-12_18h54.04.730,experiment,2024.1.5,Win32,30.39513678,6691931c2c63981b064e1f0c,6691b3f1a8d561924cf6515e,,,,,,,,,,,,,,,,,,,,,,,,,,,,,,,,,,,,,,,,,,,,,,,,,,,,,,,,,,,,869.86,877.316,-0.314814815,-0.150462963,1.0,0.0,0.0,1.448,compass,0.0,18.0,18.0,30.0,1.0,SoundStimuli/SomebodyThatIUsedtoKnow_Gotye_Cover5S.wav,,,,,,,,,,,,,,,,,,,,,,,,,,,,,,,,,,,,,,,,,,,,,,,,,,,,,
,,,,,799961,1,2024-07-12_18h54.04.730,experiment,2024.1.5,Win32,30.39513678,6691931c2c63981b064e1f0c,6691b3f1a8d561924cf6515e,,,,,,,,,,,,,,,,,,,,,,,,,,,,,,,,,,,,,,,,,,,,,,,,,,,,,,,,,,,,877.317,883.768,-0.196759259,-0.149305556,1.0,0.0,0.0,0.448,compass,0.0,19.0,19.0,0.0,1.0,SoundStimuli/GimmeShelter_RollingStones_Cover5S.wav,,,,,,,,,,,,,,,,,,,,,,,,,,,,,,,,,,,,,,,,,,,,,,,,,,,,,
,,,,,799961,1,2024-07-12_18h54.04.730,experiment,2024.1.5,Win32,30.39513678,6691931c2c63981b064e1f0c,6691b3f1a8d561924cf6515e,,,,,,,,,,,,,,,,,,,,,,,,,,,,,,,,,,,,,,,,,,,,,,,,,,,,,,,,,,,,883.769,890.526,-0.196759259,-0.149305556,1.0,0.0,0.0,0.75,compass,0.0,20.0,20.0,19.0,1.0,SoundStimuli/YouLightUpMyLife_DebbyBoone_Cover5S.wav,,,,,,,,,,,,,,,,,,,,,,,,,,,,,,,,,,,,,,,,,,,,,,,,,,,,,
,,,,,799961,1,2024-07-12_18h54.04.730,experiment,2024.1.5,Win32,30.39513678,6691931c2c63981b064e1f0c,6691b3f1a8d561924cf6515e,,,,,,,,,,,,,,,,,,,,,,,,,,,,,,,,,,,,,,,,,,,,,,,,,,,,,,,,,,,,890.528,899.934,-0.172453704,-0.125,1.0,0.0,0.0,3.4,compass,0.0,21.0,21.0,23.0,1.0,SoundStimuli/IWalkTheLine_JohnnyCash_Cover5S.wav,,,,,,,,,,,,,,,,,,,,,,,,,,,,,,,,,,,,,,,,,,,,,,,,,,,,,
,,,,,799961,1,2024-07-12_18h54.04.730,experiment,2024.1.5,Win32,30.39513678,6691931c2c63981b064e1f0c,6691b3f1a8d561924cf6515e,,,,,,,,,,,,,,,,,,,,,,,,,,,,,,,,,,,,,,,,,,,,,,,,,,,,,,,,,,,,899.935,906.351,-0.140046296,-0.107638889,1.0,0.0,0.0,0.415,compass,0.0,22.0,22.0,33.0,1.0,SoundStimuli/TheBoyIsMine_BrandyMonica_Cover5S.wav,,,,,,,,,,,,,,,,,,,,,,,,,,,,,,,,,,,,,,,,,,,,,,,,,,,,,
,,,,,799961,1,2024-07-12_18h54.04.730,experiment,2024.1.5,Win32,30.39513678,6691931c2c63981b064e1f0c,6691b3f1a8d561924cf6515e,,,,,,,,,,,,,,,,,,,,,,,,,,,,,,,,,,,,,,,,,,,,,,,,,,,,,,,,,,,,906.352,912.747,-0.228009259,-0.111111111,1.0,0.0,0.0,0.382,compass,0.0,23.0,23.0,8.0,1.0,SoundStimuli/EndlessLove_DianaRossLionelRichie_Original5S.wav,,,,,,,,,,,,,,,,,,,,,,,,,,,,,,,,,,,,,,,,,,,,,,,,,,,,,
,,,,,799961,1,2024-07-12_18h54.04.730,experiment,2024.1.5,Win32,30.39513678,6691931c2c63981b064e1f0c,6691b3f1a8d561924cf6515e,,,,,,,,,,,,,,,,,,,,,,,,,,,,,,,,,,,,,,,,,,,,,,,,,,,,,,,,,,,,912.748,919.987,-0.145833333,0.210648148,1.0,0.0,0.0,1.235,compass,0.0,24.0,24.0,29.0,1.0,SoundStimuli/BetteDavisEyes_KimCarnes_Cover5S.wav,,,,,,,,,,,,,,,,,,,,,,,,,,,,,,,,,,,,,,,,,,,,,,,,,,,,,
,,,,,799961,1,2024-07-12_18h54.04.730,experiment,2024.1.5,Win32,30.39513678,6691931c2c63981b064e1f0c,6691b3f1a8d561924cf6515e,,,,,,,,,,,,,,,,,,,,,,,,,,,,,,,,,,,,,,,,,,,,,,,,,,,,,,,,,,,,919.994,926.114,0.243055556,-0.108796296,1.0,0.0,0.0,0.117,compass,0.0,25.0,25.0,32.0,1.0,SoundStimuli/Dilemma_NellyKellyRowland_Original5S.wav,,,,,,,,,,,,,,,,,,,,,,,,,,,,,,,,,,,,,,,,,,,,,,,,,,,,,
,,,,,799961,1,2024-07-12_18h54.04.730,experiment,2024.1.5,Win32,30.39513678,6691931c2c63981b064e1f0c,6691b3f1a8d561924cf6515e,,,,,,,,,,,,,,,,,,,,,,,,,,,,,,,,,,,,,,,,,,,,,,,,,,,,,,,,,,,,926.115,932.498,0.270833333,0.221064815,1.0,0.0,0.0,0.366,compass,0.0,26.0,26.0,3.0,1.0,SoundStimuli/PartyRockAnthem_LMFAO_Cover5S.wav,,,,,,,,,,,,,,,,,,,,,,,,,,,,,,,,,,,,,,,,,,,,,,,,,,,,,
,,,,,799961,1,2024-07-12_18h54.04.730,experiment,2024.1.5,Win32,30.39513678,6691931c2c63981b064e1f0c,6691b3f1a8d561924cf6515e,,,,,,,,,,,,,,,,,,,,,,,,,,,,,,,,,,,,,,,,,,,,,,,,,,,,,,,,,,,,932.498,938.884,-0.196759259,0.19212963,1.0,0.0,0.0,0.371,compass,0.0,27.0,27.0,4.0,1.0,SoundStimuli/Dreams_FleetwoodMac_Cover5S.wav,,,,,,,,,,,,,,,,,,,,,,,,,,,,,,,,,,,,,,,,,,,,,,,,,,,,,
,,,,,799961,1,2024-07-12_18h54.04.730,experiment,2024.1.5,Win32,30.39513678,6691931c2c63981b064e1f0c,6691b3f1a8d561924cf6515e,,,,,,,,,,,,,,,,,,,,,,,,,,,,,,,,,,,,,,,,,,,,,,,,,,,,,,,,,,,,938.886,946.965,-0.209490741,-0.111111111,1.0,0.0,0.0,2.068,compass,0.0,28.0,28.0,7.0,1.0,SoundStimuli/MackTheKnife_BobbyDarin_Original5S.wav,,,,,,,,,,,,,,,,,,,,,,,,,,,,,,,,,,,,,,,,,,,,,,,,,,,,,
,,,,,799961,1,2024-07-12_18h54.04.730,experiment,2024.1.5,Win32,30.39513678,6691931c2c63981b064e1f0c,6691b3f1a8d561924cf6515e,,,,,,,,,,,,,,,,,,,,,,,,,,,,,,,,,,,,,,,,,,,,,,,,,,,,,,,,,,,,946.966,953.367,-0.165509259,0.150462963,1.0,0.0,0.0,0.387,compass,0.0,29.0,29.0,20.0,1.0,SoundStimuli/FlashdanceWhatAFeeling_IreneCara_Cover5S.wav,,,,,,,,,,,,,,,,,,,,,,,,,,,,,,,,,,,,,,,,,,,,,,,,,,,,,
,,,,,799961,1,2024-07-12_18h54.04.730,experiment,2024.1.5,Win32,30.39513678,6691931c2c63981b064e1f0c,6691b3f1a8d561924cf6515e,,,,,,,,,,,,,,,,,,,,,,,,,,,,,,,,,,,,,,,,,,,,,,,,,,,,,,,,,,,,953.372,959.414,-0.164351852,0.157407407,1.0,0.0,0.0,0.032,compass,0.0,30.0,30.0,25.0,1.0,SoundStimuli/IllMakeLoveToYou_BoyzIIMen_Original5S.wav,,,,,,,,,,,,,,,,,,,,,,,,,,,,,,,,,,,,,,,,,,,,,,,,,,,,,
,,,,,799961,1,2024-07-12_18h54.04.730,experiment,2024.1.5,Win32,30.39513678,6691931c2c63981b064e1f0c,6691b3f1a8d561924cf6515e,,,,,,,,,,,,,,,,,,,,,,,,,,,,,,,,,,,,,,,,,,,,,,,,,,,,,,,,,,,,959.416,965.912,0.219907407,0.172453704,1.0,0.0,0.0,0.48,compass,0.0,31.0,31.0,11.0,1.0,SoundStimuli/BlurredLines_RobinThicke_Original5S.wav,,,,,,,,,,,,,,,,,,,,,,,,,,,,,,,,,,,,,,,,,,,,,,,,,,,,,
,,,,,799961,1,2024-07-12_18h54.04.730,experiment,2024.1.5,Win32,30.39513678,6691931c2c63981b064e1f0c,6691b3f1a8d561924cf6515e,,,,,,,,,,,,,,,,,,,,,,,,,,,,,,,,,,,,,,,,,,,,,,,,,,,,,,,,,,,,965.913,972.812,-0.260416667,-0.055555556,1.0,0.0,0.0,0.898,compass,0.0,32.0,32.0,21.0,1.0,SoundStimuli/BridgeOverTroubledWater_SimonAndGarfunkel_Cover5S.wav,,,,,,,,,,,,,,,,,,,,,,,,,,,,,,,,,,,,,,,,,,,,,,,,,,,,,
,,,,,799961,1,2024-07-12_18h54.04.730,experiment,2024.1.5,Win32,30.39513678,6691931c2c63981b064e1f0c,6691b3f1a8d561924cf6515e,,,,,,,,,,,,,,,,,,,,,,,,,,,,,,,,,,,,,,,,,,,,,,,,,,,,,,,,,,,,972.814,979.213,0.224537037,0.15162037,1.0,0.0,0.0,0.383,compass,0.0,33.0,33.0,15.0,1.0,SoundStimuli/CrazyInLove_BeyonceFtJayZ_Original5S.wav,,,,,,,,,,,,,,,,,,,,,,,,,,,,,,,,,,,,,,,,,,,,,,,,,,,,,
,,,,,799961,1,2024-07-12_18h54.04.730,experiment,2024.1.5,Win32,30.39513678,6691931c2c63981b064e1f0c,6691b3f1a8d561924cf6515e,,,,,,,,,,,,,,,,,,,,,,,,,,,,,,,,,,,,,,,,,,,,,,,,,,,,,,,,,,,,979.214,986.365,-0.136574074,0.155092593,1.0,0.0,0.0,1.136,compass,0.0,34.0,34.0,2.0,1.0,SoundStimuli/SmellsLikeTeenSpirit_Nirvana_Cover5S.wav,,,,,,,,,,,,,,,,,,,,,,,,,,,,,,,,,,,,,,,,,,,,,,,,,,,,,
,,,,,799961,1,2024-07-12_18h54.04.730,experiment,2024.1.5,Win32,30.39513678,6691931c2c63981b064e1f0c,6691b3f1a8d561924cf6515e,,,,,,,,,,,,,,,,,,,,,,,,,,,,,,,,,,,,,,,,,,,,,,,,,,,,,,,,,,,,,,,,,,,,,,,,,,,986.367,988.329,space,1.919,,988.329,989.696,right,1.311,,0.0,1.0,1.0,1.0,1.0,block_order/blockB.xlsx,,,,,,,,,,,,,,,,,,,,,,,,,,,,,,,,,,,,,
,,,,,799961,1,2024-07-12_18h54.04.730,experiment,2024.1.5,Win32,30.39513678,6691931c2c63981b064e1f0c,6691b3f1a8d561924cf6515e,,,,,,,,,,,,,,,,,,,,,,,,,,,,,,,,,,,,,,,,,,,,,,,,,,,,,,,,,,,,989.722,996.257,0.181712963,0.166666667,1.0,0.0,0.0,0.527,compass,0.0,0.0,0.0,7.0,1.0,SoundStimuli/NoOne_AliciaKeys_Cover5S.wav,,,,,,,,,,,,,,,,,,,,,,,,,,,,,,,,,,,,,,,,,,,,,,,,,,,,,
,,,,,799961,1,2024-07-12_18h54.04.730,experiment,2024.1.5,Win32,30.39513678,6691931c2c63981b064e1f0c,6691b3f1a8d561924cf6515e,,,,,,,,,,,,,,,,,,,,,,,,,,,,,,,,,,,,,,,,,,,,,,,,,,,,,,,,,,,,996.259,1002.731,0.201388889,-0.12962963,1.0,0.0,0.0,0.468,compass,0.0,1.0,1.0,3.0,1.0,SoundStimuli/NoScrubs_TLC_Original5S.wav,,,,,,,,,,,,,,,,,,,,,,,,,,,,,,,,,,,,,,,,,,,,,,,,,,,,,
,,,,,799961,1,2024-07-12_18h54.04.730,experiment,2024.1.5,Win32,30.39513678,6691931c2c63981b064e1f0c,6691b3f1a8d561924cf6515e,,,,,,,,,,,,,,,,,,,,,,,,,,,,,,,,,,,,,,,,,,,,,,,,,,,,,,,,,,,,1002.732,1010.111,-0.06712963,-0.134259259,1.0,0.0,0.0,1.366,compass,0.0,2.0,2.0,9.0,1.0,SoundStimuli/Despacito_LuisFonsiDaddyYankee_Cover5S.wav,,,,,,,,,,,,,,,,,,,,,,,,,,,,,,,,,,,,,,,,,,,,,,,,,,,,,
,,,,,799961,1,2024-07-12_18h54.04.730,experiment,2024.1.5,Win32,30.39513678,6691931c2c63981b064e1f0c,6691b3f1a8d561924cf6515e,,,,,,,,,,,,,,,,,,,,,,,,,,,,,,,,,,,,,,,,,,,,,,,,,,,,,,,,,,,,1010.112,1018.576,-0.06712963,-0.134259259,1.0,0.0,0.0,2.448,compass,0.0,3.0,3.0,31.0,1.0,SoundStimuli/TheBattleOfNewOrleans_JohnnyHorton_Cover5S.wav,,,,,,,,,,,,,,,,,,,,,,,,,,,,,,,,,,,,,,,,,,,,,,,,,,,,,
,,,,,799961,1,2024-07-12_18h54.04.730,experiment,2024.1.5,Win32,30.39513678,6691931c2c63981b064e1f0c,6691b3f1a8d561924cf6515e,,,,,,,,,,,,,,,,,,,,,,,,,,,,,,,,,,,,,,,,,,,,,,,,,,,,,,,,,,,,1018.582,1026.143,0.185185185,0.196759259,1.0,0.0,0.0,1.545,compass,0.0,4.0,4.0,29.0,1.0,SoundStimuli/OldTownRoad_LilNasX_Original5S.wav,,,,,,,,,,,,,,,,,,,,,,,,,,,,,,,,,,,,,,,,,,,,,,,,,,,,,
,,,,,799961,1,2024-07-12_18h54.04.730,experiment,2024.1.5,Win32,30.39513678,6691931c2c63981b064e1f0c,6691b3f1a8d561924cf6515e,,,,,,,,,,,,,,,,,,,,,,,,,,,,,,,,,,,,,,,,,,,,,,,,,,,,,,,,,,,,1026.146,1033.403,-0.123842593,-0.162037037,1.0,0.0,0.0,1.228,compass,0.0,5.0,5.0,19.0,1.0,SoundStimuli/LetsGetItOn_MarvinGaye_Cover5S.wav,,,,,,,,,,,,,,,,,,,,,,,,,,,,,,,,,,,,,,,,,,,,,,,,,,,,,
,,,,,799961,1,2024-07-12_18h54.04.730,experiment,2024.1.5,Win32,30.39513678,6691931c2c63981b064e1f0c,6691b3f1a8d561924cf6515e,,,,,,,,,,,,,,,,,,,,,,,,,,,,,,,,,,,,,,,,,,,,,,,,,,,,,,,,,,,,1033.405,1039.803,0.206018519,-0.175925926,1.0,0.0,0.0,0.384,compass,0.0,6.0,6.0,21.0,1.0,SoundStimuli/GoodGollyMissMolly_LittleRichard_Cover5S.wav,,,,,,,,,,,,,,,,,,,,,,,,,,,,,,,,,,,,,,,,,,,,,,,,,,,,,
,,,,,799961,1,2024-07-12_18h54.04.730,experiment,2024.1.5,Win32,30.39513678,6691931c2c63981b064e1f0c,6691b3f1a8d561924cf6515e,,,,,,,,,,,,,,,,,,,,,,,,,,,,,,,,,,,,,,,,,,,,,,,,,,,,,,,,,,,,1039.805,1046.542,0.203703704,-0.159722222,1.0,0.0,0.0,0.729,compass,0.0,7.0,7.0,2.0,1.0,SoundStimuli/Mood_24kGoldnianndior_Cover5S.wav,,,,,,,,,,,,,,,,,,,,,,,,,,,,,,,,,,,,,,,,,,,,,,,,,,,,,
,,,,,799961,1,2024-07-12_18h54.04.730,experiment,2024.1.5,Win32,30.39513678,6691931c2c63981b064e1f0c,6691b3f1a8d561924cf6515e,,,,,,,,,,,,,,,,,,,,,,,,,,,,,,,,,,,,,,,,,,,,,,,,,,,,,,,,,,,,1046.544,1053.006,0.273148148,0.19212963,1.0,0.0,0.0,0.44,compass,0.0,8.0,8.0,28.0,1.0,SoundStimuli/ComeAndGetYourLove_Redbone_Original5S.wav,,,,,,,,,,,,,,,,,,,,,,,,,,,,,,,,,,,,,,,,,,,,,,,,,,,,,
,,,,,799961,1,2024-07-12_18h54.04.730,experiment,2024.1.5,Win32,30.39513678,6691931c2c63981b064e1f0c,6691b3f1a8d561924cf6515e,,,,,,,,,,,,,,,,,,,,,,,,,,,,,,,,,,,,,,,,,,,,,,,,,,,,,,,,,,,,1053.014,1059.475,-0.145833333,0.194444444,1.0,0.0,0.0,0.453,compass,0.0,9.0,9.0,16.0,1.0,SoundStimuli/BohemianRhapsody_Queen_Original5S.wav,,,,,,,,,,,,,,,,,,,,,,,,,,,,,,,,,,,,,,,,,,,,,,,,,,,,,
,,,,,799961,1,2024-07-12_18h54.04.730,experiment,2024.1.5,Win32,30.39513678,6691931c2c63981b064e1f0c,6691b3f1a8d561924cf6515e,,,,,,,,,,,,,,,,,,,,,,,,,,,,,,,,,,,,,,,,,,,,,,,,,,,,,,,,,,,,1059.475,1066.106,0.251157407,0.179398148,1.0,0.0,0.0,0.612,compass,0.0,10.0,10.0,8.0,1.0,SoundStimuli/LikeAPrayer_Madonna_Original5S.wav,,,,,,,,,,,,,,,,,,,,,,,,,,,,,,,,,,,,,,,,,,,,,,,,,,,,,
,,,,,799961,1,2024-07-12_18h54.04.730,experiment,2024.1.5,Win32,30.39513678,6691931c2c63981b064e1f0c,6691b3f1a8d561924cf6515e,,,,,,,,,,,,,,,,,,,,,,,,,,,,,,,,,,,,,,,,,,,,,,,,,,,,,,,,,,,,1066.106,1072.446,-0.15162037,0.203703704,1.0,0.0,0.0,0.338,compass,0.0,11.0,11.0,6.0,1.0,SoundStimuli/Levitating_DuaLipa_Cover5S.wav,,,,,,,,,,,,,,,,,,,,,,,,,,,,,,,,,,,,,,,,,,,,,,,,,,,,,
,,,,,799961,1,2024-07-12_18h54.04.730,experiment,2024.1.5,Win32,30.39513678,6691931c2c63981b064e1f0c,6691b3f1a8d561924cf6515e,,,,,,,,,,,,,,,,,,,,,,,,,,,,,,,,,,,,,,,,,,,,,,,,,,,,,,,,,,,,1072.447,1078.806,-0.196759259,-0.114583333,1.0,0.0,0.0,0.35,compass,0.0,12.0,12.0,10.0,1.0,SoundStimuli/BadDay_DanielPowter_Cover5S.wav,,,,,,,,,,,,,,,,,,,,,,,,,,,,,,,,,,,,,,,,,,,,,,,,,,,,,
,,,,,799961,1,2024-07-12_18h54.04.730,experiment,2024.1.5,Win32,30.39513678,6691931c2c63981b064e1f0c,6691b3f1a8d561924cf6515e,,,,,,,,,,,,,,,,,,,,,,,,,,,,,,,,,,,,,,,,,,,,,,,,,,,,,,,,,,,,1078.808,1085.364,0.289351852,0.143518519,1.0,0.0,0.0,0.521,compass,0.0,13.0,13.0,0.0,1.0,SoundStimuli/StayinAlive_BeeGees_Original5S.wav,,,,,,,,,,,,,,,,,,,,,,,,,,,,,,,,,,,,,,,,,,,,,,,,,,,,,
,,,,,799961,1,2024-07-12_18h54.04.730,experiment,2024.1.5,Win32,30.39513678,6691931c2c63981b064e1f0c,6691b3f1a8d561924cf6515e,,,,,,,,,,,,,,,,,,,,,,,,,,,,,,,,,,,,,,,,,,,,,,,,,,,,,,,,,,,,1085.366,1091.795,-0.172453704,-0.146990741,1.0,0.0,0.0,0.423,compass,0.0,14.0,14.0,11.0,1.0,SoundStimuli/Superstition_StevieWonder_Cover5S.wav,,,,,,,,,,,,,,,,,,,,,,,,,,,,,,,,,,,,,,,,,,,,,,,,,,,,,
,,,,,799961,1,2024-07-12_18h54.04.730,experiment,2024.1.5,Win32,30.39513678,6691931c2c63981b064e1f0c,6691b3f1a8d561924cf6515e,,,,,,,,,,,,,,,,,,,,,,,,,,,,,,,,,,,,,,,,,,,,,,,,,,,,,,,,,,,,1091.798,1099.271,0.15162037,-0.172453704,1.0,0.0,0.0,1.469,compass,0.0,15.0,15.0,33.0,1.0,SoundStimuli/StandByMe_BenEKing_Cover5S.wav,,,,,,,,,,,,,,,,,,,,,,,,,,,,,,,,,,,,,,,,,,,,,,,,,,,,,
,,,,,799961,1,2024-07-12_18h54.04.730,experiment,2024.1.5,Win32,30.39513678,6691931c2c63981b064e1f0c,6691b3f1a8d561924cf6515e,,,,,,,,,,,,,,,,,,,,,,,,,,,,,,,,,,,,,,,,,,,,,,,,,,,,,,,,,,,,1099.272,1105.608,-0.091435185,0.215277778,1.0,0.0,0.0,0.313,compass,0.0,16.0,16.0,34.0,1.0,SoundStimuli/AChangeIsGonnaCome_SamCooke_Cover5S.wav,,,,,,,,,,,,,,,,,,,,,,,,,,,,,,,,,,,,,,,,,,,,,,,,,,,,,
,,,,,799961,1,2024-07-12_18h54.04.730,experiment,2024.1.5,Win32,30.39513678,6691931c2c63981b064e1f0c,6691b3f1a8d561924cf6515e,,,,,,,,,,,,,,,,,,,,,,,,,,,,,,,,,,,,,,,,,,,,,,,,,,,,,,,,,,,,1105.609,1112.519,0.204861111,0.172453704,1.0,0.0,0.0,0.876,compass,0.0,17.0,17.0,4.0,1.0,SoundStimuli/GetUrFreakOn_MissyElliot_Original5S.wav,,,,,,,,,,,,,,,,,,,,,,,,,,,,,,,,,,,,,,,,,,,,,,,,,,,,,
,,,,,799961,1,2024-07-12_18h54.04.730,experiment,2024.1.5,Win32,30.39513678,6691931c2c63981b064e1f0c,6691b3f1a8d561924cf6515e,,,,,,,,,,,,,,,,,,,,,,,,,,,,,,,,,,,,,,,,,,,,,,,,,,,,,,,,,,,,1112.523,1118.653,-0.103009259,-0.101851852,1.0,0.0,0.0,0.119,compass,0.0,18.0,18.0,17.0,1.0,SoundStimuli/Fallin_AliciaKeys_Original5S.wav,,,,,,,,,,,,,,,,,,,,,,,,,,,,,,,,,,,,,,,,,,,,,,,,,,,,,
,,,,,799961,1,2024-07-12_18h54.04.730,experiment,2024.1.5,Win32,30.39513678,6691931c2c63981b064e1f0c,6691b3f1a8d561924cf6515e,,,,,,,,,,,,,,,,,,,,,,,,,,,,,,,,,,,,,,,,,,,,,,,,,,,,,,,,,,,,1118.654,1124.984,-0.203703704,0.236111111,1.0,0.0,0.0,0.317,compass,0.0,19.0,19.0,12.0,1.0,SoundStimuli/IWillAlwaysLoveYou_WhitneyHouston_Cover5S.wav,,,,,,,,,,,,,,,,,,,,,,,,,,,,,,,,,,,,,,,,,,,,,,,,,,,,,
,,,,,799961,1,2024-07-12_18h54.04.730,experiment,2024.1.5,Win32,30.39513678,6691931c2c63981b064e1f0c,6691b3f1a8d561924cf6515e,,,,,,,,,,,,,,,,,,,,,,,,,,,,,,,,,,,,,,,,,,,,,,,,,,,,,,,,,,,,1124.985,1131.614,-0.15162037,0.011574074,1.0,0.0,0.0,0.612,compass,0.0,20.0,20.0,18.0,1.0,SoundStimuli/AnotherOneBitesTheDust_Queen_Original5S.wav,,,,,,,,,,,,,,,,,,,,,,,,,,,,,,,,,,,,,,,,,,,,,,,,,,,,,
,,,,,799961,1,2024-07-12_18h54.04.730,experiment,2024.1.5,Win32,30.39513678,6691931c2c63981b064e1f0c,6691b3f1a8d561924cf6515e,,,,,,,,,,,,,,,,,,,,,,,,,,,,,,,,,,,,,,,,,,,,,,,,,,,,,,,,,,,,1131.616,1138.133,-0.173611111,-0.201388889,1.0,0.0,0.0,0.497,compass,0.0,21.0,21.0,20.0,1.0,SoundStimuli/HeyYa_Outkast_Cover5S.wav,,,,,,,,,,,,,,,,,,,,,,,,,,,,,,,,,,,,,,,,,,,,,,,,,,,,,
,,,,,799961,1,2024-07-12_18h54.04.730,experiment,2024.1.5,Win32,30.39513678,6691931c2c63981b064e1f0c,6691b3f1a8d561924cf6515e,,,,,,,,,,,,,,,,,,,,,,,,,,,,,,,,,,,,,,,,,,,,,,,,,,,,,,,,,,,,1138.134,1144.518,-0.241898148,0.277777778,1.0,0.0,0.0,0.382,compass,0.0,22.0,22.0,1.0,1.0,SoundStimuli/Stronger_KanyeWest_Original5S.wav,,,,,,,,,,,,,,,,,,,,,,,,,,,,,,,,,,,,,,,,,,,,,,,,,,,,,
,,,,,799961,1,2024-07-12_18h54.04.730,experiment,2024.1.5,Win32,30.39513678,6691931c2c63981b064e1f0c,6691b3f1a8d561924cf6515e,,,,,,,,,,,,,,,,,,,,,,,,,,,,,,,,,,,,,,,,,,,,,,,,,,,,,,,,,,,,1144.522,1150.918,0.1875,0.180555556,1.0,0.0,0.0,0.385,compass,0.0,23.0,23.0,27.0,1.0,SoundStimuli/ShapeofYou_EdSheeran_Original5S.wav,,,,,,,,,,,,,,,,,,,,,,,,,,,,,,,,,,,,,,,,,,,,,,,,,,,,,
,,,,,799961,1,2024-07-12_18h54.04.730,experiment,2024.1.5,Win32,30.39513678,6691931c2c63981b064e1f0c,6691b3f1a8d561924cf6515e,,,,,,,,,,,,,,,,,,,,,,,,,,,,,,,,,,,,,,,,,,,,,,,,,,,,,,,,,,,,1150.919,1157.35,0.244212963,-0.148148148,1.0,0.0,0.0,0.42,compass,0.0,24.0,24.0,15.0,1.0,SoundStimuli/TikTok_Kesha_Cover5S.wav,,,,,,,,,,,,,,,,,,,,,,,,,,,,,,,,,,,,,,,,,,,,,,,,,,,,,
,,,,,799961,1,2024-07-12_18h54.04.730,experiment,2024.1.5,Win32,30.39513678,6691931c2c63981b064e1f0c,6691b3f1a8d561924cf6515e,,,,,,,,,,,,,,,,,,,,,,,,,,,,,,,,,,,,,,,,,,,,,,,,,,,,,,,,,,,,1157.351,1164.943,0.263888889,0.206018519,1.0,0.0,0.0,1.576,compass,0.0,25.0,25.0,5.0,1.0,SoundStimuli/MyGirl_TheTemptations_Original5S.wav,,,,,,,,,,,,,,,,,,,,,,,,,,,,,,,,,,,,,,,,,,,,,,,,,,,,,
,,,,,799961,1,2024-07-12_18h54.04.730,experiment,2024.1.5,Win32,30.39513678,6691931c2c63981b064e1f0c,6691b3f1a8d561924cf6515e,,,,,,,,,,,,,,,,,,,,,,,,,,,,,,,,,,,,,,,,,,,,,,,,,,,,,,,,,,,,1164.945,1171.415,0.219907407,-0.138888889,1.0,0.0,0.0,0.466,compass,0.0,26.0,26.0,32.0,1.0,SoundStimuli/HeatWaves_GlassAnimals_Original5S.wav,,,,,,,,,,,,,,,,,,,,,,,,,,,,,,,,,,,,,,,,,,,,,,,,,,,,,
,,,,,799961,1,2024-07-12_18h54.04.730,experiment,2024.1.5,Win32,30.39513678,6691931c2c63981b064e1f0c,6691b3f1a8d561924cf6515e,,,,,,,,,,,,,,,,,,,,,,,,,,,,,,,,,,,,,,,,,,,,,,,,,,,,,,,,,,,,1171.417,1177.985,-0.168981481,-0.221064815,1.0,0.0,0.0,0.552,compass,0.0,27.0,27.0,26.0,1.0,SoundStimuli/LivinOnAPrayer_BonJovi_Cover5S.wav,,,,,,,,,,,,,,,,,,,,,,,,,,,,,,,,,,,,,,,,,,,,,,,,,,,,,
,,,,,799961,1,2024-07-12_18h54.04.730,experiment,2024.1.5,Win32,30.39513678,6691931c2c63981b064e1f0c,6691b3f1a8d561924cf6515e,,,,,,,,,,,,,,,,,,,,,,,,,,,,,,,,,,,,,,,,,,,,,,,,,,,,,,,,,,,,1177.989,1184.297,0.104166667,0.177083333,1.0,0.0,0.0,0.3,compass,0.0,28.0,28.0,22.0,1.0,SoundStimuli/RockWithYou_MichaelJackson_Original5S.wav,,,,,,,,,,,,,,,,,,,,,,,,,,,,,,,,,,,,,,,,,,,,,,,,,,,,,
,,,,,799961,1,2024-07-12_18h54.04.730,experiment,2024.1.5,Win32,30.39513678,6691931c2c63981b064e1f0c,6691b3f1a8d561924cf6515e,,,,,,,,,,,,,,,,,,,,,,,,,,,,,,,,,,,,,,,,,,,,,,,,,,,,,,,,,,,,1184.298,1193.473,0.21412037,0.228009259,1.0,0.0,0.0,3.174,compass,0.0,29.0,29.0,14.0,1.0,SoundStimuli/BlindingLights_TheWeeknd_Original5S.wav,,,,,,,,,,,,,,,,,,,,,,,,,,,,,,,,,,,,,,,,,,,,,,,,,,,,,
,,,,,799961,1,2024-07-12_18h54.04.730,experiment,2024.1.5,Win32,30.39513678,6691931c2c63981b064e1f0c,6691b3f1a8d561924cf6515e,,,,,,,,,,,,,,,,,,,,,,,,,,,,,,,,,,,,,,,,,,,,,,,,,,,,,,,,,,,,1193.475,1202.814,0.150462963,0.228009259,1.0,0.0,0.0,3.334,compass,0.0,30.0,30.0,30.0,1.0,SoundStimuli/PokerFace_LadyGaga_Original5S.wav,,,,,,,,,,,,,,,,,,,,,,,,,,,,,,,,,,,,,,,,,,,,,,,,,,,,,
,,,,,799961,1,2024-07-12_18h54.04.730,experiment,2024.1.5,Win32,30.39513678,6691931c2c63981b064e1f0c,6691b3f1a8d561924cf6515e,,,,,,,,,,,,,,,,,,,,,,,,,,,,,,,,,,,,,,,,,,,,,,,,,,,,,,,,,,,,1202.815,1209.355,0.150462963,0.228009259,1.0,0.0,0.0,0.528,compass,0.0,31.0,31.0,24.0,1.0,SoundStimuli/UptownFunk_MarkRonson_Original5S.wav,,,,,,,,,,,,,,,,,,,,,,,,,,,,,,,,,,,,,,,,,,,,,,,,,,,,,
,,,,,799961,1,2024-07-12_18h54.04.730,experiment,2024.1.5,Win32,30.39513678,6691931c2c63981b064e1f0c,6691b3f1a8d561924cf6515e,,,,,,,,,,,,,,,,,,,,,,,,,,,,,,,,,,,,,,,,,,,,,,,,,,,,,,,,,,,,1209.357,1215.83,0.150462963,0.228009259,1.0,0.0,0.0,0.467,compass,0.0,32.0,32.0,25.0,1.0,SoundStimuli/Respect_ArethaFranklin_Original5S.wav,,,,,,,,,,,,,,,,,,,,,,,,,,,,,,,,,,,,,,,,,,,,,,,,,,,,,
,,,,,799961,1,2024-07-12_18h54.04.730,experiment,2024.1.5,Win32,30.39513678,6691931c2c63981b064e1f0c,6691b3f1a8d561924cf6515e,,,,,,,,,,,,,,,,,,,,,,,,,,,,,,,,,,,,,,,,,,,,,,,,,,,,,,,,,,,,1215.83,1222.746,-0.071759259,-0.043981481,1.0,0.0,0.0,0.913,compass,0.0,33.0,33.0,13.0,1.0,SoundStimuli/GodOnlyKnows_TheBeachBoys_Cover5S.wav,,,,,,,,,,,,,,,,,,,,,,,,,,,,,,,,,,,,,,,,,,,,,,,,,,,,,
,,,,,799961,1,2024-07-12_18h54.04.730,experiment,2024.1.5,Win32,30.39513678,6691931c2c63981b064e1f0c,6691b3f1a8d561924cf6515e,,,,,,,,,,,,,,,,,,,,,,,,,,,,,,,,,,,,,,,,,,,,,,,,,,,,,,,,,,,,1222.747,1229.378,-0.094907407,-0.106481481,1.0,0.0,0.0,0.62,compass,0.0,34.0,34.0,23.0,1.0,SoundStimuli/StrawberryFieldsForever_TheBeatles_Original5S.wav,,,,,,,,,,,,,,,,,,,,,,,,,,,,,,,,,,,,,,,,,,,,,,,,,,,,,
,,,,,799961,1,2024-07-12_18h54.04.730,experiment,2024.1.5,Win32,30.39513678,6691931c2c63981b064e1f0c,6691b3f1a8d561924cf6515e,,,,,,,,,,,,,,,,,,,,,,,,,,,,,,,,,,,,,,,,,,,,,,,,,,,,,,,,,,,,,,,,,,,,,,,,,,,1229.378,1231.292,space,1.843,,1231.293,1232.694,right,1.34,,0.0,2.0,2.0,2.0,1.0,block_order/blockA.xlsx,,,,,,,,,,,,,,,,,,,,,,,,,,,,,,,,,,,,,
,,,,,799961,1,2024-07-12_18h54.04.730,experiment,2024.1.5,Win32,30.39513678,6691931c2c63981b064e1f0c,6691b3f1a8d561924cf6515e,,,,,,,,,,,,,,,,,,,,,,,,,,,,,,,,,,,,,,,,,,,,,,,,,,,,,,,,,,,,1232.711,1239.06,-0.135416667,0.171296296,1.0,0.0,0.0,0.334,compass,0.0,0.0,0.0,10.0,1.0,SoundStimuli/LeFreak_Chic_Cover5S.wav,,,,,,,,,,,,,,,,,,,,,,,,,,,,,,,,,,,,,,,,,,,,,,,,,,,,,
,,,,,799961,1,2024-07-12_18h54.04.730,experiment,2024.1.5,Win32,30.39513678,6691931c2c63981b064e1f0c,6691b3f1a8d561924cf6515e,,,,,,,,,,,,,,,,,,,,,,,,,,,,,,,,,,,,,,,,,,,,,,,,,,,,,,,,,,,,1239.063,1245.377,0.135416667,0.118055556,1.0,0.0,0.0,0.302,compass,0.0,1.0,1.0,28.0,1.0,SoundStimuli/IWantToHoldYourHand_TheBeatles_Original5S.wav,,,,,,,,,,,,,,,,,,,,,,,,,,,,,,,,,,,,,,,,,,,,,,,,,,,,,
,,,,,799961,1,2024-07-12_18h54.04.730,experiment,2024.1.5,Win32,30.39513678,6691931c2c63981b064e1f0c,6691b3f1a8d561924cf6515e,,,,,,,,,,,,,,,,,,,,,,,,,,,,,,,,,,,,,,,,,,,,,,,,,,,,,,,,,,,,1245.379,1251.957,-0.103009259,-0.16087963,1.0,0.0,0.0,0.566,compass,0.0,2.0,2.0,33.0,1.0,SoundStimuli/TheBoyIsMine_BrandyMonica_Original5S.wav,,,,,,,,,,,,,,,,,,,,,,,,,,,,,,,,,,,,,,,,,,,,,,,,,,,,,
,,,,,799961,1,2024-07-12_18h54.04.730,experiment,2024.1.5,Win32,30.39513678,6691931c2c63981b064e1f0c,6691b3f1a8d561924cf6515e,,,,,,,,,,,,,,,,,,,,,,,,,,,,,,,,,,,,,,,,,,,,,,,,,,,,,,,,,,,,1251.958,1258.542,0.179398148,0.157407407,1.0,0.0,0.0,0.582,compass,0.0,3.0,3.0,31.0,1.0,SoundStimuli/TossinAndTurnin_BobbyLewis_Original5S.wav,,,,,,,,,,,,,,,,,,,,,,,,,,,,,,,,,,,,,,,,,,,,,,,,,,,,,
,,,,,799961,1,2024-07-12_18h54.04.730,experiment,2024.1.5,Win32,30.39513678,6691931c2c63981b064e1f0c,6691b3f1a8d561924cf6515e,,,,,,,,,,,,,,,,,,,,,,,,,,,,,,,,,,,,,,,,,,,,,,,,,,,,,,,,,,,,1258.542,1265.177,0.179398148,0.157407407,1.0,0.0,0.0,0.618,compass,0.0,4.0,4.0,22.0,1.0,SoundStimuli/Happy_PharellWilliams_Original5S.wav,,,,,,,,,,,,,,,,,,,,,,,,,,,,,,,,,,,,,,,,,,,,,,,,,,,,,
,,,,,799961,1,2024-07-12_18h54.04.730,experiment,2024.1.5,Win32,30.39513678,6691931c2c63981b064e1f0c,6691b3f1a8d561924cf6515e,,,,,,,,,,,,,,,,,,,,,,,,,,,,,,,,,,,,,,,,,,,,,,,,,,,,,,,,,,,,1265.179,1271.792,0.179398148,0.157407407,1.0,0.0,0.0,0.604,compass,0.0,5.0,5.0,11.0,1.0,SoundStimuli/BlurredLines_RobinThicke_Cover5S.wav,,,,,,,,,,,,,,,,,,,,,,,,,,,,,,,,,,,,,,,,,,,,,,,,,,,,,
,,,,,799961,1,2024-07-12_18h54.04.730,experiment,2024.1.5,Win32,30.39513678,6691931c2c63981b064e1f0c,6691b3f1a8d561924cf6515e,,,,,,,,,,,,,,,,,,,,,,,,,,,,,,,,,,,,,,,,,,,,,,,,,,,,,,,,,,,,1271.793,1278.51,0.199074074,-0.177083333,1.0,0.0,0.0,0.712,compass,0.0,6.0,6.0,5.0,1.0,SoundStimuli/JoyToTheWorld_ThreeDogNight_Original5S.wav,,,,,,,,,,,,,,,,,,,,,,,,,,,,,,,,,,,,,,,,,,,,,,,,,,,,,
,,,,,799961,1,2024-07-12_18h54.04.730,experiment,2024.1.5,Win32,30.39513678,6691931c2c63981b064e1f0c,6691b3f1a8d561924cf6515e,,,,,,,,,,,,,,,,,,,,,,,,,,,,,,,,,,,,,,,,,,,,,,,,,,,,,,,,,,,,1278.513,1285.355,0.244212963,0.148148148,1.0,0.0,0.0,0.832,compass,0.0,7.0,7.0,3.0,1.0,SoundStimuli/PartyRockAnthem_LMFAO_Original5S.wav,,,,,,,,,,,,,,,,,,,,,,,,,,,,,,,,,,,,,,,,,,,,,,,,,,,,,
,,,,,799961,1,2024-07-12_18h54.04.730,experiment,2024.1.5,Win32,30.39513678,6691931c2c63981b064e1f0c,6691b3f1a8d561924cf6515e,,,,,,,,,,,,,,,,,,,,,,,,,,,,,,,,,,,,,,,,,,,,,,,,,,,,,,,,,,,,1285.357,1292.379,0.229166667,-0.133101852,1.0,0.0,0.0,0.923,compass,0.0,8.0,8.0,4.0,1.0,SoundStimuli/Dreams_FleetwoodMac_Original5S.wav,,,,,,,,,,,,,,,,,,,,,,,,,,,,,,,,,,,,,,,,,,,,,,,,,,,,,
,,,,,799961,1,2024-07-12_18h54.04.730,experiment,2024.1.5,Win32,30.39513678,6691931c2c63981b064e1f0c,6691b3f1a8d561924cf6515e,,,,,,,,,,,,,,,,,,,,,,,,,,,,,,,,,,,,,,,,,,,,,,,,,,,,,,,,,,,,1292.38,1299.321,0.229166667,-0.133101852,1.0,0.0,0.0,0.934,compass,0.0,9.0,9.0,0.0,1.0,SoundStimuli/GimmeShelter_RollingStones_Original5S.wav,,,,,,,,,,,,,,,,,,,,,,,,,,,,,,,,,,,,,,,,,,,,,,,,,,,,,
,,,,,799961,1,2024-07-12_18h54.04.730,experiment,2024.1.5,Win32,30.39513678,6691931c2c63981b064e1f0c,6691b3f1a8d561924cf6515e,,,,,,,,,,,,,,,,,,,,,,,,,,,,,,,,,,,,,,,,,,,,,,,,,,,,,,,,,,,,1299.322,1305.905,0.239583333,-0.090277778,1.0,0.0,0.0,0.566,compass,0.0,10.0,10.0,13.0,1.0,SoundStimuli/Perfect_EdSheeran_Cover5S.wav,,,,,,,,,,,,,,,,,,,,,,,,,,,,,,,,,,,,,,,,,,,,,,,,,,,,,
,,,,,799961,1,2024-07-12_18h54.04.730,experiment,2024.1.5,Win32,30.39513678,6691931c2c63981b064e1f0c,6691b3f1a8d561924cf6515e,,,,,,,,,,,,,,,,,,,,,,,,,,,,,,,,,,,,,,,,,,,,,,,,,,,,,,,,,,,,1305.907,1312.703,-0.150462963,-0.137731481,1.0,0.0,0.0,0.795,compass,0.0,11.0,11.0,15.0,1.0,SoundStimuli/CrazyInLove_BeyonceFtJayZ_Cover5S.wav,,,,,,,,,,,,,,,,,,,,,,,,,,,,,,,,,,,,,,,,,,,,,,,,,,,,,
,,,,,799961,1,2024-07-12_18h54.04.730,experiment,2024.1.5,Win32,30.39513678,6691931c2c63981b064e1f0c,6691b3f1a8d561924cf6515e,,,,,,,,,,,,,,,,,,,,,,,,,,,,,,,,,,,,,,,,,,,,,,,,,,,,,,,,,,,,1312.706,1319.237,-0.150462963,-0.137731481,1.0,0.0,0.0,0.519,compass,0.0,12.0,12.0,29.0,1.0,SoundStimuli/BetteDavisEyes_KimCarnes_Original5S.wav,,,,,,,,,,,,,,,,,,,,,,,,,,,,,,,,,,,,,,,,,,,,,,,,,,,,,
,,,,,799961,1,2024-07-12_18h54.04.730,experiment,2024.1.5,Win32,30.39513678,6691931c2c63981b064e1f0c,6691b3f1a8d561924cf6515e,,,,,,,,,,,,,,,,,,,,,,,,,,,,,,,,,,,,,,,,,,,,,,,,,,,,,,,,,,,,1319.239,1327.502,-0.197916667,-0.19212963,1.0,0.0,0.0,2.249,compass,0.0,13.0,13.0,27.0,1.0,SoundStimuli/EyeOfTheTiger_Survivor_Cover5S.wav,,,,,,,,,,,,,,,,,,,,,,,,,,,,,,,,,,,,,,,,,,,,,,,,,,,,,
,,,,,799961,1,2024-07-12_18h54.04.730,experiment,2024.1.5,Win32,30.39513678,6691931c2c63981b064e1f0c,6691b3f1a8d561924cf6515e,,,,,,,,,,,,,,,,,,,,,,,,,,,,,,,,,,,,,,,,,,,,,,,,,,,,,,,,,,,,1327.503,1333.987,-0.18287037,-0.12037037,1.0,0.0,0.0,0.469,compass,0.0,14.0,14.0,8.0,1.0,SoundStimuli/EndlessLove_DianaRossLionelRichie_Cover5S.wav,,,,,,,,,,,,,,,,,,,,,,,,,,,,,,,,,,,,,,,,,,,,,,,,,,,,,
,,,,,799961,1,2024-07-12_18h54.04.730,experiment,2024.1.5,Win32,30.39513678,6691931c2c63981b064e1f0c,6691b3f1a8d561924cf6515e,,,,,,,,,,,,,,,,,,,,,,,,,,,,,,,,,,,,,,,,,,,,,,,,,,,,,,,,,,,,1333.987,1340.55,-0.21875,0.159722222,1.0,0.0,0.0,0.546,compass,0.0,15.0,15.0,2.0,1.0,SoundStimuli/SmellsLikeTeenSpirit_Nirvana_Original5S.wav,,,,,,,,,,,,,,,,,,,,,,,,,,,,,,,,,,,,,,,,,,,,,,,,,,,,,
,,,,,799961,1,2024-07-12_18h54.04.730,experiment,2024.1.5,Win32,30.39513678,6691931c2c63981b064e1f0c,6691b3f1a8d561924cf6515e,,,,,,,,,,,,,,,,,,,,,,,,,,,,,,,,,,,,,,,,,,,,,,,,,,,,,,,,,,,,1340.554,1348.451,-0.236111111,-0.153935185,1.0,0.0,0.0,1.884,compass,0.0,16.0,16.0,20.0,1.0,SoundStimuli/FlashdanceWhatAFeeling_IreneCara_Original5S.wav,,,,,,,,,,,,,,,,,,,,,,,,,,,,,,,,,,,,,,,,,,,,,,,,,,,,,
,,,,,799961,1,2024-07-12_18h54.04.730,experiment,2024.1.5,Win32,30.39513678,6691931c2c63981b064e1f0c,6691b3f1a8d561924cf6515e,,,,,,,,,,,,,,,,,,,,,,,,,,,,,,,,,,,,,,,,,,,,,,,,,,,,,,,,,,,,1348.452,1354.953,-0.236111111,-0.153935185,1.0,0.0,0.0,0.499,compass,0.0,17.0,17.0,9.0,1.0,SoundStimuli/HowDoILive_LeAnnRimes_Cover5S.wav,,,,,,,,,,,,,,,,,,,,,,,,,,,,,,,,,,,,,,,,,,,,,,,,,,,,,
,,,,,799961,1,2024-07-12_18h54.04.730,experiment,2024.1.5,Win32,30.39513678,6691931c2c63981b064e1f0c,6691b3f1a8d561924cf6515e,,,,,,,,,,,,,,,,,,,,,,,,,,,,,,,,,,,,,,,,,,,,,,,,,,,,,,,,,,,,1354.954,1361.042,0.133101852,0.165509259,1.0,0.0,0.0,0.075,compass,0.0,18.0,18.0,17.0,1.0,SoundStimuli/IWannaDanceWithSomebody_WhitneyHouston_Original5S.wav,,,,,,,,,,,,,,,,,,,,,,,,,,,,,,,,,,,,,,,,,,,,,,,,,,,,,
,,,,,799961,1,2024-07-12_18h54.04.730,experiment,2024.1.5,Win32,30.39513678,6691931c2c63981b064e1f0c,6691b3f1a8d561924cf6515e,,,,,,,,,,,,,,,,,,,,,,,,,,,,,,,,,,,,,,,,,,,,,,,,,,,,,,,,,,,,1361.043,1367.515,-0.204861111,-0.164351852,1.0,0.0,0.0,0.465,compass,0.0,19.0,19.0,23.0,1.0,SoundStimuli/IWalkTheLine_JohnnyCash_Original5S.wav,,,,,,,,,,,,,,,,,,,,,,,,,,,,,,,,,,,,,,,,,,,,,,,,,,,,,
,,,,,799961,1,2024-07-12_18h54.04.730,experiment,2024.1.5,Win32,30.39513678,6691931c2c63981b064e1f0c,6691b3f1a8d561924cf6515e,,,,,,,,,,,,,,,,,,,,,,,,,,,,,,,,,,,,,,,,,,,,,,,,,,,,,,,,,,,,1367.517,1373.854,-0.209490741,-0.153935185,1.0,0.0,0.0,0.332,compass,0.0,20.0,20.0,24.0,1.0,SoundStimuli/Kiss_Prince_Cover5S.wav,,,,,,,,,,,,,,,,,,,,,,,,,,,,,,,,,,,,,,,,,,,,,,,,,,,,,
,,,,,799961,1,2024-07-12_18h54.04.730,experiment,2024.1.5,Win32,30.39513678,6691931c2c63981b064e1f0c,6691b3f1a8d561924cf6515e,,,,,,,,,,,,,,,,,,,,,,,,,,,,,,,,,,,,,,,,,,,,,,,,,,,,,,,,,,,,1373.857,1380.285,-0.1875,-0.142361111,1.0,0.0,0.0,0.414,compass,0.0,21.0,21.0,34.0,1.0,SoundStimuli/Irreplaceable_Beyonce_Cover5S.wav,,,,,,,,,,,,,,,,,,,,,,,,,,,,,,,,,,,,,,,,,,,,,,,,,,,,,
,,,,,799961,1,2024-07-12_18h54.04.730,experiment,2024.1.5,Win32,30.39513678,6691931c2c63981b064e1f0c,6691b3f1a8d561924cf6515e,,,,,,,,,,,,,,,,,,,,,,,,,,,,,,,,,,,,,,,,,,,,,,,,,,,,,,,,,,,,1380.287,1386.845,-0.1875,-0.142361111,1.0,0.0,0.0,0.541,compass,0.0,22.0,22.0,32.0,1.0,SoundStimuli/Dilemma_NellyKellyRowland_Cover5S.wav,,,,,,,,,,,,,,,,,,,,,,,,,,,,,,,,,,,,,,,,,,,,,,,,,,,,,
,,,,,799961,1,2024-07-12_18h54.04.730,experiment,2024.1.5,Win32,30.39513678,6691931c2c63981b064e1f0c,6691b3f1a8d561924cf6515e,,,,,,,,,,,,,,,,,,,,,,,,,,,,,,,,,,,,,,,,,,,,,,,,,,,,,,,,,,,,1386.847,1393.233,-0.177083333,-0.143518519,1.0,0.0,0.0,0.385,compass,0.0,23.0,23.0,21.0,1.0,SoundStimuli/BridgeOverTroubledWater_SimonAndGarfunkel_Original5S.wav,,,,,,,,,,,,,,,,,,,,,,,,,,,,,,,,,,,,,,,,,,,,,,,,,,,,,
,,,,,799961,1,2024-07-12_18h54.04.730,experiment,2024.1.5,Win32,30.39513678,6691931c2c63981b064e1f0c,6691b3f1a8d561924cf6515e,,,,,,,,,,,,,,,,,,,,,,,,,,,,,,,,,,,,,,,,,,,,,,,,,,,,,,,,,,,,1393.234,1400.865,-0.177083333,-0.143518519,1.0,0.0,0.0,1.617,compass,0.0,24.0,24.0,18.0,1.0,SoundStimuli/Weak_SWV_Cover5S.wav,,,,,,,,,,,,,,,,,,,,,,,,,,,,,,,,,,,,,,,,,,,,,,,,,,,,,
,,,,,799961,1,2024-07-12_18h54.04.730,experiment,2024.1.5,Win32,30.39513678,6691931c2c63981b064e1f0c,6691b3f1a8d561924cf6515e,,,,,,,,,,,,,,,,,,,,,,,,,,,,,,,,,,,,,,,,,,,,,,,,,,,,,,,,,,,,1400.866,1408.334,0.217592593,0.136574074,1.0,0.0,0.0,1.452,compass,0.0,25.0,25.0,1.0,1.0,SoundStimuli/Smooth_SantanaRobThomas_Original5S.wav,,,,,,,,,,,,,,,,,,,,,,,,,,,,,,,,,,,,,,,,,,,,,,,,,,,,,
,,,,,799961,1,2024-07-12_18h54.04.730,experiment,2024.1.5,Win32,30.39513678,6691931c2c63981b064e1f0c,6691b3f1a8d561924cf6515e,,,,,,,,,,,,,,,,,,,,,,,,,,,,,,,,,,,,,,,,,,,,,,,,,,,,,,,,,,,,1408.34,1415.212,-0.100694444,-0.136574074,1.0,0.0,0.0,0.865,compass,0.0,26.0,26.0,12.0,1.0,SoundStimuli/UnbreakMyHeart_ToniBraxton_Original5S.wav,,,,,,,,,,,,,,,,,,,,,,,,,,,,,,,,,,,,,,,,,,,,,,,,,,,,,
,,,,,799961,1,2024-07-12_18h54.04.730,experiment,2024.1.5,Win32,30.39513678,6691931c2c63981b064e1f0c,6691b3f1a8d561924cf6515e,,,,,,,,,,,,,,,,,,,,,,,,,,,,,,,,,,,,,,,,,,,,,,,,,,,,,,,,,,,,1415.212,1422.153,-0.050925926,0.087962963,1.0,0.0,0.0,0.938,compass,0.0,27.0,27.0,26.0,1.0,SoundStimuli/TheSign_AceOfBase_Cover5S.wav,,,,,,,,,,,,,,,,,,,,,,,,,,,,,,,,,,,,,,,,,,,,,,,,,,,,,
,,,,,799961,1,2024-07-12_18h54.04.730,experiment,2024.1.5,Win32,30.39513678,6691931c2c63981b064e1f0c,6691b3f1a8d561924cf6515e,,,,,,,,,,,,,,,,,,,,,,,,,,,,,,,,,,,,,,,,,,,,,,,,,,,,,,,,,,,,1422.154,1428.764,-0.142361111,-0.200231481,1.0,0.0,0.0,0.602,compass,0.0,28.0,28.0,25.0,1.0,SoundStimuli/IllMakeLoveToYou_BoyzIIMen_Cover5S.wav,,,,,,,,,,,,,,,,,,,,,,,,,,,,,,,,,,,,,,,,,,,,,,,,,,,,,
,,,,,799961,1,2024-07-12_18h54.04.730,experiment,2024.1.5,Win32,30.39513678,6691931c2c63981b064e1f0c,6691b3f1a8d561924cf6515e,,,,,,,,,,,,,,,,,,,,,,,,,,,,,,,,,,,,,,,,,,,,,,,,,,,,,,,,,,,,1428.765,1435.196,-0.142361111,-0.172453704,1.0,0.0,0.0,0.42,compass,0.0,29.0,29.0,19.0,1.0,SoundStimuli/YouLightUpMyLife_DebbyBoone_Original5S.wav,,,,,,,,,,,,,,,,,,,,,,,,,,,,,,,,,,,,,,,,,,,,,,,,,,,,,
,,,,,799961,1,2024-07-12_18h54.04.730,experiment,2024.1.5,Win32,30.39513678,6691931c2c63981b064e1f0c,6691b3f1a8d561924cf6515e,,,,,,,,,,,,,,,,,,,,,,,,,,,,,,,,,,,,,,,,,,,,,,,,,,,,,,,,,,,,1435.197,1441.764,-0.142361111,-0.171296296,1.0,0.0,0.0,0.551,compass,0.0,30.0,30.0,6.0,1.0,SoundStimuli/SaveYourTears_TheWeekndArianaGrande_Cover5S.wav,,,,,,,,,,,,,,,,,,,,,,,,,,,,,,,,,,,,,,,,,,,,,,,,,,,,,
,,,,,799961,1,2024-07-12_18h54.04.730,experiment,2024.1.5,Win32,30.39513678,6691931c2c63981b064e1f0c,6691b3f1a8d561924cf6515e,,,,,,,,,,,,,,,,,,,,,,,,,,,,,,,,,,,,,,,,,,,,,,,,,,,,,,,,,,,,1441.766,1449.827,-0.142361111,-0.171296296,1.0,0.0,0.0,2.05,compass,0.0,31.0,31.0,16.0,1.0,SoundStimuli/ItsAllInTheGame_TommyEdwards_Cover5S.wav,,,,,,,,,,,,,,,,,,,,,,,,,,,,,,,,,,,,,,,,,,,,,,,,,,,,,
,,,,,799961,1,2024-07-12_18h54.04.730,experiment,2024.1.5,Win32,30.39513678,6691931c2c63981b064e1f0c,6691b3f1a8d561924cf6515e,,,,,,,,,,,,,,,,,,,,,,,,,,,,,,,,,,,,,,,,,,,,,,,,,,,,,,,,,,,,1449.829,1456.068,-0.142361111,-0.171296296,1.0,0.0,0.0,0.224,compass,0.0,32.0,32.0,7.0,1.0,SoundStimuli/MackTheKnife_BobbyDarin_Cover5S.wav,,,,,,,,,,,,,,,,,,,,,,,,,,,,,,,,,,,,,,,,,,,,,,,,,,,,,
,,,,,799961,1,2024-07-12_18h54.04.730,experiment,2024.1.5,Win32,30.39513678,6691931c2c63981b064e1f0c,6691b3f1a8d561924cf6515e,,,,,,,,,,,,,,,,,,,,,,,,,,,,,,,,,,,,,,,,,,,,,,,,,,,,,,,,,,,,1456.069,1462.491,-0.105324074,-0.180555556,1.0,0.0,0.0,0.414,compass,0.0,33.0,33.0,14.0,1.0,SoundStimuli/LikeARollingStone_BobDylan_Original5S.wav,,,,,,,,,,,,,,,,,,,,,,,,,,,,,,,,,,,,,,,,,,,,,,,,,,,,,
,,,,,799961,1,2024-07-12_18h54.04.730,experiment,2024.1.5,Win32,30.39513678,6691931c2c63981b064e1f0c,6691b3f1a8d561924cf6515e,,,,,,,,,,,,,,,,,,,,,,,,,,,,,,,,,,,,,,,,,,,,,,,,,,,,,,,,,,,,1462.492,1469.01,-0.180555556,-0.203703704,1.0,0.0,0.0,0.512,compass,0.0,34.0,34.0,30.0,1.0,SoundStimuli/SomebodyThatIUsedtoKnow_Gotye_Original5S.wav,,,,,,,,,,,,,,,,,,,,,,,,,,,,,,,,,,,,,,,,,,,,,,,,,,,,,
,,,,,799961,1,2024-07-12_18h54.04.730,experiment,2024.1.5,Win32,30.39513678,6691931c2c63981b064e1f0c,6691b3f1a8d561924cf6515e,,,,,,,,,,,,,,,,,,,,,,,,,,,,,,,,,,,,,,,,,,,,,,,,,,,,,,,,,,,,,,,,,,,,,,,,,,,1469.01,1469.01,,,,1469.01,1469.011,,,,0.0,3.0,3.0,3.0,1.0,block_order/blockD.xlsx,,,,,,,,,,,,,,,,,,,,,,,,,,,,,,,,,,,,,
,,,,,799961,1,2024-07-12_18h54.04.730,experiment,2024.1.5,Win32,30.39513678,6691931c2c63981b064e1f0c,6691b3f1a8d561924cf6515e,,,,,,,,,,,,,,,,,,,,,,,,,,,,,,,,,,,,,,,,,,,,,,,,,,,,,,,,,,,,,,,,,,,,,,,,,,,,,,,,,,,,,,,,,,,28.0,Item 2,I went to music school and played piano for 6 years.,Item 3,"YouTube, Spotify",5.0,6.0,Wourking out,Often,Sometimes,Often,Sometimes,Rarely,Rarely,Rarely,Sometimes,Unsure,Sometimes,Rarely,Never,Rarely,Sometimes,Never,Never,Not applicable,EDM,Latin,Jazz,Always loved EDM and Jazz consistently throughout years. Found love for Latin Bachata music 8 years ago.,I love to listen to music while working out.,0.0,0.0,0.0,0.0,1.0,,
,,,,,799961,1,2024-07-12_18h54.04.730,experiment,2024.1.5,Win32,30.39513678,6691931c2c63981b064e1f0c,6691b3f1a8d561924cf6515e,,,,,,,,,,,,,,,,,,,,,,,,,,,,,,,,,,,,,,,,,,,,,,,,,,,,,,,,,,,,,,,,,,,,,,,,,,,,,,,,,,,,,,,,,,,,,,,,,,,,,,,,,,,,,,,,,,,,,,,,,,,,,,1697.301,1699.724
