welcome.started,welcome.stopped,space_to_continue.keys,space_to_continue.rt,space_to_continue.duration,participant,session,date,expName,psychopyVersion,OS,frameRate,STUDY_ID,SESSION_ID,consent.consent,consent.consent_recontact,consent_check.started,consent_check.stopped,calibration_ready.started,calibration_ready.stopped,cal_ready.keys,cal_ready.rt,cal_ready.duration,calibration.started,calibration.stopped,mouse.x,mouse.y,mouse.leftButton,mouse.midButton,mouse.rightButton,mouse.time,mouse.clicked_name,move_on.keys,move_on.rt,move_on.duration,run_cal.thisRepN,run_cal.thisTrialN,run_cal.thisN,run_cal.thisIndex,run_cal.ran,emotion_training_ready.started,emotion_training_ready.stopped,training_move_on.keys,training_move_on.rt,training_move_on.duration,examples.started,examples.stopped,emotion_scale.started,emotion_scale.stopped,scale_next.keys,scale_next.rt,scale_next.duration,instructions.started,instructions.stopped,next.keys,next.rt,next.duration,practice_task.started,practice_task.stopped,mouse_rating_2.x,mouse_rating_2.y,mouse_rating_2.leftButton,mouse_rating_2.midButton,mouse_rating_2.rightButton,mouse_rating_2.time,mouse_rating_2.clicked_name,ready.started,ready.stopped,key_resp.keys,key_resp.rt,key_resp.duration,set_group.started,set_group.stopped,task.started,task.stopped,mouse_rating.x,mouse_rating.y,mouse_rating.leftButton,mouse_rating.midButton,mouse_rating.rightButton,mouse_rating.time,mouse_rating.clicked_name,trials.thisRepN,trials.thisTrialN,trials.thisN,trials.thisIndex,trials.ran,clip,short_break.started,short_break.stopped,space_to_move_on.keys,space_to_move_on.rt,space_to_move_on.duration,instruction_reminder.started,instruction_reminder.stopped,reminder_move_on.keys,reminder_move_on.rt,reminder_move_on.duration,blocks.thisRepN,blocks.thisTrialN,blocks.thisN,blocks.thisIndex,blocks.ran,block,post_survey.age,post_survey.musician,post_survey.music_making,post_survey.listen_time,post_survey.medium,post_survey.music_seeking,post_survey.music_choice,post_survey.activities,post_survey.question1.Folk/indie,post_survey.question1.Ambient,post_survey.question1.Classic rock,post_survey.question1.Country,post_survey.question1.Hip hop,post_survey.question1.R&B,post_survey.question1.Disco,post_survey.question1.Jazz,post_survey.question1.Classical,post_survey.question1.Alternative rock,post_survey.question1.Latin,post_survey.question1.Reggae,post_survey.question1.Metal,post_survey.question1.A cappella,post_survey.question1.Electronic (EDM),post_survey.question1.Pop,post_survey.other_genres,post_survey.genres_ranked.text1,post_survey.genres_ranked.text2,post_survey.genres_ranked.text3,post_survey.habit_change,post_survey.habits,show_exp.thisRepN,show_exp.thisTrialN,show_exp.thisN,show_exp.thisIndex,show_exp.ran,goodbye.started,goodbye.stopped
0.0001,1.8978,space,1.8835,,825317,1,2024-07-12_17h38.05.351,experiment,2024.1.5,Win32,60.60606061,6691931c2c63981b064e1f0c,6691b01af6ae03b54151c384,,,,,,,,,,,,,,,,,,,,,,,,,,,,,,,,,,,,,,,,,,,,,,,,,,,,,,,,,,,,,,,,,,,,,,,,,,,,,,,,,,,,,,,,,,,,,,,,,,,,,,,,,,,,,,,,,,,,,,,,,,,,,,,
,,,,,825317,1,2024-07-12_17h38.05.351,experiment,2024.1.5,Win32,60.60606061,6691931c2c63981b064e1f0c,6691b01af6ae03b54151c384,yes,yes,,,,,,,,,,,,,,,,,,,,,,,,,,,,,,,,,,,,,,,,,,,,,,,,,,,,,,,,,,,,,,,,,,,,,,,,,,,,,,,,,,,,,,,,,,,,,,,,,,,,,,,,,,,,,,,,,,,,,,,,,,,,,
,,,,,825317,1,2024-07-12_17h38.05.351,experiment,2024.1.5,Win32,60.60606061,6691931c2c63981b064e1f0c,6691b01af6ae03b54151c384,,,19.6724,19.6725,,,,,,,,,,,,,,,,,,,,,,,,,,,,,,,,,,,,,,,,,,,,,,,,,,,,,,,,,,,,,,,,,,,,,,,,,,,,,,,,,,,,,,,,,,,,,,,,,,,,,,,,,,,,,,,,,,,,,,,,,,,
,,,,,825317,1,2024-07-12_17h38.05.351,experiment,2024.1.5,Win32,60.60606061,6691931c2c63981b064e1f0c,6691b01af6ae03b54151c384,,,,,19.674,25.3792,space,5.6872,,25.3803,71.062,"[-0.013888888888888888,-0.023148148148148147,-0.03055551317003038,-0.017592606721100985]","[-0.410185213442202,-0.445370356241862,-0.447222250479239,-0.42222220809371386]","[1,1,1,1]","[0,0,0,0]","[0,0,0,0]","[19.71699999999999,38.21520000004768,41.91520000004768,43.332]","[""play_button"",""play_button"",""play_button"",""play_button""]",n,44.6494,,0.0,0.0,0.0,0.0,1.0,,,,,,,,,,,,,,,,,,,,,,,,,,,,,,,,,,,,,,,,,,,,,,,,,,,,,,,,,,,,,,,,,,,,,,,,,,,,,,,,,,,,,,,,,,,,,,,,,,,,,
,,,,,825317,1,2024-07-12_17h38.05.351,experiment,2024.1.5,Win32,60.60606061,6691931c2c63981b064e1f0c,6691b01af6ae03b54151c384,,,,,,,,,,71.0703,90.9524,[-0.0018518235948350695],[-0.4046296720151548],[1],[0],[0],[0.6667000000476833],"[""play_button""]",y,18.8497,,1.0,0.0,1.0,0.0,1.0,,,,,,,,,,,,,,,,,,,,,,,,,,,,,,,,,,,,,,,,,,,,,,,,,,,,,,,,,,,,,,,,,,,,,,,,,,,,,,,,,,,,,,,,,,,,,,,,,,,,,
,,,,,825317,1,2024-07-12_17h38.05.351,experiment,2024.1.5,Win32,60.60606061,6691931c2c63981b064e1f0c,6691b01af6ae03b54151c384,,,,,,,,,,,,,,,,,,,,,,,,,,,90.9545,114.728,space,23.7543,,114.7282,234.7434,234.7437,256.1937,right,17.9039,,256.1938,265.5427,space,9.3191,,265.5429,273.5125,0.150000042,-0.117592635,1.0,0.0,0.0,1.95,compass_2,273.5127,282.2429,space,8.7102,,282.243,282.2482,282.2734,289.4754,0.22129631,-0.161111125,1.0,0.0,0.0,1.2004,compass,0.0,0.0,0.0,34.0,1.0,SoundStimuli/Irreplaceable_Beyonce_Cover5S.wav,,,,,,,,,,,,,,,,,,,,,,,,,,,,,,,,,,,,,,,,,,,,,,,,,,,,,
,,,,,825317,1,2024-07-12_17h38.05.351,experiment,2024.1.5,Win32,60.60606061,6691931c2c63981b064e1f0c,6691b01af6ae03b54151c384,,,,,,,,,,,,,,,,,,,,,,,,,,,,,,,,,,,,,,,,,,,,,,,,,,,,,,,,,,,,289.4908,299.974,0.143518519,0.116666653,1.0,0.0,0.0,4.4668,compass,0.0,1.0,1.0,15.0,1.0,SoundStimuli/CrazyInLove_BeyonceFtJayZ_Cover5S.wav,,,,,,,,,,,,,,,,,,,,,,,,,,,,,,,,,,,,,,,,,,,,,,,,,,,,,
,,,,,825317,1,2024-07-12_17h38.05.351,experiment,2024.1.5,Win32,60.60606061,6691931c2c63981b064e1f0c,6691b01af6ae03b54151c384,,,,,,,,,,,,,,,,,,,,,,,,,,,,,,,,,,,,,,,,,,,,,,,,,,,,,,,,,,,,299.9803,306.7745,0.143518519,0.116666653,1.0,0.0,0.0,0.7836,compass,0.0,2.0,2.0,14.0,1.0,SoundStimuli/LikeARollingStone_BobDylan_Original5S.wav,,,,,,,,,,,,,,,,,,,,,,,,,,,,,,,,,,,,,,,,,,,,,,,,,,,,,
,,,,,825317,1,2024-07-12_17h38.05.351,experiment,2024.1.5,Win32,60.60606061,6691931c2c63981b064e1f0c,6691b01af6ae03b54151c384,,,,,,,,,,,,,,,,,,,,,,,,,,,,,,,,,,,,,,,,,,,,,,,,,,,,,,,,,,,,306.7897,316.074,-0.182407379,-0.198148162,1.0,0.0,0.0,3.283,compass,0.0,3.0,3.0,6.0,1.0,SoundStimuli/SaveYourTears_TheWeekndArianaGrande_Cover5S.wav,,,,,,,,,,,,,,,,,,,,,,,,,,,,,,,,,,,,,,,,,,,,,,,,,,,,,
,,,,,825317,1,2024-07-12_17h38.05.351,experiment,2024.1.5,Win32,60.60606061,6691931c2c63981b064e1f0c,6691b01af6ae03b54151c384,,,,,,,,,,,,,,,,,,,,,,,,,,,,,,,,,,,,,,,,,,,,,,,,,,,,,,,,,,,,316.0801,323.0069,0.152777778,-0.103703746,1.0,0.0,0.0,0.9168,compass,0.0,4.0,4.0,23.0,1.0,SoundStimuli/IWalkTheLine_JohnnyCash_Original5S.wav,,,,,,,,,,,,,,,,,,,,,,,,,,,,,,,,,,,,,,,,,,,,,,,,,,,,,
,,,,,825317,1,2024-07-12_17h38.05.351,experiment,2024.1.5,Win32,60.60606061,6691931c2c63981b064e1f0c,6691b01af6ae03b54151c384,,,,,,,,,,,,,,,,,,,,,,,,,,,,,,,,,,,,,,,,,,,,,,,,,,,,,,,,,,,,323.013,329.373,0.127777806,0.138888889,1.0,0.0,0.0,0.35,compass,0.0,5.0,5.0,17.0,1.0,SoundStimuli/IWannaDanceWithSomebody_WhitneyHouston_Original5S.wav,,,,,,,,,,,,,,,,,,,,,,,,,,,,,,,,,,,,,,,,,,,,,,,,,,,,,
,,,,,825317,1,2024-07-12_17h38.05.351,experiment,2024.1.5,Win32,60.60606061,6691931c2c63981b064e1f0c,6691b01af6ae03b54151c384,,,,,,,,,,,,,,,,,,,,,,,,,,,,,,,,,,,,,,,,,,,,,,,,,,,,,,,,,,,,329.3788,336.7066,0.080555598,-0.143518519,1.0,0.0,0.0,1.3167,compass,0.0,6.0,6.0,13.0,1.0,SoundStimuli/Perfect_EdSheeran_Cover5S.wav,,,,,,,,,,,,,,,,,,,,,,,,,,,,,,,,,,,,,,,,,,,,,,,,,,,,,
,,,,,825317,1,2024-07-12_17h38.05.351,experiment,2024.1.5,Win32,60.60606061,6691931c2c63981b064e1f0c,6691b01af6ae03b54151c384,,,,,,,,,,,,,,,,,,,,,,,,,,,,,,,,,,,,,,,,,,,,,,,,,,,,,,,,,,,,336.7125,343.7566,0.114814829,0.127777771,1.0,0.0,0.0,1.0339,compass,0.0,7.0,7.0,31.0,1.0,SoundStimuli/TossinAndTurnin_BobbyLewis_Original5S.wav,,,,,,,,,,,,,,,,,,,,,,,,,,,,,,,,,,,,,,,,,,,,,,,,,,,,,
,,,,,825317,1,2024-07-12_17h38.05.351,experiment,2024.1.5,Win32,60.60606061,6691931c2c63981b064e1f0c,6691b01af6ae03b54151c384,,,,,,,,,,,,,,,,,,,,,,,,,,,,,,,,,,,,,,,,,,,,,,,,,,,,,,,,,,,,343.7639,350.7233,0.053703732,0.130555541,1.0,0.0,0.0,0.9503,compass,0.0,8.0,8.0,3.0,1.0,SoundStimuli/PartyRockAnthem_LMFAO_Original5S.wav,,,,,,,,,,,,,,,,,,,,,,,,,,,,,,,,,,,,,,,,,,,,,,,,,,,,,
,,,,,825317,1,2024-07-12_17h38.05.351,experiment,2024.1.5,Win32,60.60606061,6691931c2c63981b064e1f0c,6691b01af6ae03b54151c384,,,,,,,,,,,,,,,,,,,,,,,,,,,,,,,,,,,,,,,,,,,,,,,,,,,,,,,,,,,,350.7298,358.3559,-0.188888903,-0.142592607,1.0,0.0,0.0,1.616,compass,0.0,9.0,9.0,29.0,1.0,SoundStimuli/BetteDavisEyes_KimCarnes_Original5S.wav,,,,,,,,,,,,,,,,,,,,,,,,,,,,,,,,,,,,,,,,,,,,,,,,,,,,,
,,,,,825317,1,2024-07-12_17h38.05.351,experiment,2024.1.5,Win32,60.60606061,6691931c2c63981b064e1f0c,6691b01af6ae03b54151c384,,,,,,,,,,,,,,,,,,,,,,,,,,,,,,,,,,,,,,,,,,,,,,,,,,,,,,,,,,,,358.3633,365.0567,0.164814843,0.113888882,1.0,0.0,0.0,0.6839,compass,0.0,10.0,10.0,22.0,1.0,SoundStimuli/Happy_PharellWilliams_Original5S.wav,,,,,,,,,,,,,,,,,,,,,,,,,,,,,,,,,,,,,,,,,,,,,,,,,,,,,
,,,,,825317,1,2024-07-12_17h38.05.351,experiment,2024.1.5,Win32,60.60606061,6691931c2c63981b064e1f0c,6691b01af6ae03b54151c384,,,,,,,,,,,,,,,,,,,,,,,,,,,,,,,,,,,,,,,,,,,,,,,,,,,,,,,,,,,,365.0625,372.7723,0.131481524,0.125925912,1.0,0.0,0.0,1.6995,compass,0.0,11.0,11.0,11.0,1.0,SoundStimuli/BlurredLines_RobinThicke_Cover5S.wav,,,,,,,,,,,,,,,,,,,,,,,,,,,,,,,,,,,,,,,,,,,,,,,,,,,,,
,,,,,825317,1,2024-07-12_17h38.05.351,experiment,2024.1.5,Win32,60.60606061,6691931c2c63981b064e1f0c,6691b01af6ae03b54151c384,,,,,,,,,,,,,,,,,,,,,,,,,,,,,,,,,,,,,,,,,,,,,,,,,,,,,,,,,,,,372.7781,380.306,-0.125,-0.145370413,1.0,0.0,0.0,1.5172,compass,0.0,12.0,12.0,9.0,1.0,SoundStimuli/HowDoILive_LeAnnRimes_Cover5S.wav,,,,,,,,,,,,,,,,,,,,,,,,,,,,,,,,,,,,,,,,,,,,,,,,,,,,,
,,,,,825317,1,2024-07-12_17h38.05.351,experiment,2024.1.5,Win32,60.60606061,6691931c2c63981b064e1f0c,6691b01af6ae03b54151c384,,,,,,,,,,,,,,,,,,,,,,,,,,,,,,,,,,,,,,,,,,,,,,,,,,,,,,,,,,,,380.3124,386.956,-0.126851824,0.14907406,1.0,0.0,0.0,0.6333,compass,0.0,13.0,13.0,10.0,1.0,SoundStimuli/LeFreak_Chic_Cover5S.wav,,,,,,,,,,,,,,,,,,,,,,,,,,,,,,,,,,,,,,,,,,,,,,,,,,,,,
,,,,,825317,1,2024-07-12_17h38.05.351,experiment,2024.1.5,Win32,60.60606061,6691931c2c63981b064e1f0c,6691b01af6ae03b54151c384,,,,,,,,,,,,,,,,,,,,,,,,,,,,,,,,,,,,,,,,,,,,,,,,,,,,,,,,,,,,386.9628,396.706,0.044444473,-0.038888896,1.0,0.0,0.0,3.7338,compass,0.0,14.0,14.0,21.0,1.0,SoundStimuli/BridgeOverTroubledWater_SimonAndGarfunkel_Original5S.wav,,,,,,,,,,,,,,,,,,,,,,,,,,,,,,,,,,,,,,,,,,,,,,,,,,,,,
,,,,,825317,1,2024-07-12_17h38.05.351,experiment,2024.1.5,Win32,60.60606061,6691931c2c63981b064e1f0c,6691b01af6ae03b54151c384,,,,,,,,,,,,,,,,,,,,,,,,,,,,,,,,,,,,,,,,,,,,,,,,,,,,,,,,,,,,396.7125,404.7889,0.023148148,0.02870369,1.0,0.0,0.0,2.0667,compass,0.0,15.0,15.0,24.0,1.0,SoundStimuli/Kiss_Prince_Cover5S.wav,,,,,,,,,,,,,,,,,,,,,,,,,,,,,,,,,,,,,,,,,,,,,,,,,,,,,
,,,,,825317,1,2024-07-12_17h38.05.351,experiment,2024.1.5,Win32,60.60606061,6691931c2c63981b064e1f0c,6691b01af6ae03b54151c384,,,,,,,,,,,,,,,,,,,,,,,,,,,,,,,,,,,,,,,,,,,,,,,,,,,,,,,,,,,,404.7975,411.322,-0.206481439,0.214814804,1.0,0.0,0.0,0.5167,compass,0.0,16.0,16.0,27.0,1.0,SoundStimuli/EyeOfTheTiger_Survivor_Cover5S.wav,,,,,,,,,,,,,,,,,,,,,,,,,,,,,,,,,,,,,,,,,,,,,,,,,,,,,
,,,,,825317,1,2024-07-12_17h38.05.351,experiment,2024.1.5,Win32,60.60606061,6691931c2c63981b064e1f0c,6691b01af6ae03b54151c384,,,,,,,,,,,,,,,,,,,,,,,,,,,,,,,,,,,,,,,,,,,,,,,,,,,,,,,,,,,,411.3298,421.1884,-0.013888889,0.011111118,1.0,0.0,0.0,3.8497,compass,0.0,17.0,17.0,5.0,1.0,SoundStimuli/JoyToTheWorld_ThreeDogNight_Original5S.wav,,,,,,,,,,,,,,,,,,,,,,,,,,,,,,,,,,,,,,,,,,,,,,,,,,,,,
,,,,,825317,1,2024-07-12_17h38.05.351,experiment,2024.1.5,Win32,60.60606061,6691931c2c63981b064e1f0c,6691b01af6ae03b54151c384,,,,,,,,,,,,,,,,,,,,,,,,,,,,,,,,,,,,,,,,,,,,,,,,,,,,,,,,,,,,421.1963,432.1046,-0.016666624,0.015740748,1.0,0.0,0.0,4.8998,compass,0.0,18.0,18.0,32.0,1.0,SoundStimuli/Dilemma_NellyKellyRowland_Cover5S.wav,,,,,,,,,,,,,,,,,,,,,,,,,,,,,,,,,,,,,,,,,,,,,,,,,,,,,
,,,,,825317,1,2024-07-12_17h38.05.351,experiment,2024.1.5,Win32,60.60606061,6691931c2c63981b064e1f0c,6691b01af6ae03b54151c384,,,,,,,,,,,,,,,,,,,,,,,,,,,,,,,,,,,,,,,,,,,,,,,,,,,,,,,,,,,,432.1104,440.3217,0.025925954,0.018518519,1.0,0.0,0.0,2.1996,compass,0.0,19.0,19.0,4.0,1.0,SoundStimuli/Dreams_FleetwoodMac_Original5S.wav,,,,,,,,,,,,,,,,,,,,,,,,,,,,,,,,,,,,,,,,,,,,,,,,,,,,,
,,,,,825317,1,2024-07-12_17h38.05.351,experiment,2024.1.5,Win32,60.60606061,6691931c2c63981b064e1f0c,6691b01af6ae03b54151c384,,,,,,,,,,,,,,,,,,,,,,,,,,,,,,,,,,,,,,,,,,,,,,,,,,,,,,,,,,,,440.3279,448.455,-0.093518504,0.101851852,1.0,0.0,0.0,2.1174,compass,0.0,20.0,20.0,2.0,1.0,SoundStimuli/SmellsLikeTeenSpirit_Nirvana_Original5S.wav,,,,,,,,,,,,,,,,,,,,,,,,,,,,,,,,,,,,,,,,,,,,,,,,,,,,,
,,,,,825317,1,2024-07-12_17h38.05.351,experiment,2024.1.5,Win32,60.60606061,6691931c2c63981b064e1f0c,6691b01af6ae03b54151c384,,,,,,,,,,,,,,,,,,,,,,,,,,,,,,,,,,,,,,,,,,,,,,,,,,,,,,,,,,,,448.4626,455.1052,-0.156481496,-0.155555584,1.0,0.0,0.0,0.634,compass,0.0,21.0,21.0,12.0,1.0,SoundStimuli/UnbreakMyHeart_ToniBraxton_Original5S.wav,,,,,,,,,,,,,,,,,,,,,,,,,,,,,,,,,,,,,,,,,,,,,,,,,,,,,
,,,,,825317,1,2024-07-12_17h38.05.351,experiment,2024.1.5,Win32,60.60606061,6691931c2c63981b064e1f0c,6691b01af6ae03b54151c384,,,,,,,,,,,,,,,,,,,,,,,,,,,,,,,,,,,,,,,,,,,,,,,,,,,,,,,,,,,,455.1109,462.1215,0.161111125,0.112037023,1.0,0.0,0.0,1.0005,compass,0.0,22.0,22.0,20.0,1.0,SoundStimuli/FlashdanceWhatAFeeling_IreneCara_Original5S.wav,,,,,,,,,,,,,,,,,,,,,,,,,,,,,,,,,,,,,,,,,,,,,,,,,,,,,
,,,,,825317,1,2024-07-12_17h38.05.351,experiment,2024.1.5,Win32,60.60606061,6691931c2c63981b064e1f0c,6691b01af6ae03b54151c384,,,,,,,,,,,,,,,,,,,,,,,,,,,,,,,,,,,,,,,,,,,,,,,,,,,,,,,,,,,,462.1271,468.7549,-0.175925926,0.203703704,1.0,0.0,0.0,0.6169,compass,0.0,23.0,23.0,7.0,1.0,SoundStimuli/MackTheKnife_BobbyDarin_Cover5S.wav,,,,,,,,,,,,,,,,,,,,,,,,,,,,,,,,,,,,,,,,,,,,,,,,,,,,,
,,,,,825317,1,2024-07-12_17h38.05.351,experiment,2024.1.5,Win32,60.60606061,6691931c2c63981b064e1f0c,6691b01af6ae03b54151c384,,,,,,,,,,,,,,,,,,,,,,,,,,,,,,,,,,,,,,,,,,,,,,,,,,,,,,,,,,,,468.7614,477.7211,-0.02407406,0.083333333,1.0,0.0,0.0,2.9504,compass,0.0,24.0,24.0,26.0,1.0,SoundStimuli/TheSign_AceOfBase_Cover5S.wav,,,,,,,,,,,,,,,,,,,,,,,,,,,,,,,,,,,,,,,,,,,,,,,,,,,,,
,,,,,825317,1,2024-07-12_17h38.05.351,experiment,2024.1.5,Win32,60.60606061,6691931c2c63981b064e1f0c,6691b01af6ae03b54151c384,,,,,,,,,,,,,,,,,,,,,,,,,,,,,,,,,,,,,,,,,,,,,,,,,,,,,,,,,,,,477.7269,485.4542,-0.00462963,0.164814808,1.0,0.0,0.0,1.7171,compass,0.0,25.0,25.0,1.0,1.0,SoundStimuli/Smooth_SantanaRobThomas_Original5S.wav,,,,,,,,,,,,,,,,,,,,,,,,,,,,,,,,,,,,,,,,,,,,,,,,,,,,,
,,,,,825317,1,2024-07-12_17h38.05.351,experiment,2024.1.5,Win32,60.60606061,6691931c2c63981b064e1f0c,6691b01af6ae03b54151c384,,,,,,,,,,,,,,,,,,,,,,,,,,,,,,,,,,,,,,,,,,,,,,,,,,,,,,,,,,,,485.4626,493.3877,0.034259302,-0.048148155,1.0,0.0,0.0,1.9167,compass,0.0,26.0,26.0,16.0,1.0,SoundStimuli/ItsAllInTheGame_TommyEdwards_Cover5S.wav,,,,,,,,,,,,,,,,,,,,,,,,,,,,,,,,,,,,,,,,,,,,,,,,,,,,,
,,,,,825317,1,2024-07-12_17h38.05.351,experiment,2024.1.5,Win32,60.60606061,6691931c2c63981b064e1f0c,6691b01af6ae03b54151c384,,,,,,,,,,,,,,,,,,,,,,,,,,,,,,,,,,,,,,,,,,,,,,,,,,,,,,,,,,,,493.3945,499.954,0.14444443,0.16111109,1.0,0.0,0.0,0.5502,compass,0.0,27.0,27.0,28.0,1.0,SoundStimuli/IWantToHoldYourHand_TheBeatles_Original5S.wav,,,,,,,,,,,,,,,,,,,,,,,,,,,,,,,,,,,,,,,,,,,,,,,,,,,,,
,,,,,825317,1,2024-07-12_17h38.05.351,experiment,2024.1.5,Win32,60.60606061,6691931c2c63981b064e1f0c,6691b01af6ae03b54151c384,,,,,,,,,,,,,,,,,,,,,,,,,,,,,,,,,,,,,,,,,,,,,,,,,,,,,,,,,,,,499.9613,507.5203,-0.117592564,-0.073148162,1.0,0.0,0.0,1.5503,compass,0.0,28.0,28.0,30.0,1.0,SoundStimuli/SomebodyThatIUsedtoKnow_Gotye_Original5S.wav,,,,,,,,,,,,,,,,,,,,,,,,,,,,,,,,,,,,,,,,,,,,,,,,,,,,,
,,,,,825317,1,2024-07-12_17h38.05.351,experiment,2024.1.5,Win32,60.60606061,6691931c2c63981b064e1f0c,6691b01af6ae03b54151c384,,,,,,,,,,,,,,,,,,,,,,,,,,,,,,,,,,,,,,,,,,,,,,,,,,,,,,,,,,,,507.5271,515.8039,-0.057407379,-0.115740741,1.0,0.0,0.0,2.2669,compass,0.0,29.0,29.0,18.0,1.0,SoundStimuli/Weak_SWV_Cover5S.wav,,,,,,,,,,,,,,,,,,,,,,,,,,,,,,,,,,,,,,,,,,,,,,,,,,,,,
,,,,,825317,1,2024-07-12_17h38.05.351,experiment,2024.1.5,Win32,60.60606061,6691931c2c63981b064e1f0c,6691b01af6ae03b54151c384,,,,,,,,,,,,,,,,,,,,,,,,,,,,,,,,,,,,,,,,,,,,,,,,,,,,,,,,,,,,515.8209,522.5195,0.136111153,0.179629608,1.0,0.0,0.0,0.6831,compass,0.0,30.0,30.0,0.0,1.0,SoundStimuli/GimmeShelter_RollingStones_Original5S.wav,,,,,,,,,,,,,,,,,,,,,,,,,,,,,,,,,,,,,,,,,,,,,,,,,,,,,
,,,,,825317,1,2024-07-12_17h38.05.351,experiment,2024.1.5,Win32,60.60606061,6691931c2c63981b064e1f0c,6691b01af6ae03b54151c384,,,,,,,,,,,,,,,,,,,,,,,,,,,,,,,,,,,,,,,,,,,,,,,,,,,,,,,,,,,,522.5277,530.6866,-0.10555557,-0.164814843,1.0,0.0,0.0,2.1501,compass,0.0,31.0,31.0,19.0,1.0,SoundStimuli/YouLightUpMyLife_DebbyBoone_Original5S.wav,,,,,,,,,,,,,,,,,,,,,,,,,,,,,,,,,,,,,,,,,,,,,,,,,,,,,
,,,,,825317,1,2024-07-12_17h38.05.351,experiment,2024.1.5,Win32,60.60606061,6691931c2c63981b064e1f0c,6691b01af6ae03b54151c384,,,,,,,,,,,,,,,,,,,,,,,,,,,,,,,,,,,,,,,,,,,,,,,,,,,,,,,,,,,,530.694,537.3697,0.199074074,-0.188888903,1.0,0.0,0.0,0.667,compass,0.0,32.0,32.0,25.0,1.0,SoundStimuli/IllMakeLoveToYou_BoyzIIMen_Cover5S.wav,,,,,,,,,,,,,,,,,,,,,,,,,,,,,,,,,,,,,,,,,,,,,,,,,,,,,
,,,,,825317,1,2024-07-12_17h38.05.351,experiment,2024.1.5,Win32,60.60606061,6691931c2c63981b064e1f0c,6691b01af6ae03b54151c384,,,,,,,,,,,,,,,,,,,,,,,,,,,,,,,,,,,,,,,,,,,,,,,,,,,,,,,,,,,,537.378,544.1861,0.055555556,0.140740748,1.0,0.0,0.0,0.7994,compass,0.0,33.0,33.0,33.0,1.0,SoundStimuli/TheBoyIsMine_BrandyMonica_Original5S.wav,,,,,,,,,,,,,,,,,,,,,,,,,,,,,,,,,,,,,,,,,,,,,,,,,,,,,
,,,,,825317,1,2024-07-12_17h38.05.351,experiment,2024.1.5,Win32,60.60606061,6691931c2c63981b064e1f0c,6691b01af6ae03b54151c384,,,,,,,,,,,,,,,,,,,,,,,,,,,,,,,,,,,,,,,,,,,,,,,,,,,,,,,,,,,,544.1926,551.1198,0.088888875,-0.137037065,1.0,0.0,0.0,0.9174,compass,0.0,34.0,34.0,8.0,1.0,SoundStimuli/EndlessLove_DianaRossLionelRichie_Cover5S.wav,,,,,,,,,,,,,,,,,,,,,,,,,,,,,,,,,,,,,,,,,,,,,,,,,,,,,
,,,,,825317,1,2024-07-12_17h38.05.351,experiment,2024.1.5,Win32,60.60606061,6691931c2c63981b064e1f0c,6691b01af6ae03b54151c384,,,,,,,,,,,,,,,,,,,,,,,,,,,,,,,,,,,,,,,,,,,,,,,,,,,,,,,,,,,,,,,,,,,,,,,,,,,551.1271,569.1873,space,18.0452,,569.1875,575.9526,right,6.7388,,0.0,0.0,0.0,0.0,1.0,block_order/blockD.xlsx,,,,,,,,,,,,,,,,,,,,,,,,,,,,,,,,,,,,,
,,,,,825317,1,2024-07-12_17h38.05.351,experiment,2024.1.5,Win32,60.60606061,6691931c2c63981b064e1f0c,6691b01af6ae03b54151c384,,,,,,,,,,,,,,,,,,,,,,,,,,,,,,,,,,,,,,,,,,,,,,,,,,,,,,,,,,,,575.9654,582.9359,0.074074074,-0.074074074,1.0,0.0,0.0,0.9669,compass,0.0,0.0,0.0,19.0,1.0,SoundStimuli/LetsGetItOn_MarvinGaye_Original5S.wav,,,,,,,,,,,,,,,,,,,,,,,,,,,,,,,,,,,,,,,,,,,,,,,,,,,,,
,,,,,825317,1,2024-07-12_17h38.05.351,experiment,2024.1.5,Win32,60.60606061,6691931c2c63981b064e1f0c,6691b01af6ae03b54151c384,,,,,,,,,,,,,,,,,,,,,,,,,,,,,,,,,,,,,,,,,,,,,,,,,,,,,,,,,,,,582.9417,590.1524,-0.079629616,-0.054629644,1.0,0.0,0.0,1.2004,compass,0.0,1.0,1.0,34.0,1.0,SoundStimuli/AChangeIsGonnaCome_SamCooke_Original5S.wav,,,,,,,,,,,,,,,,,,,,,,,,,,,,,,,,,,,,,,,,,,,,,,,,,,,,,
,,,,,825317,1,2024-07-12_17h38.05.351,experiment,2024.1.5,Win32,60.60606061,6691931c2c63981b064e1f0c,6691b01af6ae03b54151c384,,,,,,,,,,,,,,,,,,,,,,,,,,,,,,,,,,,,,,,,,,,,,,,,,,,,,,,,,,,,590.1683,597.6518,-0.013888889,-0.011111118,1.0,0.0,0.0,1.4828,compass,0.0,2.0,2.0,16.0,1.0,SoundStimuli/BohemianRhapsody_Queen_Cover5S.wav,,,,,,,,,,,,,,,,,,,,,,,,,,,,,,,,,,,,,,,,,,,,,,,,,,,,,
,,,,,825317,1,2024-07-12_17h38.05.351,experiment,2024.1.5,Win32,60.60606061,6691931c2c63981b064e1f0c,6691b01af6ae03b54151c384,,,,,,,,,,,,,,,,,,,,,,,,,,,,,,,,,,,,,,,,,,,,,,,,,,,,,,,,,,,,597.6577,604.2016,0.074074074,0.124074053,1.0,0.0,0.0,0.5328,compass,0.0,3.0,3.0,7.0,1.0,SoundStimuli/NoOne_AliciaKeys_Original5S.wav,,,,,,,,,,,,,,,,,,,,,,,,,,,,,,,,,,,,,,,,,,,,,,,,,,,,,
,,,,,825317,1,2024-07-12_17h38.05.351,experiment,2024.1.5,Win32,60.60606061,6691931c2c63981b064e1f0c,6691b01af6ae03b54151c384,,,,,,,,,,,,,,,,,,,,,,,,,,,,,,,,,,,,,,,,,,,,,,,,,,,,,,,,,,,,604.2077,611.8858,0.112963005,0.131481489,1.0,0.0,0.0,1.6674,compass,0.0,4.0,4.0,17.0,1.0,SoundStimuli/Fallin_AliciaKeys_Cover5S.wav,,,,,,,,,,,,,,,,,,,,,,,,,,,,,,,,,,,,,,,,,,,,,,,,,,,,,
,,,,,825317,1,2024-07-12_17h38.05.351,experiment,2024.1.5,Win32,60.60606061,6691931c2c63981b064e1f0c,6691b01af6ae03b54151c384,,,,,,,,,,,,,,,,,,,,,,,,,,,,,,,,,,,,,,,,,,,,,,,,,,,,,,,,,,,,611.9026,618.3851,0.225000028,0.26666666,1.0,0.0,0.0,0.4673,compass,0.0,5.0,5.0,21.0,1.0,SoundStimuli/GoodGollyMissMolly_LittleRichard_Original5S.wav,,,,,,,,,,,,,,,,,,,,,,,,,,,,,,,,,,,,,,,,,,,,,,,,,,,,,
,,,,,825317,1,2024-07-12_17h38.05.351,experiment,2024.1.5,Win32,60.60606061,6691931c2c63981b064e1f0c,6691b01af6ae03b54151c384,,,,,,,,,,,,,,,,,,,,,,,,,,,,,,,,,,,,,,,,,,,,,,,,,,,,,,,,,,,,618.3939,624.9511,-0.162962949,0.139814801,1.0,0.0,0.0,0.5499,compass,0.0,6.0,6.0,1.0,1.0,SoundStimuli/Stronger_KanyeWest_Cover5S.wav,,,,,,,,,,,,,,,,,,,,,,,,,,,,,,,,,,,,,,,,,,,,,,,,,,,,,
,,,,,825317,1,2024-07-12_17h38.05.351,experiment,2024.1.5,Win32,60.60606061,6691931c2c63981b064e1f0c,6691b01af6ae03b54151c384,,,,,,,,,,,,,,,,,,,,,,,,,,,,,,,,,,,,,,,,,,,,,,,,,,,,,,,,,,,,624.9572,631.5844,0.128703718,0.112037023,1.0,0.0,0.0,0.6165,compass,0.0,7.0,7.0,2.0,1.0,SoundStimuli/Mood_24kGoldnianndior_Original5S.wav,,,,,,,,,,,,,,,,,,,,,,,,,,,,,,,,,,,,,,,,,,,,,,,,,,,,,
,,,,,825317,1,2024-07-12_17h38.05.351,experiment,2024.1.5,Win32,60.60606061,6691931c2c63981b064e1f0c,6691b01af6ae03b54151c384,,,,,,,,,,,,,,,,,,,,,,,,,,,,,,,,,,,,,,,,,,,,,,,,,,,,,,,,,,,,631.5904,638.3677,-0.126851824,-0.074074074,1.0,0.0,0.0,0.7665,compass,0.0,8.0,8.0,13.0,1.0,SoundStimuli/GodOnlyKnows_TheBeachBoys_Original5S.wav,,,,,,,,,,,,,,,,,,,,,,,,,,,,,,,,,,,,,,,,,,,,,,,,,,,,,
,,,,,825317,1,2024-07-12_17h38.05.351,experiment,2024.1.5,Win32,60.60606061,6691931c2c63981b064e1f0c,6691b01af6ae03b54151c384,,,,,,,,,,,,,,,,,,,,,,,,,,,,,,,,,,,,,,,,,,,,,,,,,,,,,,,,,,,,638.3735,645.0345,0.10092594,-0.08425928,1.0,0.0,0.0,0.6498,compass,0.0,9.0,9.0,10.0,1.0,SoundStimuli/BadDay_DanielPowter_Original5S.wav,,,,,,,,,,,,,,,,,,,,,,,,,,,,,,,,,,,,,,,,,,,,,,,,,,,,,
,,,,,825317,1,2024-07-12_17h38.05.351,experiment,2024.1.5,Win32,60.60606061,6691931c2c63981b064e1f0c,6691b01af6ae03b54151c384,,,,,,,,,,,,,,,,,,,,,,,,,,,,,,,,,,,,,,,,,,,,,,,,,,,,,,,,,,,,645.0399,655.0843,0.073148162,0.041666667,1.0,0.0,0.0,4.0329,compass,0.0,10.0,10.0,4.0,1.0,SoundStimuli/GetUrFreakOn_MissyElliot_Cover5S.wav,,,,,,,,,,,,,,,,,,,,,,,,,,,,,,,,,,,,,,,,,,,,,,,,,,,,,
,,,,,825317,1,2024-07-12_17h38.05.351,experiment,2024.1.5,Win32,60.60606061,6691931c2c63981b064e1f0c,6691b01af6ae03b54151c384,,,,,,,,,,,,,,,,,,,,,,,,,,,,,,,,,,,,,,,,,,,,,,,,,,,,,,,,,,,,655.0904,661.7835,-0.070370356,0.087037016,1.0,0.0,0.0,0.6826,compass,0.0,11.0,11.0,23.0,1.0,SoundStimuli/StrawberryFieldsForever_TheBeatles_Cover5S.wav,,,,,,,,,,,,,,,,,,,,,,,,,,,,,,,,,,,,,,,,,,,,,,,,,,,,,
,,,,,825317,1,2024-07-12_17h38.05.351,experiment,2024.1.5,Win32,60.60606061,6691931c2c63981b064e1f0c,6691b01af6ae03b54151c384,,,,,,,,,,,,,,,,,,,,,,,,,,,,,,,,,,,,,,,,,,,,,,,,,,,,,,,,,,,,661.7894,668.4835,-0.022222236,0.228703693,1.0,0.0,0.0,0.6827,compass,0.0,12.0,12.0,28.0,1.0,SoundStimuli/ComeAndGetYourLove_Redbone_Cover5S.wav,,,,,,,,,,,,,,,,,,,,,,,,,,,,,,,,,,,,,,,,,,,,,,,,,,,,,
,,,,,825317,1,2024-07-12_17h38.05.351,experiment,2024.1.5,Win32,60.60606061,6691931c2c63981b064e1f0c,6691b01af6ae03b54151c384,,,,,,,,,,,,,,,,,,,,,,,,,,,,,,,,,,,,,,,,,,,,,,,,,,,,,,,,,,,,668.4894,676.45,0.090740769,0.125,1.0,0.0,0.0,1.9488,compass,0.0,13.0,13.0,8.0,1.0,SoundStimuli/LikeAPrayer_Madonna_Cover5S.wav,,,,,,,,,,,,,,,,,,,,,,,,,,,,,,,,,,,,,,,,,,,,,,,,,,,,,
,,,,,825317,1,2024-07-12_17h38.05.351,experiment,2024.1.5,Win32,60.60606061,6691931c2c63981b064e1f0c,6691b01af6ae03b54151c384,,,,,,,,,,,,,,,,,,,,,,,,,,,,,,,,,,,,,,,,,,,,,,,,,,,,,,,,,,,,676.4568,683.184,0.19722225,0.2462963,1.0,0.0,0.0,0.7165,compass,0.0,14.0,14.0,15.0,1.0,SoundStimuli/TikTok_Kesha_Original5S.wav,,,,,,,,,,,,,,,,,,,,,,,,,,,,,,,,,,,,,,,,,,,,,,,,,,,,,
,,,,,825317,1,2024-07-12_17h38.05.351,experiment,2024.1.5,Win32,60.60606061,6691931c2c63981b064e1f0c,6691b01af6ae03b54151c384,,,,,,,,,,,,,,,,,,,,,,,,,,,,,,,,,,,,,,,,,,,,,,,,,,,,,,,,,,,,683.1907,692.1001,0.023148148,0.303703697,1.0,0.0,0.0,2.8997,compass,0.0,15.0,15.0,26.0,1.0,SoundStimuli/LivinOnAPrayer_BonJovi_Original5S.wav,,,,,,,,,,,,,,,,,,,,,,,,,,,,,,,,,,,,,,,,,,,,,,,,,,,,,
,,,,,825317,1,2024-07-12_17h38.05.351,experiment,2024.1.5,Win32,60.60606061,6691931c2c63981b064e1f0c,6691b01af6ae03b54151c384,,,,,,,,,,,,,,,,,,,,,,,,,,,,,,,,,,,,,,,,,,,,,,,,,,,,,,,,,,,,692.1068,698.6834,0.219444487,0.220370363,1.0,0.0,0.0,0.5663,compass,0.0,16.0,16.0,31.0,1.0,SoundStimuli/TheBattleOfNewOrleans_JohnnyHorton_Original5S.wav,,,,,,,,,,,,,,,,,,,,,,,,,,,,,,,,,,,,,,,,,,,,,,,,,,,,,
,,,,,825317,1,2024-07-12_17h38.05.351,experiment,2024.1.5,Win32,60.60606061,6691931c2c63981b064e1f0c,6691b01af6ae03b54151c384,,,,,,,,,,,,,,,,,,,,,,,,,,,,,,,,,,,,,,,,,,,,,,,,,,,,,,,,,,,,698.6913,709.7664,0.050000014,0.123148141,1.0,0.0,0.0,5.0663,compass,0.0,17.0,17.0,30.0,1.0,SoundStimuli/PokerFace_LadyGaga_Cover5S.wav,,,,,,,,,,,,,,,,,,,,,,,,,,,,,,,,,,,,,,,,,,,,,,,,,,,,,
,,,,,825317,1,2024-07-12_17h38.05.351,experiment,2024.1.5,Win32,60.60606061,6691931c2c63981b064e1f0c,6691b01af6ae03b54151c384,,,,,,,,,,,,,,,,,,,,,,,,,,,,,,,,,,,,,,,,,,,,,,,,,,,,,,,,,,,,709.7723,717.3662,0.193518533,0.188888868,1.0,0.0,0.0,1.5836,compass,0.0,18.0,18.0,32.0,1.0,SoundStimuli/HeatWaves_GlassAnimals_Cover5S.wav,,,,,,,,,,,,,,,,,,,,,,,,,,,,,,,,,,,,,,,,,,,,,,,,,,,,,
,,,,,825317,1,2024-07-12_17h38.05.351,experiment,2024.1.5,Win32,60.60606061,6691931c2c63981b064e1f0c,6691b01af6ae03b54151c384,,,,,,,,,,,,,,,,,,,,,,,,,,,,,,,,,,,,,,,,,,,,,,,,,,,,,,,,,,,,717.3718,724.4999,0.101851852,-0.046296296,1.0,0.0,0.0,1.117,compass,0.0,19.0,19.0,18.0,1.0,SoundStimuli/AnotherOneBitesTheDust_Queen_Cover5S.wav,,,,,,,,,,,,,,,,,,,,,,,,,,,,,,,,,,,,,,,,,,,,,,,,,,,,,
,,,,,825317,1,2024-07-12_17h38.05.351,experiment,2024.1.5,Win32,60.60606061,6691931c2c63981b064e1f0c,6691b01af6ae03b54151c384,,,,,,,,,,,,,,,,,,,,,,,,,,,,,,,,,,,,,,,,,,,,,,,,,,,,,,,,,,,,724.5061,731.4663,0.185185185,0.274999989,1.0,0.0,0.0,0.9498,compass,0.0,20.0,20.0,6.0,1.0,SoundStimuli/Levitating_DuaLipa_Original5S.wav,,,,,,,,,,,,,,,,,,,,,,,,,,,,,,,,,,,,,,,,,,,,,,,,,,,,,
,,,,,825317,1,2024-07-12_17h38.05.351,experiment,2024.1.5,Win32,60.60606061,6691931c2c63981b064e1f0c,6691b01af6ae03b54151c384,,,,,,,,,,,,,,,,,,,,,,,,,,,,,,,,,,,,,,,,,,,,,,,,,,,,,,,,,,,,731.4719,738.4159,0.131481524,-0.150000042,1.0,0.0,0.0,0.9336,compass,0.0,21.0,21.0,27.0,1.0,SoundStimuli/ShapeofYou_EdSheeran_Cover5S.wav,,,,,,,,,,,,,,,,,,,,,,,,,,,,,,,,,,,,,,,,,,,,,,,,,,,,,
,,,,,825317,1,2024-07-12_17h38.05.351,experiment,2024.1.5,Win32,60.60606061,6691931c2c63981b064e1f0c,6691b01af6ae03b54151c384,,,,,,,,,,,,,,,,,,,,,,,,,,,,,,,,,,,,,,,,,,,,,,,,,,,,,,,,,,,,738.4226,744.832,-0.218518504,0.262962959,1.0,0.0,0.0,0.3996,compass,0.0,22.0,22.0,25.0,1.0,SoundStimuli/Respect_ArethaFranklin_Cover5S.wav,,,,,,,,,,,,,,,,,,,,,,,,,,,,,,,,,,,,,,,,,,,,,,,,,,,,,
,,,,,825317,1,2024-07-12_17h38.05.351,experiment,2024.1.5,Win32,60.60606061,6691931c2c63981b064e1f0c,6691b01af6ae03b54151c384,,,,,,,,,,,,,,,,,,,,,,,,,,,,,,,,,,,,,,,,,,,,,,,,,,,,,,,,,,,,744.8377,752.732,0.05277782,0.035185178,1.0,0.0,0.0,1.8823,compass,0.0,23.0,23.0,14.0,1.0,SoundStimuli/BlindingLights_TheWeeknd_Cover5S.wav,,,,,,,,,,,,,,,,,,,,,,,,,,,,,,,,,,,,,,,,,,,,,,,,,,,,,
,,,,,825317,1,2024-07-12_17h38.05.351,experiment,2024.1.5,Win32,60.60606061,6691931c2c63981b064e1f0c,6691b01af6ae03b54151c384,,,,,,,,,,,,,,,,,,,,,,,,,,,,,,,,,,,,,,,,,,,,,,,,,,,,,,,,,,,,752.738,761.3986,-0.002777735,0.010185171,1.0,0.0,0.0,2.6501,compass,0.0,24.0,24.0,5.0,1.0,SoundStimuli/MyGirl_TheTemptations_Cover5S.wav,,,,,,,,,,,,,,,,,,,,,,,,,,,,,,,,,,,,,,,,,,,,,,,,,,,,,
,,,,,825317,1,2024-07-12_17h38.05.351,experiment,2024.1.5,Win32,60.60606061,6691931c2c63981b064e1f0c,6691b01af6ae03b54151c384,,,,,,,,,,,,,,,,,,,,,,,,,,,,,,,,,,,,,,,,,,,,,,,,,,,,,,,,,,,,761.4047,768.8656,0.05277782,0.057407414,1.0,0.0,0.0,1.4505,compass,0.0,25.0,25.0,0.0,1.0,SoundStimuli/StayinAlive_BeeGees_Cover5S.wav,,,,,,,,,,,,,,,,,,,,,,,,,,,,,,,,,,,,,,,,,,,,,,,,,,,,,
,,,,,825317,1,2024-07-12_17h38.05.351,experiment,2024.1.5,Win32,60.60606061,6691931c2c63981b064e1f0c,6691b01af6ae03b54151c384,,,,,,,,,,,,,,,,,,,,,,,,,,,,,,,,,,,,,,,,,,,,,,,,,,,,,,,,,,,,768.8718,775.4152,0.178703732,-0.146296325,1.0,0.0,0.0,0.5336,compass,0.0,26.0,26.0,22.0,1.0,SoundStimuli/RockWithYou_MichaelJackson_Cover5S.wav,,,,,,,,,,,,,,,,,,,,,,,,,,,,,,,,,,,,,,,,,,,,,,,,,,,,,
,,,,,825317,1,2024-07-12_17h38.05.351,experiment,2024.1.5,Win32,60.60606061,6691931c2c63981b064e1f0c,6691b01af6ae03b54151c384,,,,,,,,,,,,,,,,,,,,,,,,,,,,,,,,,,,,,,,,,,,,,,,,,,,,,,,,,,,,775.4218,782.2485,-0.166666667,-0.215740769,1.0,0.0,0.0,0.8168,compass,0.0,27.0,27.0,12.0,1.0,SoundStimuli/IWillAlwaysLoveYou_WhitneyHouston_Original5S.wav,,,,,,,,,,,,,,,,,,,,,,,,,,,,,,,,,,,,,,,,,,,,,,,,,,,,,
,,,,,825317,1,2024-07-12_17h38.05.351,experiment,2024.1.5,Win32,60.60606061,6691931c2c63981b064e1f0c,6691b01af6ae03b54151c384,,,,,,,,,,,,,,,,,,,,,,,,,,,,,,,,,,,,,,,,,,,,,,,,,,,,,,,,,,,,782.2552,789.0316,0.137037065,0.170370349,1.0,0.0,0.0,0.7659,compass,0.0,28.0,28.0,9.0,1.0,SoundStimuli/Despacito_LuisFonsiDaddyYankee_Original5S.wav,,,,,,,,,,,,,,,,,,,,,,,,,,,,,,,,,,,,,,,,,,,,,,,,,,,,,
,,,,,825317,1,2024-07-12_17h38.05.351,experiment,2024.1.5,Win32,60.60606061,6691931c2c63981b064e1f0c,6691b01af6ae03b54151c384,,,,,,,,,,,,,,,,,,,,,,,,,,,,,,,,,,,,,,,,,,,,,,,,,,,,,,,,,,,,789.0373,795.7985,0.275925954,0.303703697,1.0,0.0,0.0,0.7504,compass,0.0,29.0,29.0,24.0,1.0,SoundStimuli/UptownFunk_MarkRonson_Cover5S.wav,,,,,,,,,,,,,,,,,,,,,,,,,,,,,,,,,,,,,,,,,,,,,,,,,,,,,
,,,,,825317,1,2024-07-12_17h38.05.351,experiment,2024.1.5,Win32,60.60606061,6691931c2c63981b064e1f0c,6691b01af6ae03b54151c384,,,,,,,,,,,,,,,,,,,,,,,,,,,,,,,,,,,,,,,,,,,,,,,,,,,,,,,,,,,,795.8051,802.4484,0.150000042,0.152777778,1.0,0.0,0.0,0.6336,compass,0.0,30.0,30.0,11.0,1.0,SoundStimuli/Superstition_StevieWonder_Original5S.wav,,,,,,,,,,,,,,,,,,,,,,,,,,,,,,,,,,,,,,,,,,,,,,,,,,,,,
,,,,,825317,1,2024-07-12_17h38.05.351,experiment,2024.1.5,Win32,60.60606061,6691931c2c63981b064e1f0c,6691b01af6ae03b54151c384,,,,,,,,,,,,,,,,,,,,,,,,,,,,,,,,,,,,,,,,,,,,,,,,,,,,,,,,,,,,802.455,809.1983,0.291666667,0.312037026,1.0,0.0,0.0,0.7339,compass,0.0,31.0,31.0,20.0,1.0,SoundStimuli/HeyYa_Outkast_Original5S.wav,,,,,,,,,,,,,,,,,,,,,,,,,,,,,,,,,,,,,,,,,,,,,,,,,,,,,
,,,,,825317,1,2024-07-12_17h38.05.351,experiment,2024.1.5,Win32,60.60606061,6691931c2c63981b064e1f0c,6691b01af6ae03b54151c384,,,,,,,,,,,,,,,,,,,,,,,,,,,,,,,,,,,,,,,,,,,,,,,,,,,,,,,,,,,,809.2041,816.3809,0.106481481,-0.12037037,1.0,0.0,0.0,1.1666,compass,0.0,32.0,32.0,29.0,1.0,SoundStimuli/OldTownRoad_LilNasX_Cover5S.wav,,,,,,,,,,,,,,,,,,,,,,,,,,,,,,,,,,,,,,,,,,,,,,,,,,,,,
,,,,,825317,1,2024-07-12_17h38.05.351,experiment,2024.1.5,Win32,60.60606061,6691931c2c63981b064e1f0c,6691b01af6ae03b54151c384,,,,,,,,,,,,,,,,,,,,,,,,,,,,,,,,,,,,,,,,,,,,,,,,,,,,,,,,,,,,816.3876,824.1314,-0.061111097,-0.056481503,1.0,0.0,0.0,1.7335,compass,0.0,33.0,33.0,3.0,1.0,SoundStimuli/NoScrubs_TLC_Cover5S.wav,,,,,,,,,,,,,,,,,,,,,,,,,,,,,,,,,,,,,,,,,,,,,,,,,,,,,
,,,,,825317,1,2024-07-12_17h38.05.351,experiment,2024.1.5,Win32,60.60606061,6691931c2c63981b064e1f0c,6691b01af6ae03b54151c384,,,,,,,,,,,,,,,,,,,,,,,,,,,,,,,,,,,,,,,,,,,,,,,,,,,,,,,,,,,,824.1374,830.7147,-0.180555556,-0.217592593,1.0,0.0,0.0,0.5674,compass,0.0,34.0,34.0,33.0,1.0,SoundStimuli/StandByMe_BenEKing_Original5S.wav,,,,,,,,,,,,,,,,,,,,,,,,,,,,,,,,,,,,,,,,,,,,,,,,,,,,,
,,,,,825317,1,2024-07-12_17h38.05.351,experiment,2024.1.5,Win32,60.60606061,6691931c2c63981b064e1f0c,6691b01af6ae03b54151c384,,,,,,,,,,,,,,,,,,,,,,,,,,,,,,,,,,,,,,,,,,,,,,,,,,,,,,,,,,,,,,,,,,,,,,,,,,,830.7147,849.5138,space,18.7926,,849.5138,852.4308,right,2.9103,,0.0,1.0,1.0,1.0,1.0,block_order/blockC.xlsx,,,,,,,,,,,,,,,,,,,,,,,,,,,,,,,,,,,,,
,,,,,825317,1,2024-07-12_17h38.05.351,experiment,2024.1.5,Win32,60.60606061,6691931c2c63981b064e1f0c,6691b01af6ae03b54151c384,,,,,,,,,,,,,,,,,,,,,,,,,,,,,,,,,,,,,,,,,,,,,,,,,,,,,,,,,,,,852.4399,859.0137,-0.248148106,-0.249074088,1.0,0.0,0.0,0.5666,compass,0.0,0.0,0.0,28.0,1.0,SoundStimuli/IWantToHoldYourHand_TheBeatles_Cover5S.wav,,,,,,,,,,,,,,,,,,,,,,,,,,,,,,,,,,,,,,,,,,,,,,,,,,,,,
,,,,,825317,1,2024-07-12_17h38.05.351,experiment,2024.1.5,Win32,60.60606061,6691931c2c63981b064e1f0c,6691b01af6ae03b54151c384,,,,,,,,,,,,,,,,,,,,,,,,,,,,,,,,,,,,,,,,,,,,,,,,,,,,,,,,,,,,859.0199,866.3472,0.09629631,-0.191666709,1.0,0.0,0.0,1.3159,compass,0.0,1.0,1.0,29.0,1.0,SoundStimuli/BetteDavisEyes_KimCarnes_Cover5S.wav,,,,,,,,,,,,,,,,,,,,,,,,,,,,,,,,,,,,,,,,,,,,,,,,,,,,,
,,,,,825317,1,2024-07-12_17h38.05.351,experiment,2024.1.5,Win32,60.60606061,6691931c2c63981b064e1f0c,6691b01af6ae03b54151c384,,,,,,,,,,,,,,,,,,,,,,,,,,,,,,,,,,,,,,,,,,,,,,,,,,,,,,,,,,,,866.3666,872.8971,0.112963005,0.194444444,1.0,0.0,0.0,0.5163,compass,0.0,2.0,2.0,24.0,1.0,SoundStimuli/Kiss_Prince_Original5S.wav,,,,,,,,,,,,,,,,,,,,,,,,,,,,,,,,,,,,,,,,,,,,,,,,,,,,,
,,,,,825317,1,2024-07-12_17h38.05.351,experiment,2024.1.5,Win32,60.60606061,6691931c2c63981b064e1f0c,6691b01af6ae03b54151c384,,,,,,,,,,,,,,,,,,,,,,,,,,,,,,,,,,,,,,,,,,,,,,,,,,,,,,,,,,,,872.9032,880.3299,0.050925926,0.055555556,1.0,0.0,0.0,1.4167,compass,0.0,3.0,3.0,4.0,1.0,SoundStimuli/Dreams_FleetwoodMac_Cover5S.wav,,,,,,,,,,,,,,,,,,,,,,,,,,,,,,,,,,,,,,,,,,,,,,,,,,,,,
,,,,,825317,1,2024-07-12_17h38.05.351,experiment,2024.1.5,Win32,60.60606061,6691931c2c63981b064e1f0c,6691b01af6ae03b54151c384,,,,,,,,,,,,,,,,,,,,,,,,,,,,,,,,,,,,,,,,,,,,,,,,,,,,,,,,,,,,880.3362,889.3296,-0.010185171,0.023148148,1.0,0.0,0.0,2.9824,compass,0.0,4.0,4.0,33.0,1.0,SoundStimuli/TheBoyIsMine_BrandyMonica_Cover5S.wav,,,,,,,,,,,,,,,,,,,,,,,,,,,,,,,,,,,,,,,,,,,,,,,,,,,,,
,,,,,825317,1,2024-07-12_17h38.05.351,experiment,2024.1.5,Win32,60.60606061,6691931c2c63981b064e1f0c,6691b01af6ae03b54151c384,,,,,,,,,,,,,,,,,,,,,,,,,,,,,,,,,,,,,,,,,,,,,,,,,,,,,,,,,,,,889.336,896.5462,0.05277782,-0.028703725,1.0,0.0,0.0,1.1996,compass,0.0,5.0,5.0,14.0,1.0,SoundStimuli/LikeARollingStone_BobDylan_Cover5S.wav,,,,,,,,,,,,,,,,,,,,,,,,,,,,,,,,,,,,,,,,,,,,,,,,,,,,,
,,,,,825317,1,2024-07-12_17h38.05.351,experiment,2024.1.5,Win32,60.60606061,6691931c2c63981b064e1f0c,6691b01af6ae03b54151c384,,,,,,,,,,,,,,,,,,,,,,,,,,,,,,,,,,,,,,,,,,,,,,,,,,,,,,,,,,,,896.555,903.2293,-0.167592578,-0.17777782,1.0,0.0,0.0,0.6658,compass,0.0,6.0,6.0,9.0,1.0,SoundStimuli/HowDoILive_LeAnnRimes_Original5S.wav,,,,,,,,,,,,,,,,,,,,,,,,,,,,,,,,,,,,,,,,,,,,,,,,,,,,,
,,,,,825317,1,2024-07-12_17h38.05.351,experiment,2024.1.5,Win32,60.60606061,6691931c2c63981b064e1f0c,6691b01af6ae03b54151c384,,,,,,,,,,,,,,,,,,,,,,,,,,,,,,,,,,,,,,,,,,,,,,,,,,,,,,,,,,,,903.2353,910.5958,-0.065740727,0.093518504,1.0,0.0,0.0,1.3495,compass,0.0,7.0,7.0,1.0,1.0,SoundStimuli/Smooth_SantanaRobThomas_Cover5S.wav,,,,,,,,,,,,,,,,,,,,,,,,,,,,,,,,,,,,,,,,,,,,,,,,,,,,,
,,,,,825317,1,2024-07-12_17h38.05.351,experiment,2024.1.5,Win32,60.60606061,6691931c2c63981b064e1f0c,6691b01af6ae03b54151c384,,,,,,,,,,,,,,,,,,,,,,,,,,,,,,,,,,,,,,,,,,,,,,,,,,,,,,,,,,,,910.6021,917.0626,0.106481481,0.135185171,1.0,0.0,0.0,0.4501,compass,0.0,8.0,8.0,11.0,1.0,SoundStimuli/BlurredLines_RobinThicke_Original5S.wav,,,,,,,,,,,,,,,,,,,,,,,,,,,,,,,,,,,,,,,,,,,,,,,,,,,,,
,,,,,825317,1,2024-07-12_17h38.05.351,experiment,2024.1.5,Win32,60.60606061,6691931c2c63981b064e1f0c,6691b01af6ae03b54151c384,,,,,,,,,,,,,,,,,,,,,,,,,,,,,,,,,,,,,,,,,,,,,,,,,,,,,,,,,,,,917.0682,924.3959,0.07222225,0.053703697,1.0,0.0,0.0,1.3164,compass,0.0,9.0,9.0,25.0,1.0,SoundStimuli/IllMakeLoveToYou_BoyzIIMen_Original5S.wav,,,,,,,,,,,,,,,,,,,,,,,,,,,,,,,,,,,,,,,,,,,,,,,,,,,,,
,,,,,825317,1,2024-07-12_17h38.05.351,experiment,2024.1.5,Win32,60.60606061,6691931c2c63981b064e1f0c,6691b01af6ae03b54151c384,,,,,,,,,,,,,,,,,,,,,,,,,,,,,,,,,,,,,,,,,,,,,,,,,,,,,,,,,,,,924.402,931.0957,0.092592593,-0.111111111,1.0,0.0,0.0,0.6838,compass,0.0,10.0,10.0,18.0,1.0,SoundStimuli/Weak_SWV_Original5S.wav,,,,,,,,,,,,,,,,,,,,,,,,,,,,,,,,,,,,,,,,,,,,,,,,,,,,,
,,,,,825317,1,2024-07-12_17h38.05.351,experiment,2024.1.5,Win32,60.60606061,6691931c2c63981b064e1f0c,6691b01af6ae03b54151c384,,,,,,,,,,,,,,,,,,,,,,,,,,,,,,,,,,,,,,,,,,,,,,,,,,,,,,,,,,,,931.1021,937.7794,0.185185185,-0.20648151,1.0,0.0,0.0,0.6671,compass,0.0,11.0,11.0,21.0,1.0,SoundStimuli/BridgeOverTroubledWater_SimonAndGarfunkel_Cover5S.wav,,,,,,,,,,,,,,,,,,,,,,,,,,,,,,,,,,,,,,,,,,,,,,,,,,,,,
,,,,,825317,1,2024-07-12_17h38.05.351,experiment,2024.1.5,Win32,60.60606061,6691931c2c63981b064e1f0c,6691b01af6ae03b54151c384,,,,,,,,,,,,,,,,,,,,,,,,,,,,,,,,,,,,,,,,,,,,,,,,,,,,,,,,,,,,937.7866,945.5952,-0.035185143,-0.107407393,1.0,0.0,0.0,1.7996,compass,0.0,12.0,12.0,30.0,1.0,SoundStimuli/SomebodyThatIUsedtoKnow_Gotye_Cover5S.wav,,,,,,,,,,,,,,,,,,,,,,,,,,,,,,,,,,,,,,,,,,,,,,,,,,,,,
,,,,,825317,1,2024-07-12_17h38.05.351,experiment,2024.1.5,Win32,60.60606061,6691931c2c63981b064e1f0c,6691b01af6ae03b54151c384,,,,,,,,,,,,,,,,,,,,,,,,,,,,,,,,,,,,,,,,,,,,,,,,,,,,,,,,,,,,945.6023,953.8451,-0.02407406,-0.069444444,1.0,0.0,0.0,2.2334,compass,0.0,13.0,13.0,19.0,1.0,SoundStimuli/YouLightUpMyLife_DebbyBoone_Cover5S.wav,,,,,,,,,,,,,,,,,,,,,,,,,,,,,,,,,,,,,,,,,,,,,,,,,,,,,
,,,,,825317,1,2024-07-12_17h38.05.351,experiment,2024.1.5,Win32,60.60606061,6691931c2c63981b064e1f0c,6691b01af6ae03b54151c384,,,,,,,,,,,,,,,,,,,,,,,,,,,,,,,,,,,,,,,,,,,,,,,,,,,,,,,,,,,,953.8525,960.6618,-0.094444416,0.154629637,1.0,0.0,0.0,0.8001,compass,0.0,14.0,14.0,2.0,1.0,SoundStimuli/SmellsLikeTeenSpirit_Nirvana_Cover5S.wav,,,,,,,,,,,,,,,,,,,,,,,,,,,,,,,,,,,,,,,,,,,,,,,,,,,,,
,,,,,825317,1,2024-07-12_17h38.05.351,experiment,2024.1.5,Win32,60.60606061,6691931c2c63981b064e1f0c,6691b01af6ae03b54151c384,,,,,,,,,,,,,,,,,,,,,,,,,,,,,,,,,,,,,,,,,,,,,,,,,,,,,,,,,,,,960.6674,969.5949,0.002777806,-0.001851859,1.0,0.0,0.0,2.9168,compass,0.0,15.0,15.0,0.0,1.0,SoundStimuli/GimmeShelter_RollingStones_Cover5S.wav,,,,,,,,,,,,,,,,,,,,,,,,,,,,,,,,,,,,,,,,,,,,,,,,,,,,,
,,,,,825317,1,2024-07-12_17h38.05.351,experiment,2024.1.5,Win32,60.60606061,6691931c2c63981b064e1f0c,6691b01af6ae03b54151c384,,,,,,,,,,,,,,,,,,,,,,,,,,,,,,,,,,,,,,,,,,,,,,,,,,,,,,,,,,,,969.6015,978.4283,0.042592578,0.032407407,1.0,0.0,0.0,2.8167,compass,0.0,16.0,16.0,20.0,1.0,SoundStimuli/FlashdanceWhatAFeeling_IreneCara_Cover5S.wav,,,,,,,,,,,,,,,,,,,,,,,,,,,,,,,,,,,,,,,,,,,,,,,,,,,,,
,,,,,825317,1,2024-07-12_17h38.05.351,experiment,2024.1.5,Win32,60.60606061,6691931c2c63981b064e1f0c,6691b01af6ae03b54151c384,,,,,,,,,,,,,,,,,,,,,,,,,,,,,,,,,,,,,,,,,,,,,,,,,,,,,,,,,,,,978.4344,985.1944,0.132407436,0.137962942,1.0,0.0,0.0,0.7491,compass,0.0,17.0,17.0,10.0,1.0,SoundStimuli/LeFreak_Chic_Original5S.wav,,,,,,,,,,,,,,,,,,,,,,,,,,,,,,,,,,,,,,,,,,,,,,,,,,,,,
,,,,,825317,1,2024-07-12_17h38.05.351,experiment,2024.1.5,Win32,60.60606061,6691931c2c63981b064e1f0c,6691b01af6ae03b54151c384,,,,,,,,,,,,,,,,,,,,,,,,,,,,,,,,,,,,,,,,,,,,,,,,,,,,,,,,,,,,985.2002,993.3444,-0.086111069,0.180555556,1.0,0.0,0.0,2.1332,compass,0.0,18.0,18.0,27.0,1.0,SoundStimuli/EyeOfTheTiger_Survivor_Original5S.wav,,,,,,,,,,,,,,,,,,,,,,,,,,,,,,,,,,,,,,,,,,,,,,,,,,,,,
,,,,,825317,1,2024-07-12_17h38.05.351,experiment,2024.1.5,Win32,60.60606061,6691931c2c63981b064e1f0c,6691b01af6ae03b54151c384,,,,,,,,,,,,,,,,,,,,,,,,,,,,,,,,,,,,,,,,,,,,,,,,,,,,,,,,,,,,993.3525,999.6777,0.009259259,0.012962942,1.0,0.0,0.0,0.3163,compass,0.0,19.0,19.0,12.0,1.0,SoundStimuli/UnbreakMyHeart_ToniBraxton_Cover5S.wav,,,,,,,,,,,,,,,,,,,,,,,,,,,,,,,,,,,,,,,,,,,,,,,,,,,,,
,,,,,825317,1,2024-07-12_17h38.05.351,experiment,2024.1.5,Win32,60.60606061,6691931c2c63981b064e1f0c,6691b01af6ae03b54151c384,,,,,,,,,,,,,,,,,,,,,,,,,,,,,,,,,,,,,,,,,,,,,,,,,,,,,,,,,,,,999.6851,1006.8276,0.179629644,0.172222208,1.0,0.0,0.0,1.1331,compass,0.0,20.0,20.0,6.0,1.0,SoundStimuli/SaveYourTears_TheWeekndArianaGrande_Original5S.wav,,,,,,,,,,,,,,,,,,,,,,,,,,,,,,,,,,,,,,,,,,,,,,,,,,,,,
,,,,,825317,1,2024-07-12_17h38.05.351,experiment,2024.1.5,Win32,60.60606061,6691931c2c63981b064e1f0c,6691b01af6ae03b54151c384,,,,,,,,,,,,,,,,,,,,,,,,,,,,,,,,,,,,,,,,,,,,,,,,,,,,,,,,,,,,1006.8335,1013.9941,0.170370384,0.16574072,1.0,0.0,0.0,1.1496,compass,0.0,21.0,21.0,3.0,1.0,SoundStimuli/PartyRockAnthem_LMFAO_Cover5S.wav,,,,,,,,,,,,,,,,,,,,,,,,,,,,,,,,,,,,,,,,,,,,,,,,,,,,,
,,,,,825317,1,2024-07-12_17h38.05.351,experiment,2024.1.5,Win32,60.60606061,6691931c2c63981b064e1f0c,6691b01af6ae03b54151c384,,,,,,,,,,,,,,,,,,,,,,,,,,,,,,,,,,,,,,,,,,,,,,,,,,,,,,,,,,,,1014.0005,1020.5279,0.173148191,-0.212962963,1.0,0.0,0.0,0.5171,compass,0.0,22.0,22.0,17.0,1.0,SoundStimuli/IWannaDanceWithSomebody_WhitneyHouston_Cover5S.wav,,,,,,,,,,,,,,,,,,,,,,,,,,,,,,,,,,,,,,,,,,,,,,,,,,,,,
,,,,,825317,1,2024-07-12_17h38.05.351,experiment,2024.1.5,Win32,60.60606061,6691931c2c63981b064e1f0c,6691b01af6ae03b54151c384,,,,,,,,,,,,,,,,,,,,,,,,,,,,,,,,,,,,,,,,,,,,,,,,,,,,,,,,,,,,1020.5341,1028.477,0.087037051,-0.18240745,1.0,0.0,0.0,1.9331,compass,0.0,23.0,23.0,13.0,1.0,SoundStimuli/Perfect_EdSheeran_Original5S.wav,,,,,,,,,,,,,,,,,,,,,,,,,,,,,,,,,,,,,,,,,,,,,,,,,,,,,
,,,,,825317,1,2024-07-12_17h38.05.351,experiment,2024.1.5,Win32,60.60606061,6691931c2c63981b064e1f0c,6691b01af6ae03b54151c384,,,,,,,,,,,,,,,,,,,,,,,,,,,,,,,,,,,,,,,,,,,,,,,,,,,,,,,,,,,,1028.4841,1035.0103,0.109259288,0.109259252,1.0,0.0,0.0,0.5163,compass,0.0,24.0,24.0,15.0,1.0,SoundStimuli/CrazyInLove_BeyonceFtJayZ_Original5S.wav,,,,,,,,,,,,,,,,,,,,,,,,,,,,,,,,,,,,,,,,,,,,,,,,,,,,,
,,,,,825317,1,2024-07-12_17h38.05.351,experiment,2024.1.5,Win32,60.60606061,6691931c2c63981b064e1f0c,6691b01af6ae03b54151c384,,,,,,,,,,,,,,,,,,,,,,,,,,,,,,,,,,,,,,,,,,,,,,,,,,,,,,,,,,,,1035.0161,1041.81,0.20185188,0.188888868,1.0,0.0,0.0,0.7833,compass,0.0,25.0,25.0,22.0,1.0,SoundStimuli/Happy_PharellWilliams_Cover5S.wav,,,,,,,,,,,,,,,,,,,,,,,,,,,,,,,,,,,,,,,,,,,,,,,,,,,,,
,,,,,825317,1,2024-07-12_17h38.05.351,experiment,2024.1.5,Win32,60.60606061,6691931c2c63981b064e1f0c,6691b01af6ae03b54151c384,,,,,,,,,,,,,,,,,,,,,,,,,,,,,,,,,,,,,,,,,,,,,,,,,,,,,,,,,,,,1041.8184,1048.277,-0.022222236,0.030555548,1.0,0.0,0.0,0.4501,compass,0.0,26.0,26.0,31.0,1.0,SoundStimuli/TossinAndTurnin_BobbyLewis_Cover5S.wav,,,,,,,,,,,,,,,,,,,,,,,,,,,,,,,,,,,,,,,,,,,,,,,,,,,,,
,,,,,825317,1,2024-07-12_17h38.05.351,experiment,2024.1.5,Win32,60.60606061,6691931c2c63981b064e1f0c,6691b01af6ae03b54151c384,,,,,,,,,,,,,,,,,,,,,,,,,,,,,,,,,,,,,,,,,,,,,,,,,,,,,,,,,,,,1048.2832,1054.3099,0.041666667,0.034259266,1.0,0.0,0.0,0.0166,compass,0.0,27.0,27.0,5.0,1.0,SoundStimuli/JoyToTheWorld_ThreeDogNight_Cover5S.wav,,,,,,,,,,,,,,,,,,,,,,,,,,,,,,,,,,,,,,,,,,,,,,,,,,,,,
,,,,,825317,1,2024-07-12_17h38.05.351,experiment,2024.1.5,Win32,60.60606061,6691931c2c63981b064e1f0c,6691b01af6ae03b54151c384,,,,,,,,,,,,,,,,,,,,,,,,,,,,,,,,,,,,,,,,,,,,,,,,,,,,,,,,,,,,1054.3163,1061.0598,0.185185185,0.180555556,1.0,0.0,0.0,0.7332,compass,0.0,28.0,28.0,26.0,1.0,SoundStimuli/TheSign_AceOfBase_Original5S.wav,,,,,,,,,,,,,,,,,,,,,,,,,,,,,,,,,,,,,,,,,,,,,,,,,,,,,
,,,,,825317,1,2024-07-12_17h38.05.351,experiment,2024.1.5,Win32,60.60606061,6691931c2c63981b064e1f0c,6691b01af6ae03b54151c384,,,,,,,,,,,,,,,,,,,,,,,,,,,,,,,,,,,,,,,,,,,,,,,,,,,,,,,,,,,,1061.066,1070.1433,0.058333362,-0.23055557,1.0,0.0,0.0,3.0671,compass,0.0,29.0,29.0,23.0,1.0,SoundStimuli/IWalkTheLine_JohnnyCash_Cover5S.wav,,,,,,,,,,,,,,,,,,,,,,,,,,,,,,,,,,,,,,,,,,,,,,,,,,,,,
,,,,,825317,1,2024-07-12_17h38.05.351,experiment,2024.1.5,Win32,60.60606061,6691931c2c63981b064e1f0c,6691b01af6ae03b54151c384,,,,,,,,,,,,,,,,,,,,,,,,,,,,,,,,,,,,,,,,,,,,,,,,,,,,,,,,,,,,1070.1504,1076.4931,0.136111153,-0.163888931,1.0,0.0,0.0,0.3333,compass,0.0,30.0,30.0,32.0,1.0,SoundStimuli/Dilemma_NellyKellyRowland_Original5S.wav,,,,,,,,,,,,,,,,,,,,,,,,,,,,,,,,,,,,,,,,,,,,,,,,,,,,,
,,,,,825317,1,2024-07-12_17h38.05.351,experiment,2024.1.5,Win32,60.60606061,6691931c2c63981b064e1f0c,6691b01af6ae03b54151c384,,,,,,,,,,,,,,,,,,,,,,,,,,,,,,,,,,,,,,,,,,,,,,,,,,,,,,,,,,,,1076.4985,1082.9925,0.07685188,0.047222208,1.0,0.0,0.0,0.483,compass,0.0,31.0,31.0,34.0,1.0,SoundStimuli/Irreplaceable_Beyonce_Original5S.wav,,,,,,,,,,,,,,,,,,,,,,,,,,,,,,,,,,,,,,,,,,,,,,,,,,,,,
,,,,,825317,1,2024-07-12_17h38.05.351,experiment,2024.1.5,Win32,60.60606061,6691931c2c63981b064e1f0c,6691b01af6ae03b54151c384,,,,,,,,,,,,,,,,,,,,,,,,,,,,,,,,,,,,,,,,,,,,,,,,,,,,,,,,,,,,1082.9988,1089.5924,-0.124074088,-0.126851894,1.0,0.0,0.0,0.5829,compass,0.0,32.0,32.0,8.0,1.0,SoundStimuli/EndlessLove_DianaRossLionelRichie_Original5S.wav,,,,,,,,,,,,,,,,,,,,,,,,,,,,,,,,,,,,,,,,,,,,,,,,,,,,,
,,,,,825317,1,2024-07-12_17h38.05.351,experiment,2024.1.5,Win32,60.60606061,6691931c2c63981b064e1f0c,6691b01af6ae03b54151c384,,,,,,,,,,,,,,,,,,,,,,,,,,,,,,,,,,,,,,,,,,,,,,,,,,,,,,,,,,,,1089.5981,1096.2596,0.162962949,-0.022222236,1.0,0.0,0.0,0.6502,compass,0.0,33.0,33.0,7.0,1.0,SoundStimuli/MackTheKnife_BobbyDarin_Original5S.wav,,,,,,,,,,,,,,,,,,,,,,,,,,,,,,,,,,,,,,,,,,,,,,,,,,,,,
,,,,,825317,1,2024-07-12_17h38.05.351,experiment,2024.1.5,Win32,60.60606061,6691931c2c63981b064e1f0c,6691b01af6ae03b54151c384,,,,,,,,,,,,,,,,,,,,,,,,,,,,,,,,,,,,,,,,,,,,,,,,,,,,,,,,,,,,1096.266,1103.1757,0.123148176,-0.022222236,1.0,0.0,0.0,0.8992,compass,0.0,34.0,34.0,16.0,1.0,SoundStimuli/ItsAllInTheGame_TommyEdwards_Original5S.wav,,,,,,,,,,,,,,,,,,,,,,,,,,,,,,,,,,,,,,,,,,,,,,,,,,,,,
,,,,,825317,1,2024-07-12_17h38.05.351,experiment,2024.1.5,Win32,60.60606061,6691931c2c63981b064e1f0c,6691b01af6ae03b54151c384,,,,,,,,,,,,,,,,,,,,,,,,,,,,,,,,,,,,,,,,,,,,,,,,,,,,,,,,,,,,,,,,,,,,,,,,,,,1103.1758,1120.7591,space,17.5703,,1120.7591,1126.242,right,5.4746,,0.0,2.0,2.0,2.0,1.0,block_order/blockB.xlsx,,,,,,,,,,,,,,,,,,,,,,,,,,,,,,,,,,,,,
,,,,,825317,1,2024-07-12_17h38.05.351,experiment,2024.1.5,Win32,60.60606061,6691931c2c63981b064e1f0c,6691b01af6ae03b54151c384,,,,,,,,,,,,,,,,,,,,,,,,,,,,,,,,,,,,,,,,,,,,,,,,,,,,,,,,,,,,1126.251,1133.1086,0.038888931,-0.015740748,1.0,0.0,0.0,0.85,compass,0.0,0.0,0.0,17.0,1.0,SoundStimuli/Fallin_AliciaKeys_Original5S.wav,,,,,,,,,,,,,,,,,,,,,,,,,,,,,,,,,,,,,,,,,,,,,,,,,,,,,
,,,,,825317,1,2024-07-12_17h38.05.351,experiment,2024.1.5,Win32,60.60606061,6691931c2c63981b064e1f0c,6691b01af6ae03b54151c384,,,,,,,,,,,,,,,,,,,,,,,,,,,,,,,,,,,,,,,,,,,,,,,,,,,,,,,,,,,,1133.1144,1139.7082,-0.184259273,-0.175925926,1.0,0.0,0.0,0.5831,compass,0.0,1.0,1.0,10.0,1.0,SoundStimuli/BadDay_DanielPowter_Cover5S.wav,,,,,,,,,,,,,,,,,,,,,,,,,,,,,,,,,,,,,,,,,,,,,,,,,,,,,
,,,,,825317,1,2024-07-12_17h38.05.351,experiment,2024.1.5,Win32,60.60606061,6691931c2c63981b064e1f0c,6691b01af6ae03b54151c384,,,,,,,,,,,,,,,,,,,,,,,,,,,,,,,,,,,,,,,,,,,,,,,,,,,,,,,,,,,,1139.7138,1146.3084,0.155555584,0.16111109,1.0,0.0,0.0,0.5832,compass,0.0,2.0,2.0,7.0,1.0,SoundStimuli/NoOne_AliciaKeys_Cover5S.wav,,,,,,,,,,,,,,,,,,,,,,,,,,,,,,,,,,,,,,,,,,,,,,,,,,,,,
,,,,,825317,1,2024-07-12_17h38.05.351,experiment,2024.1.5,Win32,60.60606061,6691931c2c63981b064e1f0c,6691b01af6ae03b54151c384,,,,,,,,,,,,,,,,,,,,,,,,,,,,,,,,,,,,,,,,,,,,,,,,,,,,,,,,,,,,1146.3142,1153.325,0.148148148,-0.158333319,1.0,0.0,0.0,0.9997,compass,0.0,3.0,3.0,2.0,1.0,SoundStimuli/Mood_24kGoldnianndior_Cover5S.wav,,,,,,,,,,,,,,,,,,,,,,,,,,,,,,,,,,,,,,,,,,,,,,,,,,,,,
,,,,,825317,1,2024-07-12_17h38.05.351,experiment,2024.1.5,Win32,60.60606061,6691931c2c63981b064e1f0c,6691b01af6ae03b54151c384,,,,,,,,,,,,,,,,,,,,,,,,,,,,,,,,,,,,,,,,,,,,,,,,,,,,,,,,,,,,1153.3304,1160.675,0.035185213,-0.025925919,1.0,0.0,0.0,1.3335,compass,0.0,4.0,4.0,20.0,1.0,SoundStimuli/HeyYa_Outkast_Cover5S.wav,,,,,,,,,,,,,,,,,,,,,,,,,,,,,,,,,,,,,,,,,,,,,,,,,,,,,
,,,,,825317,1,2024-07-12_17h38.05.351,experiment,2024.1.5,Win32,60.60606061,6691931c2c63981b064e1f0c,6691b01af6ae03b54151c384,,,,,,,,,,,,,,,,,,,,,,,,,,,,,,,,,,,,,,,,,,,,,,,,,,,,,,,,,,,,1160.6809,1168.091,0.162037037,0.223148152,1.0,0.0,0.0,1.3996,compass,0.0,5.0,5.0,30.0,1.0,SoundStimuli/PokerFace_LadyGaga_Original5S.wav,,,,,,,,,,,,,,,,,,,,,,,,,,,,,,,,,,,,,,,,,,,,,,,,,,,,,
,,,,,825317,1,2024-07-12_17h38.05.351,experiment,2024.1.5,Win32,60.60606061,6691931c2c63981b064e1f0c,6691b01af6ae03b54151c384,,,,,,,,,,,,,,,,,,,,,,,,,,,,,,,,,,,,,,,,,,,,,,,,,,,,,,,,,,,,1168.1,1175.7084,0.092592593,0.034259266,1.0,0.0,0.0,1.6004,compass,0.0,6.0,6.0,25.0,1.0,SoundStimuli/Respect_ArethaFranklin_Original5S.wav,,,,,,,,,,,,,,,,,,,,,,,,,,,,,,,,,,,,,,,,,,,,,,,,,,,,,
,,,,,825317,1,2024-07-12_17h38.05.351,experiment,2024.1.5,Win32,60.60606061,6691931c2c63981b064e1f0c,6691b01af6ae03b54151c384,,,,,,,,,,,,,,,,,,,,,,,,,,,,,,,,,,,,,,,,,,,,,,,,,,,,,,,,,,,,1175.7233,1182.4912,0.155555584,0.140740748,1.0,0.0,0.0,0.7663,compass,0.0,7.0,7.0,24.0,1.0,SoundStimuli/UptownFunk_MarkRonson_Original5S.wav,,,,,,,,,,,,,,,,,,,,,,,,,,,,,,,,,,,,,,,,,,,,,,,,,,,,,
,,,,,825317,1,2024-07-12_17h38.05.351,experiment,2024.1.5,Win32,60.60606061,6691931c2c63981b064e1f0c,6691b01af6ae03b54151c384,,,,,,,,,,,,,,,,,,,,,,,,,,,,,,,,,,,,,,,,,,,,,,,,,,,,,,,,,,,,1182.4967,1189.8909,0.163888931,-0.087962963,1.0,0.0,0.0,1.3828,compass,0.0,8.0,8.0,13.0,1.0,SoundStimuli/GodOnlyKnows_TheBeachBoys_Cover5S.wav,,,,,,,,,,,,,,,,,,,,,,,,,,,,,,,,,,,,,,,,,,,,,,,,,,,,,
,,,,,825317,1,2024-07-12_17h38.05.351,experiment,2024.1.5,Win32,60.60606061,6691931c2c63981b064e1f0c,6691b01af6ae03b54151c384,,,,,,,,,,,,,,,,,,,,,,,,,,,,,,,,,,,,,,,,,,,,,,,,,,,,,,,,,,,,1189.8972,1196.8244,0.157407407,0.174074067,1.0,0.0,0.0,0.9169,compass,0.0,9.0,9.0,29.0,1.0,SoundStimuli/OldTownRoad_LilNasX_Original5S.wav,,,,,,,,,,,,,,,,,,,,,,,,,,,,,,,,,,,,,,,,,,,,,,,,,,,,,
,,,,,825317,1,2024-07-12_17h38.05.351,experiment,2024.1.5,Win32,60.60606061,6691931c2c63981b064e1f0c,6691b01af6ae03b54151c384,,,,,,,,,,,,,,,,,,,,,,,,,,,,,,,,,,,,,,,,,,,,,,,,,,,,,,,,,,,,1196.8323,1204.324,0.136111153,-0.115740741,1.0,0.0,0.0,1.4831,compass,0.0,10.0,10.0,26.0,1.0,SoundStimuli/LivinOnAPrayer_BonJovi_Cover5S.wav,,,,,,,,,,,,,,,,,,,,,,,,,,,,,,,,,,,,,,,,,,,,,,,,,,,,,
,,,,,825317,1,2024-07-12_17h38.05.351,experiment,2024.1.5,Win32,60.60606061,6691931c2c63981b064e1f0c,6691b01af6ae03b54151c384,,,,,,,,,,,,,,,,,,,,,,,,,,,,,,,,,,,,,,,,,,,,,,,,,,,,,,,,,,,,1204.3306,1211.141,0.20185188,0.191666674,1.0,0.0,0.0,0.8006,compass,0.0,11.0,11.0,5.0,1.0,SoundStimuli/MyGirl_TheTemptations_Original5S.wav,,,,,,,,,,,,,,,,,,,,,,,,,,,,,,,,,,,,,,,,,,,,,,,,,,,,,
,,,,,825317,1,2024-07-12_17h38.05.351,experiment,2024.1.5,Win32,60.60606061,6691931c2c63981b064e1f0c,6691b01af6ae03b54151c384,,,,,,,,,,,,,,,,,,,,,,,,,,,,,,,,,,,,,,,,,,,,,,,,,,,,,,,,,,,,1211.1468,1217.6248,0.20185188,0.191666674,1.0,0.0,0.0,0.4672,compass,0.0,12.0,12.0,14.0,1.0,SoundStimuli/BlindingLights_TheWeeknd_Original5S.wav,,,,,,,,,,,,,,,,,,,,,,,,,,,,,,,,,,,,,,,,,,,,,,,,,,,,,
,,,,,825317,1,2024-07-12_17h38.05.351,experiment,2024.1.5,Win32,60.60606061,6691931c2c63981b064e1f0c,6691b01af6ae03b54151c384,,,,,,,,,,,,,,,,,,,,,,,,,,,,,,,,,,,,,,,,,,,,,,,,,,,,,,,,,,,,1217.6408,1223.8071,0.150925954,0.133333312,1.0,0.0,0.0,0.1503,compass,0.0,13.0,13.0,11.0,1.0,SoundStimuli/Superstition_StevieWonder_Cover5S.wav,,,,,,,,,,,,,,,,,,,,,,,,,,,,,,,,,,,,,,,,,,,,,,,,,,,,,
,,,,,825317,1,2024-07-12_17h38.05.351,experiment,2024.1.5,Win32,60.60606061,6691931c2c63981b064e1f0c,6691b01af6ae03b54151c384,,,,,,,,,,,,,,,,,,,,,,,,,,,,,,,,,,,,,,,,,,,,,,,,,,,,,,,,,,,,1223.8132,1230.5071,0.109259288,-0.086111104,1.0,0.0,0.0,0.6832,compass,0.0,14.0,14.0,22.0,1.0,SoundStimuli/RockWithYou_MichaelJackson_Original5S.wav,,,,,,,,,,,,,,,,,,,,,,,,,,,,,,,,,,,,,,,,,,,,,,,,,,,,,
,,,,,825317,1,2024-07-12_17h38.05.351,experiment,2024.1.5,Win32,60.60606061,6691931c2c63981b064e1f0c,6691b01af6ae03b54151c384,,,,,,,,,,,,,,,,,,,,,,,,,,,,,,,,,,,,,,,,,,,,,,,,,,,,,,,,,,,,1230.5129,1239.9567,0.029629672,-0.027777778,1.0,0.0,0.0,3.4335,compass,0.0,15.0,15.0,15.0,1.0,SoundStimuli/TikTok_Kesha_Cover5S.wav,,,,,,,,,,,,,,,,,,,,,,,,,,,,,,,,,,,,,,,,,,,,,,,,,,,,,
,,,,,825317,1,2024-07-12_17h38.05.351,experiment,2024.1.5,Win32,60.60606061,6691931c2c63981b064e1f0c,6691b01af6ae03b54151c384,,,,,,,,,,,,,,,,,,,,,,,,,,,,,,,,,,,,,,,,,,,,,,,,,,,,,,,,,,,,1239.9651,1247.7062,-0.041666667,0.080555563,1.0,0.0,0.0,1.7333,compass,0.0,16.0,16.0,6.0,1.0,SoundStimuli/Levitating_DuaLipa_Cover5S.wav,,,,,,,,,,,,,,,,,,,,,,,,,,,,,,,,,,,,,,,,,,,,,,,,,,,,,
,,,,,825317,1,2024-07-12_17h38.05.351,experiment,2024.1.5,Win32,60.60606061,6691931c2c63981b064e1f0c,6691b01af6ae03b54151c384,,,,,,,,,,,,,,,,,,,,,,,,,,,,,,,,,,,,,,,,,,,,,,,,,,,,,,,,,,,,1247.7127,1254.9561,0.185185185,0.162037037,1.0,0.0,0.0,1.233,compass,0.0,17.0,17.0,18.0,1.0,SoundStimuli/AnotherOneBitesTheDust_Queen_Original5S.wav,,,,,,,,,,,,,,,,,,,,,,,,,,,,,,,,,,,,,,,,,,,,,,,,,,,,,
,,,,,825317,1,2024-07-12_17h38.05.351,experiment,2024.1.5,Win32,60.60606061,6691931c2c63981b064e1f0c,6691b01af6ae03b54151c384,,,,,,,,,,,,,,,,,,,,,,,,,,,,,,,,,,,,,,,,,,,,,,,,,,,,,,,,,,,,1254.9627,1264.8061,-0.020370342,-0.283333319,1.0,0.0,0.0,3.8337,compass,0.0,18.0,18.0,31.0,1.0,SoundStimuli/TheBattleOfNewOrleans_JohnnyHorton_Cover5S.wav,,,,,,,,,,,,,,,,,,,,,,,,,,,,,,,,,,,,,,,,,,,,,,,,,,,,,
,,,,,825317,1,2024-07-12_17h38.05.351,experiment,2024.1.5,Win32,60.60606061,6691931c2c63981b064e1f0c,6691b01af6ae03b54151c384,,,,,,,,,,,,,,,,,,,,,,,,,,,,,,,,,,,,,,,,,,,,,,,,,,,,,,,,,,,,1264.8122,1272.0395,0.131481524,0.114814794,1.0,0.0,0.0,1.2168,compass,0.0,19.0,19.0,1.0,1.0,SoundStimuli/Stronger_KanyeWest_Original5S.wav,,,,,,,,,,,,,,,,,,,,,,,,,,,,,,,,,,,,,,,,,,,,,,,,,,,,,
,,,,,825317,1,2024-07-12_17h38.05.351,experiment,2024.1.5,Win32,60.60606061,6691931c2c63981b064e1f0c,6691b01af6ae03b54151c384,,,,,,,,,,,,,,,,,,,,,,,,,,,,,,,,,,,,,,,,,,,,,,,,,,,,,,,,,,,,1272.0452,1278.789,0.123148176,0.116666653,1.0,0.0,0.0,0.7329,compass,0.0,20.0,20.0,4.0,1.0,SoundStimuli/GetUrFreakOn_MissyElliot_Original5S.wav,,,,,,,,,,,,,,,,,,,,,,,,,,,,,,,,,,,,,,,,,,,,,,,,,,,,,
,,,,,825317,1,2024-07-12_17h38.05.351,experiment,2024.1.5,Win32,60.60606061,6691931c2c63981b064e1f0c,6691b01af6ae03b54151c384,,,,,,,,,,,,,,,,,,,,,,,,,,,,,,,,,,,,,,,,,,,,,,,,,,,,,,,,,,,,1278.7956,1285.7389,0.123148176,0.116666653,1.0,0.0,0.0,0.9334,compass,0.0,21.0,21.0,0.0,1.0,SoundStimuli/StayinAlive_BeeGees_Original5S.wav,,,,,,,,,,,,,,,,,,,,,,,,,,,,,,,,,,,,,,,,,,,,,,,,,,,,,
,,,,,825317,1,2024-07-12_17h38.05.351,experiment,2024.1.5,Win32,60.60606061,6691931c2c63981b064e1f0c,6691b01af6ae03b54151c384,,,,,,,,,,,,,,,,,,,,,,,,,,,,,,,,,,,,,,,,,,,,,,,,,,,,,,,,,,,,1285.7449,1293.6894,0.167592578,0.185185185,1.0,0.0,0.0,1.9334,compass,0.0,22.0,22.0,3.0,1.0,SoundStimuli/NoScrubs_TLC_Original5S.wav,,,,,,,,,,,,,,,,,,,,,,,,,,,,,,,,,,,,,,,,,,,,,,,,,,,,,
,,,,,825317,1,2024-07-12_17h38.05.351,experiment,2024.1.5,Win32,60.60606061,6691931c2c63981b064e1f0c,6691b01af6ae03b54151c384,,,,,,,,,,,,,,,,,,,,,,,,,,,,,,,,,,,,,,,,,,,,,,,,,,,,,,,,,,,,1293.7049,1303.3224,0.095370399,-0.106481481,1.0,0.0,0.0,3.6165,compass,0.0,23.0,23.0,33.0,1.0,SoundStimuli/StandByMe_BenEKing_Cover5S.wav,,,,,,,,,,,,,,,,,,,,,,,,,,,,,,,,,,,,,,,,,,,,,,,,,,,,,
,,,,,825317,1,2024-07-12_17h38.05.351,experiment,2024.1.5,Win32,60.60606061,6691931c2c63981b064e1f0c,6691b01af6ae03b54151c384,,,,,,,,,,,,,,,,,,,,,,,,,,,,,,,,,,,,,,,,,,,,,,,,,,,,,,,,,,,,1303.3281,1312.9391,0.027777778,0.025925919,1.0,0.0,0.0,3.6001,compass,0.0,24.0,24.0,21.0,1.0,SoundStimuli/GoodGollyMissMolly_LittleRichard_Cover5S.wav,,,,,,,,,,,,,,,,,,,,,,,,,,,,,,,,,,,,,,,,,,,,,,,,,,,,,
,,,,,825317,1,2024-07-12_17h38.05.351,experiment,2024.1.5,Win32,60.60606061,6691931c2c63981b064e1f0c,6691b01af6ae03b54151c384,,,,,,,,,,,,,,,,,,,,,,,,,,,,,,,,,,,,,,,,,,,,,,,,,,,,,,,,,,,,1312.9455,1319.8883,0.095370399,-0.152777778,1.0,0.0,0.0,0.9327,compass,0.0,25.0,25.0,23.0,1.0,SoundStimuli/StrawberryFieldsForever_TheBeatles_Original5S.wav,,,,,,,,,,,,,,,,,,,,,,,,,,,,,,,,,,,,,,,,,,,,,,,,,,,,,
,,,,,825317,1,2024-07-12_17h38.05.351,experiment,2024.1.5,Win32,60.60606061,6691931c2c63981b064e1f0c,6691b01af6ae03b54151c384,,,,,,,,,,,,,,,,,,,,,,,,,,,,,,,,,,,,,,,,,,,,,,,,,,,,,,,,,,,,1319.8952,1326.5881,0.148148148,0.151851831,1.0,0.0,0.0,0.683,compass,0.0,26.0,26.0,32.0,1.0,SoundStimuli/HeatWaves_GlassAnimals_Original5S.wav,,,,,,,,,,,,,,,,,,,,,,,,,,,,,,,,,,,,,,,,,,,,,,,,,,,,,
,,,,,825317,1,2024-07-12_17h38.05.351,experiment,2024.1.5,Win32,60.60606061,6691931c2c63981b064e1f0c,6691b01af6ae03b54151c384,,,,,,,,,,,,,,,,,,,,,,,,,,,,,,,,,,,,,,,,,,,,,,,,,,,,,,,,,,,,1326.5941,1333.2383,0.165740755,0.276851848,1.0,0.0,0.0,0.6331,compass,0.0,27.0,27.0,27.0,1.0,SoundStimuli/ShapeofYou_EdSheeran_Original5S.wav,,,,,,,,,,,,,,,,,,,,,,,,,,,,,,,,,,,,,,,,,,,,,,,,,,,,,
,,,,,825317,1,2024-07-12_17h38.05.351,experiment,2024.1.5,Win32,60.60606061,6691931c2c63981b064e1f0c,6691b01af6ae03b54151c384,,,,,,,,,,,,,,,,,,,,,,,,,,,,,,,,,,,,,,,,,,,,,,,,,,,,,,,,,,,,1333.2438,1339.9717,0.111111111,0.087962963,1.0,0.0,0.0,0.7173,compass,0.0,28.0,28.0,8.0,1.0,SoundStimuli/LikeAPrayer_Madonna_Original5S.wav,,,,,,,,,,,,,,,,,,,,,,,,,,,,,,,,,,,,,,,,,,,,,,,,,,,,,
,,,,,825317,1,2024-07-12_17h38.05.351,experiment,2024.1.5,Win32,60.60606061,6691931c2c63981b064e1f0c,6691b01af6ae03b54151c384,,,,,,,,,,,,,,,,,,,,,,,,,,,,,,,,,,,,,,,,,,,,,,,,,,,,,,,,,,,,1339.9774,1346.4714,-0.029629601,-0.033333355,1.0,0.0,0.0,0.4833,compass,0.0,29.0,29.0,12.0,1.0,SoundStimuli/IWillAlwaysLoveYou_WhitneyHouston_Cover5S.wav,,,,,,,,,,,,,,,,,,,,,,,,,,,,,,,,,,,,,,,,,,,,,,,,,,,,,
,,,,,825317,1,2024-07-12_17h38.05.351,experiment,2024.1.5,Win32,60.60606061,6691931c2c63981b064e1f0c,6691b01af6ae03b54151c384,,,,,,,,,,,,,,,,,,,,,,,,,,,,,,,,,,,,,,,,,,,,,,,,,,,,,,,,,,,,1346.4769,1353.7879,0.093518504,0.045370349,1.0,0.0,0.0,1.3002,compass,0.0,30.0,30.0,9.0,1.0,SoundStimuli/Despacito_LuisFonsiDaddyYankee_Cover5S.wav,,,,,,,,,,,,,,,,,,,,,,,,,,,,,,,,,,,,,,,,,,,,,,,,,,,,,
,,,,,825317,1,2024-07-12_17h38.05.351,experiment,2024.1.5,Win32,60.60606061,6691931c2c63981b064e1f0c,6691b01af6ae03b54151c384,,,,,,,,,,,,,,,,,,,,,,,,,,,,,,,,,,,,,,,,,,,,,,,,,,,,,,,,,,,,1353.7938,1361.2711,-0.186111097,0.034259266,1.0,0.0,0.0,1.4668,compass,0.0,31.0,31.0,16.0,1.0,SoundStimuli/BohemianRhapsody_Queen_Original5S.wav,,,,,,,,,,,,,,,,,,,,,,,,,,,,,,,,,,,,,,,,,,,,,,,,,,,,,
,,,,,825317,1,2024-07-12_17h38.05.351,experiment,2024.1.5,Win32,60.60606061,6691931c2c63981b064e1f0c,6691b01af6ae03b54151c384,,,,,,,,,,,,,,,,,,,,,,,,,,,,,,,,,,,,,,,,,,,,,,,,,,,,,,,,,,,,1361.2767,1370.2375,0.10092594,0.15648146,1.0,0.0,0.0,2.95,compass,0.0,32.0,32.0,28.0,1.0,SoundStimuli/ComeAndGetYourLove_Redbone_Original5S.wav,,,,,,,,,,,,,,,,,,,,,,,,,,,,,,,,,,,,,,,,,,,,,,,,,,,,,
,,,,,825317,1,2024-07-12_17h38.05.351,experiment,2024.1.5,Win32,60.60606061,6691931c2c63981b064e1f0c,6691b01af6ae03b54151c384,,,,,,,,,,,,,,,,,,,,,,,,,,,,,,,,,,,,,,,,,,,,,,,,,,,,,,,,,,,,1370.2434,1377.1709,-0.030555513,0.200925933,1.0,0.0,0.0,0.9168,compass,0.0,33.0,33.0,34.0,1.0,SoundStimuli/AChangeIsGonnaCome_SamCooke_Cover5S.wav,,,,,,,,,,,,,,,,,,,,,,,,,,,,,,,,,,,,,,,,,,,,,,,,,,,,,
,,,,,825317,1,2024-07-12_17h38.05.351,experiment,2024.1.5,Win32,60.60606061,6691931c2c63981b064e1f0c,6691b01af6ae03b54151c384,,,,,,,,,,,,,,,,,,,,,,,,,,,,,,,,,,,,,,,,,,,,,,,,,,,,,,,,,,,,1377.1764,1384.104,0.084259245,-0.212037051,1.0,0.0,0.0,0.9164,compass,0.0,34.0,34.0,19.0,1.0,SoundStimuli/LetsGetItOn_MarvinGaye_Cover5S.wav,,,,,,,,,,,,,,,,,,,,,,,,,,,,,,,,,,,,,,,,,,,,,,,,,,,,,
,,,,,825317,1,2024-07-12_17h38.05.351,experiment,2024.1.5,Win32,60.60606061,6691931c2c63981b064e1f0c,6691b01af6ae03b54151c384,,,,,,,,,,,,,,,,,,,,,,,,,,,,,,,,,,,,,,,,,,,,,,,,,,,,,,,,,,,,,,,,,,,,,,,,,,,1384.1041,1384.1041,,,,1384.1041,1384.1041,,,,0.0,3.0,3.0,3.0,1.0,block_order/blockA.xlsx,,,,,,,,,,,,,,,,,,,,,,,,,,,,,,,,,,,,,
,,,,,825317,1,2024-07-12_17h38.05.351,experiment,2024.1.5,Win32,60.60606061,6691931c2c63981b064e1f0c,6691b01af6ae03b54151c384,,,,,,,,,,,,,,,,,,,,,,,,,,,,,,,,,,,,,,,,,,,,,,,,,,,,,,,,,,,,,,,,,,,,,,,,,,,,,,,,,,,,,,,,,,,20.0,Item 3,"Flute player from 12-18 in high school band (marching and concert band), community band, and symphony. Alto saxophone player from 14-16 in jazz and pep band in high school. Baritone saxophone player from 16-18 in jazz and pep band in high school.",Item 4,Spotify and YouTube,6.0,7.0,"Driving, exercising, working, hanging out with friends, and doing chores.",Always,Rarely,Rarely,Never,Never,Never,Never,Sometimes,Sometimes,Rarely,Never,Never,Never,Never,Rarely,Always,,Indie/folk,Pop,Jazz,I've better found what I like and I've stuck with it rather than just listening to what those around me like.,,0.0,0.0,0.0,0.0,1.0,,
,,,,,825317,1,2024-07-12_17h38.05.351,experiment,2024.1.5,Win32,60.60606061,6691931c2c63981b064e1f0c,6691b01af6ae03b54151c384,,,,,,,,,,,,,,,,,,,,,,,,,,,,,,,,,,,,,,,,,,,,,,,,,,,,,,,,,,,,,,,,,,,,,,,,,,,,,,,,,,,,,,,,,,,,,,,,,,,,,,,,,,,,,,,,,,,,,,,,,,,,,,1695.0457,1697.2328
