welcome.started,welcome.stopped,space_to_continue.keys,space_to_continue.rt,space_to_continue.duration,participant,session,date,expName,psychopyVersion,OS,frameRate,STUDY_ID,SESSION_ID,consent.consent,consent.consent_recontact,consent_check.started,consent_check.stopped,calibration_ready.started,calibration_ready.stopped,cal_ready.keys,cal_ready.rt,cal_ready.duration,calibration.started,calibration.stopped,mouse.x,mouse.y,mouse.leftButton,mouse.midButton,mouse.rightButton,mouse.time,mouse.clicked_name,move_on.keys,move_on.rt,move_on.duration,run_cal.thisRepN,run_cal.thisTrialN,run_cal.thisN,run_cal.thisIndex,run_cal.ran,emotion_training_ready.started,emotion_training_ready.stopped,training_move_on.keys,training_move_on.rt,training_move_on.duration,examples.started,examples.stopped,emotion_scale.started,emotion_scale.stopped,scale_next.keys,scale_next.rt,scale_next.duration,instructions.started,instructions.stopped,next.keys,next.rt,next.duration,practice_task.started,practice_task.stopped,mouse_rating_2.x,mouse_rating_2.y,mouse_rating_2.leftButton,mouse_rating_2.midButton,mouse_rating_2.rightButton,mouse_rating_2.time,mouse_rating_2.clicked_name,ready.started,ready.stopped,key_resp.keys,key_resp.rt,key_resp.duration,set_group.started,set_group.stopped,task.started,task.stopped,mouse_rating.x,mouse_rating.y,mouse_rating.leftButton,mouse_rating.midButton,mouse_rating.rightButton,mouse_rating.time,mouse_rating.clicked_name,trials.thisRepN,trials.thisTrialN,trials.thisN,trials.thisIndex,trials.ran,clip,short_break.started,short_break.stopped,space_to_move_on.keys,space_to_move_on.rt,space_to_move_on.duration,instruction_reminder.started,instruction_reminder.stopped,reminder_move_on.keys,reminder_move_on.rt,reminder_move_on.duration,blocks.thisRepN,blocks.thisTrialN,blocks.thisN,blocks.thisIndex,blocks.ran,block,post_survey.age,post_survey.musician,post_survey.music_making,post_survey.listen_time,post_survey.medium,post_survey.music_seeking,post_survey.music_choice,post_survey.activities,post_survey.question1.Disco,post_survey.question1.Folk/indie,post_survey.question1.Latin,post_survey.question1.Classical,post_survey.question1.Pop,post_survey.question1.A cappella,post_survey.question1.R&B,post_survey.question1.Alternative rock,post_survey.question1.Ambient,post_survey.question1.Jazz,post_survey.question1.Metal,post_survey.question1.Hip hop,post_survey.question1.Classic rock,post_survey.question1.Country,post_survey.question1.Electronic (EDM),post_survey.question1.Reggae,post_survey.other_genres,post_survey.genres_ranked.text1,post_survey.genres_ranked.text2,post_survey.genres_ranked.text3,post_survey.habit_change,post_survey.habits,show_exp.thisRepN,show_exp.thisTrialN,show_exp.thisN,show_exp.thisIndex,show_exp.ran,goodbye.started,goodbye.stopped
0.0002,1.3521,space,1.3478,,851807,1,2024-07-12_18h28.28.695,experiment,2024.1.5,MacIntel,59.88023952,6691931c2c63981b064e1f0c,6691adde6d14fd83c2a18c22,,,,,,,,,,,,,,,,,,,,,,,,,,,,,,,,,,,,,,,,,,,,,,,,,,,,,,,,,,,,,,,,,,,,,,,,,,,,,,,,,,,,,,,,,,,,,,,,,,,,,,,,,,,,,,,,,,,,,,,,,,,,,,,
,,,,,851807,1,2024-07-12_18h28.28.695,experiment,2024.1.5,MacIntel,59.88023952,6691931c2c63981b064e1f0c,6691adde6d14fd83c2a18c22,yes,yes,,,,,,,,,,,,,,,,,,,,,,,,,,,,,,,,,,,,,,,,,,,,,,,,,,,,,,,,,,,,,,,,,,,,,,,,,,,,,,,,,,,,,,,,,,,,,,,,,,,,,,,,,,,,,,,,,,,,,,,,,,,,,
,,,,,851807,1,2024-07-12_18h28.28.695,experiment,2024.1.5,MacIntel,59.88023952,6691931c2c63981b064e1f0c,6691adde6d14fd83c2a18c22,,,19.8463,19.8464,,,,,,,,,,,,,,,,,,,,,,,,,,,,,,,,,,,,,,,,,,,,,,,,,,,,,,,,,,,,,,,,,,,,,,,,,,,,,,,,,,,,,,,,,,,,,,,,,,,,,,,,,,,,,,,,,,,,,,,,,,,
,,,,,851807,1,2024-07-12_18h28.28.695,experiment,2024.1.5,MacIntel,59.88023952,6691931c2c63981b064e1f0c,6691adde6d14fd83c2a18c22,,,,,19.8478,23.1009,space,3.2487,,23.1014,37.1123,[-0.005685763888888889],[-0.4123350694444444],[1],[0],[0],[2.2694999999999936],"[""play_button""]",y,12.995,,0.0,0.0,0.0,0.0,1.0,,,,,,,,,,,,,,,,,,,,,,,,,,,,,,,,,,,,,,,,,,,,,,,,,,,,,,,,,,,,,,,,,,,,,,,,,,,,,,,,,,,,,,,,,,,,,,,,,,,,,
,,,,,851807,1,2024-07-12_18h28.28.695,experiment,2024.1.5,MacIntel,59.88023952,6691931c2c63981b064e1f0c,6691adde6d14fd83c2a18c22,,,,,,,,,,,,,,,,,,,,,,,,,,,37.1126,57.5866,space,20.4682,,57.5866,177.5896,177.5898,186.8901,right,5.7869,,186.8901,193.6178,space,6.7215,,193.6179,203.6696,0.171241319,-0.177061632,1.0,0.0,0.0,4.0369,compass_2,203.6697,205.0444,space,1.3731,,205.0445,205.0498,205.0615,214.1919,0.054796007,0.072057292,1.0,0.0,0.0,3.1185,compass,0.0,0.0,0.0,31.0,1.0,SoundStimuli/TheBattleOfNewOrleans_JohnnyHorton_Original5S.wav,,,,,,,,,,,,,,,,,,,,,,,,,,,,,,,,,,,,,,,,,,,,,,,,,,,,,
,,,,,851807,1,2024-07-12_18h28.28.695,experiment,2024.1.5,MacIntel,59.88023952,6691931c2c63981b064e1f0c,6691adde6d14fd83c2a18c22,,,,,,,,,,,,,,,,,,,,,,,,,,,,,,,,,,,,,,,,,,,,,,,,,,,,,,,,,,,,214.1978,222.6058,0.204166667,0.040837674,1.0,0.0,0.0,2.3898,compass,0.0,1.0,1.0,30.0,1.0,SoundStimuli/PokerFace_LadyGaga_Cover5S.wav,,,,,,,,,,,,,,,,,,,,,,,,,,,,,,,,,,,,,,,,,,,,,,,,,,,,,
,,,,,851807,1,2024-07-12_18h28.28.695,experiment,2024.1.5,MacIntel,59.88023952,6691931c2c63981b064e1f0c,6691adde6d14fd83c2a18c22,,,,,,,,,,,,,,,,,,,,,,,,,,,,,,,,,,,,,,,,,,,,,,,,,,,,,,,,,,,,222.6115,229.4071,0.090737847,0.237430556,1.0,0.0,0.0,0.7881,compass,0.0,2.0,2.0,4.0,1.0,SoundStimuli/GetUrFreakOn_MissyElliot_Cover5S.wav,,,,,,,,,,,,,,,,,,,,,,,,,,,,,,,,,,,,,,,,,,,,,,,,,,,,,
,,,,,851807,1,2024-07-12_18h28.28.695,experiment,2024.1.5,MacIntel,59.88023952,6691931c2c63981b064e1f0c,6691adde6d14fd83c2a18c22,,,,,,,,,,,,,,,,,,,,,,,,,,,,,,,,,,,,,,,,,,,,,,,,,,,,,,,,,,,,229.4128,238.0313,0.24656684,0.030555556,1.0,0.0,0.0,2.6171,compass,0.0,3.0,3.0,13.0,1.0,SoundStimuli/GodOnlyKnows_TheBeachBoys_Original5S.wav,,,,,,,,,,,,,,,,,,,,,,,,,,,,,,,,,,,,,,,,,,,,,,,,,,,,,
,,,,,851807,1,2024-07-12_18h28.28.695,experiment,2024.1.5,MacIntel,59.88023952,6691931c2c63981b064e1f0c,6691adde6d14fd83c2a18c22,,,,,,,,,,,,,,,,,,,,,,,,,,,,,,,,,,,,,,,,,,,,,,,,,,,,,,,,,,,,238.0371,244.5489,0.311436632,0.328159722,1.0,0.0,0.0,0.4974,compass,0.0,4.0,4.0,6.0,1.0,SoundStimuli/Levitating_DuaLipa_Original5S.wav,,,,,,,,,,,,,,,,,,,,,,,,,,,,,,,,,,,,,,,,,,,,,,,,,,,,,
,,,,,851807,1,2024-07-12_18h28.28.695,experiment,2024.1.5,MacIntel,59.88023952,6691931c2c63981b064e1f0c,6691adde6d14fd83c2a18c22,,,,,,,,,,,,,,,,,,,,,,,,,,,,,,,,,,,,,,,,,,,,,,,,,,,,,,,,,,,,244.5537,251.0297,0.050438368,0.110824653,1.0,0.0,0.0,0.4745,compass,0.0,5.0,5.0,12.0,1.0,SoundStimuli/IWillAlwaysLoveYou_WhitneyHouston_Original5S.wav,,,,,,,,,,,,,,,,,,,,,,,,,,,,,,,,,,,,,,,,,,,,,,,,,,,,,
,,,,,851807,1,2024-07-12_18h28.28.695,experiment,2024.1.5,MacIntel,59.88023952,6691931c2c63981b064e1f0c,6691adde6d14fd83c2a18c22,,,,,,,,,,,,,,,,,,,,,,,,,,,,,,,,,,,,,,,,,,,,,,,,,,,,,,,,,,,,251.0344,257.4269,0.044257813,-0.120143229,1.0,0.0,0.0,0.3796,compass,0.0,6.0,6.0,1.0,1.0,SoundStimuli/Stronger_KanyeWest_Cover5S.wav,,,,,,,,,,,,,,,,,,,,,,,,,,,,,,,,,,,,,,,,,,,,,,,,,,,,,
,,,,,851807,1,2024-07-12_18h28.28.695,experiment,2024.1.5,MacIntel,59.88023952,6691931c2c63981b064e1f0c,6691adde6d14fd83c2a18c22,,,,,,,,,,,,,,,,,,,,,,,,,,,,,,,,,,,,,,,,,,,,,,,,,,,,,,,,,,,,257.4317,263.7423,0.036345486,0.248259549,1.0,0.0,0.0,0.3079,compass,0.0,7.0,7.0,0.0,1.0,SoundStimuli/StayinAlive_BeeGees_Cover5S.wav,,,,,,,,,,,,,,,,,,,,,,,,,,,,,,,,,,,,,,,,,,,,,,,,,,,,,
,,,,,851807,1,2024-07-12_18h28.28.695,experiment,2024.1.5,MacIntel,59.88023952,6691931c2c63981b064e1f0c,6691adde6d14fd83c2a18c22,,,,,,,,,,,,,,,,,,,,,,,,,,,,,,,,,,,,,,,,,,,,,,,,,,,,,,,,,,,,263.7482,270.0705,0.169110243,0.203164062,1.0,0.0,0.0,0.308,compass,0.0,8.0,8.0,21.0,1.0,SoundStimuli/GoodGollyMissMolly_LittleRichard_Original5S.wav,,,,,,,,,,,,,,,,,,,,,,,,,,,,,,,,,,,,,,,,,,,,,,,,,,,,,
,,,,,851807,1,2024-07-12_18h28.28.695,experiment,2024.1.5,MacIntel,59.88023952,6691931c2c63981b064e1f0c,6691adde6d14fd83c2a18c22,,,,,,,,,,,,,,,,,,,,,,,,,,,,,,,,,,,,,,,,,,,,,,,,,,,,,,,,,,,,270.0751,278.0919,0.053311632,-0.057703993,1.0,0.0,0.0,2.0114,compass,0.0,9.0,9.0,14.0,1.0,SoundStimuli/BlindingLights_TheWeeknd_Cover5S.wav,,,,,,,,,,,,,,,,,,,,,,,,,,,,,,,,,,,,,,,,,,,,,,,,,,,,,
,,,,,851807,1,2024-07-12_18h28.28.695,experiment,2024.1.5,MacIntel,59.88023952,6691931c2c63981b064e1f0c,6691adde6d14fd83c2a18c22,,,,,,,,,,,,,,,,,,,,,,,,,,,,,,,,,,,,,,,,,,,,,,,,,,,,,,,,,,,,278.098,286.344,0.201649306,-0.241627604,1.0,0.0,0.0,2.2292,compass,0.0,10.0,10.0,34.0,1.0,SoundStimuli/AChangeIsGonnaCome_SamCooke_Original5S.wav,,,,,,,,,,,,,,,,,,,,,,,,,,,,,,,,,,,,,,,,,,,,,,,,,,,,,
,,,,,851807,1,2024-07-12_18h28.28.695,experiment,2024.1.5,MacIntel,59.88023952,6691931c2c63981b064e1f0c,6691adde6d14fd83c2a18c22,,,,,,,,,,,,,,,,,,,,,,,,,,,,,,,,,,,,,,,,,,,,,,,,,,,,,,,,,,,,286.349,293.0419,-0.092677951,0.193949653,1.0,0.0,0.0,0.6892,compass,0.0,11.0,11.0,25.0,1.0,SoundStimuli/Respect_ArethaFranklin_Cover5S.wav,,,,,,,,,,,,,,,,,,,,,,,,,,,,,,,,,,,,,,,,,,,,,,,,,,,,,
,,,,,851807,1,2024-07-12_18h28.28.695,experiment,2024.1.5,MacIntel,59.88023952,6691931c2c63981b064e1f0c,6691adde6d14fd83c2a18c22,,,,,,,,,,,,,,,,,,,,,,,,,,,,,,,,,,,,,,,,,,,,,,,,,,,,,,,,,,,,293.0465,300.19,0.268893229,-0.097374132,1.0,0.0,0.0,1.1416,compass,0.0,12.0,12.0,9.0,1.0,SoundStimuli/Despacito_LuisFonsiDaddyYankee_Original5S.wav,,,,,,,,,,,,,,,,,,,,,,,,,,,,,,,,,,,,,,,,,,,,,,,,,,,,,
,,,,,851807,1,2024-07-12_18h28.28.695,experiment,2024.1.5,MacIntel,59.88023952,6691931c2c63981b064e1f0c,6691adde6d14fd83c2a18c22,,,,,,,,,,,,,,,,,,,,,,,,,,,,,,,,,,,,,,,,,,,,,,,,,,,,,,,,,,,,300.195,306.5603,0.045564236,0.048893229,1.0,0.0,0.0,0.364,compass,0.0,13.0,13.0,17.0,1.0,SoundStimuli/Fallin_AliciaKeys_Cover5S.wav,,,,,,,,,,,,,,,,,,,,,,,,,,,,,,,,,,,,,,,,,,,,,,,,,,,,,
,,,,,851807,1,2024-07-12_18h28.28.695,experiment,2024.1.5,MacIntel,59.88023952,6691931c2c63981b064e1f0c,6691adde6d14fd83c2a18c22,,,,,,,,,,,,,,,,,,,,,,,,,,,,,,,,,,,,,,,,,,,,,,,,,,,,,,,,,,,,306.5651,314.6738,0.245321181,0.04796441,1.0,0.0,0.0,2.0906,compass,0.0,14.0,14.0,8.0,1.0,SoundStimuli/LikeAPrayer_Madonna_Cover5S.wav,,,,,,,,,,,,,,,,,,,,,,,,,,,,,,,,,,,,,,,,,,,,,,,,,,,,,
,,,,,851807,1,2024-07-12_18h28.28.695,experiment,2024.1.5,MacIntel,59.88023952,6691931c2c63981b064e1f0c,6691adde6d14fd83c2a18c22,,,,,,,,,,,,,,,,,,,,,,,,,,,,,,,,,,,,,,,,,,,,,,,,,,,,,,,,,,,,314.6787,320.9937,0.050837674,-0.122105035,1.0,0.0,0.0,0.3075,compass,0.0,15.0,15.0,27.0,1.0,SoundStimuli/ShapeofYou_EdSheeran_Cover5S.wav,,,,,,,,,,,,,,,,,,,,,,,,,,,,,,,,,,,,,,,,,,,,,,,,,,,,,
,,,,,851807,1,2024-07-12_18h28.28.695,experiment,2024.1.5,MacIntel,59.88023952,6691931c2c63981b064e1f0c,6691adde6d14fd83c2a18c22,,,,,,,,,,,,,,,,,,,,,,,,,,,,,,,,,,,,,,,,,,,,,,,,,,,,,,,,,,,,320.9986,327.7146,0.041540799,-0.080603299,1.0,0.0,0.0,0.7148,compass,0.0,16.0,16.0,29.0,1.0,SoundStimuli/OldTownRoad_LilNasX_Cover5S.wav,,,,,,,,,,,,,,,,,,,,,,,,,,,,,,,,,,,,,,,,,,,,,,,,,,,,,
,,,,,851807,1,2024-07-12_18h28.28.695,experiment,2024.1.5,MacIntel,59.88023952,6691931c2c63981b064e1f0c,6691adde6d14fd83c2a18c22,,,,,,,,,,,,,,,,,,,,,,,,,,,,,,,,,,,,,,,,,,,,,,,,,,,,,,,,,,,,327.7194,334.0467,0.271102431,0.292682292,1.0,0.0,0.0,0.3227,compass,0.0,17.0,17.0,15.0,1.0,SoundStimuli/TikTok_Kesha_Original5S.wav,,,,,,,,,,,,,,,,,,,,,,,,,,,,,,,,,,,,,,,,,,,,,,,,,,,,,
,,,,,851807,1,2024-07-12_18h28.28.695,experiment,2024.1.5,MacIntel,59.88023952,6691931c2c63981b064e1f0c,6691adde6d14fd83c2a18c22,,,,,,,,,,,,,,,,,,,,,,,,,,,,,,,,,,,,,,,,,,,,,,,,,,,,,,,,,,,,334.0517,340.6471,-0.051861979,-0.216306424,1.0,0.0,0.0,0.5872,compass,0.0,18.0,18.0,10.0,1.0,SoundStimuli/BadDay_DanielPowter_Original5S.wav,,,,,,,,,,,,,,,,,,,,,,,,,,,,,,,,,,,,,,,,,,,,,,,,,,,,,
,,,,,851807,1,2024-07-12_18h28.28.695,experiment,2024.1.5,MacIntel,59.88023952,6691931c2c63981b064e1f0c,6691adde6d14fd83c2a18c22,,,,,,,,,,,,,,,,,,,,,,,,,,,,,,,,,,,,,,,,,,,,,,,,,,,,,,,,,,,,340.6518,351.2896,0.168576389,0.078615451,1.0,0.0,0.0,4.6329,compass,0.0,19.0,19.0,32.0,1.0,SoundStimuli/HeatWaves_GlassAnimals_Cover5S.wav,,,,,,,,,,,,,,,,,,,,,,,,,,,,,,,,,,,,,,,,,,,,,,,,,,,,,
,,,,,851807,1,2024-07-12_18h28.28.695,experiment,2024.1.5,MacIntel,59.88023952,6691931c2c63981b064e1f0c,6691adde6d14fd83c2a18c22,,,,,,,,,,,,,,,,,,,,,,,,,,,,,,,,,,,,,,,,,,,,,,,,,,,,,,,,,,,,351.2945,357.6347,0.165529514,0.188532986,1.0,0.0,0.0,0.3393,compass,0.0,20.0,20.0,24.0,1.0,SoundStimuli/UptownFunk_MarkRonson_Cover5S.wav,,,,,,,,,,,,,,,,,,,,,,,,,,,,,,,,,,,,,,,,,,,,,,,,,,,,,
,,,,,851807,1,2024-07-12_18h28.28.695,experiment,2024.1.5,MacIntel,59.88023952,6691931c2c63981b064e1f0c,6691adde6d14fd83c2a18c22,,,,,,,,,,,,,,,,,,,,,,,,,,,,,,,,,,,,,,,,,,,,,,,,,,,,,,,,,,,,357.6394,365.7451,-0.001085069,0.000425347,1.0,0.0,0.0,2.0987,compass,0.0,21.0,21.0,22.0,1.0,SoundStimuli/RockWithYou_MichaelJackson_Cover5S.wav,,,,,,,,,,,,,,,,,,,,,,,,,,,,,,,,,,,,,,,,,,,,,,,,,,,,,
,,,,,851807,1,2024-07-12_18h28.28.695,experiment,2024.1.5,MacIntel,59.88023952,6691931c2c63981b064e1f0c,6691adde6d14fd83c2a18c22,,,,,,,,,,,,,,,,,,,,,,,,,,,,,,,,,,,,,,,,,,,,,,,,,,,,,,,,,,,,365.7501,374.0826,0.027894965,0.112161458,1.0,0.0,0.0,2.3242,compass,0.0,22.0,22.0,28.0,1.0,SoundStimuli/ComeAndGetYourLove_Redbone_Cover5S.wav,,,,,,,,,,,,,,,,,,,,,,,,,,,,,,,,,,,,,,,,,,,,,,,,,,,,,
,,,,,851807,1,2024-07-12_18h28.28.695,experiment,2024.1.5,MacIntel,59.88023952,6691931c2c63981b064e1f0c,6691adde6d14fd83c2a18c22,,,,,,,,,,,,,,,,,,,,,,,,,,,,,,,,,,,,,,,,,,,,,,,,,,,,,,,,,,,,374.0876,383.1334,0.022552083,0.298207465,1.0,0.0,0.0,3.0438,compass,0.0,23.0,23.0,11.0,1.0,SoundStimuli/Superstition_StevieWonder_Original5S.wav,,,,,,,,,,,,,,,,,,,,,,,,,,,,,,,,,,,,,,,,,,,,,,,,,,,,,
,,,,,851807,1,2024-07-12_18h28.28.695,experiment,2024.1.5,MacIntel,59.88023952,6691931c2c63981b064e1f0c,6691adde6d14fd83c2a18c22,,,,,,,,,,,,,,,,,,,,,,,,,,,,,,,,,,,,,,,,,,,,,,,,,,,,,,,,,,,,383.1382,389.5409,0.030564236,-0.120026042,1.0,0.0,0.0,0.3855,compass,0.0,24.0,24.0,18.0,1.0,SoundStimuli/AnotherOneBitesTheDust_Queen_Cover5S.wav,,,,,,,,,,,,,,,,,,,,,,,,,,,,,,,,,,,,,,,,,,,,,,,,,,,,,
,,,,,851807,1,2024-07-12_18h28.28.695,experiment,2024.1.5,MacIntel,59.88023952,6691931c2c63981b064e1f0c,6691adde6d14fd83c2a18c22,,,,,,,,,,,,,,,,,,,,,,,,,,,,,,,,,,,,,,,,,,,,,,,,,,,,,,,,,,,,389.5457,398.2529,0.069565972,0.178259549,1.0,0.0,0.0,2.6943,compass,0.0,25.0,25.0,7.0,1.0,SoundStimuli/NoOne_AliciaKeys_Original5S.wav,,,,,,,,,,,,,,,,,,,,,,,,,,,,,,,,,,,,,,,,,,,,,,,,,,,,,
,,,,,851807,1,2024-07-12_18h28.28.695,experiment,2024.1.5,MacIntel,59.88023952,6691931c2c63981b064e1f0c,6691adde6d14fd83c2a18c22,,,,,,,,,,,,,,,,,,,,,,,,,,,,,,,,,,,,,,,,,,,,,,,,,,,,,,,,,,,,398.258,404.5545,0.044787326,-0.146440972,1.0,0.0,0.0,0.2858,compass,0.0,26.0,26.0,2.0,1.0,SoundStimuli/Mood_24kGoldnianndior_Original5S.wav,,,,,,,,,,,,,,,,,,,,,,,,,,,,,,,,,,,,,,,,,,,,,,,,,,,,,
,,,,,851807,1,2024-07-12_18h28.28.695,experiment,2024.1.5,MacIntel,59.88023952,6691931c2c63981b064e1f0c,6691adde6d14fd83c2a18c22,,,,,,,,,,,,,,,,,,,,,,,,,,,,,,,,,,,,,,,,,,,,,,,,,,,,,,,,,,,,404.5594,410.8802,0.296848958,0.315269097,1.0,0.0,0.0,0.3068,compass,0.0,27.0,27.0,26.0,1.0,SoundStimuli/LivinOnAPrayer_BonJovi_Original5S.wav,,,,,,,,,,,,,,,,,,,,,,,,,,,,,,,,,,,,,,,,,,,,,,,,,,,,,
,,,,,851807,1,2024-07-12_18h28.28.695,experiment,2024.1.5,MacIntel,59.88023952,6691931c2c63981b064e1f0c,6691adde6d14fd83c2a18c22,,,,,,,,,,,,,,,,,,,,,,,,,,,,,,,,,,,,,,,,,,,,,,,,,,,,,,,,,,,,410.8848,417.4937,0.029791667,-0.241592882,1.0,0.0,0.0,0.5918,compass,0.0,28.0,28.0,19.0,1.0,SoundStimuli/LetsGetItOn_MarvinGaye_Original5S.wav,,,,,,,,,,,,,,,,,,,,,,,,,,,,,,,,,,,,,,,,,,,,,,,,,,,,,
,,,,,851807,1,2024-07-12_18h28.28.695,experiment,2024.1.5,MacIntel,59.88023952,6691931c2c63981b064e1f0c,6691adde6d14fd83c2a18c22,,,,,,,,,,,,,,,,,,,,,,,,,,,,,,,,,,,,,,,,,,,,,,,,,,,,,,,,,,,,417.4985,423.7988,0.244331597,-0.06983941,1.0,0.0,0.0,0.2909,compass,0.0,29.0,29.0,3.0,1.0,SoundStimuli/NoScrubs_TLC_Cover5S.wav,,,,,,,,,,,,,,,,,,,,,,,,,,,,,,,,,,,,,,,,,,,,,,,,,,,,,
,,,,,851807,1,2024-07-12_18h28.28.695,experiment,2024.1.5,MacIntel,59.88023952,6691931c2c63981b064e1f0c,6691adde6d14fd83c2a18c22,,,,,,,,,,,,,,,,,,,,,,,,,,,,,,,,,,,,,,,,,,,,,,,,,,,,,,,,,,,,423.8035,434.2465,0.155512153,0.191532118,1.0,0.0,0.0,4.4338,compass,0.0,30.0,30.0,16.0,1.0,SoundStimuli/BohemianRhapsody_Queen_Cover5S.wav,,,,,,,,,,,,,,,,,,,,,,,,,,,,,,,,,,,,,,,,,,,,,,,,,,,,,
,,,,,851807,1,2024-07-12_18h28.28.695,experiment,2024.1.5,MacIntel,59.88023952,6691931c2c63981b064e1f0c,6691adde6d14fd83c2a18c22,,,,,,,,,,,,,,,,,,,,,,,,,,,,,,,,,,,,,,,,,,,,,,,,,,,,,,,,,,,,434.2513,440.7534,0.160021701,0.197278646,1.0,0.0,0.0,0.4822,compass,0.0,31.0,31.0,20.0,1.0,SoundStimuli/HeyYa_Outkast_Original5S.wav,,,,,,,,,,,,,,,,,,,,,,,,,,,,,,,,,,,,,,,,,,,,,,,,,,,,,
,,,,,851807,1,2024-07-12_18h28.28.695,experiment,2024.1.5,MacIntel,59.88023952,6691931c2c63981b064e1f0c,6691adde6d14fd83c2a18c22,,,,,,,,,,,,,,,,,,,,,,,,,,,,,,,,,,,,,,,,,,,,,,,,,,,,,,,,,,,,440.7584,447.347,-0.045078125,0.248311632,1.0,0.0,0.0,0.581,compass,0.0,32.0,32.0,23.0,1.0,SoundStimuli/StrawberryFieldsForever_TheBeatles_Cover5S.wav,,,,,,,,,,,,,,,,,,,,,,,,,,,,,,,,,,,,,,,,,,,,,,,,,,,,,
,,,,,851807,1,2024-07-12_18h28.28.695,experiment,2024.1.5,MacIntel,59.88023952,6691931c2c63981b064e1f0c,6691adde6d14fd83c2a18c22,,,,,,,,,,,,,,,,,,,,,,,,,,,,,,,,,,,,,,,,,,,,,,,,,,,,,,,,,,,,447.3516,455.1184,0.027894965,-0.077447917,1.0,0.0,0.0,1.7506,compass,0.0,33.0,33.0,33.0,1.0,SoundStimuli/StandByMe_BenEKing_Original5S.wav,,,,,,,,,,,,,,,,,,,,,,,,,,,,,,,,,,,,,,,,,,,,,,,,,,,,,
,,,,,851807,1,2024-07-12_18h28.28.695,experiment,2024.1.5,MacIntel,59.88023952,6691931c2c63981b064e1f0c,6691adde6d14fd83c2a18c22,,,,,,,,,,,,,,,,,,,,,,,,,,,,,,,,,,,,,,,,,,,,,,,,,,,,,,,,,,,,455.1234,464.0776,0.02733941,-0.077447917,1.0,0.0,0.0,2.9531,compass,0.0,34.0,34.0,5.0,1.0,SoundStimuli/MyGirl_TheTemptations_Cover5S.wav,,,,,,,,,,,,,,,,,,,,,,,,,,,,,,,,,,,,,,,,,,,,,,,,,,,,,
,,,,,851807,1,2024-07-12_18h28.28.695,experiment,2024.1.5,MacIntel,59.88023952,6691931c2c63981b064e1f0c,6691adde6d14fd83c2a18c22,,,,,,,,,,,,,,,,,,,,,,,,,,,,,,,,,,,,,,,,,,,,,,,,,,,,,,,,,,,,,,,,,,,,,,,,,,,464.0828,517.0963,space,53.0111,,517.0963,523.3378,right,6.2391,,0.0,0.0,0.0,0.0,1.0,block_order/blockC.xlsx,,,,,,,,,,,,,,,,,,,,,,,,,,,,,,,,,,,,,
,,,,,851807,1,2024-07-12_18h28.28.695,experiment,2024.1.5,MacIntel,59.88023952,6691931c2c63981b064e1f0c,6691adde6d14fd83c2a18c22,,,,,,,,,,,,,,,,,,,,,,,,,,,,,,,,,,,,,,,,,,,,,,,,,,,,,,,,,,,,523.3469,530.9986,-0.087222222,-0.143151042,1.0,0.0,0.0,1.6334,compass,0.0,0.0,0.0,8.0,1.0,SoundStimuli/EndlessLove_DianaRossLionelRichie_Original5S.wav,,,,,,,,,,,,,,,,,,,,,,,,,,,,,,,,,,,,,,,,,,,,,,,,,,,,,
,,,,,851807,1,2024-07-12_18h28.28.695,experiment,2024.1.5,MacIntel,59.88023952,6691931c2c63981b064e1f0c,6691adde6d14fd83c2a18c22,,,,,,,,,,,,,,,,,,,,,,,,,,,,,,,,,,,,,,,,,,,,,,,,,,,,,,,,,,,,531.0034,538.0501,0.2346875,0.217369792,1.0,0.0,0.0,1.0444,compass,0.0,1.0,1.0,27.0,1.0,SoundStimuli/EyeOfTheTiger_Survivor_Original5S.wav,,,,,,,,,,,,,,,,,,,,,,,,,,,,,,,,,,,,,,,,,,,,,,,,,,,,,
,,,,,851807,1,2024-07-12_18h28.28.695,experiment,2024.1.5,MacIntel,59.88023952,6691931c2c63981b064e1f0c,6691adde6d14fd83c2a18c22,,,,,,,,,,,,,,,,,,,,,,,,,,,,,,,,,,,,,,,,,,,,,,,,,,,,,,,,,,,,538.055,544.299,-0.070368924,0.205394965,1.0,0.0,0.0,0.2262,compass,0.0,2.0,2.0,2.0,1.0,SoundStimuli/SmellsLikeTeenSpirit_Nirvana_Cover5S.wav,,,,,,,,,,,,,,,,,,,,,,,,,,,,,,,,,,,,,,,,,,,,,,,,,,,,,
,,,,,851807,1,2024-07-12_18h28.28.695,experiment,2024.1.5,MacIntel,59.88023952,6691931c2c63981b064e1f0c,6691adde6d14fd83c2a18c22,,,,,,,,,,,,,,,,,,,,,,,,,,,,,,,,,,,,,,,,,,,,,,,,,,,,,,,,,,,,544.3038,552.0597,0.056488715,-0.217634549,1.0,0.0,0.0,1.7552,compass,0.0,3.0,3.0,19.0,1.0,SoundStimuli/YouLightUpMyLife_DebbyBoone_Cover5S.wav,,,,,,,,,,,,,,,,,,,,,,,,,,,,,,,,,,,,,,,,,,,,,,,,,,,,,
,,,,,851807,1,2024-07-12_18h28.28.695,experiment,2024.1.5,MacIntel,59.88023952,6691931c2c63981b064e1f0c,6691adde6d14fd83c2a18c22,,,,,,,,,,,,,,,,,,,,,,,,,,,,,,,,,,,,,,,,,,,,,,,,,,,,,,,,,,,,552.0644,559.571,0.053372396,-0.181914063,1.0,0.0,0.0,1.4917,compass,0.0,4.0,4.0,16.0,1.0,SoundStimuli/ItsAllInTheGame_TommyEdwards_Original5S.wav,,,,,,,,,,,,,,,,,,,,,,,,,,,,,,,,,,,,,,,,,,,,,,,,,,,,,
,,,,,851807,1,2024-07-12_18h28.28.695,experiment,2024.1.5,MacIntel,59.88023952,6691931c2c63981b064e1f0c,6691adde6d14fd83c2a18c22,,,,,,,,,,,,,,,,,,,,,,,,,,,,,,,,,,,,,,,,,,,,,,,,,,,,,,,,,,,,559.5759,567.4196,0.053372396,-0.181358507,1.0,0.0,0.0,1.8258,compass,0.0,5.0,5.0,14.0,1.0,SoundStimuli/LikeARollingStone_BobDylan_Cover5S.wav,,,,,,,,,,,,,,,,,,,,,,,,,,,,,,,,,,,,,,,,,,,,,,,,,,,,,
,,,,,851807,1,2024-07-12_18h28.28.695,experiment,2024.1.5,MacIntel,59.88023952,6691931c2c63981b064e1f0c,6691adde6d14fd83c2a18c22,,,,,,,,,,,,,,,,,,,,,,,,,,,,,,,,,,,,,,,,,,,,,,,,,,,,,,,,,,,,567.4243,573.5209,0.027790799,-0.272105035,1.0,0.0,0.0,0.0951,compass,0.0,6.0,6.0,7.0,1.0,SoundStimuli/MackTheKnife_BobbyDarin_Original5S.wav,,,,,,,,,,,,,,,,,,,,,,,,,,,,,,,,,,,,,,,,,,,,,,,,,,,,,
,,,,,851807,1,2024-07-12_18h28.28.695,experiment,2024.1.5,MacIntel,59.88023952,6691931c2c63981b064e1f0c,6691adde6d14fd83c2a18c22,,,,,,,,,,,,,,,,,,,,,,,,,,,,,,,,,,,,,,,,,,,,,,,,,,,,,,,,,,,,573.5257,583.6596,0.164548611,-0.032269965,1.0,0.0,0.0,4.1275,compass,0.0,7.0,7.0,11.0,1.0,SoundStimuli/BlurredLines_RobinThicke_Original5S.wav,,,,,,,,,,,,,,,,,,,,,,,,,,,,,,,,,,,,,,,,,,,,,,,,,,,,,
,,,,,851807,1,2024-07-12_18h28.28.695,experiment,2024.1.5,MacIntel,59.88023952,6691931c2c63981b064e1f0c,6691adde6d14fd83c2a18c22,,,,,,,,,,,,,,,,,,,,,,,,,,,,,,,,,,,,,,,,,,,,,,,,,,,,,,,,,,,,583.6644,590.0126,-0.10155816,-0.115963542,1.0,0.0,0.0,0.3449,compass,0.0,8.0,8.0,13.0,1.0,SoundStimuli/Perfect_EdSheeran_Original5S.wav,,,,,,,,,,,,,,,,,,,,,,,,,,,,,,,,,,,,,,,,,,,,,,,,,,,,,
,,,,,851807,1,2024-07-12_18h28.28.695,experiment,2024.1.5,MacIntel,59.88023952,6691931c2c63981b064e1f0c,6691adde6d14fd83c2a18c22,,,,,,,,,,,,,,,,,,,,,,,,,,,,,,,,,,,,,,,,,,,,,,,,,,,,,,,,,,,,590.0173,597.0776,-0.054934896,-0.152860243,1.0,0.0,0.0,1.0491,compass,0.0,9.0,9.0,21.0,1.0,SoundStimuli/BridgeOverTroubledWater_SimonAndGarfunkel_Cover5S.wav,,,,,,,,,,,,,,,,,,,,,,,,,,,,,,,,,,,,,,,,,,,,,,,,,,,,,
,,,,,851807,1,2024-07-12_18h28.28.695,experiment,2024.1.5,MacIntel,59.88023952,6691931c2c63981b064e1f0c,6691adde6d14fd83c2a18c22,,,,,,,,,,,,,,,,,,,,,,,,,,,,,,,,,,,,,,,,,,,,,,,,,,,,,,,,,,,,597.0824,605.2637,0.058550347,0.255998264,1.0,0.0,0.0,2.1781,compass,0.0,10.0,10.0,31.0,1.0,SoundStimuli/TossinAndTurnin_BobbyLewis_Cover5S.wav,,,,,,,,,,,,,,,,,,,,,,,,,,,,,,,,,,,,,,,,,,,,,,,,,,,,,
,,,,,851807,1,2024-07-12_18h28.28.695,experiment,2024.1.5,MacIntel,59.88023952,6691931c2c63981b064e1f0c,6691adde6d14fd83c2a18c22,,,,,,,,,,,,,,,,,,,,,,,,,,,,,,,,,,,,,,,,,,,,,,,,,,,,,,,,,,,,605.2686,612.0866,-0.059861111,-0.109969618,1.0,0.0,0.0,0.8078,compass,0.0,11.0,11.0,33.0,1.0,SoundStimuli/TheBoyIsMine_BrandyMonica_Cover5S.wav,,,,,,,,,,,,,,,,,,,,,,,,,,,,,,,,,,,,,,,,,,,,,,,,,,,,,
,,,,,851807,1,2024-07-12_18h28.28.695,experiment,2024.1.5,MacIntel,59.88023952,6691931c2c63981b064e1f0c,6691adde6d14fd83c2a18c22,,,,,,,,,,,,,,,,,,,,,,,,,,,,,,,,,,,,,,,,,,,,,,,,,,,,,,,,,,,,612.0914,619.2083,0.060724826,0.033155382,1.0,0.0,0.0,1.1149,compass,0.0,12.0,12.0,18.0,1.0,SoundStimuli/Weak_SWV_Original5S.wav,,,,,,,,,,,,,,,,,,,,,,,,,,,,,,,,,,,,,,,,,,,,,,,,,,,,,
,,,,,851807,1,2024-07-12_18h28.28.695,experiment,2024.1.5,MacIntel,59.88023952,6691931c2c63981b064e1f0c,6691adde6d14fd83c2a18c22,,,,,,,,,,,,,,,,,,,,,,,,,,,,,,,,,,,,,,,,,,,,,,,,,,,,,,,,,,,,619.2129,625.8913,-0.107131076,-0.096540799,1.0,0.0,0.0,0.6713,compass,0.0,13.0,13.0,30.0,1.0,SoundStimuli/SomebodyThatIUsedtoKnow_Gotye_Cover5S.wav,,,,,,,,,,,,,,,,,,,,,,,,,,,,,,,,,,,,,,,,,,,,,,,,,,,,,
,,,,,851807,1,2024-07-12_18h28.28.695,experiment,2024.1.5,MacIntel,59.88023952,6691931c2c63981b064e1f0c,6691adde6d14fd83c2a18c22,,,,,,,,,,,,,,,,,,,,,,,,,,,,,,,,,,,,,,,,,,,,,,,,,,,,,,,,,,,,625.8961,632.7558,0.040360243,-0.126831597,1.0,0.0,0.0,0.8432,compass,0.0,14.0,14.0,25.0,1.0,SoundStimuli/IllMakeLoveToYou_BoyzIIMen_Original5S.wav,,,,,,,,,,,,,,,,,,,,,,,,,,,,,,,,,,,,,,,,,,,,,,,,,,,,,
,,,,,851807,1,2024-07-12_18h28.28.695,experiment,2024.1.5,MacIntel,59.88023952,6691931c2c63981b064e1f0c,6691adde6d14fd83c2a18c22,,,,,,,,,,,,,,,,,,,,,,,,,,,,,,,,,,,,,,,,,,,,,,,,,,,,,,,,,,,,632.7605,640.6928,0.054522569,0.107287326,1.0,0.0,0.0,1.9278,compass,0.0,15.0,15.0,24.0,1.0,SoundStimuli/Kiss_Prince_Original5S.wav,,,,,,,,,,,,,,,,,,,,,,,,,,,,,,,,,,,,,,,,,,,,,,,,,,,,,
,,,,,851807,1,2024-07-12_18h28.28.695,experiment,2024.1.5,MacIntel,59.88023952,6691931c2c63981b064e1f0c,6691adde6d14fd83c2a18c22,,,,,,,,,,,,,,,,,,,,,,,,,,,,,,,,,,,,,,,,,,,,,,,,,,,,,,,,,,,,640.6976,647.0237,0.04546875,-0.182690972,1.0,0.0,0.0,0.3073,compass,0.0,16.0,16.0,29.0,1.0,SoundStimuli/BetteDavisEyes_KimCarnes_Cover5S.wav,,,,,,,,,,,,,,,,,,,,,,,,,,,,,,,,,,,,,,,,,,,,,,,,,,,,,
,,,,,851807,1,2024-07-12_18h28.28.695,experiment,2024.1.5,MacIntel,59.88023952,6691931c2c63981b064e1f0c,6691adde6d14fd83c2a18c22,,,,,,,,,,,,,,,,,,,,,,,,,,,,,,,,,,,,,,,,,,,,,,,,,,,,,,,,,,,,647.0284,655.1246,-0.06421441,0.179657118,1.0,0.0,0.0,2.0848,compass,0.0,17.0,17.0,15.0,1.0,SoundStimuli/CrazyInLove_BeyonceFtJayZ_Original5S.wav,,,,,,,,,,,,,,,,,,,,,,,,,,,,,,,,,,,,,,,,,,,,,,,,,,,,,
,,,,,851807,1,2024-07-12_18h28.28.695,experiment,2024.1.5,MacIntel,59.88023952,6691931c2c63981b064e1f0c,6691adde6d14fd83c2a18c22,,,,,,,,,,,,,,,,,,,,,,,,,,,,,,,,,,,,,,,,,,,,,,,,,,,,,,,,,,,,655.1296,662.4156,-0.085104167,-0.17265191,1.0,0.0,0.0,1.272,compass,0.0,18.0,18.0,17.0,1.0,SoundStimuli/IWannaDanceWithSomebody_WhitneyHouston_Cover5S.wav,,,,,,,,,,,,,,,,,,,,,,,,,,,,,,,,,,,,,,,,,,,,,,,,,,,,,
,,,,,851807,1,2024-07-12_18h28.28.695,experiment,2024.1.5,MacIntel,59.88023952,6691931c2c63981b064e1f0c,6691adde6d14fd83c2a18c22,,,,,,,,,,,,,,,,,,,,,,,,,,,,,,,,,,,,,,,,,,,,,,,,,,,,,,,,,,,,662.4206,671.2777,-0.127769097,-0.199253472,1.0,0.0,0.0,2.8439,compass,0.0,19.0,19.0,9.0,1.0,SoundStimuli/HowDoILive_LeAnnRimes_Original5S.wav,,,,,,,,,,,,,,,,,,,,,,,,,,,,,,,,,,,,,,,,,,,,,,,,,,,,,
,,,,,851807,1,2024-07-12_18h28.28.695,experiment,2024.1.5,MacIntel,59.88023952,6691931c2c63981b064e1f0c,6691adde6d14fd83c2a18c22,,,,,,,,,,,,,,,,,,,,,,,,,,,,,,,,,,,,,,,,,,,,,,,,,,,,,,,,,,,,671.2827,679.5384,0.04922309,0.040212674,1.0,0.0,0.0,2.247,compass,0.0,20.0,20.0,4.0,1.0,SoundStimuli/Dreams_FleetwoodMac_Cover5S.wav,,,,,,,,,,,,,,,,,,,,,,,,,,,,,,,,,,,,,,,,,,,,,,,,,,,,,
,,,,,851807,1,2024-07-12_18h28.28.695,experiment,2024.1.5,MacIntel,59.88023952,6691931c2c63981b064e1f0c,6691adde6d14fd83c2a18c22,,,,,,,,,,,,,,,,,,,,,,,,,,,,,,,,,,,,,,,,,,,,,,,,,,,,,,,,,,,,679.5434,685.897,-0.067560764,0.115460069,1.0,0.0,0.0,0.3454,compass,0.0,21.0,21.0,6.0,1.0,SoundStimuli/SaveYourTears_TheWeekndArianaGrande_Original5S.wav,,,,,,,,,,,,,,,,,,,,,,,,,,,,,,,,,,,,,,,,,,,,,,,,,,,,,
,,,,,851807,1,2024-07-12_18h28.28.695,experiment,2024.1.5,MacIntel,59.88023952,6691931c2c63981b064e1f0c,6691adde6d14fd83c2a18c22,,,,,,,,,,,,,,,,,,,,,,,,,,,,,,,,,,,,,,,,,,,,,,,,,,,,,,,,,,,,685.902,693.5899,-0.059800347,0.065073785,1.0,0.0,0.0,1.6727,compass,0.0,22.0,22.0,12.0,1.0,SoundStimuli/UnbreakMyHeart_ToniBraxton_Cover5S.wav,,,,,,,,,,,,,,,,,,,,,,,,,,,,,,,,,,,,,,,,,,,,,,,,,,,,,
,,,,,851807,1,2024-07-12_18h28.28.695,experiment,2024.1.5,MacIntel,59.88023952,6691931c2c63981b064e1f0c,6691adde6d14fd83c2a18c22,,,,,,,,,,,,,,,,,,,,,,,,,,,,,,,,,,,,,,,,,,,,,,,,,,,,,,,,,,,,693.5948,700.7066,0.018654514,0.111636285,1.0,0.0,0.0,1.097,compass,0.0,23.0,23.0,1.0,1.0,SoundStimuli/Smooth_SantanaRobThomas_Cover5S.wav,,,,,,,,,,,,,,,,,,,,,,,,,,,,,,,,,,,,,,,,,,,,,,,,,,,,,
,,,,,851807,1,2024-07-12_18h28.28.695,experiment,2024.1.5,MacIntel,59.88023952,6691931c2c63981b064e1f0c,6691adde6d14fd83c2a18c22,,,,,,,,,,,,,,,,,,,,,,,,,,,,,,,,,,,,,,,,,,,,,,,,,,,,,,,,,,,,700.7115,706.9934,0.107226562,-0.120703125,1.0,0.0,0.0,0.2703,compass,0.0,24.0,24.0,34.0,1.0,SoundStimuli/Irreplaceable_Beyonce_Original5S.wav,,,,,,,,,,,,,,,,,,,,,,,,,,,,,,,,,,,,,,,,,,,,,,,,,,,,,
,,,,,851807,1,2024-07-12_18h28.28.695,experiment,2024.1.5,MacIntel,59.88023952,6691931c2c63981b064e1f0c,6691adde6d14fd83c2a18c22,,,,,,,,,,,,,,,,,,,,,,,,,,,,,,,,,,,,,,,,,,,,,,,,,,,,,,,,,,,,706.9982,713.7451,0.051827257,0.200533854,1.0,0.0,0.0,0.7401,compass,0.0,25.0,25.0,26.0,1.0,SoundStimuli/TheSign_AceOfBase_Original5S.wav,,,,,,,,,,,,,,,,,,,,,,,,,,,,,,,,,,,,,,,,,,,,,,,,,,,,,
,,,,,851807,1,2024-07-12_18h28.28.695,experiment,2024.1.5,MacIntel,59.88023952,6691931c2c63981b064e1f0c,6691adde6d14fd83c2a18c22,,,,,,,,,,,,,,,,,,,,,,,,,,,,,,,,,,,,,,,,,,,,,,,,,,,,,,,,,,,,713.75,721.1466,0.036510417,0.073780382,1.0,0.0,0.0,1.3937,compass,0.0,26.0,26.0,23.0,1.0,SoundStimuli/IWalkTheLine_JohnnyCash_Cover5S.wav,,,,,,,,,,,,,,,,,,,,,,,,,,,,,,,,,,,,,,,,,,,,,,,,,,,,,
,,,,,851807,1,2024-07-12_18h28.28.695,experiment,2024.1.5,MacIntel,59.88023952,6691931c2c63981b064e1f0c,6691adde6d14fd83c2a18c22,,,,,,,,,,,,,,,,,,,,,,,,,,,,,,,,,,,,,,,,,,,,,,,,,,,,,,,,,,,,721.1516,729.1354,0.029444444,0.048810764,1.0,0.0,0.0,1.9733,compass,0.0,27.0,27.0,0.0,1.0,SoundStimuli/GimmeShelter_RollingStones_Cover5S.wav,,,,,,,,,,,,,,,,,,,,,,,,,,,,,,,,,,,,,,,,,,,,,,,,,,,,,
,,,,,851807,1,2024-07-12_18h28.28.695,experiment,2024.1.5,MacIntel,59.88023952,6691931c2c63981b064e1f0c,6691adde6d14fd83c2a18c22,,,,,,,,,,,,,,,,,,,,,,,,,,,,,,,,,,,,,,,,,,,,,,,,,,,,,,,,,,,,729.1404,736.3359,0.030065104,-0.229973958,1.0,0.0,0.0,1.1823,compass,0.0,28.0,28.0,28.0,1.0,SoundStimuli/IWantToHoldYourHand_TheBeatles_Cover5S.wav,,,,,,,,,,,,,,,,,,,,,,,,,,,,,,,,,,,,,,,,,,,,,,,,,,,,,
,,,,,851807,1,2024-07-12_18h28.28.695,experiment,2024.1.5,MacIntel,59.88023952,6691931c2c63981b064e1f0c,6691adde6d14fd83c2a18c22,,,,,,,,,,,,,,,,,,,,,,,,,,,,,,,,,,,,,,,,,,,,,,,,,,,,,,,,,,,,736.3406,742.8011,0.226397569,0.231336806,1.0,0.0,0.0,0.4414,compass,0.0,29.0,29.0,10.0,1.0,SoundStimuli/LeFreak_Chic_Original5S.wav,,,,,,,,,,,,,,,,,,,,,,,,,,,,,,,,,,,,,,,,,,,,,,,,,,,,,
,,,,,851807,1,2024-07-12_18h28.28.695,experiment,2024.1.5,MacIntel,59.88023952,6691931c2c63981b064e1f0c,6691adde6d14fd83c2a18c22,,,,,,,,,,,,,,,,,,,,,,,,,,,,,,,,,,,,,,,,,,,,,,,,,,,,,,,,,,,,742.8059,750.0667,0.065442708,0.287105035,1.0,0.0,0.0,1.2589,compass,0.0,30.0,30.0,20.0,1.0,SoundStimuli/FlashdanceWhatAFeeling_IreneCara_Cover5S.wav,,,,,,,,,,,,,,,,,,,,,,,,,,,,,,,,,,,,,,,,,,,,,,,,,,,,,
,,,,,851807,1,2024-07-12_18h28.28.695,experiment,2024.1.5,MacIntel,59.88023952,6691931c2c63981b064e1f0c,6691adde6d14fd83c2a18c22,,,,,,,,,,,,,,,,,,,,,,,,,,,,,,,,,,,,,,,,,,,,,,,,,,,,,,,,,,,,750.0715,756.3753,0.214162326,0.108424479,1.0,0.0,0.0,0.286,compass,0.0,31.0,31.0,22.0,1.0,SoundStimuli/Happy_PharellWilliams_Cover5S.wav,,,,,,,,,,,,,,,,,,,,,,,,,,,,,,,,,,,,,,,,,,,,,,,,,,,,,
,,,,,851807,1,2024-07-12_18h28.28.695,experiment,2024.1.5,MacIntel,59.88023952,6691931c2c63981b064e1f0c,6691adde6d14fd83c2a18c22,,,,,,,,,,,,,,,,,,,,,,,,,,,,,,,,,,,,,,,,,,,,,,,,,,,,,,,,,,,,756.3802,762.7448,0.096614583,0.304292535,1.0,0.0,0.0,0.3612,compass,0.0,32.0,32.0,3.0,1.0,SoundStimuli/PartyRockAnthem_LMFAO_Cover5S.wav,,,,,,,,,,,,,,,,,,,,,,,,,,,,,,,,,,,,,,,,,,,,,,,,,,,,,
,,,,,851807,1,2024-07-12_18h28.28.695,experiment,2024.1.5,MacIntel,59.88023952,6691931c2c63981b064e1f0c,6691adde6d14fd83c2a18c22,,,,,,,,,,,,,,,,,,,,,,,,,,,,,,,,,,,,,,,,,,,,,,,,,,,,,,,,,,,,762.7496,769.0601,0.049947917,-0.235594618,1.0,0.0,0.0,0.3048,compass,0.0,33.0,33.0,32.0,1.0,SoundStimuli/Dilemma_NellyKellyRowland_Original5S.wav,,,,,,,,,,,,,,,,,,,,,,,,,,,,,,,,,,,,,,,,,,,,,,,,,,,,,
,,,,,851807,1,2024-07-12_18h28.28.695,experiment,2024.1.5,MacIntel,59.88023952,6691931c2c63981b064e1f0c,6691adde6d14fd83c2a18c22,,,,,,,,,,,,,,,,,,,,,,,,,,,,,,,,,,,,,,,,,,,,,,,,,,,,,,,,,,,,769.065,775.781,0.223532986,0.267018229,1.0,0.0,0.0,0.7065,compass,0.0,34.0,34.0,5.0,1.0,SoundStimuli/JoyToTheWorld_ThreeDogNight_Cover5S.wav,,,,,,,,,,,,,,,,,,,,,,,,,,,,,,,,,,,,,,,,,,,,,,,,,,,,,
,,,,,851807,1,2024-07-12_18h28.28.695,experiment,2024.1.5,MacIntel,59.88023952,6691931c2c63981b064e1f0c,6691adde6d14fd83c2a18c22,,,,,,,,,,,,,,,,,,,,,,,,,,,,,,,,,,,,,,,,,,,,,,,,,,,,,,,,,,,,,,,,,,,,,,,,,,,775.7857,826.6794,space,50.8931,,826.6794,832.4026,right,5.7225,,0.0,1.0,1.0,1.0,1.0,block_order/blockB.xlsx,,,,,,,,,,,,,,,,,,,,,,,,,,,,,,,,,,,,,
,,,,,851807,1,2024-07-12_18h28.28.695,experiment,2024.1.5,MacIntel,59.88023952,6691931c2c63981b064e1f0c,6691adde6d14fd83c2a18c22,,,,,,,,,,,,,,,,,,,,,,,,,,,,,,,,,,,,,,,,,,,,,,,,,,,,,,,,,,,,832.4127,839.3157,-0.066697049,-0.149309896,1.0,0.0,0.0,0.9018,compass,0.0,0.0,0.0,9.0,1.0,SoundStimuli/Despacito_LuisFonsiDaddyYankee_Cover5S.wav,,,,,,,,,,,,,,,,,,,,,,,,,,,,,,,,,,,,,,,,,,,,,,,,,,,,,
,,,,,851807,1,2024-07-12_18h28.28.695,experiment,2024.1.5,MacIntel,59.88023952,6691931c2c63981b064e1f0c,6691adde6d14fd83c2a18c22,,,,,,,,,,,,,,,,,,,,,,,,,,,,,,,,,,,,,,,,,,,,,,,,,,,,,,,,,,,,839.3205,845.7349,0.273185764,0.282777778,1.0,0.0,0.0,0.401,compass,0.0,1.0,1.0,0.0,1.0,SoundStimuli/StayinAlive_BeeGees_Original5S.wav,,,,,,,,,,,,,,,,,,,,,,,,,,,,,,,,,,,,,,,,,,,,,,,,,,,,,
,,,,,851807,1,2024-07-12_18h28.28.695,experiment,2024.1.5,MacIntel,59.88023952,6691931c2c63981b064e1f0c,6691adde6d14fd83c2a18c22,,,,,,,,,,,,,,,,,,,,,,,,,,,,,,,,,,,,,,,,,,,,,,,,,,,,,,,,,,,,845.7395,852.0815,0.045082465,-0.187109375,1.0,0.0,0.0,0.326,compass,0.0,2.0,2.0,29.0,1.0,SoundStimuli/OldTownRoad_LilNasX_Original5S.wav,,,,,,,,,,,,,,,,,,,,,,,,,,,,,,,,,,,,,,,,,,,,,,,,,,,,,
,,,,,851807,1,2024-07-12_18h28.28.695,experiment,2024.1.5,MacIntel,59.88023952,6691931c2c63981b064e1f0c,6691adde6d14fd83c2a18c22,,,,,,,,,,,,,,,,,,,,,,,,,,,,,,,,,,,,,,,,,,,,,,,,,,,,,,,,,,,,852.0861,858.5861,0.045147569,-0.252786458,1.0,0.0,0.0,0.4931,compass,0.0,3.0,3.0,26.0,1.0,SoundStimuli/LivinOnAPrayer_BonJovi_Cover5S.wav,,,,,,,,,,,,,,,,,,,,,,,,,,,,,,,,,,,,,,,,,,,,,,,,,,,,,
,,,,,851807,1,2024-07-12_18h28.28.695,experiment,2024.1.5,MacIntel,59.88023952,6691931c2c63981b064e1f0c,6691adde6d14fd83c2a18c22,,,,,,,,,,,,,,,,,,,,,,,,,,,,,,,,,,,,,,,,,,,,,,,,,,,,,,,,,,,,858.5909,866.0567,-0.060303819,-0.146241319,1.0,0.0,0.0,1.4499,compass,0.0,4.0,4.0,13.0,1.0,SoundStimuli/GodOnlyKnows_TheBeachBoys_Cover5S.wav,,,,,,,,,,,,,,,,,,,,,,,,,,,,,,,,,,,,,,,,,,,,,,,,,,,,,
,,,,,851807,1,2024-07-12_18h28.28.695,experiment,2024.1.5,MacIntel,59.88023952,6691931c2c63981b064e1f0c,6691adde6d14fd83c2a18c22,,,,,,,,,,,,,,,,,,,,,,,,,,,,,,,,,,,,,,,,,,,,,,,,,,,,,,,,,,,,866.0617,872.3802,0.042855903,0.054522569,1.0,0.0,0.0,0.3067,compass,0.0,5.0,5.0,21.0,1.0,SoundStimuli/GoodGollyMissMolly_LittleRichard_Cover5S.wav,,,,,,,,,,,,,,,,,,,,,,,,,,,,,,,,,,,,,,,,,,,,,,,,,,,,,
,,,,,851807,1,2024-07-12_18h28.28.695,experiment,2024.1.5,MacIntel,59.88023952,6691931c2c63981b064e1f0c,6691adde6d14fd83c2a18c22,,,,,,,,,,,,,,,,,,,,,,,,,,,,,,,,,,,,,,,,,,,,,,,,,,,,,,,,,,,,872.3852,880.7949,0.031215278,-0.158732639,1.0,0.0,0.0,2.4029,compass,0.0,6.0,6.0,20.0,1.0,SoundStimuli/HeyYa_Outkast_Cover5S.wav,,,,,,,,,,,,,,,,,,,,,,,,,,,,,,,,,,,,,,,,,,,,,,,,,,,,,
,,,,,851807,1,2024-07-12_18h28.28.695,experiment,2024.1.5,MacIntel,59.88023952,6691931c2c63981b064e1f0c,6691adde6d14fd83c2a18c22,,,,,,,,,,,,,,,,,,,,,,,,,,,,,,,,,,,,,,,,,,,,,,,,,,,,,,,,,,,,880.7998,887.5336,0.060659722,-0.24483941,1.0,0.0,0.0,0.7247,compass,0.0,7.0,7.0,23.0,1.0,SoundStimuli/StrawberryFieldsForever_TheBeatles_Original5S.wav,,,,,,,,,,,,,,,,,,,,,,,,,,,,,,,,,,,,,,,,,,,,,,,,,,,,,
,,,,,851807,1,2024-07-12_18h28.28.695,experiment,2024.1.5,MacIntel,59.88023952,6691931c2c63981b064e1f0c,6691adde6d14fd83c2a18c22,,,,,,,,,,,,,,,,,,,,,,,,,,,,,,,,,,,,,,,,,,,,,,,,,,,,,,,,,,,,887.5383,893.9292,0.019787326,0.051992188,1.0,0.0,0.0,0.3837,compass,0.0,8.0,8.0,32.0,1.0,SoundStimuli/HeatWaves_GlassAnimals_Original5S.wav,,,,,,,,,,,,,,,,,,,,,,,,,,,,,,,,,,,,,,,,,,,,,,,,,,,,,
,,,,,851807,1,2024-07-12_18h28.28.695,experiment,2024.1.5,MacIntel,59.88023952,6691931c2c63981b064e1f0c,6691adde6d14fd83c2a18c22,,,,,,,,,,,,,,,,,,,,,,,,,,,,,,,,,,,,,,,,,,,,,,,,,,,,,,,,,,,,893.9341,902.9107,0.022196181,-0.203671875,1.0,0.0,0.0,2.9742,compass,0.0,9.0,9.0,33.0,1.0,SoundStimuli/StandByMe_BenEKing_Cover5S.wav,,,,,,,,,,,,,,,,,,,,,,,,,,,,,,,,,,,,,,,,,,,,,,,,,,,,,
,,,,,851807,1,2024-07-12_18h28.28.695,experiment,2024.1.5,MacIntel,59.88023952,6691931c2c63981b064e1f0c,6691adde6d14fd83c2a18c22,,,,,,,,,,,,,,,,,,,,,,,,,,,,,,,,,,,,,,,,,,,,,,,,,,,,,,,,,,,,902.9154,909.8193,-0.084435764,-0.18265191,1.0,0.0,0.0,0.8913,compass,0.0,10.0,10.0,15.0,1.0,SoundStimuli/TikTok_Kesha_Cover5S.wav,,,,,,,,,,,,,,,,,,,,,,,,,,,,,,,,,,,,,,,,,,,,,,,,,,,,,
,,,,,851807,1,2024-07-12_18h28.28.695,experiment,2024.1.5,MacIntel,59.88023952,6691931c2c63981b064e1f0c,6691adde6d14fd83c2a18c22,,,,,,,,,,,,,,,,,,,,,,,,,,,,,,,,,,,,,,,,,,,,,,,,,,,,,,,,,,,,909.8244,917.6278,0.122569444,0.172712674,1.0,0.0,0.0,1.7847,compass,0.0,11.0,11.0,14.0,1.0,SoundStimuli/BlindingLights_TheWeeknd_Original5S.wav,,,,,,,,,,,,,,,,,,,,,,,,,,,,,,,,,,,,,,,,,,,,,,,,,,,,,
,,,,,851807,1,2024-07-12_18h28.28.695,experiment,2024.1.5,MacIntel,59.88023952,6691931c2c63981b064e1f0c,6691adde6d14fd83c2a18c22,,,,,,,,,,,,,,,,,,,,,,,,,,,,,,,,,,,,,,,,,,,,,,,,,,,,,,,,,,,,917.6326,926.3966,0.022934028,0.321019965,1.0,0.0,0.0,2.7547,compass,0.0,12.0,12.0,12.0,1.0,SoundStimuli/IWillAlwaysLoveYou_WhitneyHouston_Cover5S.wav,,,,,,,,,,,,,,,,,,,,,,,,,,,,,,,,,,,,,,,,,,,,,,,,,,,,,
,,,,,851807,1,2024-07-12_18h28.28.695,experiment,2024.1.5,MacIntel,59.88023952,6691931c2c63981b064e1f0c,6691adde6d14fd83c2a18c22,,,,,,,,,,,,,,,,,,,,,,,,,,,,,,,,,,,,,,,,,,,,,,,,,,,,,,,,,,,,926.4014,935.1641,-0.122122396,0.208606771,1.0,0.0,0.0,2.7496,compass,0.0,13.0,13.0,6.0,1.0,SoundStimuli/Levitating_DuaLipa_Cover5S.wav,,,,,,,,,,,,,,,,,,,,,,,,,,,,,,,,,,,,,,,,,,,,,,,,,,,,,
,,,,,851807,1,2024-07-12_18h28.28.695,experiment,2024.1.5,MacIntel,59.88023952,6691931c2c63981b064e1f0c,6691adde6d14fd83c2a18c22,,,,,,,,,,,,,,,,,,,,,,,,,,,,,,,,,,,,,,,,,,,,,,,,,,,,,,,,,,,,935.1691,941.6801,0.259023438,0.062417535,1.0,0.0,0.0,0.5014,compass,0.0,14.0,14.0,3.0,1.0,SoundStimuli/NoScrubs_TLC_Original5S.wav,,,,,,,,,,,,,,,,,,,,,,,,,,,,,,,,,,,,,,,,,,,,,,,,,,,,,
,,,,,851807,1,2024-07-12_18h28.28.695,experiment,2024.1.5,MacIntel,59.88023952,6691931c2c63981b064e1f0c,6691adde6d14fd83c2a18c22,,,,,,,,,,,,,,,,,,,,,,,,,,,,,,,,,,,,,,,,,,,,,,,,,,,,,,,,,,,,941.6849,949.9876,0.031636285,-0.286228299,1.0,0.0,0.0,2.2959,compass,0.0,15.0,15.0,19.0,1.0,SoundStimuli/LetsGetItOn_MarvinGaye_Cover5S.wav,,,,,,,,,,,,,,,,,,,,,,,,,,,,,,,,,,,,,,,,,,,,,,,,,,,,,
,,,,,851807,1,2024-07-12_18h28.28.695,experiment,2024.1.5,MacIntel,59.88023952,6691931c2c63981b064e1f0c,6691adde6d14fd83c2a18c22,,,,,,,,,,,,,,,,,,,,,,,,,,,,,,,,,,,,,,,,,,,,,,,,,,,,,,,,,,,,949.9926,956.2771,0.184726562,0.162591146,1.0,0.0,0.0,0.2705,compass,0.0,16.0,16.0,18.0,1.0,SoundStimuli/AnotherOneBitesTheDust_Queen_Original5S.wav,,,,,,,,,,,,,,,,,,,,,,,,,,,,,,,,,,,,,,,,,,,,,,,,,,,,,
,,,,,851807,1,2024-07-12_18h28.28.695,experiment,2024.1.5,MacIntel,59.88023952,6691931c2c63981b064e1f0c,6691adde6d14fd83c2a18c22,,,,,,,,,,,,,,,,,,,,,,,,,,,,,,,,,,,,,,,,,,,,,,,,,,,,,,,,,,,,956.2818,962.641,0.212092014,0.295685764,1.0,0.0,0.0,0.3454,compass,0.0,17.0,17.0,25.0,1.0,SoundStimuli/Respect_ArethaFranklin_Original5S.wav,,,,,,,,,,,,,,,,,,,,,,,,,,,,,,,,,,,,,,,,,,,,,,,,,,,,,
,,,,,851807,1,2024-07-12_18h28.28.695,experiment,2024.1.5,MacIntel,59.88023952,6691931c2c63981b064e1f0c,6691adde6d14fd83c2a18c22,,,,,,,,,,,,,,,,,,,,,,,,,,,,,,,,,,,,,,,,,,,,,,,,,,,,,,,,,,,,962.6456,970.0814,0.238572049,0.278324653,1.0,0.0,0.0,1.4329,compass,0.0,18.0,18.0,8.0,1.0,SoundStimuli/LikeAPrayer_Madonna_Original5S.wav,,,,,,,,,,,,,,,,,,,,,,,,,,,,,,,,,,,,,,,,,,,,,,,,,,,,,
,,,,,851807,1,2024-07-12_18h28.28.695,experiment,2024.1.5,MacIntel,59.88023952,6691931c2c63981b064e1f0c,6691adde6d14fd83c2a18c22,,,,,,,,,,,,,,,,,,,,,,,,,,,,,,,,,,,,,,,,,,,,,,,,,,,,,,,,,,,,970.0863,976.5789,-0.12155816,-0.247456597,1.0,0.0,0.0,0.4819,compass,0.0,19.0,19.0,10.0,1.0,SoundStimuli/BadDay_DanielPowter_Cover5S.wav,,,,,,,,,,,,,,,,,,,,,,,,,,,,,,,,,,,,,,,,,,,,,,,,,,,,,
,,,,,851807,1,2024-07-12_18h28.28.695,experiment,2024.1.5,MacIntel,59.88023952,6691931c2c63981b064e1f0c,6691adde6d14fd83c2a18c22,,,,,,,,,,,,,,,,,,,,,,,,,,,,,,,,,,,,,,,,,,,,,,,,,,,,,,,,,,,,976.5837,984.8199,0.230403646,0.081757812,1.0,0.0,0.0,2.2207,compass,0.0,20.0,20.0,5.0,1.0,SoundStimuli/MyGirl_TheTemptations_Original5S.wav,,,,,,,,,,,,,,,,,,,,,,,,,,,,,,,,,,,,,,,,,,,,,,,,,,,,,
,,,,,851807,1,2024-07-12_18h28.28.695,experiment,2024.1.5,MacIntel,59.88023952,6691931c2c63981b064e1f0c,6691adde6d14fd83c2a18c22,,,,,,,,,,,,,,,,,,,,,,,,,,,,,,,,,,,,,,,,,,,,,,,,,,,,,,,,,,,,984.8246,992.1807,0.021276042,0.332421875,1.0,0.0,0.0,1.3409,compass,0.0,21.0,21.0,7.0,1.0,SoundStimuli/NoOne_AliciaKeys_Cover5S.wav,,,,,,,,,,,,,,,,,,,,,,,,,,,,,,,,,,,,,,,,,,,,,,,,,,,,,
,,,,,851807,1,2024-07-12_18h28.28.695,experiment,2024.1.5,MacIntel,59.88023952,6691931c2c63981b064e1f0c,6691adde6d14fd83c2a18c22,,,,,,,,,,,,,,,,,,,,,,,,,,,,,,,,,,,,,,,,,,,,,,,,,,,,,,,,,,,,992.1855,1000.3148,-0.011857639,-0.336445312,1.0,0.0,0.0,2.1241,compass,0.0,22.0,22.0,31.0,1.0,SoundStimuli/TheBattleOfNewOrleans_JohnnyHorton_Cover5S.wav,,,,,,,,,,,,,,,,,,,,,,,,,,,,,,,,,,,,,,,,,,,,,,,,,,,,,
,,,,,851807,1,2024-07-12_18h28.28.695,experiment,2024.1.5,MacIntel,59.88023952,6691931c2c63981b064e1f0c,6691adde6d14fd83c2a18c22,,,,,,,,,,,,,,,,,,,,,,,,,,,,,,,,,,,,,,,,,,,,,,,,,,,,,,,,,,,,1000.3198,1007.2942,0.065373264,-0.330060764,1.0,0.0,0.0,0.9592,compass,0.0,23.0,23.0,11.0,1.0,SoundStimuli/Superstition_StevieWonder_Cover5S.wav,,,,,,,,,,,,,,,,,,,,,,,,,,,,,,,,,,,,,,,,,,,,,,,,,,,,,
,,,,,851807,1,2024-07-12_18h28.28.695,experiment,2024.1.5,MacIntel,59.88023952,6691931c2c63981b064e1f0c,6691adde6d14fd83c2a18c22,,,,,,,,,,,,,,,,,,,,,,,,,,,,,,,,,,,,,,,,,,,,,,,,,,,,,,,,,,,,1007.2988,1015.4356,-0.027552083,0.336644965,1.0,0.0,0.0,2.1255,compass,0.0,24.0,24.0,1.0,1.0,SoundStimuli/Stronger_KanyeWest_Original5S.wav,,,,,,,,,,,,,,,,,,,,,,,,,,,,,,,,,,,,,,,,,,,,,,,,,,,,,
,,,,,851807,1,2024-07-12_18h28.28.695,experiment,2024.1.5,MacIntel,59.88023952,6691931c2c63981b064e1f0c,6691adde6d14fd83c2a18c22,,,,,,,,,,,,,,,,,,,,,,,,,,,,,,,,,,,,,,,,,,,,,,,,,,,,,,,,,,,,1015.4406,1022.7624,0.248919271,0.299965278,1.0,0.0,0.0,1.3078,compass,0.0,25.0,25.0,34.0,1.0,SoundStimuli/AChangeIsGonnaCome_SamCooke_Cover5S.wav,,,,,,,,,,,,,,,,,,,,,,,,,,,,,,,,,,,,,,,,,,,,,,,,,,,,,
,,,,,851807,1,2024-07-12_18h28.28.695,experiment,2024.1.5,MacIntel,59.88023952,6691931c2c63981b064e1f0c,6691adde6d14fd83c2a18c22,,,,,,,,,,,,,,,,,,,,,,,,,,,,,,,,,,,,,,,,,,,,,,,,,,,,,,,,,,,,1022.7674,1029.3521,-0.206961806,-0.285321181,1.0,0.0,0.0,0.5802,compass,0.0,26.0,26.0,2.0,1.0,SoundStimuli/Mood_24kGoldnianndior_Cover5S.wav,,,,,,,,,,,,,,,,,,,,,,,,,,,,,,,,,,,,,,,,,,,,,,,,,,,,,
,,,,,851807,1,2024-07-12_18h28.28.695,experiment,2024.1.5,MacIntel,59.88023952,6691931c2c63981b064e1f0c,6691adde6d14fd83c2a18c22,,,,,,,,,,,,,,,,,,,,,,,,,,,,,,,,,,,,,,,,,,,,,,,,,,,,,,,,,,,,1029.3567,1039.9825,-0.038684896,-0.248424479,1.0,0.0,0.0,4.6194,compass,0.0,27.0,27.0,22.0,1.0,SoundStimuli/RockWithYou_MichaelJackson_Original5S.wav,,,,,,,,,,,,,,,,,,,,,,,,,,,,,,,,,,,,,,,,,,,,,,,,,,,,,
,,,,,851807,1,2024-07-12_18h28.28.695,experiment,2024.1.5,MacIntel,59.88023952,6691931c2c63981b064e1f0c,6691adde6d14fd83c2a18c22,,,,,,,,,,,,,,,,,,,,,,,,,,,,,,,,,,,,,,,,,,,,,,,,,,,,,,,,,,,,1039.9874,1046.928,0.063463542,-0.261002604,1.0,0.0,0.0,0.935,compass,0.0,28.0,28.0,17.0,1.0,SoundStimuli/Fallin_AliciaKeys_Original5S.wav,,,,,,,,,,,,,,,,,,,,,,,,,,,,,,,,,,,,,,,,,,,,,,,,,,,,,
,,,,,851807,1,2024-07-12_18h28.28.695,experiment,2024.1.5,MacIntel,59.88023952,6691931c2c63981b064e1f0c,6691adde6d14fd83c2a18c22,,,,,,,,,,,,,,,,,,,,,,,,,,,,,,,,,,,,,,,,,,,,,,,,,,,,,,,,,,,,1046.9329,1054.8024,0.252621528,0.215104167,1.0,0.0,0.0,1.8597,compass,0.0,29.0,29.0,30.0,1.0,SoundStimuli/PokerFace_LadyGaga_Original5S.wav,,,,,,,,,,,,,,,,,,,,,,,,,,,,,,,,,,,,,,,,,,,,,,,,,,,,,
,,,,,851807,1,2024-07-12_18h28.28.695,experiment,2024.1.5,MacIntel,59.88023952,6691931c2c63981b064e1f0c,6691adde6d14fd83c2a18c22,,,,,,,,,,,,,,,,,,,,,,,,,,,,,,,,,,,,,,,,,,,,,,,,,,,,,,,,,,,,1054.8072,1062.3278,0.249830729,0.12421441,1.0,0.0,0.0,1.5056,compass,0.0,30.0,30.0,24.0,1.0,SoundStimuli/UptownFunk_MarkRonson_Original5S.wav,,,,,,,,,,,,,,,,,,,,,,,,,,,,,,,,,,,,,,,,,,,,,,,,,,,,,
,,,,,851807,1,2024-07-12_18h28.28.695,experiment,2024.1.5,MacIntel,59.88023952,6691931c2c63981b064e1f0c,6691adde6d14fd83c2a18c22,,,,,,,,,,,,,,,,,,,,,,,,,,,,,,,,,,,,,,,,,,,,,,,,,,,,,,,,,,,,1062.3329,1068.6494,0.245807292,0.295164931,1.0,0.0,0.0,0.3063,compass,0.0,31.0,31.0,27.0,1.0,SoundStimuli/ShapeofYou_EdSheeran_Original5S.wav,,,,,,,,,,,,,,,,,,,,,,,,,,,,,,,,,,,,,,,,,,,,,,,,,,,,,
,,,,,851807,1,2024-07-12_18h28.28.695,experiment,2024.1.5,MacIntel,59.88023952,6691931c2c63981b064e1f0c,6691adde6d14fd83c2a18c22,,,,,,,,,,,,,,,,,,,,,,,,,,,,,,,,,,,,,,,,,,,,,,,,,,,,,,,,,,,,1068.6541,1074.9581,0.02641059,0.046979167,1.0,0.0,0.0,0.3026,compass,0.0,32.0,32.0,4.0,1.0,SoundStimuli/GetUrFreakOn_MissyElliot_Original5S.wav,,,,,,,,,,,,,,,,,,,,,,,,,,,,,,,,,,,,,,,,,,,,,,,,,,,,,
,,,,,851807,1,2024-07-12_18h28.28.695,experiment,2024.1.5,MacIntel,59.88023952,6691931c2c63981b064e1f0c,6691adde6d14fd83c2a18c22,,,,,,,,,,,,,,,,,,,,,,,,,,,,,,,,,,,,,,,,,,,,,,,,,,,,,,,,,,,,1074.9628,1081.2615,-0.102508681,0.31203559,1.0,0.0,0.0,0.2879,compass,0.0,33.0,33.0,16.0,1.0,SoundStimuli/BohemianRhapsody_Queen_Original5S.wav,,,,,,,,,,,,,,,,,,,,,,,,,,,,,,,,,,,,,,,,,,,,,,,,,,,,,
,,,,,851807,1,2024-07-12_18h28.28.695,experiment,2024.1.5,MacIntel,59.88023952,6691931c2c63981b064e1f0c,6691adde6d14fd83c2a18c22,,,,,,,,,,,,,,,,,,,,,,,,,,,,,,,,,,,,,,,,,,,,,,,,,,,,,,,,,,,,1081.2663,1088.6689,0.166636285,-0.034275174,1.0,0.0,0.0,1.3843,compass,0.0,34.0,34.0,28.0,1.0,SoundStimuli/ComeAndGetYourLove_Redbone_Original5S.wav,,,,,,,,,,,,,,,,,,,,,,,,,,,,,,,,,,,,,,,,,,,,,,,,,,,,,
,,,,,851807,1,2024-07-12_18h28.28.695,experiment,2024.1.5,MacIntel,59.88023952,6691931c2c63981b064e1f0c,6691adde6d14fd83c2a18c22,,,,,,,,,,,,,,,,,,,,,,,,,,,,,,,,,,,,,,,,,,,,,,,,,,,,,,,,,,,,,,,,,,,,,,,,,,,1088.6737,1142.2414,space,53.5669,,1142.2414,1144.0197,right,1.7778,,0.0,2.0,2.0,2.0,1.0,block_order/blockA.xlsx,,,,,,,,,,,,,,,,,,,,,,,,,,,,,,,,,,,,,
,,,,,851807,1,2024-07-12_18h28.28.695,experiment,2024.1.5,MacIntel,59.88023952,6691931c2c63981b064e1f0c,6691adde6d14fd83c2a18c22,,,,,,,,,,,,,,,,,,,,,,,,,,,,,,,,,,,,,,,,,,,,,,,,,,,,,,,,,,,,1144.025,1151.6387,0.019422743,0.211935764,1.0,0.0,0.0,1.6038,compass,0.0,0.0,0.0,5.0,1.0,SoundStimuli/JoyToTheWorld_ThreeDogNight_Original5S.wav,,,,,,,,,,,,,,,,,,,,,,,,,,,,,,,,,,,,,,,,,,,,,,,,,,,,,
,,,,,851807,1,2024-07-12_18h28.28.695,experiment,2024.1.5,MacIntel,59.88023952,6691931c2c63981b064e1f0c,6691adde6d14fd83c2a18c22,,,,,,,,,,,,,,,,,,,,,,,,,,,,,,,,,,,,,,,,,,,,,,,,,,,,,,,,,,,,1151.6436,1157.9383,0.313046875,0.299496528,1.0,0.0,0.0,0.288,compass,0.0,1.0,1.0,22.0,1.0,SoundStimuli/Happy_PharellWilliams_Original5S.wav,,,,,,,,,,,,,,,,,,,,,,,,,,,,,,,,,,,,,,,,,,,,,,,,,,,,,
,,,,,851807,1,2024-07-12_18h28.28.695,experiment,2024.1.5,MacIntel,59.88023952,6691931c2c63981b064e1f0c,6691adde6d14fd83c2a18c22,,,,,,,,,,,,,,,,,,,,,,,,,,,,,,,,,,,,,,,,,,,,,,,,,,,,,,,,,,,,1157.9431,1164.079,0.280399306,0.023546007,1.0,0.0,0.0,0.1333,compass,0.0,2.0,2.0,17.0,1.0,SoundStimuli/IWannaDanceWithSomebody_WhitneyHouston_Original5S.wav,,,,,,,,,,,,,,,,,,,,,,,,,,,,,,,,,,,,,,,,,,,,,,,,,,,,,
,,,,,851807,1,2024-07-12_18h28.28.695,experiment,2024.1.5,MacIntel,59.88023952,6691931c2c63981b064e1f0c,6691adde6d14fd83c2a18c22,,,,,,,,,,,,,,,,,,,,,,,,,,,,,,,,,,,,,,,,,,,,,,,,,,,,,,,,,,,,1164.0837,1172.4711,-0.033993056,-0.159600694,1.0,0.0,0.0,2.3741,compass,0.0,3.0,3.0,23.0,1.0,SoundStimuli/IWalkTheLine_JohnnyCash_Original5S.wav,,,,,,,,,,,,,,,,,,,,,,,,,,,,,,,,,,,,,,,,,,,,,,,,,,,,,
,,,,,851807,1,2024-07-12_18h28.28.695,experiment,2024.1.5,MacIntel,59.88023952,6691931c2c63981b064e1f0c,6691adde6d14fd83c2a18c22,,,,,,,,,,,,,,,,,,,,,,,,,,,,,,,,,,,,,,,,,,,,,,,,,,,,,,,,,,,,1172.4761,1179.615,-0.161770833,0.204388021,1.0,0.0,0.0,1.1339,compass,0.0,4.0,4.0,10.0,1.0,SoundStimuli/LeFreak_Chic_Cover5S.wav,,,,,,,,,,,,,,,,,,,,,,,,,,,,,,,,,,,,,,,,,,,,,,,,,,,,,
,,,,,851807,1,2024-07-12_18h28.28.695,experiment,2024.1.5,MacIntel,59.88023952,6691931c2c63981b064e1f0c,6691adde6d14fd83c2a18c22,,,,,,,,,,,,,,,,,,,,,,,,,,,,,,,,,,,,,,,,,,,,,,,,,,,,,,,,,,,,1179.62,1189.247,0.089587674,-0.236514757,1.0,0.0,0.0,3.6198,compass,0.0,5.0,5.0,4.0,1.0,SoundStimuli/Dreams_FleetwoodMac_Original5S.wav,,,,,,,,,,,,,,,,,,,,,,,,,,,,,,,,,,,,,,,,,,,,,,,,,,,,,
,,,,,851807,1,2024-07-12_18h28.28.695,experiment,2024.1.5,MacIntel,59.88023952,6691931c2c63981b064e1f0c,6691adde6d14fd83c2a18c22,,,,,,,,,,,,,,,,,,,,,,,,,,,,,,,,,,,,,,,,,,,,,,,,,,,,,,,,,,,,1189.2518,1195.8965,-0.045603299,0.171388889,1.0,0.0,0.0,0.6329,compass,0.0,6.0,6.0,26.0,1.0,SoundStimuli/TheSign_AceOfBase_Cover5S.wav,,,,,,,,,,,,,,,,,,,,,,,,,,,,,,,,,,,,,,,,,,,,,,,,,,,,,
,,,,,851807,1,2024-07-12_18h28.28.695,experiment,2024.1.5,MacIntel,59.88023952,6691931c2c63981b064e1f0c,6691adde6d14fd83c2a18c22,,,,,,,,,,,,,,,,,,,,,,,,,,,,,,,,,,,,,,,,,,,,,,,,,,,,,,,,,,,,1195.9012,1203.2927,-0.147569444,-0.234973958,1.0,0.0,0.0,1.3805,compass,0.0,7.0,7.0,6.0,1.0,SoundStimuli/SaveYourTears_TheWeekndArianaGrande_Cover5S.wav,,,,,,,,,,,,,,,,,,,,,,,,,,,,,,,,,,,,,,,,,,,,,,,,,,,,,
,,,,,851807,1,2024-07-12_18h28.28.695,experiment,2024.1.5,MacIntel,59.88023952,6691931c2c63981b064e1f0c,6691adde6d14fd83c2a18c22,,,,,,,,,,,,,,,,,,,,,,,,,,,,,,,,,,,,,,,,,,,,,,,,,,,,,,,,,,,,1203.2975,1211.837,-0.128090278,-0.23468316,1.0,0.0,0.0,2.5328,compass,0.0,8.0,8.0,34.0,1.0,SoundStimuli/Irreplaceable_Beyonce_Cover5S.wav,,,,,,,,,,,,,,,,,,,,,,,,,,,,,,,,,,,,,,,,,,,,,,,,,,,,,
,,,,,851807,1,2024-07-12_18h28.28.695,experiment,2024.1.5,MacIntel,59.88023952,6691931c2c63981b064e1f0c,6691adde6d14fd83c2a18c22,,,,,,,,,,,,,,,,,,,,,,,,,,,,,,,,,,,,,,,,,,,,,,,,,,,,,,,,,,,,1211.8426,1220.7074,0.029826389,-0.250099826,1.0,0.0,0.0,2.8631,compass,0.0,9.0,9.0,24.0,1.0,SoundStimuli/Kiss_Prince_Cover5S.wav,,,,,,,,,,,,,,,,,,,,,,,,,,,,,,,,,,,,,,,,,,,,,,,,,,,,,
,,,,,851807,1,2024-07-12_18h28.28.695,experiment,2024.1.5,MacIntel,59.88023952,6691931c2c63981b064e1f0c,6691adde6d14fd83c2a18c22,,,,,,,,,,,,,,,,,,,,,,,,,,,,,,,,,,,,,,,,,,,,,,,,,,,,,,,,,,,,1220.7122,1227.0831,0.289440104,0.134279514,1.0,0.0,0.0,0.3637,compass,0.0,10.0,10.0,11.0,1.0,SoundStimuli/BlurredLines_RobinThicke_Cover5S.wav,,,,,,,,,,,,,,,,,,,,,,,,,,,,,,,,,,,,,,,,,,,,,,,,,,,,,
,,,,,851807,1,2024-07-12_18h28.28.695,experiment,2024.1.5,MacIntel,59.88023952,6691931c2c63981b064e1f0c,6691adde6d14fd83c2a18c22,,,,,,,,,,,,,,,,,,,,,,,,,,,,,,,,,,,,,,,,,,,,,,,,,,,,,,,,,,,,1227.0878,1233.3987,0.265425347,0.041119792,1.0,0.0,0.0,0.3082,compass,0.0,11.0,11.0,28.0,1.0,SoundStimuli/IWantToHoldYourHand_TheBeatles_Original5S.wav,,,,,,,,,,,,,,,,,,,,,,,,,,,,,,,,,,,,,,,,,,,,,,,,,,,,,
,,,,,851807,1,2024-07-12_18h28.28.695,experiment,2024.1.5,MacIntel,59.88023952,6691931c2c63981b064e1f0c,6691adde6d14fd83c2a18c22,,,,,,,,,,,,,,,,,,,,,,,,,,,,,,,,,,,,,,,,,,,,,,,,,,,,,,,,,,,,1233.4034,1245.9069,0.039366319,0.038168403,1.0,0.0,0.0,6.5028,compass,0.0,12.0,12.0,32.0,1.0,SoundStimuli/Dilemma_NellyKellyRowland_Cover5S.wav,,,,,,,,,,,,,,,,,,,,,,,,,,,,,,,,,,,,,,,,,,,,,,,,,,,,,
,,,,,851807,1,2024-07-12_18h28.28.695,experiment,2024.1.5,MacIntel,59.88023952,6691931c2c63981b064e1f0c,6691adde6d14fd83c2a18c22,,,,,,,,,,,,,,,,,,,,,,,,,,,,,,,,,,,,,,,,,,,,,,,,,,,,,,,,,,,,1245.9118,1252.2902,-0.145655382,-0.147291667,1.0,0.0,0.0,0.3674,compass,0.0,13.0,13.0,9.0,1.0,SoundStimuli/HowDoILive_LeAnnRimes_Cover5S.wav,,,,,,,,,,,,,,,,,,,,,,,,,,,,,,,,,,,,,,,,,,,,,,,,,,,,,
,,,,,851807,1,2024-07-12_18h28.28.695,experiment,2024.1.5,MacIntel,59.88023952,6691931c2c63981b064e1f0c,6691adde6d14fd83c2a18c22,,,,,,,,,,,,,,,,,,,,,,,,,,,,,,,,,,,,,,,,,,,,,,,,,,,,,,,,,,,,1252.295,1259.9576,0.046263021,-0.204457465,1.0,0.0,0.0,1.6555,compass,0.0,14.0,14.0,16.0,1.0,SoundStimuli/ItsAllInTheGame_TommyEdwards_Cover5S.wav,,,,,,,,,,,,,,,,,,,,,,,,,,,,,,,,,,,,,,,,,,,,,,,,,,,,,
,,,,,851807,1,2024-07-12_18h28.28.695,experiment,2024.1.5,MacIntel,59.88023952,6691931c2c63981b064e1f0c,6691adde6d14fd83c2a18c22,,,,,,,,,,,,,,,,,,,,,,,,,,,,,,,,,,,,,,,,,,,,,,,,,,,,,,,,,,,,1259.9624,1267.902,-0.060659722,-0.217039931,1.0,0.0,0.0,1.9324,compass,0.0,15.0,15.0,29.0,1.0,SoundStimuli/BetteDavisEyes_KimCarnes_Original5S.wav,,,,,,,,,,,,,,,,,,,,,,,,,,,,,,,,,,,,,,,,,,,,,,,,,,,,,
,,,,,851807,1,2024-07-12_18h28.28.695,experiment,2024.1.5,MacIntel,59.88023952,6691931c2c63981b064e1f0c,6691adde6d14fd83c2a18c22,,,,,,,,,,,,,,,,,,,,,,,,,,,,,,,,,,,,,,,,,,,,,,,,,,,,,,,,,,,,1267.9069,1274.1517,0.225863715,0.167296007,1.0,0.0,0.0,0.2322,compass,0.0,16.0,16.0,31.0,1.0,SoundStimuli/TossinAndTurnin_BobbyLewis_Original5S.wav,,,,,,,,,,,,,,,,,,,,,,,,,,,,,,,,,,,,,,,,,,,,,,,,,,,,,
,,,,,851807,1,2024-07-12_18h28.28.695,experiment,2024.1.5,MacIntel,59.88023952,6691931c2c63981b064e1f0c,6691adde6d14fd83c2a18c22,,,,,,,,,,,,,,,,,,,,,,,,,,,,,,,,,,,,,,,,,,,,,,,,,,,,,,,,,,,,1274.1566,1282.1883,-0.240212674,0.241753472,1.0,0.0,0.0,2.0128,compass,0.0,17.0,17.0,2.0,1.0,SoundStimuli/SmellsLikeTeenSpirit_Nirvana_Original5S.wav,,,,,,,,,,,,,,,,,,,,,,,,,,,,,,,,,,,,,,,,,,,,,,,,,,,,,
,,,,,851807,1,2024-07-12_18h28.28.695,experiment,2024.1.5,MacIntel,59.88023952,6691931c2c63981b064e1f0c,6691adde6d14fd83c2a18c22,,,,,,,,,,,,,,,,,,,,,,,,,,,,,,,,,,,,,,,,,,,,,,,,,,,,,,,,,,,,1282.1931,1290.8357,-0.066831597,-0.266488715,1.0,0.0,0.0,2.6258,compass,0.0,18.0,18.0,21.0,1.0,SoundStimuli/BridgeOverTroubledWater_SimonAndGarfunkel_Original5S.wav,,,,,,,,,,,,,,,,,,,,,,,,,,,,,,,,,,,,,,,,,,,,,,,,,,,,,
,,,,,851807,1,2024-07-12_18h28.28.695,experiment,2024.1.5,MacIntel,59.88023952,6691931c2c63981b064e1f0c,6691adde6d14fd83c2a18c22,,,,,,,,,,,,,,,,,,,,,,,,,,,,,,,,,,,,,,,,,,,,,,,,,,,,,,,,,,,,1290.8407,1299.104,-0.242261285,-0.07359375,1.0,0.0,0.0,2.2445,compass,0.0,19.0,19.0,13.0,1.0,SoundStimuli/Perfect_EdSheeran_Cover5S.wav,,,,,,,,,,,,,,,,,,,,,,,,,,,,,,,,,,,,,,,,,,,,,,,,,,,,,
,,,,,851807,1,2024-07-12_18h28.28.695,experiment,2024.1.5,MacIntel,59.88023952,6691931c2c63981b064e1f0c,6691adde6d14fd83c2a18c22,,,,,,,,,,,,,,,,,,,,,,,,,,,,,,,,,,,,,,,,,,,,,,,,,,,,,,,,,,,,1299.1088,1305.4104,-0.130946181,0.113719618,1.0,0.0,0.0,0.2859,compass,0.0,20.0,20.0,30.0,1.0,SoundStimuli/SomebodyThatIUsedtoKnow_Gotye_Original5S.wav,,,,,,,,,,,,,,,,,,,,,,,,,,,,,,,,,,,,,,,,,,,,,,,,,,,,,
,,,,,851807,1,2024-07-12_18h28.28.695,experiment,2024.1.5,MacIntel,59.88023952,6691931c2c63981b064e1f0c,6691adde6d14fd83c2a18c22,,,,,,,,,,,,,,,,,,,,,,,,,,,,,,,,,,,,,,,,,,,,,,,,,,,,,,,,,,,,1305.4151,1311.7481,0.076766493,-0.129900174,1.0,0.0,0.0,0.3251,compass,0.0,21.0,21.0,14.0,1.0,SoundStimuli/LikeARollingStone_BobDylan_Original5S.wav,,,,,,,,,,,,,,,,,,,,,,,,,,,,,,,,,,,,,,,,,,,,,,,,,,,,,
,,,,,851807,1,2024-07-12_18h28.28.695,experiment,2024.1.5,MacIntel,59.88023952,6691931c2c63981b064e1f0c,6691adde6d14fd83c2a18c22,,,,,,,,,,,,,,,,,,,,,,,,,,,,,,,,,,,,,,,,,,,,,,,,,,,,,,,,,,,,1311.753,1318.0337,-0.168138021,0.14984809,1.0,0.0,0.0,0.2724,compass,0.0,22.0,22.0,7.0,1.0,SoundStimuli/MackTheKnife_BobbyDarin_Cover5S.wav,,,,,,,,,,,,,,,,,,,,,,,,,,,,,,,,,,,,,,,,,,,,,,,,,,,,,
,,,,,851807,1,2024-07-12_18h28.28.695,experiment,2024.1.5,MacIntel,59.88023952,6691931c2c63981b064e1f0c,6691adde6d14fd83c2a18c22,,,,,,,,,,,,,,,,,,,,,,,,,,,,,,,,,,,,,,,,,,,,,,,,,,,,,,,,,,,,1318.0383,1325.8171,0.055221354,-0.24859809,1.0,0.0,0.0,1.7729,compass,0.0,23.0,23.0,18.0,1.0,SoundStimuli/Weak_SWV_Cover5S.wav,,,,,,,,,,,,,,,,,,,,,,,,,,,,,,,,,,,,,,,,,,,,,,,,,,,,,
,,,,,851807,1,2024-07-12_18h28.28.695,experiment,2024.1.5,MacIntel,59.88023952,6691931c2c63981b064e1f0c,6691adde6d14fd83c2a18c22,,,,,,,,,,,,,,,,,,,,,,,,,,,,,,,,,,,,,,,,,,,,,,,,,,,,,,,,,,,,1325.822,1332.105,0.126966146,0.237291667,1.0,0.0,0.0,0.2698,compass,0.0,24.0,24.0,0.0,1.0,SoundStimuli/GimmeShelter_RollingStones_Original5S.wav,,,,,,,,,,,,,,,,,,,,,,,,,,,,,,,,,,,,,,,,,,,,,,,,,,,,,
,,,,,851807,1,2024-07-12_18h28.28.695,experiment,2024.1.5,MacIntel,59.88023952,6691931c2c63981b064e1f0c,6691adde6d14fd83c2a18c22,,,,,,,,,,,,,,,,,,,,,,,,,,,,,,,,,,,,,,,,,,,,,,,,,,,,,,,,,,,,1332.1099,1338.3695,0.18483941,0.182847222,1.0,0.0,0.0,0.2487,compass,0.0,25.0,25.0,1.0,1.0,SoundStimuli/Smooth_SantanaRobThomas_Original5S.wav,,,,,,,,,,,,,,,,,,,,,,,,,,,,,,,,,,,,,,,,,,,,,,,,,,,,,
,,,,,851807,1,2024-07-12_18h28.28.695,experiment,2024.1.5,MacIntel,59.88023952,6691931c2c63981b064e1f0c,6691adde6d14fd83c2a18c22,,,,,,,,,,,,,,,,,,,,,,,,,,,,,,,,,,,,,,,,,,,,,,,,,,,,,,,,,,,,1338.3741,1344.8801,0.148402778,-0.227217882,1.0,0.0,0.0,0.5044,compass,0.0,26.0,26.0,25.0,1.0,SoundStimuli/IllMakeLoveToYou_BoyzIIMen_Cover5S.wav,,,,,,,,,,,,,,,,,,,,,,,,,,,,,,,,,,,,,,,,,,,,,,,,,,,,,
,,,,,851807,1,2024-07-12_18h28.28.695,experiment,2024.1.5,MacIntel,59.88023952,6691931c2c63981b064e1f0c,6691adde6d14fd83c2a18c22,,,,,,,,,,,,,,,,,,,,,,,,,,,,,,,,,,,,,,,,,,,,,,,,,,,,,,,,,,,,1344.8849,1352.386,-0.103077257,-0.272374132,1.0,0.0,0.0,1.4963,compass,0.0,27.0,27.0,8.0,1.0,SoundStimuli/EndlessLove_DianaRossLionelRichie_Cover5S.wav,,,,,,,,,,,,,,,,,,,,,,,,,,,,,,,,,,,,,,,,,,,,,,,,,,,,,
,,,,,851807,1,2024-07-12_18h28.28.695,experiment,2024.1.5,MacIntel,59.88023952,6691931c2c63981b064e1f0c,6691adde6d14fd83c2a18c22,,,,,,,,,,,,,,,,,,,,,,,,,,,,,,,,,,,,,,,,,,,,,,,,,,,,,,,,,,,,1352.3909,1360.3406,-0.055533854,0.047508681,1.0,0.0,0.0,1.9484,compass,0.0,28.0,28.0,33.0,1.0,SoundStimuli/TheBoyIsMine_BrandyMonica_Original5S.wav,,,,,,,,,,,,,,,,,,,,,,,,,,,,,,,,,,,,,,,,,,,,,,,,,,,,,
,,,,,851807,1,2024-07-12_18h28.28.695,experiment,2024.1.5,MacIntel,59.88023952,6691931c2c63981b064e1f0c,6691adde6d14fd83c2a18c22,,,,,,,,,,,,,,,,,,,,,,,,,,,,,,,,,,,,,,,,,,,,,,,,,,,,,,,,,,,,1360.3454,1367.0632,-0.17343316,0.050013021,1.0,0.0,0.0,0.7135,compass,0.0,29.0,29.0,15.0,1.0,SoundStimuli/CrazyInLove_BeyonceFtJayZ_Cover5S.wav,,,,,,,,,,,,,,,,,,,,,,,,,,,,,,,,,,,,,,,,,,,,,,,,,,,,,
,,,,,851807,1,2024-07-12_18h28.28.695,experiment,2024.1.5,MacIntel,59.88023952,6691931c2c63981b064e1f0c,6691adde6d14fd83c2a18c22,,,,,,,,,,,,,,,,,,,,,,,,,,,,,,,,,,,,,,,,,,,,,,,,,,,,,,,,,,,,1367.068,1373.3934,0.272881944,0.261766493,1.0,0.0,0.0,0.3071,compass,0.0,30.0,30.0,3.0,1.0,SoundStimuli/PartyRockAnthem_LMFAO_Original5S.wav,,,,,,,,,,,,,,,,,,,,,,,,,,,,,,,,,,,,,,,,,,,,,,,,,,,,,
,,,,,851807,1,2024-07-12_18h28.28.695,experiment,2024.1.5,MacIntel,59.88023952,6691931c2c63981b064e1f0c,6691adde6d14fd83c2a18c22,,,,,,,,,,,,,,,,,,,,,,,,,,,,,,,,,,,,,,,,,,,,,,,,,,,,,,,,,,,,1373.3981,1379.8328,0.072621528,0.296809896,1.0,0.0,0.0,0.4249,compass,0.0,31.0,31.0,27.0,1.0,SoundStimuli/EyeOfTheTiger_Survivor_Cover5S.wav,,,,,,,,,,,,,,,,,,,,,,,,,,,,,,,,,,,,,,,,,,,,,,,,,,,,,
,,,,,851807,1,2024-07-12_18h28.28.695,experiment,2024.1.5,MacIntel,59.88023952,6691931c2c63981b064e1f0c,6691adde6d14fd83c2a18c22,,,,,,,,,,,,,,,,,,,,,,,,,,,,,,,,,,,,,,,,,,,,,,,,,,,,,,,,,,,,1379.8377,1386.3566,0.094852431,-0.095772569,1.0,0.0,0.0,0.5045,compass,0.0,32.0,32.0,20.0,1.0,SoundStimuli/FlashdanceWhatAFeeling_IreneCara_Original5S.wav,,,,,,,,,,,,,,,,,,,,,,,,,,,,,,,,,,,,,,,,,,,,,,,,,,,,,
,,,,,851807,1,2024-07-12_18h28.28.695,experiment,2024.1.5,MacIntel,59.88023952,6691931c2c63981b064e1f0c,6691adde6d14fd83c2a18c22,,,,,,,,,,,,,,,,,,,,,,,,,,,,,,,,,,,,,,,,,,,,,,,,,,,,,,,,,,,,1386.3613,1392.7476,0.32093316,-0.317955729,1.0,0.0,0.0,0.3676,compass,0.0,33.0,33.0,19.0,1.0,SoundStimuli/YouLightUpMyLife_DebbyBoone_Original5S.wav,,,,,,,,,,,,,,,,,,,,,,,,,,,,,,,,,,,,,,,,,,,,,,,,,,,,,
,,,,,851807,1,2024-07-12_18h28.28.695,experiment,2024.1.5,MacIntel,59.88023952,6691931c2c63981b064e1f0c,6691adde6d14fd83c2a18c22,,,,,,,,,,,,,,,,,,,,,,,,,,,,,,,,,,,,,,,,,,,,,,,,,,,,,,,,,,,,1392.7526,1400.7761,-0.264244792,-0.26969184,1.0,0.0,0.0,2.0043,compass,0.0,34.0,34.0,12.0,1.0,SoundStimuli/UnbreakMyHeart_ToniBraxton_Original5S.wav,,,,,,,,,,,,,,,,,,,,,,,,,,,,,,,,,,,,,,,,,,,,,,,,,,,,,
,,,,,851807,1,2024-07-12_18h28.28.695,experiment,2024.1.5,MacIntel,59.88023952,6691931c2c63981b064e1f0c,6691adde6d14fd83c2a18c22,,,,,,,,,,,,,,,,,,,,,,,,,,,,,,,,,,,,,,,,,,,,,,,,,,,,,,,,,,,,,,,,,,,,,,,,,,,1400.781,1400.781,,,,1400.7811,1400.7811,,,,0.0,3.0,3.0,3.0,1.0,block_order/blockD.xlsx,,,,,,,,,,,,,,,,,,,,,,,,,,,,,,,,,,,,,
,,,,,851807,1,2024-07-12_18h28.28.695,experiment,2024.1.5,MacIntel,59.88023952,6691931c2c63981b064e1f0c,6691adde6d14fd83c2a18c22,,,,,,,,,,,,,,,,,,,,,,,,,,,,,,,,,,,,,,,,,,,,,,,,,,,,,,,,,,,,,,,,,,,,,,,,,,,,,,,,,,,,,,,,,,,26.0,Item 1,"Classically trained ballerina, pianist from age 7-16",Item 6,Spotify,2.0,6.0,"Driving, exercising, hanging out, studying, working",Rarely,Often,Never,Rarely,Always,Never,Always,Sometimes,Rarely,Rarely,Never,Always,Often,Rarely,Sometimes,Sometimes,,Hip Hop,R&B,Classic rock,I listen more frequently now than I did when I was younger,No,0.0,0.0,0.0,0.0,1.0,,
,,,,,851807,1,2024-07-12_18h28.28.695,experiment,2024.1.5,MacIntel,59.88023952,6691931c2c63981b064e1f0c,6691adde6d14fd83c2a18c22,,,,,,,,,,,,,,,,,,,,,,,,,,,,,,,,,,,,,,,,,,,,,,,,,,,,,,,,,,,,,,,,,,,,,,,,,,,,,,,,,,,,,,,,,,,,,,,,,,,,,,,,,,,,,,,,,,,,,,,,,,,,,,1536.9913,1539.1448
