welcome.started,welcome.stopped,space_to_continue.keys,space_to_continue.rt,space_to_continue.duration,participant,session,date,expName,psychopyVersion,OS,frameRate,STUDY_ID,SESSION_ID,consent.consent,consent.consent_recontact,consent_check.started,consent_check.stopped,calibration_ready.started,calibration_ready.stopped,cal_ready.keys,cal_ready.rt,cal_ready.duration,calibration.started,calibration.stopped,mouse.x,mouse.y,mouse.leftButton,mouse.midButton,mouse.rightButton,mouse.time,mouse.clicked_name,move_on.keys,move_on.rt,move_on.duration,run_cal.thisRepN,run_cal.thisTrialN,run_cal.thisN,run_cal.thisIndex,run_cal.ran,emotion_training_ready.started,emotion_training_ready.stopped,training_move_on.keys,training_move_on.rt,training_move_on.duration,examples.started,examples.stopped,emotion_scale.started,emotion_scale.stopped,scale_next.keys,scale_next.rt,scale_next.duration,instructions.started,instructions.stopped,next.keys,next.rt,next.duration,practice_task.started,practice_task.stopped,mouse_rating_2.x,mouse_rating_2.y,mouse_rating_2.leftButton,mouse_rating_2.midButton,mouse_rating_2.rightButton,mouse_rating_2.time,mouse_rating_2.clicked_name,ready.started,ready.stopped,key_resp.keys,key_resp.rt,key_resp.duration,set_group.started,set_group.stopped,task.started,task.stopped,mouse_rating.x,mouse_rating.y,mouse_rating.leftButton,mouse_rating.midButton,mouse_rating.rightButton,mouse_rating.time,mouse_rating.clicked_name,trials.thisRepN,trials.thisTrialN,trials.thisN,trials.thisIndex,trials.ran,clip,short_break.started,short_break.stopped,space_to_move_on.keys,space_to_move_on.rt,space_to_move_on.duration,instruction_reminder.started,instruction_reminder.stopped,reminder_move_on.keys,reminder_move_on.rt,reminder_move_on.duration,blocks.thisRepN,blocks.thisTrialN,blocks.thisN,blocks.thisIndex,blocks.ran,block,post_survey.age,post_survey.musician,post_survey.music_making,post_survey.listen_time,post_survey.medium,post_survey.music_seeking,post_survey.music_choice,post_survey.activities,post_survey.question1.Folk/indie,post_survey.question1.Electronic (EDM),post_survey.question1.Reggae,post_survey.question1.Ambient,post_survey.question1.A cappella,post_survey.question1.R&B,post_survey.question1.Alternative rock,post_survey.question1.Classical,post_survey.question1.Metal,post_survey.question1.Disco,post_survey.question1.Classic rock,post_survey.question1.Pop,post_survey.question1.Country,post_survey.question1.Latin,post_survey.question1.Hip hop,post_survey.question1.Jazz,post_survey.other_genres,post_survey.genres_ranked.text1,post_survey.genres_ranked.text2,post_survey.genres_ranked.text3,post_survey.habit_change,post_survey.habits,show_exp.thisRepN,show_exp.thisTrialN,show_exp.thisN,show_exp.thisIndex,show_exp.ran,goodbye.started,goodbye.stopped
0.0003,5.5024,space,5.3892,0.0004,875583,1,2024-07-12_18h23.31.694,experiment,2024.1.5,Win32,8.568980291,6691931c2c63981b064e1f0c,6691aca6457da644d17fb2e3,,,,,,,,,,,,,,,,,,,,,,,,,,,,,,,,,,,,,,,,,,,,,,,,,,,,,,,,,,,,,,,,,,,,,,,,,,,,,,,,,,,,,,,,,,,,,,,,,,,,,,,,,,,,,,,,,,,,,,,,,,,,,,,
,,,,,875583,1,2024-07-12_18h23.31.694,experiment,2024.1.5,Win32,8.568980291,6691931c2c63981b064e1f0c,6691aca6457da644d17fb2e3,yes,no,,,,,,,,,,,,,,,,,,,,,,,,,,,,,,,,,,,,,,,,,,,,,,,,,,,,,,,,,,,,,,,,,,,,,,,,,,,,,,,,,,,,,,,,,,,,,,,,,,,,,,,,,,,,,,,,,,,,,,,,,,,,,
,,,,,875583,1,2024-07-12_18h23.31.694,experiment,2024.1.5,Win32,8.568980291,6691931c2c63981b064e1f0c,6691aca6457da644d17fb2e3,,,20.1033,20.1035,,,,,,,,,,,,,,,,,,,,,,,,,,,,,,,,,,,,,,,,,,,,,,,,,,,,,,,,,,,,,,,,,,,,,,,,,,,,,,,,,,,,,,,,,,,,,,,,,,,,,,,,,,,,,,,,,,,,,,,,,,,
,,,,,875583,1,2024-07-12_18h23.31.694,experiment,2024.1.5,Win32,8.568980291,6691931c2c63981b064e1f0c,6691aca6457da644d17fb2e3,,,,,20.1065,24.1684,space,3.9698,,24.1761,49.8663,"[-0.020370342113353587,-0.021296253910771123]","[-0.42407410233109083,-0.42407410233109083]","[1,1]","[0,0]","[0,0]","[18.877900000005965,19.45679999998211]","[""play_button"",""play_button""]",y,24.4204,0.0001,0.0,0.0,0.0,0.0,1.0,,,,,,,,,,,,,,,,,,,,,,,,,,,,,,,,,,,,,,,,,,,,,,,,,,,,,,,,,,,,,,,,,,,,,,,,,,,,,,,,,,,,,,,,,,,,,,,,,,,,,
,,,,,875583,1,2024-07-12_18h23.31.694,experiment,2024.1.5,Win32,8.568980291,6691931c2c63981b064e1f0c,6691aca6457da644d17fb2e3,,,,,,,,,,,,,,,,,,,,,,,,,,,49.8668,65.0772,space,15.0658,0.0003,65.0773,185.2005,185.2007,196.9903,right,8.1107,0.0002,196.9904,204.6468,space,7.4976,0.0002,204.647,218.1617,0.333333333,-0.328703704,1.0,0.0,0.0,6.2895,compass_2,218.1619,220.3195,space,2.0365,,220.3197,220.3279,220.3499,228.964,0.175925926,-0.33148151,1.0,0.0,0.0,2.5803,compass,0.0,0.0,0.0,10.0,1.0,SoundStimuli/BadDay_DanielPowter_Original5S.wav,,,,,,,,,,,,,,,,,,,,,,,,,,,,,,,,,,,,,,,,,,,,,,,,,,,,,
,,,,,875583,1,2024-07-12_18h23.31.694,experiment,2024.1.5,Win32,8.568980291,6691931c2c63981b064e1f0c,6691aca6457da644d17fb2e3,,,,,,,,,,,,,,,,,,,,,,,,,,,,,,,,,,,,,,,,,,,,,,,,,,,,,,,,,,,,228.9716,237.0803,0.327777863,0.262962959,1.0,0.0,0.0,2.0808,compass,0.0,1.0,1.0,8.0,1.0,SoundStimuli/LikeAPrayer_Madonna_Cover5S.wav,,,,,,,,,,,,,,,,,,,,,,,,,,,,,,,,,,,,,,,,,,,,,,,,,,,,,
,,,,,875583,1,2024-07-12_18h23.31.694,experiment,2024.1.5,Win32,8.568980291,6691931c2c63981b064e1f0c,6691aca6457da644d17fb2e3,,,,,,,,,,,,,,,,,,,,,,,,,,,,,,,,,,,,,,,,,,,,,,,,,,,,,,,,,,,,237.0877,249.8601,0.172222208,-0.328703704,1.0,0.0,0.0,6.7531,compass,0.0,2.0,2.0,34.0,1.0,SoundStimuli/AChangeIsGonnaCome_SamCooke_Original5S.wav,,,,,,,,,,,,,,,,,,,,,,,,,,,,,,,,,,,,,,,,,,,,,,,,,,,,,
,,,,,875583,1,2024-07-12_18h23.31.694,experiment,2024.1.5,Win32,8.568980291,6691931c2c63981b064e1f0c,6691aca6457da644d17fb2e3,,,,,,,,,,,,,,,,,,,,,,,,,,,,,,,,,,,,,,,,,,,,,,,,,,,,,,,,,,,,249.8678,257.8951,0.337962963,0.342592593,1.0,0.0,0.0,2.0116,compass,0.0,3.0,3.0,20.0,1.0,SoundStimuli/HeyYa_Outkast_Original5S.wav,,,,,,,,,,,,,,,,,,,,,,,,,,,,,,,,,,,,,,,,,,,,,,,,,,,,,
,,,,,875583,1,2024-07-12_18h23.31.694,experiment,2024.1.5,Win32,8.568980291,6691931c2c63981b064e1f0c,6691aca6457da644d17fb2e3,,,,,,,,,,,,,,,,,,,,,,,,,,,,,,,,,,,,,,,,,,,,,,,,,,,,,,,,,,,,257.9031,267.1709,-0.000925912,-0.334259245,1.0,0.0,0.0,3.2668,compass,0.0,4.0,4.0,5.0,1.0,SoundStimuli/MyGirl_TheTemptations_Cover5S.wav,,,,,,,,,,,,,,,,,,,,,,,,,,,,,,,,,,,,,,,,,,,,,,,,,,,,,
,,,,,875583,1,2024-07-12_18h23.31.694,experiment,2024.1.5,Win32,8.568980291,6691931c2c63981b064e1f0c,6691aca6457da644d17fb2e3,,,,,,,,,,,,,,,,,,,,,,,,,,,,,,,,,,,,,,,,,,,,,,,,,,,,,,,,,,,,267.1788,278.3931,-0.087037051,-0.329629616,1.0,0.0,0.0,5.0906,compass,0.0,5.0,5.0,13.0,1.0,SoundStimuli/GodOnlyKnows_TheBeachBoys_Original5S.wav,,,,,,,,,,,,,,,,,,,,,,,,,,,,,,,,,,,,,,,,,,,,,,,,,,,,,
,,,,,875583,1,2024-07-12_18h23.31.694,experiment,2024.1.5,Win32,8.568980291,6691931c2c63981b064e1f0c,6691aca6457da644d17fb2e3,,,,,,,,,,,,,,,,,,,,,,,,,,,,,,,,,,,,,,,,,,,,,,,,,,,,,,,,,,,,278.4011,286.862,0.041666667,0.264814818,1.0,0.0,0.0,2.3492,compass,0.0,6.0,6.0,1.0,1.0,SoundStimuli/Stronger_KanyeWest_Cover5S.wav,,,,,,,,,,,,,,,,,,,,,,,,,,,,,,,,,,,,,,,,,,,,,,,,,,,,,
,,,,,875583,1,2024-07-12_18h23.31.694,experiment,2024.1.5,Win32,8.568980291,6691931c2c63981b064e1f0c,6691aca6457da644d17fb2e3,,,,,,,,,,,,,,,,,,,,,,,,,,,,,,,,,,,,,,,,,,,,,,,,,,,,,,,,,,,,286.8704,297.9886,0.070370356,-0.235185199,1.0,0.0,0.0,5.1161,compass,0.0,7.0,7.0,12.0,1.0,SoundStimuli/IWillAlwaysLoveYou_WhitneyHouston_Original5S.wav,,,,,,,,,,,,,,,,,,,,,,,,,,,,,,,,,,,,,,,,,,,,,,,,,,,,,
,,,,,875583,1,2024-07-12_18h23.31.694,experiment,2024.1.5,Win32,8.568980291,6691931c2c63981b064e1f0c,6691aca6457da644d17fb2e3,,,,,,,,,,,,,,,,,,,,,,,,,,,,,,,,,,,,,,,,,,,,,,,,,,,,,,,,,,,,297.9966,306.5898,0.308333362,0.288888878,1.0,0.0,0.0,2.5,compass,0.0,8.0,8.0,21.0,1.0,SoundStimuli/GoodGollyMissMolly_LittleRichard_Original5S.wav,,,,,,,,,,,,,,,,,,,,,,,,,,,,,,,,,,,,,,,,,,,,,,,,,,,,,
,,,,,875583,1,2024-07-12_18h23.31.694,experiment,2024.1.5,Win32,8.568980291,6691931c2c63981b064e1f0c,6691aca6457da644d17fb2e3,,,,,,,,,,,,,,,,,,,,,,,,,,,,,,,,,,,,,,,,,,,,,,,,,,,,,,,,,,,,306.5979,316.7433,-0.033333319,0.269444448,1.0,0.0,0.0,4.0493,compass,0.0,9.0,9.0,23.0,1.0,SoundStimuli/StrawberryFieldsForever_TheBeatles_Cover5S.wav,,,,,,,,,,,,,,,,,,,,,,,,,,,,,,,,,,,,,,,,,,,,,,,,,,,,,
,,,,,875583,1,2024-07-12_18h23.31.694,experiment,2024.1.5,Win32,8.568980291,6691931c2c63981b064e1f0c,6691aca6457da644d17fb2e3,,,,,,,,,,,,,,,,,,,,,,,,,,,,,,,,,,,,,,,,,,,,,,,,,,,,,,,,,,,,316.7509,328.2745,-0.185185185,0.15648146,1.0,0.0,0.0,5.44,compass,0.0,10.0,10.0,16.0,1.0,SoundStimuli/BohemianRhapsody_Queen_Cover5S.wav,,,,,,,,,,,,,,,,,,,,,,,,,,,,,,,,,,,,,,,,,,,,,,,,,,,,,
,,,,,875583,1,2024-07-12_18h23.31.694,experiment,2024.1.5,Win32,8.568980291,6691931c2c63981b064e1f0c,6691aca6457da644d17fb2e3,,,,,,,,,,,,,,,,,,,,,,,,,,,,,,,,,,,,,,,,,,,,,,,,,,,,,,,,,,,,328.2847,334.9584,0.337037122,0.342592593,1.0,0.0,0.0,0.5961,compass,0.0,11.0,11.0,24.0,1.0,SoundStimuli/UptownFunk_MarkRonson_Cover5S.wav,,,,,,,,,,,,,,,,,,,,,,,,,,,,,,,,,,,,,,,,,,,,,,,,,,,,,
,,,,,875583,1,2024-07-12_18h23.31.694,experiment,2024.1.5,Win32,8.568980291,6691931c2c63981b064e1f0c,6691aca6457da644d17fb2e3,,,,,,,,,,,,,,,,,,,,,,,,,,,,,,,,,,,,,,,,,,,,,,,,,,,,,,,,,,,,334.9669,345.1744,0.330555527,0.239814811,1.0,0.0,0.0,4.192,compass,0.0,12.0,12.0,0.0,1.0,SoundStimuli/StayinAlive_BeeGees_Cover5S.wav,,,,,,,,,,,,,,,,,,,,,,,,,,,,,,,,,,,,,,,,,,,,,,,,,,,,,
,,,,,875583,1,2024-07-12_18h23.31.694,experiment,2024.1.5,Win32,8.568980291,6691931c2c63981b064e1f0c,6691aca6457da644d17fb2e3,,,,,,,,,,,,,,,,,,,,,,,,,,,,,,,,,,,,,,,,,,,,,,,,,,,,,,,,,,,,345.1849,355.7302,0.248148176,0.249074071,1.0,0.0,0.0,4.5365,compass,0.0,13.0,13.0,30.0,1.0,SoundStimuli/PokerFace_LadyGaga_Cover5S.wav,,,,,,,,,,,,,,,,,,,,,,,,,,,,,,,,,,,,,,,,,,,,,,,,,,,,,
,,,,,875583,1,2024-07-12_18h23.31.694,experiment,2024.1.5,Win32,8.568980291,6691931c2c63981b064e1f0c,6691aca6457da644d17fb2e3,,,,,,,,,,,,,,,,,,,,,,,,,,,,,,,,,,,,,,,,,,,,,,,,,,,,,,,,,,,,355.7375,363.164,0.339814787,0.340740734,1.0,0.0,0.0,1.3149,compass,0.0,14.0,14.0,15.0,1.0,SoundStimuli/TikTok_Kesha_Original5S.wav,,,,,,,,,,,,,,,,,,,,,,,,,,,,,,,,,,,,,,,,,,,,,,,,,,,,,
,,,,,875583,1,2024-07-12_18h23.31.694,experiment,2024.1.5,Win32,8.568980291,6691931c2c63981b064e1f0c,6691aca6457da644d17fb2e3,,,,,,,,,,,,,,,,,,,,,,,,,,,,,,,,,,,,,,,,,,,,,,,,,,,,,,,,,,,,363.1711,373.4969,0.161111125,-0.014814836,1.0,0.0,0.0,4.239,compass,0.0,15.0,15.0,3.0,1.0,SoundStimuli/NoScrubs_TLC_Cover5S.wav,,,,,,,,,,,,,,,,,,,,,,,,,,,,,,,,,,,,,,,,,,,,,,,,,,,,,
,,,,,875583,1,2024-07-12_18h23.31.694,experiment,2024.1.5,Win32,8.568980291,6691931c2c63981b064e1f0c,6691aca6457da644d17fb2e3,,,,,,,,,,,,,,,,,,,,,,,,,,,,,,,,,,,,,,,,,,,,,,,,,,,,,,,,,,,,373.5045,382.5925,0.335185157,0.26666666,1.0,0.0,0.0,3.0426,compass,0.0,16.0,16.0,6.0,1.0,SoundStimuli/Levitating_DuaLipa_Original5S.wav,,,,,,,,,,,,,,,,,,,,,,,,,,,,,,,,,,,,,,,,,,,,,,,,,,,,,
,,,,,875583,1,2024-07-12_18h23.31.694,experiment,2024.1.5,Win32,8.568980291,6691931c2c63981b064e1f0c,6691aca6457da644d17fb2e3,,,,,,,,,,,,,,,,,,,,,,,,,,,,,,,,,,,,,,,,,,,,,,,,,,,,,,,,,,,,382.6022,393.8773,0.318518603,0.062962956,1.0,0.0,0.0,5.1993,compass,0.0,17.0,17.0,31.0,1.0,SoundStimuli/TheBattleOfNewOrleans_JohnnyHorton_Original5S.wav,,,,,,,,,,,,,,,,,,,,,,,,,,,,,,,,,,,,,,,,,,,,,,,,,,,,,
,,,,,875583,1,2024-07-12_18h23.31.694,experiment,2024.1.5,Win32,8.568980291,6691931c2c63981b064e1f0c,6691aca6457da644d17fb2e3,,,,,,,,,,,,,,,,,,,,,,,,,,,,,,,,,,,,,,,,,,,,,,,,,,,,,,,,,,,,393.8849,402.4315,0.333333333,-0.281481496,1.0,0.0,0.0,2.4304,compass,0.0,18.0,18.0,33.0,1.0,SoundStimuli/StandByMe_BenEKing_Original5S.wav,,,,,,,,,,,,,,,,,,,,,,,,,,,,,,,,,,,,,,,,,,,,,,,,,,,,,
,,,,,875583,1,2024-07-12_18h23.31.694,experiment,2024.1.5,Win32,8.568980291,6691931c2c63981b064e1f0c,6691aca6457da644d17fb2e3,,,,,,,,,,,,,,,,,,,,,,,,,,,,,,,,,,,,,,,,,,,,,,,,,,,,,,,,,,,,402.4391,413.7978,0.10092594,0.286111108,1.0,0.0,0.0,5.2818,compass,0.0,19.0,19.0,28.0,1.0,SoundStimuli/ComeAndGetYourLove_Redbone_Cover5S.wav,,,,,,,,,,,,,,,,,,,,,,,,,,,,,,,,,,,,,,,,,,,,,,,,,,,,,
,,,,,875583,1,2024-07-12_18h23.31.694,experiment,2024.1.5,Win32,8.568980291,6691931c2c63981b064e1f0c,6691aca6457da644d17fb2e3,,,,,,,,,,,,,,,,,,,,,,,,,,,,,,,,,,,,,,,,,,,,,,,,,,,,,,,,,,,,413.8056,422.8665,0.335185157,-0.334259245,1.0,0.0,0.0,3.0511,compass,0.0,20.0,20.0,27.0,1.0,SoundStimuli/ShapeofYou_EdSheeran_Cover5S.wav,,,,,,,,,,,,,,,,,,,,,,,,,,,,,,,,,,,,,,,,,,,,,,,,,,,,,
,,,,,875583,1,2024-07-12_18h23.31.694,experiment,2024.1.5,Win32,8.568980291,6691931c2c63981b064e1f0c,6691aca6457da644d17fb2e3,,,,,,,,,,,,,,,,,,,,,,,,,,,,,,,,,,,,,,,,,,,,,,,,,,,,,,,,,,,,422.8754,432.8338,0.33148151,-0.268518519,1.0,0.0,0.0,3.8163,compass,0.0,21.0,21.0,22.0,1.0,SoundStimuli/RockWithYou_MichaelJackson_Cover5S.wav,,,,,,,,,,,,,,,,,,,,,,,,,,,,,,,,,,,,,,,,,,,,,,,,,,,,,
,,,,,875583,1,2024-07-12_18h23.31.694,experiment,2024.1.5,Win32,8.568980291,6691931c2c63981b064e1f0c,6691aca6457da644d17fb2e3,,,,,,,,,,,,,,,,,,,,,,,,,,,,,,,,,,,,,,,,,,,,,,,,,,,,,,,,,,,,432.8432,440.7061,0.336111139,-0.312962991,1.0,0.0,0.0,1.7356,compass,0.0,22.0,22.0,19.0,1.0,SoundStimuli/LetsGetItOn_MarvinGaye_Original5S.wav,,,,,,,,,,,,,,,,,,,,,,,,,,,,,,,,,,,,,,,,,,,,,,,,,,,,,
,,,,,875583,1,2024-07-12_18h23.31.694,experiment,2024.1.5,Win32,8.568980291,6691931c2c63981b064e1f0c,6691aca6457da644d17fb2e3,,,,,,,,,,,,,,,,,,,,,,,,,,,,,,,,,,,,,,,,,,,,,,,,,,,,,,,,,,,,440.7148,450.6626,0.335185157,-0.214814857,1.0,0.0,0.0,3.8536,compass,0.0,23.0,23.0,17.0,1.0,SoundStimuli/Fallin_AliciaKeys_Cover5S.wav,,,,,,,,,,,,,,,,,,,,,,,,,,,,,,,,,,,,,,,,,,,,,,,,,,,,,
,,,,,875583,1,2024-07-12_18h23.31.694,experiment,2024.1.5,Win32,8.568980291,6691931c2c63981b064e1f0c,6691aca6457da644d17fb2e3,,,,,,,,,,,,,,,,,,,,,,,,,,,,,,,,,,,,,,,,,,,,,,,,,,,,,,,,,,,,450.6715,460.6232,-0.419444437,-0.362963005,1.0,0.0,0.0,1.6627,compass,0.0,24.0,24.0,2.0,1.0,SoundStimuli/Mood_24kGoldnianndior_Original5S.wav,,,,,,,,,,,,,,,,,,,,,,,,,,,,,,,,,,,,,,,,,,,,,,,,,,,,,
,,,,,875583,1,2024-07-12_18h23.31.694,experiment,2024.1.5,Win32,8.568980291,6691931c2c63981b064e1f0c,6691aca6457da644d17fb2e3,,,,,,,,,,,,,,,,,,,,,,,,,,,,,,,,,,,,,,,,,,,,,,,,,,,,,,,,,,,,460.6313,471.3584,0.309259344,-0.039814808,1.0,0.0,0.0,4.6754,compass,0.0,25.0,25.0,7.0,1.0,SoundStimuli/NoOne_AliciaKeys_Original5S.wav,,,,,,,,,,,,,,,,,,,,,,,,,,,,,,,,,,,,,,,,,,,,,,,,,,,,,
,,,,,875583,1,2024-07-12_18h23.31.694,experiment,2024.1.5,Win32,8.568980291,6691931c2c63981b064e1f0c,6691aca6457da644d17fb2e3,,,,,,,,,,,,,,,,,,,,,,,,,,,,,,,,,,,,,,,,,,,,,,,,,,,,,,,,,,,,471.3691,480.5623,0.272222236,0.025000007,1.0,0.0,0.0,3.0602,compass,0.0,26.0,26.0,11.0,1.0,SoundStimuli/Superstition_StevieWonder_Original5S.wav,,,,,,,,,,,,,,,,,,,,,,,,,,,,,,,,,,,,,,,,,,,,,,,,,,,,,
,,,,,875583,1,2024-07-12_18h23.31.694,experiment,2024.1.5,Win32,8.568980291,6691931c2c63981b064e1f0c,6691aca6457da644d17fb2e3,,,,,,,,,,,,,,,,,,,,,,,,,,,,,,,,,,,,,,,,,,,,,,,,,,,,,,,,,,,,480.5698,488.9961,-0.060185185,-0.330555598,1.0,0.0,0.0,2.4045,compass,0.0,27.0,27.0,18.0,1.0,SoundStimuli/AnotherOneBitesTheDust_Queen_Cover5S.wav,,,,,,,,,,,,,,,,,,,,,,,,,,,,,,,,,,,,,,,,,,,,,,,,,,,,,
,,,,,875583,1,2024-07-12_18h23.31.694,experiment,2024.1.5,Win32,8.568980291,6691931c2c63981b064e1f0c,6691aca6457da644d17fb2e3,,,,,,,,,,,,,,,,,,,,,,,,,,,,,,,,,,,,,,,,,,,,,,,,,,,,,,,,,,,,489.0038,495.5109,0.337962963,0.341666663,1.0,0.0,0.0,0.4436,compass,0.0,28.0,28.0,26.0,1.0,SoundStimuli/LivinOnAPrayer_BonJovi_Original5S.wav,,,,,,,,,,,,,,,,,,,,,,,,,,,,,,,,,,,,,,,,,,,,,,,,,,,,,
,,,,,875583,1,2024-07-12_18h23.31.694,experiment,2024.1.5,Win32,8.568980291,6691931c2c63981b064e1f0c,6691aca6457da644d17fb2e3,,,,,,,,,,,,,,,,,,,,,,,,,,,,,,,,,,,,,,,,,,,,,,,,,,,,,,,,,,,,495.5184,505.9148,0.12962963,0.336111104,1.0,0.0,0.0,4.3036,compass,0.0,29.0,29.0,14.0,1.0,SoundStimuli/BlindingLights_TheWeeknd_Cover5S.wav,,,,,,,,,,,,,,,,,,,,,,,,,,,,,,,,,,,,,,,,,,,,,,,,,,,,,
,,,,,875583,1,2024-07-12_18h23.31.694,experiment,2024.1.5,Win32,8.568980291,6691931c2c63981b064e1f0c,6691aca6457da644d17fb2e3,,,,,,,,,,,,,,,,,,,,,,,,,,,,,,,,,,,,,,,,,,,,,,,,,,,,,,,,,,,,505.922,517.9084,0.33148151,0.260185189,1.0,0.0,0.0,5.8946,compass,0.0,30.0,30.0,32.0,1.0,SoundStimuli/HeatWaves_GlassAnimals_Cover5S.wav,,,,,,,,,,,,,,,,,,,,,,,,,,,,,,,,,,,,,,,,,,,,,,,,,,,,,
,,,,,875583,1,2024-07-12_18h23.31.694,experiment,2024.1.5,Win32,8.568980291,6691931c2c63981b064e1f0c,6691aca6457da644d17fb2e3,,,,,,,,,,,,,,,,,,,,,,,,,,,,,,,,,,,,,,,,,,,,,,,,,,,,,,,,,,,,517.9164,528.5742,-0.051851838,-0.323148162,1.0,0.0,0.0,4.5751,compass,0.0,31.0,31.0,29.0,1.0,SoundStimuli/OldTownRoad_LilNasX_Cover5S.wav,,,,,,,,,,,,,,,,,,,,,,,,,,,,,,,,,,,,,,,,,,,,,,,,,,,,,
,,,,,875583,1,2024-07-12_18h23.31.694,experiment,2024.1.5,Win32,8.568980291,6691931c2c63981b064e1f0c,6691aca6457da644d17fb2e3,,,,,,,,,,,,,,,,,,,,,,,,,,,,,,,,,,,,,,,,,,,,,,,,,,,,,,,,,,,,528.5822,538.2808,0.334259316,0.193518497,1.0,0.0,0.0,3.6848,compass,0.0,32.0,32.0,9.0,1.0,SoundStimuli/Despacito_LuisFonsiDaddyYankee_Original5S.wav,,,,,,,,,,,,,,,,,,,,,,,,,,,,,,,,,,,,,,,,,,,,,,,,,,,,,
,,,,,875583,1,2024-07-12_18h23.31.694,experiment,2024.1.5,Win32,8.568980291,6691931c2c63981b064e1f0c,6691aca6457da644d17fb2e3,,,,,,,,,,,,,,,,,,,,,,,,,,,,,,,,,,,,,,,,,,,,,,,,,,,,,,,,,,,,538.2811,548.4705,0.329629686,0.187037044,1.0,0.0,0.0,4.1025,compass,0.0,33.0,33.0,4.0,1.0,SoundStimuli/GetUrFreakOn_MissyElliot_Cover5S.wav,,,,,,,,,,,,,,,,,,,,,,,,,,,,,,,,,,,,,,,,,,,,,,,,,,,,,
,,,,,875583,1,2024-07-12_18h23.31.694,experiment,2024.1.5,Win32,8.568980291,6691931c2c63981b064e1f0c,6691aca6457da644d17fb2e3,,,,,,,,,,,,,,,,,,,,,,,,,,,,,,,,,,,,,,,,,,,,,,,,,,,,,,,,,,,,548.4783,559.5961,-0.276851866,0.227777781,1.0,0.0,0.0,4.984,compass,0.0,34.0,34.0,25.0,1.0,SoundStimuli/Respect_ArethaFranklin_Cover5S.wav,,,,,,,,,,,,,,,,,,,,,,,,,,,,,,,,,,,,,,,,,,,,,,,,,,,,,
,,,,,875583,1,2024-07-12_18h23.31.694,experiment,2024.1.5,Win32,8.568980291,6691931c2c63981b064e1f0c,6691aca6457da644d17fb2e3,,,,,,,,,,,,,,,,,,,,,,,,,,,,,,,,,,,,,,,,,,,,,,,,,,,,,,,,,,,,,,,,,,,,,,,,,,,559.6048,561.889,space,2.166,0.0001,561.8891,568.0173,right,5.997,0.0003,0.0,0.0,0.0,0.0,1.0,block_order/blockC.xlsx,,,,,,,,,,,,,,,,,,,,,,,,,,,,,,,,,,,,,
,,,,,875583,1,2024-07-12_18h23.31.694,experiment,2024.1.5,Win32,8.568980291,6691931c2c63981b064e1f0c,6691aca6457da644d17fb2e3,,,,,,,,,,,,,,,,,,,,,,,,,,,,,,,,,,,,,,,,,,,,,,,,,,,,,,,,,,,,568.0348,577.3499,0.330555527,0.303703697,1.0,0.0,0.0,3.3083,compass,0.0,0.0,0.0,27.0,1.0,SoundStimuli/EyeOfTheTiger_Survivor_Original5S.wav,,,,,,,,,,,,,,,,,,,,,,,,,,,,,,,,,,,,,,,,,,,,,,,,,,,,,
,,,,,875583,1,2024-07-12_18h23.31.694,experiment,2024.1.5,Win32,8.568980291,6691931c2c63981b064e1f0c,6691aca6457da644d17fb2e3,,,,,,,,,,,,,,,,,,,,,,,,,,,,,,,,,,,,,,,,,,,,,,,,,,,,,,,,,,,,577.3604,589.8244,0.064814815,-0.289814843,1.0,0.0,0.0,6.3673,compass,0.0,1.0,1.0,33.0,1.0,SoundStimuli/TheBoyIsMine_BrandyMonica_Cover5S.wav,,,,,,,,,,,,,,,,,,,,,,,,,,,,,,,,,,,,,,,,,,,,,,,,,,,,,
,,,,,875583,1,2024-07-12_18h23.31.694,experiment,2024.1.5,Win32,8.568980291,6691931c2c63981b064e1f0c,6691aca6457da644d17fb2e3,,,,,,,,,,,,,,,,,,,,,,,,,,,,,,,,,,,,,,,,,,,,,,,,,,,,,,,,,,,,589.8326,599.7262,0.236111111,0.249074071,1.0,0.0,0.0,3.8758,compass,0.0,2.0,2.0,11.0,1.0,SoundStimuli/BlurredLines_RobinThicke_Original5S.wav,,,,,,,,,,,,,,,,,,,,,,,,,,,,,,,,,,,,,,,,,,,,,,,,,,,,,
,,,,,875583,1,2024-07-12_18h23.31.694,experiment,2024.1.5,Win32,8.568980291,6691931c2c63981b064e1f0c,6691aca6457da644d17fb2e3,,,,,,,,,,,,,,,,,,,,,,,,,,,,,,,,,,,,,,,,,,,,,,,,,,,,,,,,,,,,599.7345,607.4322,0.330555527,0.000925912,1.0,0.0,0.0,1.5498,compass,0.0,3.0,3.0,22.0,1.0,SoundStimuli/Happy_PharellWilliams_Cover5S.wav,,,,,,,,,,,,,,,,,,,,,,,,,,,,,,,,,,,,,,,,,,,,,,,,,,,,,
,,,,,875583,1,2024-07-12_18h23.31.694,experiment,2024.1.5,Win32,8.568980291,6691931c2c63981b064e1f0c,6691aca6457da644d17fb2e3,,,,,,,,,,,,,,,,,,,,,,,,,,,,,,,,,,,,,,,,,,,,,,,,,,,,,,,,,,,,607.4432,616.1277,0.334259316,-0.335185228,1.0,0.0,0.0,2.5377,compass,0.0,4.0,4.0,13.0,1.0,SoundStimuli/Perfect_EdSheeran_Original5S.wav,,,,,,,,,,,,,,,,,,,,,,,,,,,,,,,,,,,,,,,,,,,,,,,,,,,,,
,,,,,875583,1,2024-07-12_18h23.31.694,experiment,2024.1.5,Win32,8.568980291,6691931c2c63981b064e1f0c,6691aca6457da644d17fb2e3,,,,,,,,,,,,,,,,,,,,,,,,,,,,,,,,,,,,,,,,,,,,,,,,,,,,,,,,,,,,616.1361,625.5607,-0.002777735,-0.333333333,1.0,0.0,0.0,3.3949,compass,0.0,5.0,5.0,29.0,1.0,SoundStimuli/BetteDavisEyes_KimCarnes_Cover5S.wav,,,,,,,,,,,,,,,,,,,,,,,,,,,,,,,,,,,,,,,,,,,,,,,,,,,,,
,,,,,875583,1,2024-07-12_18h23.31.694,experiment,2024.1.5,Win32,8.568980291,6691931c2c63981b064e1f0c,6691aca6457da644d17fb2e3,,,,,,,,,,,,,,,,,,,,,,,,,,,,,,,,,,,,,,,,,,,,,,,,,,,,,,,,,,,,625.5713,638.7939,0.012037065,0.021296289,1.0,0.0,0.0,7.0948,compass,0.0,6.0,6.0,6.0,1.0,SoundStimuli/SaveYourTears_TheWeekndArianaGrande_Original5S.wav,,,,,,,,,,,,,,,,,,,,,,,,,,,,,,,,,,,,,,,,,,,,,,,,,,,,,
,,,,,875583,1,2024-07-12_18h23.31.694,experiment,2024.1.5,Win32,8.568980291,6691931c2c63981b064e1f0c,6691aca6457da644d17fb2e3,,,,,,,,,,,,,,,,,,,,,,,,,,,,,,,,,,,,,,,,,,,,,,,,,,,,,,,,,,,,638.8017,647.6504,-0.025925884,0.003703683,1.0,0.0,0.0,2.8242,compass,0.0,7.0,7.0,12.0,1.0,SoundStimuli/UnbreakMyHeart_ToniBraxton_Cover5S.wav,,,,,,,,,,,,,,,,,,,,,,,,,,,,,,,,,,,,,,,,,,,,,,,,,,,,,
,,,,,875583,1,2024-07-12_18h23.31.694,experiment,2024.1.5,Win32,8.568980291,6691931c2c63981b064e1f0c,6691aca6457da644d17fb2e3,,,,,,,,,,,,,,,,,,,,,,,,,,,,,,,,,,,,,,,,,,,,,,,,,,,,,,,,,,,,647.6579,656.1198,0.180555556,-0.335185228,1.0,0.0,0.0,2.3743,compass,0.0,8.0,8.0,16.0,1.0,SoundStimuli/ItsAllInTheGame_TommyEdwards_Original5S.wav,,,,,,,,,,,,,,,,,,,,,,,,,,,,,,,,,,,,,,,,,,,,,,,,,,,,,
,,,,,875583,1,2024-07-12_18h23.31.694,experiment,2024.1.5,Win32,8.568980291,6691931c2c63981b064e1f0c,6691aca6457da644d17fb2e3,,,,,,,,,,,,,,,,,,,,,,,,,,,,,,,,,,,,,,,,,,,,,,,,,,,,,,,,,,,,656.1273,664.885,0.335185157,-0.337962963,1.0,0.0,0.0,2.7567,compass,0.0,9.0,9.0,19.0,1.0,SoundStimuli/YouLightUpMyLife_DebbyBoone_Cover5S.wav,,,,,,,,,,,,,,,,,,,,,,,,,,,,,,,,,,,,,,,,,,,,,,,,,,,,,
,,,,,875583,1,2024-07-12_18h23.31.694,experiment,2024.1.5,Win32,8.568980291,6691931c2c63981b064e1f0c,6691aca6457da644d17fb2e3,,,,,,,,,,,,,,,,,,,,,,,,,,,,,,,,,,,,,,,,,,,,,,,,,,,,,,,,,,,,664.8925,677.816,0.285185213,0.237962952,1.0,0.0,0.0,6.7747,compass,0.0,10.0,10.0,1.0,1.0,SoundStimuli/Smooth_SantanaRobThomas_Cover5S.wav,,,,,,,,,,,,,,,,,,,,,,,,,,,,,,,,,,,,,,,,,,,,,,,,,,,,,
,,,,,875583,1,2024-07-12_18h23.31.694,experiment,2024.1.5,Win32,8.568980291,6691931c2c63981b064e1f0c,6691aca6457da644d17fb2e3,,,,,,,,,,,,,,,,,,,,,,,,,,,,,,,,,,,,,,,,,,,,,,,,,,,,,,,,,,,,677.8235,685.5942,0.27870369,0.244444441,1.0,0.0,0.0,1.6524,compass,0.0,11.0,11.0,10.0,1.0,SoundStimuli/LeFreak_Chic_Original5S.wav,,,,,,,,,,,,,,,,,,,,,,,,,,,,,,,,,,,,,,,,,,,,,,,,,,,,,
,,,,,875583,1,2024-07-12_18h23.31.694,experiment,2024.1.5,Win32,8.568980291,6691931c2c63981b064e1f0c,6691aca6457da644d17fb2e3,,,,,,,,,,,,,,,,,,,,,,,,,,,,,,,,,,,,,,,,,,,,,,,,,,,,,,,,,,,,685.6016,696.4891,0.315740797,0.086111104,1.0,0.0,0.0,4.8287,compass,0.0,12.0,12.0,26.0,1.0,SoundStimuli/TheSign_AceOfBase_Original5S.wav,,,,,,,,,,,,,,,,,,,,,,,,,,,,,,,,,,,,,,,,,,,,,,,,,,,,,
,,,,,875583,1,2024-07-12_18h23.31.694,experiment,2024.1.5,Win32,8.568980291,6691931c2c63981b064e1f0c,6691aca6457da644d17fb2e3,,,,,,,,,,,,,,,,,,,,,,,,,,,,,,,,,,,,,,,,,,,,,,,,,,,,,,,,,,,,696.4968,704.2978,0.332407492,-0.335185228,1.0,0.0,0.0,1.7459,compass,0.0,13.0,13.0,32.0,1.0,SoundStimuli/Dilemma_NellyKellyRowland_Original5S.wav,,,,,,,,,,,,,,,,,,,,,,,,,,,,,,,,,,,,,,,,,,,,,,,,,,,,,
,,,,,875583,1,2024-07-12_18h23.31.694,experiment,2024.1.5,Win32,8.568980291,6691931c2c63981b064e1f0c,6691aca6457da644d17fb2e3,,,,,,,,,,,,,,,,,,,,,,,,,,,,,,,,,,,,,,,,,,,,,,,,,,,,,,,,,,,,704.3055,712.8507,0.17777782,-0.272222236,1.0,0.0,0.0,2.4961,compass,0.0,14.0,14.0,4.0,1.0,SoundStimuli/Dreams_FleetwoodMac_Cover5S.wav,,,,,,,,,,,,,,,,,,,,,,,,,,,,,,,,,,,,,,,,,,,,,,,,,,,,,
,,,,,875583,1,2024-07-12_18h23.31.694,experiment,2024.1.5,Win32,8.568980291,6691931c2c63981b064e1f0c,6691aca6457da644d17fb2e3,,,,,,,,,,,,,,,,,,,,,,,,,,,,,,,,,,,,,,,,,,,,,,,,,,,,,,,,,,,,712.8609,720.8002,0.070370356,0.235185182,1.0,0.0,0.0,1.8916,compass,0.0,15.0,15.0,31.0,1.0,SoundStimuli/TossinAndTurnin_BobbyLewis_Cover5S.wav,,,,,,,,,,,,,,,,,,,,,,,,,,,,,,,,,,,,,,,,,,,,,,,,,,,,,
,,,,,875583,1,2024-07-12_18h23.31.694,experiment,2024.1.5,Win32,8.568980291,6691931c2c63981b064e1f0c,6691aca6457da644d17fb2e3,,,,,,,,,,,,,,,,,,,,,,,,,,,,,,,,,,,,,,,,,,,,,,,,,,,,,,,,,,,,720.8078,728.1526,0.334259316,-0.33148151,1.0,0.0,0.0,1.3103,compass,0.0,16.0,16.0,8.0,1.0,SoundStimuli/EndlessLove_DianaRossLionelRichie_Original5S.wav,,,,,,,,,,,,,,,,,,,,,,,,,,,,,,,,,,,,,,,,,,,,,,,,,,,,,
,,,,,875583,1,2024-07-12_18h23.31.694,experiment,2024.1.5,Win32,8.568980291,6691931c2c63981b064e1f0c,6691aca6457da644d17fb2e3,,,,,,,,,,,,,,,,,,,,,,,,,,,,,,,,,,,,,,,,,,,,,,,,,,,,,,,,,,,,728.1623,740.4313,-0.113888847,0.001851859,1.0,0.0,0.0,6.1082,compass,0.0,17.0,17.0,30.0,1.0,SoundStimuli/SomebodyThatIUsedtoKnow_Gotye_Cover5S.wav,,,,,,,,,,,,,,,,,,,,,,,,,,,,,,,,,,,,,,,,,,,,,,,,,,,,,
,,,,,875583,1,2024-07-12_18h23.31.694,experiment,2024.1.5,Win32,8.568980291,6691931c2c63981b064e1f0c,6691aca6457da644d17fb2e3,,,,,,,,,,,,,,,,,,,,,,,,,,,,,,,,,,,,,,,,,,,,,,,,,,,,,,,,,,,,740.4383,751.8397,0.023148148,0.16574072,1.0,0.0,0.0,5.2798,compass,0.0,18.0,18.0,20.0,1.0,SoundStimuli/FlashdanceWhatAFeeling_IreneCara_Cover5S.wav,,,,,,,,,,,,,,,,,,,,,,,,,,,,,,,,,,,,,,,,,,,,,,,,,,,,,
,,,,,875583,1,2024-07-12_18h23.31.694,experiment,2024.1.5,Win32,8.568980291,6691931c2c63981b064e1f0c,6691aca6457da644d17fb2e3,,,,,,,,,,,,,,,,,,,,,,,,,,,,,,,,,,,,,,,,,,,,,,,,,,,,,,,,,,,,751.8482,762.7442,0.175000014,-0.192592621,1.0,0.0,0.0,4.8751,compass,0.0,19.0,19.0,3.0,1.0,SoundStimuli/PartyRockAnthem_LMFAO_Cover5S.wav,,,,,,,,,,,,,,,,,,,,,,,,,,,,,,,,,,,,,,,,,,,,,,,,,,,,,
,,,,,875583,1,2024-07-12_18h23.31.694,experiment,2024.1.5,Win32,8.568980291,6691931c2c63981b064e1f0c,6691aca6457da644d17fb2e3,,,,,,,,,,,,,,,,,,,,,,,,,,,,,,,,,,,,,,,,,,,,,,,,,,,,,,,,,,,,762.7525,771.2158,-0.001851824,0.005555541,1.0,0.0,0.0,2.4032,compass,0.0,20.0,20.0,5.0,1.0,SoundStimuli/JoyToTheWorld_ThreeDogNight_Cover5S.wav,,,,,,,,,,,,,,,,,,,,,,,,,,,,,,,,,,,,,,,,,,,,,,,,,,,,,
,,,,,875583,1,2024-07-12_18h23.31.694,experiment,2024.1.5,Win32,8.568980291,6691931c2c63981b064e1f0c,6691aca6457da644d17fb2e3,,,,,,,,,,,,,,,,,,,,,,,,,,,,,,,,,,,,,,,,,,,,,,,,,,,,,,,,,,,,771.2237,782.6263,0.233333376,-0.333333333,1.0,0.0,0.0,5.3758,compass,0.0,21.0,21.0,23.0,1.0,SoundStimuli/IWalkTheLine_JohnnyCash_Cover5S.wav,,,,,,,,,,,,,,,,,,,,,,,,,,,,,,,,,,,,,,,,,,,,,,,,,,,,,
,,,,,875583,1,2024-07-12_18h23.31.694,experiment,2024.1.5,Win32,8.568980291,6691931c2c63981b064e1f0c,6691aca6457da644d17fb2e3,,,,,,,,,,,,,,,,,,,,,,,,,,,,,,,,,,,,,,,,,,,,,,,,,,,,,,,,,,,,782.6349,789.7357,0.339814787,0.344444434,1.0,0.0,0.0,1.0778,compass,0.0,22.0,22.0,15.0,1.0,SoundStimuli/CrazyInLove_BeyonceFtJayZ_Original5S.wav,,,,,,,,,,,,,,,,,,,,,,,,,,,,,,,,,,,,,,,,,,,,,,,,,,,,,
,,,,,875583,1,2024-07-12_18h23.31.694,experiment,2024.1.5,Win32,8.568980291,6691931c2c63981b064e1f0c,6691aca6457da644d17fb2e3,,,,,,,,,,,,,,,,,,,,,,,,,,,,,,,,,,,,,,,,,,,,,,,,,,,,,,,,,,,,789.7437,797.0481,0.050925926,-0.335185228,1.0,0.0,0.0,1.2666,compass,0.0,23.0,23.0,7.0,1.0,SoundStimuli/MackTheKnife_BobbyDarin_Original5S.wav,,,,,,,,,,,,,,,,,,,,,,,,,,,,,,,,,,,,,,,,,,,,,,,,,,,,,
,,,,,875583,1,2024-07-12_18h23.31.694,experiment,2024.1.5,Win32,8.568980291,6691931c2c63981b064e1f0c,6691aca6457da644d17fb2e3,,,,,,,,,,,,,,,,,,,,,,,,,,,,,,,,,,,,,,,,,,,,,,,,,,,,,,,,,,,,797.0556,806.7124,-0.338888875,-0.333333333,1.0,0.0,0.0,3.5323,compass,0.0,24.0,24.0,21.0,1.0,SoundStimuli/BridgeOverTroubledWater_SimonAndGarfunkel_Cover5S.wav,,,,,,,,,,,,,,,,,,,,,,,,,,,,,,,,,,,,,,,,,,,,,,,,,,,,,
,,,,,875583,1,2024-07-12_18h23.31.694,experiment,2024.1.5,Win32,8.568980291,6691931c2c63981b064e1f0c,6691aca6457da644d17fb2e3,,,,,,,,,,,,,,,,,,,,,,,,,,,,,,,,,,,,,,,,,,,,,,,,,,,,,,,,,,,,806.7199,815.1923,0.33148151,-0.334259245,1.0,0.0,0.0,2.4567,compass,0.0,25.0,25.0,28.0,1.0,SoundStimuli/IWantToHoldYourHand_TheBeatles_Cover5S.wav,,,,,,,,,,,,,,,,,,,,,,,,,,,,,,,,,,,,,,,,,,,,,,,,,,,,,
,,,,,875583,1,2024-07-12_18h23.31.694,experiment,2024.1.5,Win32,8.568980291,6691931c2c63981b064e1f0c,6691aca6457da644d17fb2e3,,,,,,,,,,,,,,,,,,,,,,,,,,,,,,,,,,,,,,,,,,,,,,,,,,,,,,,,,,,,815.2008,822.4371,0.333333333,-0.324074074,1.0,0.0,0.0,1.2205,compass,0.0,26.0,26.0,17.0,1.0,SoundStimuli/IWannaDanceWithSomebody_WhitneyHouston_Cover5S.wav,,,,,,,,,,,,,,,,,,,,,,,,,,,,,,,,,,,,,,,,,,,,,,,,,,,,,
,,,,,875583,1,2024-07-12_18h23.31.694,experiment,2024.1.5,Win32,8.568980291,6691931c2c63981b064e1f0c,6691aca6457da644d17fb2e3,,,,,,,,,,,,,,,,,,,,,,,,,,,,,,,,,,,,,,,,,,,,,,,,,,,,,,,,,,,,822.4448,834.7815,-0.17777775,-0.119444459,1.0,0.0,0.0,6.1954,compass,0.0,27.0,27.0,2.0,1.0,SoundStimuli/SmellsLikeTeenSpirit_Nirvana_Cover5S.wav,,,,,,,,,,,,,,,,,,,,,,,,,,,,,,,,,,,,,,,,,,,,,,,,,,,,,
,,,,,875583,1,2024-07-12_18h23.31.694,experiment,2024.1.5,Win32,8.568980291,6691931c2c63981b064e1f0c,6691aca6457da644d17fb2e3,,,,,,,,,,,,,,,,,,,,,,,,,,,,,,,,,,,,,,,,,,,,,,,,,,,,,,,,,,,,834.7894,841.3855,-0.183333291,-0.328703704,1.0,0.0,0.0,0.4579,compass,0.0,28.0,28.0,9.0,1.0,SoundStimuli/HowDoILive_LeAnnRimes_Original5S.wav,,,,,,,,,,,,,,,,,,,,,,,,,,,,,,,,,,,,,,,,,,,,,,,,,,,,,
,,,,,875583,1,2024-07-12_18h23.31.694,experiment,2024.1.5,Win32,8.568980291,6691931c2c63981b064e1f0c,6691aca6457da644d17fb2e3,,,,,,,,,,,,,,,,,,,,,,,,,,,,,,,,,,,,,,,,,,,,,,,,,,,,,,,,,,,,841.3936,850.2856,0.0,-0.246296282,1.0,0.0,0.0,2.8765,compass,0.0,29.0,29.0,14.0,1.0,SoundStimuli/LikeARollingStone_BobDylan_Cover5S.wav,,,,,,,,,,,,,,,,,,,,,,,,,,,,,,,,,,,,,,,,,,,,,,,,,,,,,
,,,,,875583,1,2024-07-12_18h23.31.694,experiment,2024.1.5,Win32,8.568980291,6691931c2c63981b064e1f0c,6691aca6457da644d17fb2e3,,,,,,,,,,,,,,,,,,,,,,,,,,,,,,,,,,,,,,,,,,,,,,,,,,,,,,,,,,,,850.2936,857.4539,0.341666751,-0.336111139,1.0,0.0,0.0,1.1245,compass,0.0,30.0,30.0,25.0,1.0,SoundStimuli/IllMakeLoveToYou_BoyzIIMen_Original5S.wav,,,,,,,,,,,,,,,,,,,,,,,,,,,,,,,,,,,,,,,,,,,,,,,,,,,,,
,,,,,875583,1,2024-07-12_18h23.31.694,experiment,2024.1.5,Win32,8.568980291,6691931c2c63981b064e1f0c,6691aca6457da644d17fb2e3,,,,,,,,,,,,,,,,,,,,,,,,,,,,,,,,,,,,,,,,,,,,,,,,,,,,,,,,,,,,857.4621,868.003,0.337962963,0.100925905,1.0,0.0,0.0,4.4199,compass,0.0,31.0,31.0,24.0,1.0,SoundStimuli/Kiss_Prince_Original5S.wav,,,,,,,,,,,,,,,,,,,,,,,,,,,,,,,,,,,,,,,,,,,,,,,,,,,,,
,,,,,875583,1,2024-07-12_18h23.31.694,experiment,2024.1.5,Win32,8.568980291,6691931c2c63981b064e1f0c,6691aca6457da644d17fb2e3,,,,,,,,,,,,,,,,,,,,,,,,,,,,,,,,,,,,,,,,,,,,,,,,,,,,,,,,,,,,868.011,876.0396,0.311111168,-0.338888875,1.0,0.0,0.0,1.8798,compass,0.0,32.0,32.0,18.0,1.0,SoundStimuli/Weak_SWV_Original5S.wav,,,,,,,,,,,,,,,,,,,,,,,,,,,,,,,,,,,,,,,,,,,,,,,,,,,,,
,,,,,875583,1,2024-07-12_18h23.31.694,experiment,2024.1.5,Win32,8.568980291,6691931c2c63981b064e1f0c,6691aca6457da644d17fb2e3,,,,,,,,,,,,,,,,,,,,,,,,,,,,,,,,,,,,,,,,,,,,,,,,,,,,,,,,,,,,876.0474,887.6738,0.029629672,-0.195370356,1.0,0.0,0.0,5.5476,compass,0.0,33.0,33.0,34.0,1.0,SoundStimuli/Irreplaceable_Beyonce_Original5S.wav,,,,,,,,,,,,,,,,,,,,,,,,,,,,,,,,,,,,,,,,,,,,,,,,,,,,,
,,,,,875583,1,2024-07-12_18h23.31.694,experiment,2024.1.5,Win32,8.568980291,6691931c2c63981b064e1f0c,6691aca6457da644d17fb2e3,,,,,,,,,,,,,,,,,,,,,,,,,,,,,,,,,,,,,,,,,,,,,,,,,,,,,,,,,,,,887.6822,897.0292,0.021296325,-0.187962991,1.0,0.0,0.0,3.2382,compass,0.0,34.0,34.0,0.0,1.0,SoundStimuli/GimmeShelter_RollingStones_Cover5S.wav,,,,,,,,,,,,,,,,,,,,,,,,,,,,,,,,,,,,,,,,,,,,,,,,,,,,,
,,,,,875583,1,2024-07-12_18h23.31.694,experiment,2024.1.5,Win32,8.568980291,6691931c2c63981b064e1f0c,6691aca6457da644d17fb2e3,,,,,,,,,,,,,,,,,,,,,,,,,,,,,,,,,,,,,,,,,,,,,,,,,,,,,,,,,,,,,,,,,,,,,,,,,,,897.0293,898.8134,space,1.6696,,898.8134,900.0889,right,1.13,,0.0,1.0,1.0,1.0,1.0,block_order/blockB.xlsx,,,,,,,,,,,,,,,,,,,,,,,,,,,,,,,,,,,,,
,,,,,875583,1,2024-07-12_18h23.31.694,experiment,2024.1.5,Win32,8.568980291,6691931c2c63981b064e1f0c,6691aca6457da644d17fb2e3,,,,,,,,,,,,,,,,,,,,,,,,,,,,,,,,,,,,,,,,,,,,,,,,,,,,,,,,,,,,900.1013,908.5075,0.336111139,-0.337037051,1.0,0.0,0.0,2.3475,compass,0.0,0.0,0.0,19.0,1.0,SoundStimuli/LetsGetItOn_MarvinGaye_Cover5S.wav,,,,,,,,,,,,,,,,,,,,,,,,,,,,,,,,,,,,,,,,,,,,,,,,,,,,,
,,,,,875583,1,2024-07-12_18h23.31.694,experiment,2024.1.5,Win32,8.568980291,6691931c2c63981b064e1f0c,6691aca6457da644d17fb2e3,,,,,,,,,,,,,,,,,,,,,,,,,,,,,,,,,,,,,,,,,,,,,,,,,,,,,,,,,,,,908.5171,916.5171,0.333333333,0.284259249,1.0,0.0,0.0,1.8846,compass,0.0,1.0,1.0,18.0,1.0,SoundStimuli/AnotherOneBitesTheDust_Queen_Original5S.wav,,,,,,,,,,,,,,,,,,,,,,,,,,,,,,,,,,,,,,,,,,,,,,,,,,,,,
,,,,,875583,1,2024-07-12_18h23.31.694,experiment,2024.1.5,Win32,8.568980291,6691931c2c63981b064e1f0c,6691aca6457da644d17fb2e3,,,,,,,,,,,,,,,,,,,,,,,,,,,,,,,,,,,,,,,,,,,,,,,,,,,,,,,,,,,,916.5249,924.791,0.334259316,-0.293518561,1.0,0.0,0.0,2.2253,compass,0.0,2.0,2.0,5.0,1.0,SoundStimuli/MyGirl_TheTemptations_Original5S.wav,,,,,,,,,,,,,,,,,,,,,,,,,,,,,,,,,,,,,,,,,,,,,,,,,,,,,
,,,,,875583,1,2024-07-12_18h23.31.694,experiment,2024.1.5,Win32,8.568980291,6691931c2c63981b064e1f0c,6691aca6457da644d17fb2e3,,,,,,,,,,,,,,,,,,,,,,,,,,,,,,,,,,,,,,,,,,,,,,,,,,,,,,,,,,,,924.7987,932.9113,-0.050000014,-0.281481496,1.0,0.0,0.0,2.1005,compass,0.0,3.0,3.0,23.0,1.0,SoundStimuli/StrawberryFieldsForever_TheBeatles_Original5S.wav,,,,,,,,,,,,,,,,,,,,,,,,,,,,,,,,,,,,,,,,,,,,,,,,,,,,,
,,,,,875583,1,2024-07-12_18h23.31.694,experiment,2024.1.5,Win32,8.568980291,6691931c2c63981b064e1f0c,6691aca6457da644d17fb2e3,,,,,,,,,,,,,,,,,,,,,,,,,,,,,,,,,,,,,,,,,,,,,,,,,,,,,,,,,,,,932.9191,940.1619,-0.196296268,-0.329629616,1.0,0.0,0.0,1.2322,compass,0.0,4.0,4.0,13.0,1.0,SoundStimuli/GodOnlyKnows_TheBeachBoys_Cover5S.wav,,,,,,,,,,,,,,,,,,,,,,,,,,,,,,,,,,,,,,,,,,,,,,,,,,,,,
,,,,,875583,1,2024-07-12_18h23.31.694,experiment,2024.1.5,Win32,8.568980291,6691931c2c63981b064e1f0c,6691aca6457da644d17fb2e3,,,,,,,,,,,,,,,,,,,,,,,,,,,,,,,,,,,,,,,,,,,,,,,,,,,,,,,,,,,,940.1717,949.3547,0.333333333,0.142592571,1.0,0.0,0.0,3.0468,compass,0.0,5.0,5.0,28.0,1.0,SoundStimuli/ComeAndGetYourLove_Redbone_Original5S.wav,,,,,,,,,,,,,,,,,,,,,,,,,,,,,,,,,,,,,,,,,,,,,,,,,,,,,
,,,,,875583,1,2024-07-12_18h23.31.694,experiment,2024.1.5,Win32,8.568980291,6691931c2c63981b064e1f0c,6691aca6457da644d17fb2e3,,,,,,,,,,,,,,,,,,,,,,,,,,,,,,,,,,,,,,,,,,,,,,,,,,,,,,,,,,,,949.3618,956.4441,0.336111139,0.342592593,1.0,0.0,0.0,0.9318,compass,0.0,6.0,6.0,8.0,1.0,SoundStimuli/LikeAPrayer_Madonna_Original5S.wav,,,,,,,,,,,,,,,,,,,,,,,,,,,,,,,,,,,,,,,,,,,,,,,,,,,,,
,,,,,875583,1,2024-07-12_18h23.31.694,experiment,2024.1.5,Win32,8.568980291,6691931c2c63981b064e1f0c,6691aca6457da644d17fb2e3,,,,,,,,,,,,,,,,,,,,,,,,,,,,,,,,,,,,,,,,,,,,,,,,,,,,,,,,,,,,956.4519,971.433,-0.098148134,0.276851848,1.0,0.0,0.0,8.8575,compass,0.0,7.0,7.0,25.0,1.0,SoundStimuli/Respect_ArethaFranklin_Original5S.wav,,,,,,,,,,,,,,,,,,,,,,,,,,,,,,,,,,,,,,,,,,,,,,,,,,,,,
,,,,,875583,1,2024-07-12_18h23.31.694,experiment,2024.1.5,Win32,8.568980291,6691931c2c63981b064e1f0c,6691aca6457da644d17fb2e3,,,,,,,,,,,,,,,,,,,,,,,,,,,,,,,,,,,,,,,,,,,,,,,,,,,,,,,,,,,,971.4426,978.6359,-0.241666653,-0.32685188,1.0,0.0,0.0,1.1326,compass,0.0,8.0,8.0,10.0,1.0,SoundStimuli/BadDay_DanielPowter_Cover5S.wav,,,,,,,,,,,,,,,,,,,,,,,,,,,,,,,,,,,,,,,,,,,,,,,,,,,,,
,,,,,875583,1,2024-07-12_18h23.31.694,experiment,2024.1.5,Win32,8.568980291,6691931c2c63981b064e1f0c,6691aca6457da644d17fb2e3,,,,,,,,,,,,,,,,,,,,,,,,,,,,,,,,,,,,,,,,,,,,,,,,,,,,,,,,,,,,978.6439,985.7309,0.255555541,-0.332407422,1.0,0.0,0.0,0.9804,compass,0.0,9.0,9.0,26.0,1.0,SoundStimuli/LivinOnAPrayer_BonJovi_Cover5S.wav,,,,,,,,,,,,,,,,,,,,,,,,,,,,,,,,,,,,,,,,,,,,,,,,,,,,,
,,,,,875583,1,2024-07-12_18h23.31.694,experiment,2024.1.5,Win32,8.568980291,6691931c2c63981b064e1f0c,6691aca6457da644d17fb2e3,,,,,,,,,,,,,,,,,,,,,,,,,,,,,,,,,,,,,,,,,,,,,,,,,,,,,,,,,,,,985.7388,993.702,-0.003703718,-0.187037079,1.0,0.0,0.0,1.9241,compass,0.0,10.0,10.0,11.0,1.0,SoundStimuli/Superstition_StevieWonder_Cover5S.wav,,,,,,,,,,,,,,,,,,,,,,,,,,,,,,,,,,,,,,,,,,,,,,,,,,,,,
,,,,,875583,1,2024-07-12_18h23.31.694,experiment,2024.1.5,Win32,8.568980291,6691931c2c63981b064e1f0c,6691aca6457da644d17fb2e3,,,,,,,,,,,,,,,,,,,,,,,,,,,,,,,,,,,,,,,,,,,,,,,,,,,,,,,,,,,,993.7101,1002.9509,0.33148151,0.275925919,1.0,0.0,0.0,3.1558,compass,0.0,11.0,11.0,27.0,1.0,SoundStimuli/ShapeofYou_EdSheeran_Original5S.wav,,,,,,,,,,,,,,,,,,,,,,,,,,,,,,,,,,,,,,,,,,,,,,,,,,,,,
,,,,,875583,1,2024-07-12_18h23.31.694,experiment,2024.1.5,Win32,8.568980291,6691931c2c63981b064e1f0c,6691aca6457da644d17fb2e3,,,,,,,,,,,,,,,,,,,,,,,,,,,,,,,,,,,,,,,,,,,,,,,,,,,,,,,,,,,,1002.9586,1013.1273,0.170370384,0.261111101,1.0,0.0,0.0,4.1165,compass,0.0,12.0,12.0,14.0,1.0,SoundStimuli/BlindingLights_TheWeeknd_Original5S.wav,,,,,,,,,,,,,,,,,,,,,,,,,,,,,,,,,,,,,,,,,,,,,,,,,,,,,
,,,,,875583,1,2024-07-12_18h23.31.694,experiment,2024.1.5,Win32,8.568980291,6691931c2c63981b064e1f0c,6691aca6457da644d17fb2e3,,,,,,,,,,,,,,,,,,,,,,,,,,,,,,,,,,,,,,,,,,,,,,,,,,,,,,,,,,,,1013.1353,1021.8919,0.272222236,-0.285185213,1.0,0.0,0.0,2.6888,compass,0.0,13.0,13.0,33.0,1.0,SoundStimuli/StandByMe_BenEKing_Cover5S.wav,,,,,,,,,,,,,,,,,,,,,,,,,,,,,,,,,,,,,,,,,,,,,,,,,,,,,
,,,,,875583,1,2024-07-12_18h23.31.694,experiment,2024.1.5,Win32,8.568980291,6691931c2c63981b064e1f0c,6691aca6457da644d17fb2e3,,,,,,,,,,,,,,,,,,,,,,,,,,,,,,,,,,,,,,,,,,,,,,,,,,,,,,,,,,,,1021.9024,1034.6916,0.32685188,0.334259263,1.0,0.0,0.0,6.648,compass,0.0,14.0,14.0,6.0,1.0,SoundStimuli/Levitating_DuaLipa_Cover5S.wav,,,,,,,,,,,,,,,,,,,,,,,,,,,,,,,,,,,,,,,,,,,,,,,,,,,,,
,,,,,875583,1,2024-07-12_18h23.31.694,experiment,2024.1.5,Win32,8.568980291,6691931c2c63981b064e1f0c,6691aca6457da644d17fb2e3,,,,,,,,,,,,,,,,,,,,,,,,,,,,,,,,,,,,,,,,,,,,,,,,,,,,,,,,,,,,1034.6995,1043.6637,0.333333333,-0.330555598,1.0,0.0,0.0,2.9288,compass,0.0,15.0,15.0,17.0,1.0,SoundStimuli/Fallin_AliciaKeys_Original5S.wav,,,,,,,,,,,,,,,,,,,,,,,,,,,,,,,,,,,,,,,,,,,,,,,,,,,,,
,,,,,875583,1,2024-07-12_18h23.31.694,experiment,2024.1.5,Win32,8.568980291,6691931c2c63981b064e1f0c,6691aca6457da644d17fb2e3,,,,,,,,,,,,,,,,,,,,,,,,,,,,,,,,,,,,,,,,,,,,,,,,,,,,,,,,,,,,1043.673,1055.704,0.216666681,-0.279629672,1.0,0.0,0.0,5.8963,compass,0.0,16.0,16.0,29.0,1.0,SoundStimuli/OldTownRoad_LilNasX_Original5S.wav,,,,,,,,,,,,,,,,,,,,,,,,,,,,,,,,,,,,,,,,,,,,,,,,,,,,,
,,,,,875583,1,2024-07-12_18h23.31.694,experiment,2024.1.5,Win32,8.568980291,6691931c2c63981b064e1f0c,6691aca6457da644d17fb2e3,,,,,,,,,,,,,,,,,,,,,,,,,,,,,,,,,,,,,,,,,,,,,,,,,,,,,,,,,,,,1055.7118,1064.1578,-0.000925912,0.002777771,1.0,0.0,0.0,2.4036,compass,0.0,17.0,17.0,3.0,1.0,SoundStimuli/NoScrubs_TLC_Original5S.wav,,,,,,,,,,,,,,,,,,,,,,,,,,,,,,,,,,,,,,,,,,,,,,,,,,,,,
,,,,,875583,1,2024-07-12_18h23.31.694,experiment,2024.1.5,Win32,8.568980291,6691931c2c63981b064e1f0c,6691aca6457da644d17fb2e3,,,,,,,,,,,,,,,,,,,,,,,,,,,,,,,,,,,,,,,,,,,,,,,,,,,,,,,,,,,,1064.1657,1073.5104,0.335185157,-0.289814843,1.0,0.0,0.0,3.2266,compass,0.0,18.0,18.0,12.0,1.0,SoundStimuli/IWillAlwaysLoveYou_WhitneyHouston_Cover5S.wav,,,,,,,,,,,,,,,,,,,,,,,,,,,,,,,,,,,,,,,,,,,,,,,,,,,,,
,,,,,875583,1,2024-07-12_18h23.31.694,experiment,2024.1.5,Win32,8.568980291,6691931c2c63981b064e1f0c,6691aca6457da644d17fb2e3,,,,,,,,,,,,,,,,,,,,,,,,,,,,,,,,,,,,,,,,,,,,,,,,,,,,,,,,,,,,1073.5184,1081.3749,0.332407492,0.151851831,1.0,0.0,0.0,1.7728,compass,0.0,19.0,19.0,22.0,1.0,SoundStimuli/RockWithYou_MichaelJackson_Original5S.wav,,,,,,,,,,,,,,,,,,,,,,,,,,,,,,,,,,,,,,,,,,,,,,,,,,,,,
,,,,,875583,1,2024-07-12_18h23.31.694,experiment,2024.1.5,Win32,8.568980291,6691931c2c63981b064e1f0c,6691aca6457da644d17fb2e3,,,,,,,,,,,,,,,,,,,,,,,,,,,,,,,,,,,,,,,,,,,,,,,,,,,,,,,,,,,,1081.3828,1094.0247,0.265740783,-0.244444459,1.0,0.0,0.0,6.6282,compass,0.0,20.0,20.0,9.0,1.0,SoundStimuli/Despacito_LuisFonsiDaddyYankee_Cover5S.wav,,,,,,,,,,,,,,,,,,,,,,,,,,,,,,,,,,,,,,,,,,,,,,,,,,,,,
,,,,,875583,1,2024-07-12_18h23.31.694,experiment,2024.1.5,Win32,8.568980291,6691931c2c63981b064e1f0c,6691aca6457da644d17fb2e3,,,,,,,,,,,,,,,,,,,,,,,,,,,,,,,,,,,,,,,,,,,,,,,,,,,,,,,,,,,,1094.0324,1102.1768,0.336111139,0.112037023,1.0,0.0,0.0,2.0581,compass,0.0,21.0,21.0,24.0,1.0,SoundStimuli/UptownFunk_MarkRonson_Original5S.wav,,,,,,,,,,,,,,,,,,,,,,,,,,,,,,,,,,,,,,,,,,,,,,,,,,,,,
,,,,,875583,1,2024-07-12_18h23.31.694,experiment,2024.1.5,Win32,8.568980291,6691931c2c63981b064e1f0c,6691aca6457da644d17fb2e3,,,,,,,,,,,,,,,,,,,,,,,,,,,,,,,,,,,,,,,,,,,,,,,,,,,,,,,,,,,,1102.1848,1115.6283,-0.059259273,-0.325925968,1.0,0.0,0.0,7.3282,compass,0.0,22.0,22.0,2.0,1.0,SoundStimuli/Mood_24kGoldnianndior_Cover5S.wav,,,,,,,,,,,,,,,,,,,,,,,,,,,,,,,,,,,,,,,,,,,,,,,,,,,,,
,,,,,875583,1,2024-07-12_18h23.31.694,experiment,2024.1.5,Win32,8.568980291,6691931c2c63981b064e1f0c,6691aca6457da644d17fb2e3,,,,,,,,,,,,,,,,,,,,,,,,,,,,,,,,,,,,,,,,,,,,,,,,,,,,,,,,,,,,1115.6393,1123.938,0.333333333,0.329629633,1.0,0.0,0.0,2.2441,compass,0.0,23.0,23.0,0.0,1.0,SoundStimuli/StayinAlive_BeeGees_Original5S.wav,,,,,,,,,,,,,,,,,,,,,,,,,,,,,,,,,,,,,,,,,,,,,,,,,,,,,
,,,,,875583,1,2024-07-12_18h23.31.694,experiment,2024.1.5,Win32,8.568980291,6691931c2c63981b064e1f0c,6691aca6457da644d17fb2e3,,,,,,,,,,,,,,,,,,,,,,,,,,,,,,,,,,,,,,,,,,,,,,,,,,,,,,,,,,,,1123.9486,1136.2306,-0.002777735,0.341666663,1.0,0.0,0.0,6.2173,compass,0.0,24.0,24.0,1.0,1.0,SoundStimuli/Stronger_KanyeWest_Original5S.wav,,,,,,,,,,,,,,,,,,,,,,,,,,,,,,,,,,,,,,,,,,,,,,,,,,,,,
,,,,,875583,1,2024-07-12_18h23.31.694,experiment,2024.1.5,Win32,8.568980291,6691931c2c63981b064e1f0c,6691aca6457da644d17fb2e3,,,,,,,,,,,,,,,,,,,,,,,,,,,,,,,,,,,,,,,,,,,,,,,,,,,,,,,,,,,,1136.2387,1146.4597,-0.19722218,-0.323148162,1.0,0.0,0.0,4.0684,compass,0.0,25.0,25.0,32.0,1.0,SoundStimuli/HeatWaves_GlassAnimals_Original5S.wav,,,,,,,,,,,,,,,,,,,,,,,,,,,,,,,,,,,,,,,,,,,,,,,,,,,,,
,,,,,875583,1,2024-07-12_18h23.31.694,experiment,2024.1.5,Win32,8.568980291,6691931c2c63981b064e1f0c,6691aca6457da644d17fb2e3,,,,,,,,,,,,,,,,,,,,,,,,,,,,,,,,,,,,,,,,,,,,,,,,,,,,,,,,,,,,1146.47,1157.2057,0.079629616,0.337037034,1.0,0.0,0.0,4.7001,compass,0.0,26.0,26.0,7.0,1.0,SoundStimuli/NoOne_AliciaKeys_Cover5S.wav,,,,,,,,,,,,,,,,,,,,,,,,,,,,,,,,,,,,,,,,,,,,,,,,,,,,,
,,,,,875583,1,2024-07-12_18h23.31.694,experiment,2024.1.5,Win32,8.568980291,6691931c2c63981b064e1f0c,6691aca6457da644d17fb2e3,,,,,,,,,,,,,,,,,,,,,,,,,,,,,,,,,,,,,,,,,,,,,,,,,,,,,,,,,,,,1157.2165,1167.7438,0.250925912,0.263888889,1.0,0.0,0.0,4.4162,compass,0.0,27.0,27.0,4.0,1.0,SoundStimuli/GetUrFreakOn_MissyElliot_Original5S.wav,,,,,,,,,,,,,,,,,,,,,,,,,,,,,,,,,,,,,,,,,,,,,,,,,,,,,
,,,,,875583,1,2024-07-12_18h23.31.694,experiment,2024.1.5,Win32,8.568980291,6691931c2c63981b064e1f0c,6691aca6457da644d17fb2e3,,,,,,,,,,,,,,,,,,,,,,,,,,,,,,,,,,,,,,,,,,,,,,,,,,,,,,,,,,,,1167.7528,1176.4629,0.332407492,-0.332407422,1.0,0.0,0.0,2.6462,compass,0.0,28.0,28.0,15.0,1.0,SoundStimuli/TikTok_Kesha_Cover5S.wav,,,,,,,,,,,,,,,,,,,,,,,,,,,,,,,,,,,,,,,,,,,,,,,,,,,,,
,,,,,875583,1,2024-07-12_18h23.31.694,experiment,2024.1.5,Win32,8.568980291,6691931c2c63981b064e1f0c,6691aca6457da644d17fb2e3,,,,,,,,,,,,,,,,,,,,,,,,,,,,,,,,,,,,,,,,,,,,,,,,,,,,,,,,,,,,1176.4721,1185.4623,0.332407492,-0.332407422,1.0,0.0,0.0,2.951,compass,0.0,29.0,29.0,20.0,1.0,SoundStimuli/HeyYa_Outkast_Cover5S.wav,,,,,,,,,,,,,,,,,,,,,,,,,,,,,,,,,,,,,,,,,,,,,,,,,,,,,
,,,,,875583,1,2024-07-12_18h23.31.694,experiment,2024.1.5,Win32,8.568980291,6691931c2c63981b064e1f0c,6691aca6457da644d17fb2e3,,,,,,,,,,,,,,,,,,,,,,,,,,,,,,,,,,,,,,,,,,,,,,,,,,,,,,,,,,,,1185.4709,1193.331,0.335185157,0.338888892,1.0,0.0,0.0,1.7271,compass,0.0,30.0,30.0,30.0,1.0,SoundStimuli/PokerFace_LadyGaga_Original5S.wav,,,,,,,,,,,,,,,,,,,,,,,,,,,,,,,,,,,,,,,,,,,,,,,,,,,,,
,,,,,875583,1,2024-07-12_18h23.31.694,experiment,2024.1.5,Win32,8.568980291,6691931c2c63981b064e1f0c,6691aca6457da644d17fb2e3,,,,,,,,,,,,,,,,,,,,,,,,,,,,,,,,,,,,,,,,,,,,,,,,,,,,,,,,,,,,1193.339,1203.546,-0.338888875,0.002777771,1.0,0.0,0.0,4.1458,compass,0.0,31.0,31.0,16.0,1.0,SoundStimuli/BohemianRhapsody_Queen_Original5S.wav,,,,,,,,,,,,,,,,,,,,,,,,,,,,,,,,,,,,,,,,,,,,,,,,,,,,,
,,,,,875583,1,2024-07-12_18h23.31.694,experiment,2024.1.5,Win32,8.568980291,6691931c2c63981b064e1f0c,6691aca6457da644d17fb2e3,,,,,,,,,,,,,,,,,,,,,,,,,,,,,,,,,,,,,,,,,,,,,,,,,,,,,,,,,,,,1203.5568,1213.4156,0.039814843,0.062037044,1.0,0.0,0.0,3.7637,compass,0.0,32.0,32.0,34.0,1.0,SoundStimuli/AChangeIsGonnaCome_SamCooke_Cover5S.wav,,,,,,,,,,,,,,,,,,,,,,,,,,,,,,,,,,,,,,,,,,,,,,,,,,,,,
,,,,,875583,1,2024-07-12_18h23.31.694,experiment,2024.1.5,Win32,8.568980291,6691931c2c63981b064e1f0c,6691aca6457da644d17fb2e3,,,,,,,,,,,,,,,,,,,,,,,,,,,,,,,,,,,,,,,,,,,,,,,,,,,,,,,,,,,,1213.4232,1222.4514,0.000925912,-0.297222208,1.0,0.0,0.0,3.0241,compass,0.0,33.0,33.0,31.0,1.0,SoundStimuli/TheBattleOfNewOrleans_JohnnyHorton_Cover5S.wav,,,,,,,,,,,,,,,,,,,,,,,,,,,,,,,,,,,,,,,,,,,,,,,,,,,,,
,,,,,875583,1,2024-07-12_18h23.31.694,experiment,2024.1.5,Win32,8.568980291,6691931c2c63981b064e1f0c,6691aca6457da644d17fb2e3,,,,,,,,,,,,,,,,,,,,,,,,,,,,,,,,,,,,,,,,,,,,,,,,,,,,,,,,,,,,1222.4588,1232.074,-0.046296296,0.050925926,1.0,0.0,0.0,3.5544,compass,0.0,34.0,34.0,21.0,1.0,SoundStimuli/GoodGollyMissMolly_LittleRichard_Cover5S.wav,,,,,,,,,,,,,,,,,,,,,,,,,,,,,,,,,,,,,,,,,,,,,,,,,,,,,
,,,,,875583,1,2024-07-12_18h23.31.694,experiment,2024.1.5,Win32,8.568980291,6691931c2c63981b064e1f0c,6691aca6457da644d17fb2e3,,,,,,,,,,,,,,,,,,,,,,,,,,,,,,,,,,,,,,,,,,,,,,,,,,,,,,,,,,,,,,,,,,,,,,,,,,,1232.0742,1234.4362,space,2.2353,0.0001,1234.4363,1234.9878,right,0.4187,,0.0,2.0,2.0,2.0,1.0,block_order/blockA.xlsx,,,,,,,,,,,,,,,,,,,,,,,,,,,,,,,,,,,,,
,,,,,875583,1,2024-07-12_18h23.31.694,experiment,2024.1.5,Win32,8.568980291,6691931c2c63981b064e1f0c,6691aca6457da644d17fb2e3,,,,,,,,,,,,,,,,,,,,,,,,,,,,,,,,,,,,,,,,,,,,,,,,,,,,,,,,,,,,1234.9998,1244.534,0.291666667,-0.32685188,1.0,0.0,0.0,3.4466,compass,0.0,0.0,0.0,32.0,1.0,SoundStimuli/Dilemma_NellyKellyRowland_Cover5S.wav,,,,,,,,,,,,,,,,,,,,,,,,,,,,,,,,,,,,,,,,,,,,,,,,,,,,,
,,,,,875583,1,2024-07-12_18h23.31.694,experiment,2024.1.5,Win32,8.568980291,6691931c2c63981b064e1f0c,6691aca6457da644d17fb2e3,,,,,,,,,,,,,,,,,,,,,,,,,,,,,,,,,,,,,,,,,,,,,,,,,,,,,,,,,,,,1244.5422,1252.6793,0.088888875,-0.332407422,1.0,0.0,0.0,2.012,compass,0.0,1.0,1.0,29.0,1.0,SoundStimuli/BetteDavisEyes_KimCarnes_Original5S.wav,,,,,,,,,,,,,,,,,,,,,,,,,,,,,,,,,,,,,,,,,,,,,,,,,,,,,
,,,,,875583,1,2024-07-12_18h23.31.694,experiment,2024.1.5,Win32,8.568980291,6691931c2c63981b064e1f0c,6691aca6457da644d17fb2e3,,,,,,,,,,,,,,,,,,,,,,,,,,,,,,,,,,,,,,,,,,,,,,,,,,,,,,,,,,,,1252.6907,1262.6567,-0.224074046,-0.33148151,1.0,0.0,0.0,3.8859,compass,0.0,2.0,2.0,34.0,1.0,SoundStimuli/Irreplaceable_Beyonce_Cover5S.wav,,,,,,,,,,,,,,,,,,,,,,,,,,,,,,,,,,,,,,,,,,,,,,,,,,,,,
,,,,,875583,1,2024-07-12_18h23.31.694,experiment,2024.1.5,Win32,8.568980291,6691931c2c63981b064e1f0c,6691aca6457da644d17fb2e3,,,,,,,,,,,,,,,,,,,,,,,,,,,,,,,,,,,,,,,,,,,,,,,,,,,,,,,,,,,,1262.6646,1272.7967,-0.07222218,0.126851859,1.0,0.0,0.0,4.121,compass,0.0,3.0,3.0,31.0,1.0,SoundStimuli/TossinAndTurnin_BobbyLewis_Original5S.wav,,,,,,,,,,,,,,,,,,,,,,,,,,,,,,,,,,,,,,,,,,,,,,,,,,,,,
,,,,,875583,1,2024-07-12_18h23.31.694,experiment,2024.1.5,Win32,8.568980291,6691931c2c63981b064e1f0c,6691aca6457da644d17fb2e3,,,,,,,,,,,,,,,,,,,,,,,,,,,,,,,,,,,,,,,,,,,,,,,,,,,,,,,,,,,,1272.8045,1282.1108,0.335185157,-0.332407422,1.0,0.0,0.0,3.2191,compass,0.0,4.0,4.0,19.0,1.0,SoundStimuli/YouLightUpMyLife_DebbyBoone_Original5S.wav,,,,,,,,,,,,,,,,,,,,,,,,,,,,,,,,,,,,,,,,,,,,,,,,,,,,,
,,,,,875583,1,2024-07-12_18h23.31.694,experiment,2024.1.5,Win32,8.568980291,6691931c2c63981b064e1f0c,6691aca6457da644d17fb2e3,,,,,,,,,,,,,,,,,,,,,,,,,,,,,,,,,,,,,,,,,,,,,,,,,,,,,,,,,,,,1282.1191,1290.0029,-0.000925912,0.005555541,1.0,0.0,0.0,1.8057,compass,0.0,5.0,5.0,24.0,1.0,SoundStimuli/Kiss_Prince_Cover5S.wav,,,,,,,,,,,,,,,,,,,,,,,,,,,,,,,,,,,,,,,,,,,,,,,,,,,,,
,,,,,875583,1,2024-07-12_18h23.31.694,experiment,2024.1.5,Win32,8.568980291,6691931c2c63981b064e1f0c,6691aca6457da644d17fb2e3,,,,,,,,,,,,,,,,,,,,,,,,,,,,,,,,,,,,,,,,,,,,,,,,,,,,,,,,,,,,1290.0113,1299.401,-0.024999972,0.026851831,1.0,0.0,0.0,3.3735,compass,0.0,6.0,6.0,7.0,1.0,SoundStimuli/MackTheKnife_BobbyDarin_Cover5S.wav,,,,,,,,,,,,,,,,,,,,,,,,,,,,,,,,,,,,,,,,,,,,,,,,,,,,,
,,,,,875583,1,2024-07-12_18h23.31.694,experiment,2024.1.5,Win32,8.568980291,6691931c2c63981b064e1f0c,6691aca6457da644d17fb2e3,,,,,,,,,,,,,,,,,,,,,,,,,,,,,,,,,,,,,,,,,,,,,,,,,,,,,,,,,,,,1299.409,1307.712,0.194444444,0.343518522,1.0,0.0,0.0,2.1467,compass,0.0,7.0,7.0,10.0,1.0,SoundStimuli/LeFreak_Chic_Cover5S.wav,,,,,,,,,,,,,,,,,,,,,,,,,,,,,,,,,,,,,,,,,,,,,,,,,,,,,
,,,,,875583,1,2024-07-12_18h23.31.694,experiment,2024.1.5,Win32,8.568980291,6691931c2c63981b064e1f0c,6691aca6457da644d17fb2e3,,,,,,,,,,,,,,,,,,,,,,,,,,,,,,,,,,,,,,,,,,,,,,,,,,,,,,,,,,,,1307.7202,1315.5434,0.287037037,0.337962963,1.0,0.0,0.0,1.7727,compass,0.0,8.0,8.0,26.0,1.0,SoundStimuli/TheSign_AceOfBase_Cover5S.wav,,,,,,,,,,,,,,,,,,,,,,,,,,,,,,,,,,,,,,,,,,,,,,,,,,,,,
,,,,,875583,1,2024-07-12_18h23.31.694,experiment,2024.1.5,Win32,8.568980291,6691931c2c63981b064e1f0c,6691aca6457da644d17fb2e3,,,,,,,,,,,,,,,,,,,,,,,,,,,,,,,,,,,,,,,,,,,,,,,,,,,,,,,,,,,,1315.5546,1323.3986,0.337037122,0.341666663,1.0,0.0,0.0,1.7104,compass,0.0,9.0,9.0,27.0,1.0,SoundStimuli/EyeOfTheTiger_Survivor_Cover5S.wav,,,,,,,,,,,,,,,,,,,,,,,,,,,,,,,,,,,,,,,,,,,,,,,,,,,,,
,,,,,875583,1,2024-07-12_18h23.31.694,experiment,2024.1.5,Win32,8.568980291,6691931c2c63981b064e1f0c,6691aca6457da644d17fb2e3,,,,,,,,,,,,,,,,,,,,,,,,,,,,,,,,,,,,,,,,,,,,,,,,,,,,,,,,,,,,1323.4086,1331.4439,0.337037122,0.001851859,1.0,0.0,0.0,1.9278,compass,0.0,10.0,10.0,15.0,1.0,SoundStimuli/CrazyInLove_BeyonceFtJayZ_Cover5S.wav,,,,,,,,,,,,,,,,,,,,,,,,,,,,,,,,,,,,,,,,,,,,,,,,,,,,,
,,,,,875583,1,2024-07-12_18h23.31.694,experiment,2024.1.5,Win32,8.568980291,6691931c2c63981b064e1f0c,6691aca6457da644d17fb2e3,,,,,,,,,,,,,,,,,,,,,,,,,,,,,,,,,,,,,,,,,,,,,,,,,,,,,,,,,,,,1331.4541,1339.5214,0.338888945,0.038888896,1.0,0.0,0.0,1.998,compass,0.0,11.0,11.0,28.0,1.0,SoundStimuli/IWantToHoldYourHand_TheBeatles_Original5S.wav,,,,,,,,,,,,,,,,,,,,,,,,,,,,,,,,,,,,,,,,,,,,,,,,,,,,,
,,,,,875583,1,2024-07-12_18h23.31.694,experiment,2024.1.5,Win32,8.568980291,6691931c2c63981b064e1f0c,6691aca6457da644d17fb2e3,,,,,,,,,,,,,,,,,,,,,,,,,,,,,,,,,,,,,,,,,,,,,,,,,,,,,,,,,,,,1339.5292,1348.7208,-0.200925898,0.020370377,1.0,0.0,0.0,3.1084,compass,0.0,12.0,12.0,5.0,1.0,SoundStimuli/JoyToTheWorld_ThreeDogNight_Original5S.wav,,,,,,,,,,,,,,,,,,,,,,,,,,,,,,,,,,,,,,,,,,,,,,,,,,,,,
,,,,,875583,1,2024-07-12_18h23.31.694,experiment,2024.1.5,Win32,8.568980291,6691931c2c63981b064e1f0c,6691aca6457da644d17fb2e3,,,,,,,,,,,,,,,,,,,,,,,,,,,,,,,,,,,,,,,,,,,,,,,,,,,,,,,,,,,,1348.7287,1359.6678,-0.087962963,-0.061111132,1.0,0.0,0.0,4.8281,compass,0.0,13.0,13.0,2.0,1.0,SoundStimuli/SmellsLikeTeenSpirit_Nirvana_Original5S.wav,,,,,,,,,,,,,,,,,,,,,,,,,,,,,,,,,,,,,,,,,,,,,,,,,,,,,
,,,,,875583,1,2024-07-12_18h23.31.694,experiment,2024.1.5,Win32,8.568980291,6691931c2c63981b064e1f0c,6691aca6457da644d17fb2e3,,,,,,,,,,,,,,,,,,,,,,,,,,,,,,,,,,,,,,,,,,,,,,,,,,,,,,,,,,,,1359.6758,1367.9415,0.125,-0.335185228,1.0,0.0,0.0,2.2163,compass,0.0,14.0,14.0,33.0,1.0,SoundStimuli/TheBoyIsMine_BrandyMonica_Original5S.wav,,,,,,,,,,,,,,,,,,,,,,,,,,,,,,,,,,,,,,,,,,,,,,,,,,,,,
,,,,,875583,1,2024-07-12_18h23.31.694,experiment,2024.1.5,Win32,8.568980291,6691931c2c63981b064e1f0c,6691aca6457da644d17fb2e3,,,,,,,,,,,,,,,,,,,,,,,,,,,,,,,,,,,,,,,,,,,,,,,,,,,,,,,,,,,,1367.9493,1375.9935,-0.338888875,-0.216666681,1.0,0.0,0.0,1.9096,compass,0.0,15.0,15.0,30.0,1.0,SoundStimuli/SomebodyThatIUsedtoKnow_Gotye_Original5S.wav,,,,,,,,,,,,,,,,,,,,,,,,,,,,,,,,,,,,,,,,,,,,,,,,,,,,,
,,,,,875583,1,2024-07-12_18h23.31.694,experiment,2024.1.5,Win32,8.568980291,6691931c2c63981b064e1f0c,6691aca6457da644d17fb2e3,,,,,,,,,,,,,,,,,,,,,,,,,,,,,,,,,,,,,,,,,,,,,,,,,,,,,,,,,,,,1376.0021,1384.9077,0.0,-0.30740745,1.0,0.0,0.0,2.8556,compass,0.0,16.0,16.0,14.0,1.0,SoundStimuli/LikeARollingStone_BobDylan_Original5S.wav,,,,,,,,,,,,,,,,,,,,,,,,,,,,,,,,,,,,,,,,,,,,,,,,,,,,,
,,,,,875583,1,2024-07-12_18h23.31.694,experiment,2024.1.5,Win32,8.568980291,6691931c2c63981b064e1f0c,6691aca6457da644d17fb2e3,,,,,,,,,,,,,,,,,,,,,,,,,,,,,,,,,,,,,,,,,,,,,,,,,,,,,,,,,,,,1384.919,1393.7746,0.023148148,0.022222201,1.0,0.0,0.0,2.7076,compass,0.0,17.0,17.0,0.0,1.0,SoundStimuli/GimmeShelter_RollingStones_Original5S.wav,,,,,,,,,,,,,,,,,,,,,,,,,,,,,,,,,,,,,,,,,,,,,,,,,,,,,
,,,,,875583,1,2024-07-12_18h23.31.694,experiment,2024.1.5,Win32,8.568980291,6691931c2c63981b064e1f0c,6691aca6457da644d17fb2e3,,,,,,,,,,,,,,,,,,,,,,,,,,,,,,,,,,,,,,,,,,,,,,,,,,,,,,,,,,,,1393.7857,1403.9252,0.189814815,0.099074081,1.0,0.0,0.0,4.0854,compass,0.0,18.0,18.0,20.0,1.0,SoundStimuli/FlashdanceWhatAFeeling_IreneCara_Original5S.wav,,,,,,,,,,,,,,,,,,,,,,,,,,,,,,,,,,,,,,,,,,,,,,,,,,,,,
,,,,,875583,1,2024-07-12_18h23.31.694,experiment,2024.1.5,Win32,8.568980291,6691931c2c63981b064e1f0c,6691aca6457da644d17fb2e3,,,,,,,,,,,,,,,,,,,,,,,,,,,,,,,,,,,,,,,,,,,,,,,,,,,,,,,,,,,,1403.9361,1414.6433,0.335185157,-0.337037051,1.0,0.0,0.0,4.6831,compass,0.0,19.0,19.0,13.0,1.0,SoundStimuli/Perfect_EdSheeran_Cover5S.wav,,,,,,,,,,,,,,,,,,,,,,,,,,,,,,,,,,,,,,,,,,,,,,,,,,,,,
,,,,,875583,1,2024-07-12_18h23.31.694,experiment,2024.1.5,Win32,8.568980291,6691931c2c63981b064e1f0c,6691aca6457da644d17fb2e3,,,,,,,,,,,,,,,,,,,,,,,,,,,,,,,,,,,,,,,,,,,,,,,,,,,,,,,,,,,,1414.6519,1424.1145,-0.334259245,-0.337037051,1.0,0.0,0.0,3.3249,compass,0.0,20.0,20.0,12.0,1.0,SoundStimuli/UnbreakMyHeart_ToniBraxton_Original5S.wav,,,,,,,,,,,,,,,,,,,,,,,,,,,,,,,,,,,,,,,,,,,,,,,,,,,,,
,,,,,875583,1,2024-07-12_18h23.31.694,experiment,2024.1.5,Win32,8.568980291,6691931c2c63981b064e1f0c,6691aca6457da644d17fb2e3,,,,,,,,,,,,,,,,,,,,,,,,,,,,,,,,,,,,,,,,,,,,,,,,,,,,,,,,,,,,1424.1228,1435.0517,-0.211111069,-0.332407422,1.0,0.0,0.0,4.9074,compass,0.0,21.0,21.0,6.0,1.0,SoundStimuli/SaveYourTears_TheWeekndArianaGrande_Cover5S.wav,,,,,,,,,,,,,,,,,,,,,,,,,,,,,,,,,,,,,,,,,,,,,,,,,,,,,
,,,,,875583,1,2024-07-12_18h23.31.694,experiment,2024.1.5,Win32,8.568980291,6691931c2c63981b064e1f0c,6691aca6457da644d17fb2e3,,,,,,,,,,,,,,,,,,,,,,,,,,,,,,,,,,,,,,,,,,,,,,,,,,,,,,,,,,,,1435.0594,1442.8697,0.335185157,-0.191666709,1.0,0.0,0.0,1.7468,compass,0.0,22.0,22.0,17.0,1.0,SoundStimuli/IWannaDanceWithSomebody_WhitneyHouston_Original5S.wav,,,,,,,,,,,,,,,,,,,,,,,,,,,,,,,,,,,,,,,,,,,,,,,,,,,,,
,,,,,875583,1,2024-07-12_18h23.31.694,experiment,2024.1.5,Win32,8.568980291,6691931c2c63981b064e1f0c,6691aca6457da644d17fb2e3,,,,,,,,,,,,,,,,,,,,,,,,,,,,,,,,,,,,,,,,,,,,,,,,,,,,,,,,,,,,1442.8776,1451.4589,-0.332407386,-0.328703704,1.0,0.0,0.0,2.5572,compass,0.0,23.0,23.0,21.0,1.0,SoundStimuli/BridgeOverTroubledWater_SimonAndGarfunkel_Original5S.wav,,,,,,,,,,,,,,,,,,,,,,,,,,,,,,,,,,,,,,,,,,,,,,,,,,,,,
,,,,,875583,1,2024-07-12_18h23.31.694,experiment,2024.1.5,Win32,8.568980291,6691931c2c63981b064e1f0c,6691aca6457da644d17fb2e3,,,,,,,,,,,,,,,,,,,,,,,,,,,,,,,,,,,,,,,,,,,,,,,,,,,,,,,,,,,,1451.4669,1462.2072,0.330555527,0.187962956,1.0,0.0,0.0,4.6223,compass,0.0,24.0,24.0,3.0,1.0,SoundStimuli/PartyRockAnthem_LMFAO_Original5S.wav,,,,,,,,,,,,,,,,,,,,,,,,,,,,,,,,,,,,,,,,,,,,,,,,,,,,,
,,,,,875583,1,2024-07-12_18h23.31.694,experiment,2024.1.5,Win32,8.568980291,6691931c2c63981b064e1f0c,6691aca6457da644d17fb2e3,,,,,,,,,,,,,,,,,,,,,,,,,,,,,,,,,,,,,,,,,,,,,,,,,,,,,,,,,,,,1462.2151,1471.545,0.050000014,-0.332407422,1.0,0.0,0.0,3.2279,compass,0.0,25.0,25.0,8.0,1.0,SoundStimuli/EndlessLove_DianaRossLionelRichie_Cover5S.wav,,,,,,,,,,,,,,,,,,,,,,,,,,,,,,,,,,,,,,,,,,,,,,,,,,,,,
,,,,,875583,1,2024-07-12_18h23.31.694,experiment,2024.1.5,Win32,8.568980291,6691931c2c63981b064e1f0c,6691aca6457da644d17fb2e3,,,,,,,,,,,,,,,,,,,,,,,,,,,,,,,,,,,,,,,,,,,,,,,,,,,,,,,,,,,,1471.5531,1479.6412,0.336111139,-0.33148151,1.0,0.0,0.0,1.9195,compass,0.0,26.0,26.0,25.0,1.0,SoundStimuli/IllMakeLoveToYou_BoyzIIMen_Cover5S.wav,,,,,,,,,,,,,,,,,,,,,,,,,,,,,,,,,,,,,,,,,,,,,,,,,,,,,
,,,,,875583,1,2024-07-12_18h23.31.694,experiment,2024.1.5,Win32,8.568980291,6691931c2c63981b064e1f0c,6691aca6457da644d17fb2e3,,,,,,,,,,,,,,,,,,,,,,,,,,,,,,,,,,,,,,,,,,,,,,,,,,,,,,,,,,,,1479.6507,1489.07,-0.002777735,-0.222222222,1.0,0.0,0.0,3.3411,compass,0.0,27.0,27.0,4.0,1.0,SoundStimuli/Dreams_FleetwoodMac_Original5S.wav,,,,,,,,,,,,,,,,,,,,,,,,,,,,,,,,,,,,,,,,,,,,,,,,,,,,,
,,,,,875583,1,2024-07-12_18h23.31.694,experiment,2024.1.5,Win32,8.568980291,6691931c2c63981b064e1f0c,6691aca6457da644d17fb2e3,,,,,,,,,,,,,,,,,,,,,,,,,,,,,,,,,,,,,,,,,,,,,,,,,,,,,,,,,,,,1489.0785,1499.53,0.268518519,-0.234259288,1.0,0.0,0.0,4.374,compass,0.0,28.0,28.0,1.0,1.0,SoundStimuli/Smooth_SantanaRobThomas_Original5S.wav,,,,,,,,,,,,,,,,,,,,,,,,,,,,,,,,,,,,,,,,,,,,,,,,,,,,,
,,,,,875583,1,2024-07-12_18h23.31.694,experiment,2024.1.5,Win32,8.568980291,6691931c2c63981b064e1f0c,6691aca6457da644d17fb2e3,,,,,,,,,,,,,,,,,,,,,,,,,,,,,,,,,,,,,,,,,,,,,,,,,,,,,,,,,,,,1499.5379,1506.3428,0.337037122,0.346296293,1.0,0.0,0.0,0.7792,compass,0.0,29.0,29.0,22.0,1.0,SoundStimuli/Happy_PharellWilliams_Original5S.wav,,,,,,,,,,,,,,,,,,,,,,,,,,,,,,,,,,,,,,,,,,,,,,,,,,,,,
,,,,,875583,1,2024-07-12_18h23.31.694,experiment,2024.1.5,Win32,8.568980291,6691931c2c63981b064e1f0c,6691aca6457da644d17fb2e3,,,,,,,,,,,,,,,,,,,,,,,,,,,,,,,,,,,,,,,,,,,,,,,,,,,,,,,,,,,,1506.3504,1516.5254,0.287037037,-0.262962977,1.0,0.0,0.0,4.1231,compass,0.0,30.0,30.0,18.0,1.0,SoundStimuli/Weak_SWV_Cover5S.wav,,,,,,,,,,,,,,,,,,,,,,,,,,,,,,,,,,,,,,,,,,,,,,,,,,,,,
,,,,,875583,1,2024-07-12_18h23.31.694,experiment,2024.1.5,Win32,8.568980291,6691931c2c63981b064e1f0c,6691aca6457da644d17fb2e3,,,,,,,,,,,,,,,,,,,,,,,,,,,,,,,,,,,,,,,,,,,,,,,,,,,,,,,,,,,,1516.5331,1524.1379,0.327777863,-0.336111139,1.0,0.0,0.0,1.4937,compass,0.0,31.0,31.0,23.0,1.0,SoundStimuli/IWalkTheLine_JohnnyCash_Original5S.wav,,,,,,,,,,,,,,,,,,,,,,,,,,,,,,,,,,,,,,,,,,,,,,,,,,,,,
,,,,,875583,1,2024-07-12_18h23.31.694,experiment,2024.1.5,Win32,8.568980291,6691931c2c63981b064e1f0c,6691aca6457da644d17fb2e3,,,,,,,,,,,,,,,,,,,,,,,,,,,,,,,,,,,,,,,,,,,,,,,,,,,,,,,,,,,,1524.1453,1532.7587,0.327777863,-0.336111139,1.0,0.0,0.0,2.5259,compass,0.0,32.0,32.0,16.0,1.0,SoundStimuli/ItsAllInTheGame_TommyEdwards_Cover5S.wav,,,,,,,,,,,,,,,,,,,,,,,,,,,,,,,,,,,,,,,,,,,,,,,,,,,,,
,,,,,875583,1,2024-07-12_18h23.31.694,experiment,2024.1.5,Win32,8.568980291,6691931c2c63981b064e1f0c,6691aca6457da644d17fb2e3,,,,,,,,,,,,,,,,,,,,,,,,,,,,,,,,,,,,,,,,,,,,,,,,,,,,,,,,,,,,1532.7668,1544.5273,0.32685188,-0.214814857,1.0,0.0,0.0,5.6349,compass,0.0,33.0,33.0,11.0,1.0,SoundStimuli/BlurredLines_RobinThicke_Cover5S.wav,,,,,,,,,,,,,,,,,,,,,,,,,,,,,,,,,,,,,,,,,,,,,,,,,,,,,
,,,,,875583,1,2024-07-12_18h23.31.694,experiment,2024.1.5,Win32,8.568980291,6691931c2c63981b064e1f0c,6691aca6457da644d17fb2e3,,,,,,,,,,,,,,,,,,,,,,,,,,,,,,,,,,,,,,,,,,,,,,,,,,,,,,,,,,,,1544.5351,1558.43,-0.267592607,-0.198148162,1.0,0.0,0.0,7.8692,compass,0.0,34.0,34.0,9.0,1.0,SoundStimuli/HowDoILive_LeAnnRimes_Cover5S.wav,,,,,,,,,,,,,,,,,,,,,,,,,,,,,,,,,,,,,,,,,,,,,,,,,,,,,
,,,,,875583,1,2024-07-12_18h23.31.694,experiment,2024.1.5,Win32,8.568980291,6691931c2c63981b064e1f0c,6691aca6457da644d17fb2e3,,,,,,,,,,,,,,,,,,,,,,,,,,,,,,,,,,,,,,,,,,,,,,,,,,,,,,,,,,,,,,,,,,,,,,,,,,,1558.4302,1558.4302,,,,1558.4302,1558.4302,,,,0.0,3.0,3.0,3.0,1.0,block_order/blockD.xlsx,,,,,,,,,,,,,,,,,,,,,,,,,,,,,,,,,,,,,
,,,,,875583,1,2024-07-12_18h23.31.694,experiment,2024.1.5,Win32,8.568980291,6691931c2c63981b064e1f0c,6691aca6457da644d17fb2e3,,,,,,,,,,,,,,,,,,,,,,,,,,,,,,,,,,,,,,,,,,,,,,,,,,,,,,,,,,,,,,,,,,,,,,,,,,,,,,,,,,,,,,,,,,,19.0,Item 2,,Item 4,Spotify or YouTube,5.0,6.0,"Playing games, driving",Often,Sometimes,Never,Rarely,Never,Rarely,Sometimes,Never,Sometimes,Rarely,Rarely,Often,Never,Never,Sometimes,Never,,Alternative Rock,Pop,Indie,Over time I started listening to heavier music,,0.0,0.0,0.0,0.0,1.0,,
,,,,,875583,1,2024-07-12_18h23.31.694,experiment,2024.1.5,Win32,8.568980291,6691931c2c63981b064e1f0c,6691aca6457da644d17fb2e3,,,,,,,,,,,,,,,,,,,,,,,,,,,,,,,,,,,,,,,,,,,,,,,,,,,,,,,,,,,,,,,,,,,,,,,,,,,,,,,,,,,,,,,,,,,,,,,,,,,,,,,,,,,,,,,,,,,,,,,,,,,,,,1681.3569,1683.7917
