welcome.started,welcome.stopped,space_to_continue.keys,space_to_continue.rt,space_to_continue.duration,participant,session,date,expName,psychopyVersion,OS,frameRate,STUDY_ID,SESSION_ID,consent.consent,consent_check.started,consent_check.stopped,calibration_ready.started,calibration_ready.stopped,cal_ready.keys,cal_ready.rt,cal_ready.duration,calibration.started,calibration.stopped,mouse.x,mouse.y,mouse.leftButton,mouse.midButton,mouse.rightButton,mouse.time,mouse.clicked_name,move_on.keys,move_on.rt,move_on.duration,run_cal.thisRepN,run_cal.thisTrialN,run_cal.thisN,run_cal.thisIndex,run_cal.ran,emotion_training_ready.started,emotion_training_ready.stopped,training_move_on.keys,training_move_on.rt,training_move_on.duration,examples.started,examples.stopped,emotion_scale.started,emotion_scale.stopped,scale_next.keys,scale_next.rt,scale_next.duration,instructions.started,instructions.stopped,next.keys,next.rt,next.duration,practice_task.started,practice_task.stopped,mouse_rating_2.x,mouse_rating_2.y,mouse_rating_2.leftButton,mouse_rating_2.midButton,mouse_rating_2.rightButton,mouse_rating_2.time,mouse_rating_2.clicked_name,ready.started,ready.stopped,key_resp.keys,key_resp.rt,key_resp.duration,set_group.started,set_group.stopped,task.started,task.stopped,mouse_rating.x,mouse_rating.y,mouse_rating.leftButton,mouse_rating.midButton,mouse_rating.rightButton,mouse_rating.time,mouse_rating.clicked_name,trials.thisRepN,trials.thisTrialN,trials.thisN,trials.thisIndex,trials.ran,clip,short_break.started,short_break.stopped,space_to_move_on.keys,space_to_move_on.rt,space_to_move_on.duration,instruction_reminder.started,instruction_reminder.stopped,reminder_move_on.keys,reminder_move_on.rt,reminder_move_on.duration,blocks.thisRepN,blocks.thisTrialN,blocks.thisN,blocks.thisIndex,blocks.ran,block,post_survey.age,post_survey.musician,post_survey.music_making,post_survey.listen_time,post_survey.medium,post_survey.music_seeking,post_survey.music_choice,post_survey.activities,post_survey.question1.Classical,post_survey.question1.Ambient,post_survey.question1.Country,post_survey.question1.Metal,post_survey.question1.Electronic (EDM),post_survey.question1.Classic rock,post_survey.question1.Latin,post_survey.question1.A cappella,post_survey.question1.Jazz,post_survey.question1.Reggae,post_survey.question1.Folk/indie,post_survey.question1.Alternative rock,post_survey.question1.Pop,post_survey.question1.Hip hop,post_survey.question1.Disco,post_survey.question1.R&B,post_survey.genres_ranked.text1,post_survey.genres_ranked.text2,post_survey.genres_ranked.text3,post_survey.other_genres,post_survey.habit_change,post_survey.habits,show_exp.thisRepN,show_exp.thisTrialN,show_exp.thisN,show_exp.thisIndex,show_exp.ran,goodbye.started,goodbye.stopped
0.0,4.819,space,4.773,,888741,1,2024-07-12_16h48.50.174,experiment,2024.1.5,Win32,60.0240096,6691931c2c63981b064e1f0c,6691b9953a1360840d8efd24,,,,,,,,,,,,,,,,,,,,,,,,,,,,,,,,,,,,,,,,,,,,,,,,,,,,,,,,,,,,,,,,,,,,,,,,,,,,,,,,,,,,,,,,,,,,,,,,,,,,,,,,,,,,,,,,,,,,,,,,,,,,,,
,,,,,888741,1,2024-07-12_16h48.50.174,experiment,2024.1.5,Win32,60.0240096,6691931c2c63981b064e1f0c,6691b9953a1360840d8efd24,yes,,,,,,,,,,,,,,,,,,,,,,,,,,,,,,,,,,,,,,,,,,,,,,,,,,,,,,,,,,,,,,,,,,,,,,,,,,,,,,,,,,,,,,,,,,,,,,,,,,,,,,,,,,,,,,,,,,,,,,,,,,,,,
,,,,,888741,1,2024-07-12_16h48.50.174,experiment,2024.1.5,Win32,60.0240096,6691931c2c63981b064e1f0c,6691b9953a1360840d8efd24,,25.479,25.479,,,,,,,,,,,,,,,,,,,,,,,,,,,,,,,,,,,,,,,,,,,,,,,,,,,,,,,,,,,,,,,,,,,,,,,,,,,,,,,,,,,,,,,,,,,,,,,,,,,,,,,,,,,,,,,,,,,,,,,,,,,
,,,,,888741,1,2024-07-12_16h48.50.174,experiment,2024.1.5,Win32,60.0240096,6691931c2c63981b064e1f0c,6691b9953a1360840d8efd24,,,,25.484,62.391,space,36.836,,62.399,103.42,"[-0.016927083333333332,-0.022135416666666668]","[-0.4127604166666667,-0.421875]","[1,1]","[0,0]","[0,0]","[14.469999999999999,35.182000000000016]","[""play_button"",""play_button""]",y,39.966,,0.0,0.0,0.0,0.0,1.0,,,,,,,,,,,,,,,,,,,,,,,,,,,,,,,,,,,,,,,,,,,,,,,,,,,,,,,,,,,,,,,,,,,,,,,,,,,,,,,,,,,,,,,,,,,,,,,,,,,,,
,,,,,888741,1,2024-07-12_16h48.50.174,experiment,2024.1.5,Win32,60.0240096,6691931c2c63981b064e1f0c,6691b9953a1360840d8efd24,,,,,,,,,,,,,,,,,,,,,,,,,,103.422,152.537,space,49.059,,152.538,272.548,272.549,282.527,right,6.434,,282.528,295.778,space,13.13,,295.778,303.713,0.19921875,-0.225260417,1.0,0.0,0.0,1.929,compass_2,303.714,306.461,space,2.725,,306.461,306.461,306.532,317.217,0.123697917,-0.174479167,1.0,0.0,0.0,4.671,compass,0.0,0.0,0.0,10.0,1.0,SoundStimuli/BadDay_DanielPowter_Cover5S.wav,,,,,,,,,,,,,,,,,,,,,,,,,,,,,,,,,,,,,,,,,,,,,,,,,,,,,
,,,,,888741,1,2024-07-12_16h48.50.174,experiment,2024.1.5,Win32,60.0240096,6691931c2c63981b064e1f0c,6691b9953a1360840d8efd24,,,,,,,,,,,,,,,,,,,,,,,,,,,,,,,,,,,,,,,,,,,,,,,,,,,,,,,,,,,317.224,324.489,-0.149739583,0.11328125,1.0,0.0,0.0,1.262,compass,0.0,1.0,1.0,14.0,1.0,SoundStimuli/BlindingLights_TheWeeknd_Original5S.wav,,,,,,,,,,,,,,,,,,,,,,,,,,,,,,,,,,,,,,,,,,,,,,,,,,,,,
,,,,,888741,1,2024-07-12_16h48.50.174,experiment,2024.1.5,Win32,60.0240096,6691931c2c63981b064e1f0c,6691b9953a1360840d8efd24,,,,,,,,,,,,,,,,,,,,,,,,,,,,,,,,,,,,,,,,,,,,,,,,,,,,,,,,,,,324.492,331.529,0.11328125,0.165364583,1.0,0.0,0.0,1.02,compass,0.0,2.0,2.0,24.0,1.0,SoundStimuli/UptownFunk_MarkRonson_Original5S.wav,,,,,,,,,,,,,,,,,,,,,,,,,,,,,,,,,,,,,,,,,,,,,,,,,,,,,
,,,,,888741,1,2024-07-12_16h48.50.174,experiment,2024.1.5,Win32,60.0240096,6691931c2c63981b064e1f0c,6691b9953a1360840d8efd24,,,,,,,,,,,,,,,,,,,,,,,,,,,,,,,,,,,,,,,,,,,,,,,,,,,,,,,,,,,331.53,337.995,-0.12109375,-0.122395833,1.0,0.0,0.0,0.454,compass,0.0,3.0,3.0,2.0,1.0,SoundStimuli/Mood_24kGoldnianndior_Cover5S.wav,,,,,,,,,,,,,,,,,,,,,,,,,,,,,,,,,,,,,,,,,,,,,,,,,,,,,
,,,,,888741,1,2024-07-12_16h48.50.174,experiment,2024.1.5,Win32,60.0240096,6691931c2c63981b064e1f0c,6691b9953a1360840d8efd24,,,,,,,,,,,,,,,,,,,,,,,,,,,,,,,,,,,,,,,,,,,,,,,,,,,,,,,,,,,337.997,347.741,0.096354167,-0.229166667,1.0,0.0,0.0,3.732,compass,0.0,4.0,4.0,12.0,1.0,SoundStimuli/IWillAlwaysLoveYou_WhitneyHouston_Cover5S.wav,,,,,,,,,,,,,,,,,,,,,,,,,,,,,,,,,,,,,,,,,,,,,,,,,,,,,
,,,,,888741,1,2024-07-12_16h48.50.174,experiment,2024.1.5,Win32,60.0240096,6691931c2c63981b064e1f0c,6691b9953a1360840d8efd24,,,,,,,,,,,,,,,,,,,,,,,,,,,,,,,,,,,,,,,,,,,,,,,,,,,,,,,,,,,347.746,373.76,,,,,,,,0.0,5.0,5.0,32.0,1.0,SoundStimuli/HeatWaves_GlassAnimals_Original5S.wav,,,,,,,,,,,,,,,,,,,,,,,,,,,,,,,,,,,,,,,,,,,,,,,,,,,,,
,,,,,888741,1,2024-07-12_16h48.50.174,experiment,2024.1.5,Win32,60.0240096,6691931c2c63981b064e1f0c,6691b9953a1360840d8efd24,,,,,,,,,,,,,,,,,,,,,,,,,,,,,,,,,,,,,,,,,,,,,,,,,,,,,,,,,,,373.769,390.328,-0.055989583,-0.19140625,1.0,0.0,0.0,10.547,compass,0.0,6.0,6.0,33.0,1.0,SoundStimuli/StandByMe_BenEKing_Cover5S.wav,,,,,,,,,,,,,,,,,,,,,,,,,,,,,,,,,,,,,,,,,,,,,,,,,,,,,
,,,,,888741,1,2024-07-12_16h48.50.174,experiment,2024.1.5,Win32,60.0240096,6691931c2c63981b064e1f0c,6691b9953a1360840d8efd24,,,,,,,,,,,,,,,,,,,,,,,,,,,,,,,,,,,,,,,,,,,,,,,,,,,,,,,,,,,390.35,398.521,-0.131510417,-0.115885417,1.0,0.0,0.0,2.163,compass,0.0,7.0,7.0,26.0,1.0,SoundStimuli/LivinOnAPrayer_BonJovi_Cover5S.wav,,,,,,,,,,,,,,,,,,,,,,,,,,,,,,,,,,,,,,,,,,,,,,,,,,,,,
,,,,,888741,1,2024-07-12_16h48.50.174,experiment,2024.1.5,Win32,60.0240096,6691931c2c63981b064e1f0c,6691b9953a1360840d8efd24,,,,,,,,,,,,,,,,,,,,,,,,,,,,,,,,,,,,,,,,,,,,,,,,,,,,,,,,,,,398.523,409.304,0.061197917,-0.135416667,1.0,0.0,0.0,4.737,compass,0.0,8.0,8.0,20.0,1.0,SoundStimuli/HeyYa_Outkast_Cover5S.wav,,,,,,,,,,,,,,,,,,,,,,,,,,,,,,,,,,,,,,,,,,,,,,,,,,,,,
,,,,,888741,1,2024-07-12_16h48.50.174,experiment,2024.1.5,Win32,60.0240096,6691931c2c63981b064e1f0c,6691b9953a1360840d8efd24,,,,,,,,,,,,,,,,,,,,,,,,,,,,,,,,,,,,,,,,,,,,,,,,,,,,,,,,,,,409.308,418.056,0.0703125,-0.135416667,1.0,0.0,0.0,2.732,compass,0.0,9.0,9.0,4.0,1.0,SoundStimuli/GetUrFreakOn_MissyElliot_Original5S.wav,,,,,,,,,,,,,,,,,,,,,,,,,,,,,,,,,,,,,,,,,,,,,,,,,,,,,
,,,,,888741,1,2024-07-12_16h48.50.174,experiment,2024.1.5,Win32,60.0240096,6691931c2c63981b064e1f0c,6691b9953a1360840d8efd24,,,,,,,,,,,,,,,,,,,,,,,,,,,,,,,,,,,,,,,,,,,,,,,,,,,,,,,,,,,418.061,424.305,-0.252604167,0.151041667,1.0,0.0,0.0,0.209,compass,0.0,10.0,10.0,18.0,1.0,SoundStimuli/AnotherOneBitesTheDust_Queen_Original5S.wav,,,,,,,,,,,,,,,,,,,,,,,,,,,,,,,,,,,,,,,,,,,,,,,,,,,,,
,,,,,888741,1,2024-07-12_16h48.50.174,experiment,2024.1.5,Win32,60.0240096,6691931c2c63981b064e1f0c,6691b9953a1360840d8efd24,,,,,,,,,,,,,,,,,,,,,,,,,,,,,,,,,,,,,,,,,,,,,,,,,,,,,,,,,,,424.309,432.754,0.049479167,0.061197917,1.0,0.0,0.0,2.431,compass,0.0,11.0,11.0,31.0,1.0,SoundStimuli/TheBattleOfNewOrleans_JohnnyHorton_Cover5S.wav,,,,,,,,,,,,,,,,,,,,,,,,,,,,,,,,,,,,,,,,,,,,,,,,,,,,,
,,,,,888741,1,2024-07-12_16h48.50.174,experiment,2024.1.5,Win32,60.0240096,6691931c2c63981b064e1f0c,6691b9953a1360840d8efd24,,,,,,,,,,,,,,,,,,,,,,,,,,,,,,,,,,,,,,,,,,,,,,,,,,,,,,,,,,,432.763,441.056,-0.0859375,-0.09375,1.0,0.0,0.0,2.284,compass,0.0,12.0,12.0,13.0,1.0,SoundStimuli/GodOnlyKnows_TheBeachBoys_Cover5S.wav,,,,,,,,,,,,,,,,,,,,,,,,,,,,,,,,,,,,,,,,,,,,,,,,,,,,,
,,,,,888741,1,2024-07-12_16h48.50.174,experiment,2024.1.5,Win32,60.0240096,6691931c2c63981b064e1f0c,6691b9953a1360840d8efd24,,,,,,,,,,,,,,,,,,,,,,,,,,,,,,,,,,,,,,,,,,,,,,,,,,,,,,,,,,,441.059,448.026,-0.16796875,0.12890625,1.0,0.0,0.0,0.953,compass,0.0,13.0,13.0,29.0,1.0,SoundStimuli/OldTownRoad_LilNasX_Original5S.wav,,,,,,,,,,,,,,,,,,,,,,,,,,,,,,,,,,,,,,,,,,,,,,,,,,,,,
,,,,,888741,1,2024-07-12_16h48.50.174,experiment,2024.1.5,Win32,60.0240096,6691931c2c63981b064e1f0c,6691b9953a1360840d8efd24,,,,,,,,,,,,,,,,,,,,,,,,,,,,,,,,,,,,,,,,,,,,,,,,,,,,,,,,,,,448.031,460.968,-0.166666667,0.141927083,1.0,0.0,0.0,6.93,compass,0.0,14.0,14.0,1.0,1.0,SoundStimuli/Stronger_KanyeWest_Original5S.wav,,,,,,,,,,,,,,,,,,,,,,,,,,,,,,,,,,,,,,,,,,,,,,,,,,,,,
,,,,,888741,1,2024-07-12_16h48.50.174,experiment,2024.1.5,Win32,60.0240096,6691931c2c63981b064e1f0c,6691b9953a1360840d8efd24,,,,,,,,,,,,,,,,,,,,,,,,,,,,,,,,,,,,,,,,,,,,,,,,,,,,,,,,,,,460.969,467.471,-0.123697917,-0.06640625,1.0,0.0,0.0,0.458,compass,0.0,15.0,15.0,16.0,1.0,SoundStimuli/BohemianRhapsody_Queen_Original5S.wav,,,,,,,,,,,,,,,,,,,,,,,,,,,,,,,,,,,,,,,,,,,,,,,,,,,,,
,,,,,888741,1,2024-07-12_16h48.50.174,experiment,2024.1.5,Win32,60.0240096,6691931c2c63981b064e1f0c,6691b9953a1360840d8efd24,,,,,,,,,,,,,,,,,,,,,,,,,,,,,,,,,,,,,,,,,,,,,,,,,,,,,,,,,,,467.473,474.987,0.14453125,0.10546875,1.0,0.0,0.0,1.504,compass,0.0,16.0,16.0,19.0,1.0,SoundStimuli/LetsGetItOn_MarvinGaye_Cover5S.wav,,,,,,,,,,,,,,,,,,,,,,,,,,,,,,,,,,,,,,,,,,,,,,,,,,,,,
,,,,,888741,1,2024-07-12_16h48.50.174,experiment,2024.1.5,Win32,60.0240096,6691931c2c63981b064e1f0c,6691b9953a1360840d8efd24,,,,,,,,,,,,,,,,,,,,,,,,,,,,,,,,,,,,,,,,,,,,,,,,,,,,,,,,,,,474.989,481.612,-0.127604167,0.0859375,1.0,0.0,0.0,0.612,compass,0.0,17.0,17.0,0.0,1.0,SoundStimuli/StayinAlive_BeeGees_Original5S.wav,,,,,,,,,,,,,,,,,,,,,,,,,,,,,,,,,,,,,,,,,,,,,,,,,,,,,
,,,,,888741,1,2024-07-12_16h48.50.174,experiment,2024.1.5,Win32,60.0240096,6691931c2c63981b064e1f0c,6691b9953a1360840d8efd24,,,,,,,,,,,,,,,,,,,,,,,,,,,,,,,,,,,,,,,,,,,,,,,,,,,,,,,,,,,481.618,495.787,-0.162760417,0.135416667,1.0,0.0,0.0,8.153,compass,0.0,18.0,18.0,6.0,1.0,SoundStimuli/Levitating_DuaLipa_Cover5S.wav,,,,,,,,,,,,,,,,,,,,,,,,,,,,,,,,,,,,,,,,,,,,,,,,,,,,,
,,,,,888741,1,2024-07-12_16h48.50.174,experiment,2024.1.5,Win32,60.0240096,6691931c2c63981b064e1f0c,6691b9953a1360840d8efd24,,,,,,,,,,,,,,,,,,,,,,,,,,,,,,,,,,,,,,,,,,,,,,,,,,,,,,,,,,,495.79,502.84,0.236979167,-0.2421875,1.0,0.0,0.0,1.017,compass,0.0,19.0,19.0,21.0,1.0,SoundStimuli/GoodGollyMissMolly_LittleRichard_Cover5S.wav,,,,,,,,,,,,,,,,,,,,,,,,,,,,,,,,,,,,,,,,,,,,,,,,,,,,,
,,,,,888741,1,2024-07-12_16h48.50.174,experiment,2024.1.5,Win32,60.0240096,6691931c2c63981b064e1f0c,6691b9953a1360840d8efd24,,,,,,,,,,,,,,,,,,,,,,,,,,,,,,,,,,,,,,,,,,,,,,,,,,,,,,,,,,,502.846,509.802,0.248697917,0.069010417,1.0,0.0,0.0,0.952,compass,0.0,20.0,20.0,11.0,1.0,SoundStimuli/Superstition_StevieWonder_Cover5S.wav,,,,,,,,,,,,,,,,,,,,,,,,,,,,,,,,,,,,,,,,,,,,,,,,,,,,,
,,,,,888741,1,2024-07-12_16h48.50.174,experiment,2024.1.5,Win32,60.0240096,6691931c2c63981b064e1f0c,6691b9953a1360840d8efd24,,,,,,,,,,,,,,,,,,,,,,,,,,,,,,,,,,,,,,,,,,,,,,,,,,,,,,,,,,,509.803,516.321,-0.15625,0.114583333,1.0,0.0,0.0,0.504,compass,0.0,21.0,21.0,7.0,1.0,SoundStimuli/NoOne_AliciaKeys_Cover5S.wav,,,,,,,,,,,,,,,,,,,,,,,,,,,,,,,,,,,,,,,,,,,,,,,,,,,,,
,,,,,888741,1,2024-07-12_16h48.50.174,experiment,2024.1.5,Win32,60.0240096,6691931c2c63981b064e1f0c,6691b9953a1360840d8efd24,,,,,,,,,,,,,,,,,,,,,,,,,,,,,,,,,,,,,,,,,,,,,,,,,,,,,,,,,,,516.327,524.878,0.095052083,0.173177083,1.0,0.0,0.0,2.547,compass,0.0,22.0,22.0,27.0,1.0,SoundStimuli/ShapeofYou_EdSheeran_Original5S.wav,,,,,,,,,,,,,,,,,,,,,,,,,,,,,,,,,,,,,,,,,,,,,,,,,,,,,
,,,,,888741,1,2024-07-12_16h48.50.174,experiment,2024.1.5,Win32,60.0240096,6691931c2c63981b064e1f0c,6691b9953a1360840d8efd24,,,,,,,,,,,,,,,,,,,,,,,,,,,,,,,,,,,,,,,,,,,,,,,,,,,,,,,,,,,524.88,531.552,0.236979167,-0.153645833,1.0,0.0,0.0,0.625,compass,0.0,23.0,23.0,15.0,1.0,SoundStimuli/TikTok_Kesha_Cover5S.wav,,,,,,,,,,,,,,,,,,,,,,,,,,,,,,,,,,,,,,,,,,,,,,,,,,,,,
,,,,,888741,1,2024-07-12_16h48.50.174,experiment,2024.1.5,Win32,60.0240096,6691931c2c63981b064e1f0c,6691b9953a1360840d8efd24,,,,,,,,,,,,,,,,,,,,,,,,,,,,,,,,,,,,,,,,,,,,,,,,,,,,,,,,,,,531.554,538.341,0.126302083,-0.1953125,1.0,0.0,0.0,0.776,compass,0.0,24.0,24.0,22.0,1.0,SoundStimuli/RockWithYou_MichaelJackson_Original5S.wav,,,,,,,,,,,,,,,,,,,,,,,,,,,,,,,,,,,,,,,,,,,,,,,,,,,,,
,,,,,888741,1,2024-07-12_16h48.50.174,experiment,2024.1.5,Win32,60.0240096,6691931c2c63981b064e1f0c,6691b9953a1360840d8efd24,,,,,,,,,,,,,,,,,,,,,,,,,,,,,,,,,,,,,,,,,,,,,,,,,,,,,,,,,,,538.343,548.272,0.25,-0.252604167,1.0,0.0,0.0,3.878,compass,0.0,25.0,25.0,17.0,1.0,SoundStimuli/Fallin_AliciaKeys_Original5S.wav,,,,,,,,,,,,,,,,,,,,,,,,,,,,,,,,,,,,,,,,,,,,,,,,,,,,,
,,,,,888741,1,2024-07-12_16h48.50.174,experiment,2024.1.5,Win32,60.0240096,6691931c2c63981b064e1f0c,6691b9953a1360840d8efd24,,,,,,,,,,,,,,,,,,,,,,,,,,,,,,,,,,,,,,,,,,,,,,,,,,,,,,,,,,,548.277,555.511,-0.13671875,0.061197917,1.0,0.0,0.0,1.217,compass,0.0,26.0,26.0,34.0,1.0,SoundStimuli/AChangeIsGonnaCome_SamCooke_Cover5S.wav,,,,,,,,,,,,,,,,,,,,,,,,,,,,,,,,,,,,,,,,,,,,,,,,,,,,,
,,,,,888741,1,2024-07-12_16h48.50.174,experiment,2024.1.5,Win32,60.0240096,6691931c2c63981b064e1f0c,6691b9953a1360840d8efd24,,,,,,,,,,,,,,,,,,,,,,,,,,,,,,,,,,,,,,,,,,,,,,,,,,,,,,,,,,,555.513,562.368,-0.145833333,-0.12890625,1.0,0.0,0.0,0.851,compass,0.0,27.0,27.0,3.0,1.0,SoundStimuli/NoScrubs_TLC_Original5S.wav,,,,,,,,,,,,,,,,,,,,,,,,,,,,,,,,,,,,,,,,,,,,,,,,,,,,,
,,,,,888741,1,2024-07-12_16h48.50.174,experiment,2024.1.5,Win32,60.0240096,6691931c2c63981b064e1f0c,6691b9953a1360840d8efd24,,,,,,,,,,,,,,,,,,,,,,,,,,,,,,,,,,,,,,,,,,,,,,,,,,,,,,,,,,,562.37,571.253,-0.1171875,0.045572917,1.0,0.0,0.0,2.873,compass,0.0,28.0,28.0,25.0,1.0,SoundStimuli/Respect_ArethaFranklin_Original5S.wav,,,,,,,,,,,,,,,,,,,,,,,,,,,,,,,,,,,,,,,,,,,,,,,,,,,,,
,,,,,888741,1,2024-07-12_16h48.50.174,experiment,2024.1.5,Win32,60.0240096,6691931c2c63981b064e1f0c,6691b9953a1360840d8efd24,,,,,,,,,,,,,,,,,,,,,,,,,,,,,,,,,,,,,,,,,,,,,,,,,,,,,,,,,,,571.26,579.299,0.291666667,0.108072917,1.0,0.0,0.0,2.024,compass,0.0,29.0,29.0,23.0,1.0,SoundStimuli/StrawberryFieldsForever_TheBeatles_Original5S.wav,,,,,,,,,,,,,,,,,,,,,,,,,,,,,,,,,,,,,,,,,,,,,,,,,,,,,
,,,,,888741,1,2024-07-12_16h48.50.174,experiment,2024.1.5,Win32,60.0240096,6691931c2c63981b064e1f0c,6691b9953a1360840d8efd24,,,,,,,,,,,,,,,,,,,,,,,,,,,,,,,,,,,,,,,,,,,,,,,,,,,,,,,,,,,579.3,586.453,-0.119791667,0.076822917,1.0,0.0,0.0,1.121,compass,0.0,30.0,30.0,9.0,1.0,SoundStimuli/Despacito_LuisFonsiDaddyYankee_Cover5S.wav,,,,,,,,,,,,,,,,,,,,,,,,,,,,,,,,,,,,,,,,,,,,,,,,,,,,,
,,,,,888741,1,2024-07-12_16h48.50.174,experiment,2024.1.5,Win32,60.0240096,6691931c2c63981b064e1f0c,6691b9953a1360840d8efd24,,,,,,,,,,,,,,,,,,,,,,,,,,,,,,,,,,,,,,,,,,,,,,,,,,,,,,,,,,,586.458,593.045,-0.123697917,-0.203125,1.0,0.0,0.0,0.582,compass,0.0,31.0,31.0,5.0,1.0,SoundStimuli/MyGirl_TheTemptations_Original5S.wav,,,,,,,,,,,,,,,,,,,,,,,,,,,,,,,,,,,,,,,,,,,,,,,,,,,,,
,,,,,888741,1,2024-07-12_16h48.50.174,experiment,2024.1.5,Win32,60.0240096,6691931c2c63981b064e1f0c,6691b9953a1360840d8efd24,,,,,,,,,,,,,,,,,,,,,,,,,,,,,,,,,,,,,,,,,,,,,,,,,,,,,,,,,,,593.047,601.548,-0.18359375,0.131510417,1.0,0.0,0.0,2.475,compass,0.0,32.0,32.0,8.0,1.0,SoundStimuli/LikeAPrayer_Madonna_Original5S.wav,,,,,,,,,,,,,,,,,,,,,,,,,,,,,,,,,,,,,,,,,,,,,,,,,,,,,
,,,,,888741,1,2024-07-12_16h48.50.174,experiment,2024.1.5,Win32,60.0240096,6691931c2c63981b064e1f0c,6691b9953a1360840d8efd24,,,,,,,,,,,,,,,,,,,,,,,,,,,,,,,,,,,,,,,,,,,,,,,,,,,,,,,,,,,601.55,609.599,-0.052083333,0.110677083,1.0,0.0,0.0,2.038,compass,0.0,33.0,33.0,28.0,1.0,SoundStimuli/ComeAndGetYourLove_Redbone_Original5S.wav,,,,,,,,,,,,,,,,,,,,,,,,,,,,,,,,,,,,,,,,,,,,,,,,,,,,,
,,,,,888741,1,2024-07-12_16h48.50.174,experiment,2024.1.5,Win32,60.0240096,6691931c2c63981b064e1f0c,6691b9953a1360840d8efd24,,,,,,,,,,,,,,,,,,,,,,,,,,,,,,,,,,,,,,,,,,,,,,,,,,,,,,,,,,,609.6,617.089,-0.141927083,0.141927083,1.0,0.0,0.0,1.445,compass,0.0,34.0,34.0,30.0,1.0,SoundStimuli/PokerFace_LadyGaga_Original5S.wav,,,,,,,,,,,,,,,,,,,,,,,,,,,,,,,,,,,,,,,,,,,,,,,,,,,,,
,,,,,888741,1,2024-07-12_16h48.50.174,experiment,2024.1.5,Win32,60.0240096,6691931c2c63981b064e1f0c,6691b9953a1360840d8efd24,,,,,,,,,,,,,,,,,,,,,,,,,,,,,,,,,,,,,,,,,,,,,,,,,,,,,,,,,,,,,,,,,,,,,,,,,,617.091,647.792,space,30.665,,647.792,656.013,right,8.184,,0.0,0.0,0.0,0.0,1.0,block_order/blockA.xlsx,,,,,,,,,,,,,,,,,,,,,,,,,,,,,,,,,,,,,
,,,,,888741,1,2024-07-12_16h48.50.174,experiment,2024.1.5,Win32,60.0240096,6691931c2c63981b064e1f0c,6691b9953a1360840d8efd24,,,,,,,,,,,,,,,,,,,,,,,,,,,,,,,,,,,,,,,,,,,,,,,,,,,,,,,,,,,656.097,663.245,0.145833333,-0.17578125,1.0,0.0,0.0,1.136,compass,0.0,0.0,0.0,4.0,1.0,SoundStimuli/Dreams_FleetwoodMac_Original5S.wav,,,,,,,,,,,,,,,,,,,,,,,,,,,,,,,,,,,,,,,,,,,,,,,,,,,,,
,,,,,888741,1,2024-07-12_16h48.50.174,experiment,2024.1.5,Win32,60.0240096,6691931c2c63981b064e1f0c,6691b9953a1360840d8efd24,,,,,,,,,,,,,,,,,,,,,,,,,,,,,,,,,,,,,,,,,,,,,,,,,,,,,,,,,,,663.247,670.568,-0.14453125,-0.147135417,1.0,0.0,0.0,1.32,compass,0.0,1.0,1.0,26.0,1.0,SoundStimuli/TheSign_AceOfBase_Cover5S.wav,,,,,,,,,,,,,,,,,,,,,,,,,,,,,,,,,,,,,,,,,,,,,,,,,,,,,
,,,,,888741,1,2024-07-12_16h48.50.174,experiment,2024.1.5,Win32,60.0240096,6691931c2c63981b064e1f0c,6691b9953a1360840d8efd24,,,,,,,,,,,,,,,,,,,,,,,,,,,,,,,,,,,,,,,,,,,,,,,,,,,,,,,,,,,670.57,677.112,0.227864583,0.108072917,1.0,0.0,0.0,0.536,compass,0.0,2.0,2.0,18.0,1.0,SoundStimuli/Weak_SWV_Cover5S.wav,,,,,,,,,,,,,,,,,,,,,,,,,,,,,,,,,,,,,,,,,,,,,,,,,,,,,
,,,,,888741,1,2024-07-12_16h48.50.174,experiment,2024.1.5,Win32,60.0240096,6691931c2c63981b064e1f0c,6691b9953a1360840d8efd24,,,,,,,,,,,,,,,,,,,,,,,,,,,,,,,,,,,,,,,,,,,,,,,,,,,,,,,,,,,677.113,687.815,0.212239583,-0.177083333,1.0,0.0,0.0,4.69,compass,0.0,3.0,3.0,16.0,1.0,SoundStimuli/ItsAllInTheGame_TommyEdwards_Cover5S.wav,,,,,,,,,,,,,,,,,,,,,,,,,,,,,,,,,,,,,,,,,,,,,,,,,,,,,
,,,,,888741,1,2024-07-12_16h48.50.174,experiment,2024.1.5,Win32,60.0240096,6691931c2c63981b064e1f0c,6691b9953a1360840d8efd24,,,,,,,,,,,,,,,,,,,,,,,,,,,,,,,,,,,,,,,,,,,,,,,,,,,,,,,,,,,687.829,695.011,-0.2109375,0.196614583,1.0,0.0,0.0,1.121,compass,0.0,4.0,4.0,30.0,1.0,SoundStimuli/SomebodyThatIUsedtoKnow_Gotye_Original5S.wav,,,,,,,,,,,,,,,,,,,,,,,,,,,,,,,,,,,,,,,,,,,,,,,,,,,,,
,,,,,888741,1,2024-07-12_16h48.50.174,experiment,2024.1.5,Win32,60.0240096,6691931c2c63981b064e1f0c,6691b9953a1360840d8efd24,,,,,,,,,,,,,,,,,,,,,,,,,,,,,,,,,,,,,,,,,,,,,,,,,,,,,,,,,,,695.013,703.23,-0.114583333,0.130208333,1.0,0.0,0.0,2.204,compass,0.0,5.0,5.0,3.0,1.0,SoundStimuli/PartyRockAnthem_LMFAO_Original5S.wav,,,,,,,,,,,,,,,,,,,,,,,,,,,,,,,,,,,,,,,,,,,,,,,,,,,,,
,,,,,888741,1,2024-07-12_16h48.50.174,experiment,2024.1.5,Win32,60.0240096,6691931c2c63981b064e1f0c,6691b9953a1360840d8efd24,,,,,,,,,,,,,,,,,,,,,,,,,,,,,,,,,,,,,,,,,,,,,,,,,,,,,,,,,,,703.233,709.923,0.240885417,-0.23046875,1.0,0.0,0.0,0.669,compass,0.0,6.0,6.0,28.0,1.0,SoundStimuli/IWantToHoldYourHand_TheBeatles_Original5S.wav,,,,,,,,,,,,,,,,,,,,,,,,,,,,,,,,,,,,,,,,,,,,,,,,,,,,,
,,,,,888741,1,2024-07-12_16h48.50.174,experiment,2024.1.5,Win32,60.0240096,6691931c2c63981b064e1f0c,6691b9953a1360840d8efd24,,,,,,,,,,,,,,,,,,,,,,,,,,,,,,,,,,,,,,,,,,,,,,,,,,,,,,,,,,,709.926,718.268,-0.102864583,-0.203125,1.0,0.0,0.0,2.32,compass,0.0,7.0,7.0,25.0,1.0,SoundStimuli/IllMakeLoveToYou_BoyzIIMen_Cover5S.wav,,,,,,,,,,,,,,,,,,,,,,,,,,,,,,,,,,,,,,,,,,,,,,,,,,,,,
,,,,,888741,1,2024-07-12_16h48.50.174,experiment,2024.1.5,Win32,60.0240096,6691931c2c63981b064e1f0c,6691b9953a1360840d8efd24,,,,,,,,,,,,,,,,,,,,,,,,,,,,,,,,,,,,,,,,,,,,,,,,,,,,,,,,,,,718.27,744.277,,,,,,,,0.0,8.0,8.0,10.0,1.0,SoundStimuli/LeFreak_Chic_Cover5S.wav,,,,,,,,,,,,,,,,,,,,,,,,,,,,,,,,,,,,,,,,,,,,,,,,,,,,,
,,,,,888741,1,2024-07-12_16h48.50.174,experiment,2024.1.5,Win32,60.0240096,6691931c2c63981b064e1f0c,6691b9953a1360840d8efd24,,,,,,,,,,,,,,,,,,,,,,,,,,,,,,,,,,,,,,,,,,,,,,,,,,,,,,,,,,,744.283,751.175,0.221354167,0.235677083,1.0,0.0,0.0,0.884,compass,0.0,9.0,9.0,13.0,1.0,SoundStimuli/Perfect_EdSheeran_Cover5S.wav,,,,,,,,,,,,,,,,,,,,,,,,,,,,,,,,,,,,,,,,,,,,,,,,,,,,,
,,,,,888741,1,2024-07-12_16h48.50.174,experiment,2024.1.5,Win32,60.0240096,6691931c2c63981b064e1f0c,6691b9953a1360840d8efd24,,,,,,,,,,,,,,,,,,,,,,,,,,,,,,,,,,,,,,,,,,,,,,,,,,,,,,,,,,,751.177,758.075,-0.188802083,-0.076822917,1.0,0.0,0.0,0.888,compass,0.0,10.0,10.0,12.0,1.0,SoundStimuli/UnbreakMyHeart_ToniBraxton_Original5S.wav,,,,,,,,,,,,,,,,,,,,,,,,,,,,,,,,,,,,,,,,,,,,,,,,,,,,,
,,,,,888741,1,2024-07-12_16h48.50.174,experiment,2024.1.5,Win32,60.0240096,6691931c2c63981b064e1f0c,6691b9953a1360840d8efd24,,,,,,,,,,,,,,,,,,,,,,,,,,,,,,,,,,,,,,,,,,,,,,,,,,,,,,,,,,,758.081,764.596,-0.317708333,-0.052083333,1.0,0.0,0.0,0.506,compass,0.0,11.0,11.0,21.0,1.0,SoundStimuli/BridgeOverTroubledWater_SimonAndGarfunkel_Original5S.wav,,,,,,,,,,,,,,,,,,,,,,,,,,,,,,,,,,,,,,,,,,,,,,,,,,,,,
,,,,,888741,1,2024-07-12_16h48.50.174,experiment,2024.1.5,Win32,60.0240096,6691931c2c63981b064e1f0c,6691b9953a1360840d8efd24,,,,,,,,,,,,,,,,,,,,,,,,,,,,,,,,,,,,,,,,,,,,,,,,,,,,,,,,,,,764.599,770.993,-0.115885417,-0.07421875,1.0,0.0,0.0,0.387,compass,0.0,12.0,12.0,20.0,1.0,SoundStimuli/FlashdanceWhatAFeeling_IreneCara_Original5S.wav,,,,,,,,,,,,,,,,,,,,,,,,,,,,,,,,,,,,,,,,,,,,,,,,,,,,,
,,,,,888741,1,2024-07-12_16h48.50.174,experiment,2024.1.5,Win32,60.0240096,6691931c2c63981b064e1f0c,6691b9953a1360840d8efd24,,,,,,,,,,,,,,,,,,,,,,,,,,,,,,,,,,,,,,,,,,,,,,,,,,,,,,,,,,,770.996,778.607,0.106770833,-0.151041667,1.0,0.0,0.0,1.602,compass,0.0,13.0,13.0,32.0,1.0,SoundStimuli/Dilemma_NellyKellyRowland_Cover5S.wav,,,,,,,,,,,,,,,,,,,,,,,,,,,,,,,,,,,,,,,,,,,,,,,,,,,,,
,,,,,888741,1,2024-07-12_16h48.50.174,experiment,2024.1.5,Win32,60.0240096,6691931c2c63981b064e1f0c,6691b9953a1360840d8efd24,,,,,,,,,,,,,,,,,,,,,,,,,,,,,,,,,,,,,,,,,,,,,,,,,,,,,,,,,,,778.61,786.657,-0.15234375,-0.216145833,1.0,0.0,0.0,2.037,compass,0.0,14.0,14.0,7.0,1.0,SoundStimuli/MackTheKnife_BobbyDarin_Cover5S.wav,,,,,,,,,,,,,,,,,,,,,,,,,,,,,,,,,,,,,,,,,,,,,,,,,,,,,
,,,,,888741,1,2024-07-12_16h48.50.174,experiment,2024.1.5,Win32,60.0240096,6691931c2c63981b064e1f0c,6691b9953a1360840d8efd24,,,,,,,,,,,,,,,,,,,,,,,,,,,,,,,,,,,,,,,,,,,,,,,,,,,,,,,,,,,786.658,793.891,0.205729167,-0.21875,1.0,0.0,0.0,1.227,compass,0.0,15.0,15.0,23.0,1.0,SoundStimuli/IWalkTheLine_JohnnyCash_Original5S.wav,,,,,,,,,,,,,,,,,,,,,,,,,,,,,,,,,,,,,,,,,,,,,,,,,,,,,
,,,,,888741,1,2024-07-12_16h48.50.174,experiment,2024.1.5,Win32,60.0240096,6691931c2c63981b064e1f0c,6691b9953a1360840d8efd24,,,,,,,,,,,,,,,,,,,,,,,,,,,,,,,,,,,,,,,,,,,,,,,,,,,,,,,,,,,793.899,801.902,0.216145833,0.169270833,1.0,0.0,0.0,1.997,compass,0.0,16.0,16.0,9.0,1.0,SoundStimuli/HowDoILive_LeAnnRimes_Cover5S.wav,,,,,,,,,,,,,,,,,,,,,,,,,,,,,,,,,,,,,,,,,,,,,,,,,,,,,
,,,,,888741,1,2024-07-12_16h48.50.174,experiment,2024.1.5,Win32,60.0240096,6691931c2c63981b064e1f0c,6691b9953a1360840d8efd24,,,,,,,,,,,,,,,,,,,,,,,,,,,,,,,,,,,,,,,,,,,,,,,,,,,,,,,,,,,801.905,812.437,0.220052083,0.166666667,1.0,0.0,0.0,4.512,compass,0.0,17.0,17.0,33.0,1.0,SoundStimuli/TheBoyIsMine_BrandyMonica_Original5S.wav,,,,,,,,,,,,,,,,,,,,,,,,,,,,,,,,,,,,,,,,,,,,,,,,,,,,,
,,,,,888741,1,2024-07-12_16h48.50.174,experiment,2024.1.5,Win32,60.0240096,6691931c2c63981b064e1f0c,6691b9953a1360840d8efd24,,,,,,,,,,,,,,,,,,,,,,,,,,,,,,,,,,,,,,,,,,,,,,,,,,,,,,,,,,,812.44,821.377,0.225260417,0.055989583,1.0,0.0,0.0,2.838,compass,0.0,18.0,18.0,2.0,1.0,SoundStimuli/SmellsLikeTeenSpirit_Nirvana_Original5S.wav,,,,,,,,,,,,,,,,,,,,,,,,,,,,,,,,,,,,,,,,,,,,,,,,,,,,,
,,,,,888741,1,2024-07-12_16h48.50.174,experiment,2024.1.5,Win32,60.0240096,6691931c2c63981b064e1f0c,6691b9953a1360840d8efd24,,,,,,,,,,,,,,,,,,,,,,,,,,,,,,,,,,,,,,,,,,,,,,,,,,,,,,,,,,,821.379,828.077,-0.225260417,0.14453125,1.0,0.0,0.0,0.676,compass,0.0,19.0,19.0,31.0,1.0,SoundStimuli/TossinAndTurnin_BobbyLewis_Original5S.wav,,,,,,,,,,,,,,,,,,,,,,,,,,,,,,,,,,,,,,,,,,,,,,,,,,,,,
,,,,,888741,1,2024-07-12_16h48.50.174,experiment,2024.1.5,Win32,60.0240096,6691931c2c63981b064e1f0c,6691b9953a1360840d8efd24,,,,,,,,,,,,,,,,,,,,,,,,,,,,,,,,,,,,,,,,,,,,,,,,,,,,,,,,,,,828.082,836.823,-0.19140625,-0.190104167,1.0,0.0,0.0,2.723,compass,0.0,20.0,20.0,11.0,1.0,SoundStimuli/BlurredLines_RobinThicke_Cover5S.wav,,,,,,,,,,,,,,,,,,,,,,,,,,,,,,,,,,,,,,,,,,,,,,,,,,,,,
,,,,,888741,1,2024-07-12_16h48.50.174,experiment,2024.1.5,Win32,60.0240096,6691931c2c63981b064e1f0c,6691b9953a1360840d8efd24,,,,,,,,,,,,,,,,,,,,,,,,,,,,,,,,,,,,,,,,,,,,,,,,,,,,,,,,,,,836.825,844.09,0.205729167,-0.276041667,1.0,0.0,0.0,1.239,compass,0.0,21.0,21.0,34.0,1.0,SoundStimuli/Irreplaceable_Beyonce_Cover5S.wav,,,,,,,,,,,,,,,,,,,,,,,,,,,,,,,,,,,,,,,,,,,,,,,,,,,,,
,,,,,888741,1,2024-07-12_16h48.50.174,experiment,2024.1.5,Win32,60.0240096,6691931c2c63981b064e1f0c,6691b9953a1360840d8efd24,,,,,,,,,,,,,,,,,,,,,,,,,,,,,,,,,,,,,,,,,,,,,,,,,,,,,,,,,,,844.092,850.281,0.173177083,0.052083333,1.0,0.0,0.0,0.178,compass,0.0,22.0,22.0,5.0,1.0,SoundStimuli/JoyToTheWorld_ThreeDogNight_Original5S.wav,,,,,,,,,,,,,,,,,,,,,,,,,,,,,,,,,,,,,,,,,,,,,,,,,,,,,
,,,,,888741,1,2024-07-12_16h48.50.174,experiment,2024.1.5,Win32,60.0240096,6691931c2c63981b064e1f0c,6691b9953a1360840d8efd24,,,,,,,,,,,,,,,,,,,,,,,,,,,,,,,,,,,,,,,,,,,,,,,,,,,,,,,,,,,850.287,858.306,0.18359375,-0.18359375,1.0,0.0,0.0,2.004,compass,0.0,23.0,23.0,0.0,1.0,SoundStimuli/GimmeShelter_RollingStones_Original5S.wav,,,,,,,,,,,,,,,,,,,,,,,,,,,,,,,,,,,,,,,,,,,,,,,,,,,,,
,,,,,888741,1,2024-07-12_16h48.50.174,experiment,2024.1.5,Win32,60.0240096,6691931c2c63981b064e1f0c,6691b9953a1360840d8efd24,,,,,,,,,,,,,,,,,,,,,,,,,,,,,,,,,,,,,,,,,,,,,,,,,,,,,,,,,,,858.312,866.012,0.212239583,-0.182291667,1.0,0.0,0.0,1.693,compass,0.0,24.0,24.0,19.0,1.0,SoundStimuli/YouLightUpMyLife_DebbyBoone_Original5S.wav,,,,,,,,,,,,,,,,,,,,,,,,,,,,,,,,,,,,,,,,,,,,,,,,,,,,,
,,,,,888741,1,2024-07-12_16h48.50.174,experiment,2024.1.5,Win32,60.0240096,6691931c2c63981b064e1f0c,6691b9953a1360840d8efd24,,,,,,,,,,,,,,,,,,,,,,,,,,,,,,,,,,,,,,,,,,,,,,,,,,,,,,,,,,,866.014,872.419,-0.190104167,-0.247395833,1.0,0.0,0.0,0.39,compass,0.0,25.0,25.0,1.0,1.0,SoundStimuli/Smooth_SantanaRobThomas_Original5S.wav,,,,,,,,,,,,,,,,,,,,,,,,,,,,,,,,,,,,,,,,,,,,,,,,,,,,,
,,,,,888741,1,2024-07-12_16h48.50.174,experiment,2024.1.5,Win32,60.0240096,6691931c2c63981b064e1f0c,6691b9953a1360840d8efd24,,,,,,,,,,,,,,,,,,,,,,,,,,,,,,,,,,,,,,,,,,,,,,,,,,,,,,,,,,,872.421,879.035,0.109375,0.078125,1.0,0.0,0.0,0.603,compass,0.0,26.0,26.0,22.0,1.0,SoundStimuli/Happy_PharellWilliams_Original5S.wav,,,,,,,,,,,,,,,,,,,,,,,,,,,,,,,,,,,,,,,,,,,,,,,,,,,,,
,,,,,888741,1,2024-07-12_16h48.50.174,experiment,2024.1.5,Win32,60.0240096,6691931c2c63981b064e1f0c,6691b9953a1360840d8efd24,,,,,,,,,,,,,,,,,,,,,,,,,,,,,,,,,,,,,,,,,,,,,,,,,,,,,,,,,,,879.038,886.306,0.244791667,-0.123697917,1.0,0.0,0.0,1.263,compass,0.0,27.0,27.0,17.0,1.0,SoundStimuli/IWannaDanceWithSomebody_WhitneyHouston_Original5S.wav,,,,,,,,,,,,,,,,,,,,,,,,,,,,,,,,,,,,,,,,,,,,,,,,,,,,,
,,,,,888741,1,2024-07-12_16h48.50.174,experiment,2024.1.5,Win32,60.0240096,6691931c2c63981b064e1f0c,6691b9953a1360840d8efd24,,,,,,,,,,,,,,,,,,,,,,,,,,,,,,,,,,,,,,,,,,,,,,,,,,,,,,,,,,,886.307,893.338,-0.166666667,-0.1953125,1.0,0.0,0.0,1.02,compass,0.0,28.0,28.0,29.0,1.0,SoundStimuli/BetteDavisEyes_KimCarnes_Original5S.wav,,,,,,,,,,,,,,,,,,,,,,,,,,,,,,,,,,,,,,,,,,,,,,,,,,,,,
,,,,,888741,1,2024-07-12_16h48.50.174,experiment,2024.1.5,Win32,60.0240096,6691931c2c63981b064e1f0c,6691b9953a1360840d8efd24,,,,,,,,,,,,,,,,,,,,,,,,,,,,,,,,,,,,,,,,,,,,,,,,,,,,,,,,,,,893.343,899.935,-0.28515625,0.127604167,1.0,0.0,0.0,0.581,compass,0.0,29.0,29.0,27.0,1.0,SoundStimuli/EyeOfTheTiger_Survivor_Cover5S.wav,,,,,,,,,,,,,,,,,,,,,,,,,,,,,,,,,,,,,,,,,,,,,,,,,,,,,
,,,,,888741,1,2024-07-12_16h48.50.174,experiment,2024.1.5,Win32,60.0240096,6691931c2c63981b064e1f0c,6691b9953a1360840d8efd24,,,,,,,,,,,,,,,,,,,,,,,,,,,,,,,,,,,,,,,,,,,,,,,,,,,,,,,,,,,899.937,906.464,-0.111979167,-0.196614583,1.0,0.0,0.0,0.508,compass,0.0,30.0,30.0,15.0,1.0,SoundStimuli/CrazyInLove_BeyonceFtJayZ_Cover5S.wav,,,,,,,,,,,,,,,,,,,,,,,,,,,,,,,,,,,,,,,,,,,,,,,,,,,,,
,,,,,888741,1,2024-07-12_16h48.50.174,experiment,2024.1.5,Win32,60.0240096,6691931c2c63981b064e1f0c,6691b9953a1360840d8efd24,,,,,,,,,,,,,,,,,,,,,,,,,,,,,,,,,,,,,,,,,,,,,,,,,,,,,,,,,,,906.467,913.473,0.1484375,0.076822917,1.0,0.0,0.0,0.997,compass,0.0,31.0,31.0,8.0,1.0,SoundStimuli/EndlessLove_DianaRossLionelRichie_Cover5S.wav,,,,,,,,,,,,,,,,,,,,,,,,,,,,,,,,,,,,,,,,,,,,,,,,,,,,,
,,,,,888741,1,2024-07-12_16h48.50.174,experiment,2024.1.5,Win32,60.0240096,6691931c2c63981b064e1f0c,6691b9953a1360840d8efd24,,,,,,,,,,,,,,,,,,,,,,,,,,,,,,,,,,,,,,,,,,,,,,,,,,,,,,,,,,,913.475,919.868,-0.165364583,-0.110677083,1.0,0.0,0.0,0.384,compass,0.0,32.0,32.0,6.0,1.0,SoundStimuli/SaveYourTears_TheWeekndArianaGrande_Cover5S.wav,,,,,,,,,,,,,,,,,,,,,,,,,,,,,,,,,,,,,,,,,,,,,,,,,,,,,
,,,,,888741,1,2024-07-12_16h48.50.174,experiment,2024.1.5,Win32,60.0240096,6691931c2c63981b064e1f0c,6691b9953a1360840d8efd24,,,,,,,,,,,,,,,,,,,,,,,,,,,,,,,,,,,,,,,,,,,,,,,,,,,,,,,,,,,919.87,927.802,0.290364583,-0.196614583,1.0,0.0,0.0,1.912,compass,0.0,33.0,33.0,24.0,1.0,SoundStimuli/Kiss_Prince_Cover5S.wav,,,,,,,,,,,,,,,,,,,,,,,,,,,,,,,,,,,,,,,,,,,,,,,,,,,,,
,,,,,888741,1,2024-07-12_16h48.50.174,experiment,2024.1.5,Win32,60.0240096,6691931c2c63981b064e1f0c,6691b9953a1360840d8efd24,,,,,,,,,,,,,,,,,,,,,,,,,,,,,,,,,,,,,,,,,,,,,,,,,,,,,,,,,,,927.808,934.647,0.20703125,-0.178385417,1.0,0.0,0.0,0.829,compass,0.0,34.0,34.0,14.0,1.0,SoundStimuli/LikeARollingStone_BobDylan_Original5S.wav,,,,,,,,,,,,,,,,,,,,,,,,,,,,,,,,,,,,,,,,,,,,,,,,,,,,,
,,,,,888741,1,2024-07-12_16h48.50.174,experiment,2024.1.5,Win32,60.0240096,6691931c2c63981b064e1f0c,6691b9953a1360840d8efd24,,,,,,,,,,,,,,,,,,,,,,,,,,,,,,,,,,,,,,,,,,,,,,,,,,,,,,,,,,,,,,,,,,,,,,,,,,934.648,937.915,space,3.239,,937.915,945.955,right,8.012,,0.0,1.0,1.0,1.0,1.0,block_order/blockD.xlsx,,,,,,,,,,,,,,,,,,,,,,,,,,,,,,,,,,,,,
,,,,,888741,1,2024-07-12_16h48.50.174,experiment,2024.1.5,Win32,60.0240096,6691931c2c63981b064e1f0c,6691b9953a1360840d8efd24,,,,,,,,,,,,,,,,,,,,,,,,,,,,,,,,,,,,,,,,,,,,,,,,,,,,,,,,,,,946.028,953.472,-0.1015625,0.059895833,1.0,0.0,0.0,1.436,compass,0.0,0.0,0.0,16.0,1.0,SoundStimuli/BohemianRhapsody_Queen_Cover5S.wav,,,,,,,,,,,,,,,,,,,,,,,,,,,,,,,,,,,,,,,,,,,,,,,,,,,,,
,,,,,888741,1,2024-07-12_16h48.50.174,experiment,2024.1.5,Win32,60.0240096,6691931c2c63981b064e1f0c,6691b9953a1360840d8efd24,,,,,,,,,,,,,,,,,,,,,,,,,,,,,,,,,,,,,,,,,,,,,,,,,,,,,,,,,,,953.474,962.172,-0.1484375,0.119791667,1.0,0.0,0.0,2.663,compass,0.0,1.0,1.0,20.0,1.0,SoundStimuli/HeyYa_Outkast_Original5S.wav,,,,,,,,,,,,,,,,,,,,,,,,,,,,,,,,,,,,,,,,,,,,,,,,,,,,,
,,,,,888741,1,2024-07-12_16h48.50.174,experiment,2024.1.5,Win32,60.0240096,6691931c2c63981b064e1f0c,6691b9953a1360840d8efd24,,,,,,,,,,,,,,,,,,,,,,,,,,,,,,,,,,,,,,,,,,,,,,,,,,,,,,,,,,,962.186,969.042,0.182291667,0.03125,1.0,0.0,0.0,0.844,compass,0.0,2.0,2.0,10.0,1.0,SoundStimuli/BadDay_DanielPowter_Original5S.wav,,,,,,,,,,,,,,,,,,,,,,,,,,,,,,,,,,,,,,,,,,,,,,,,,,,,,
,,,,,888741,1,2024-07-12_16h48.50.174,experiment,2024.1.5,Win32,60.0240096,6691931c2c63981b064e1f0c,6691b9953a1360840d8efd24,,,,,,,,,,,,,,,,,,,,,,,,,,,,,,,,,,,,,,,,,,,,,,,,,,,,,,,,,,,969.044,975.946,0.1953125,-0.2265625,1.0,0.0,0.0,0.886,compass,0.0,3.0,3.0,22.0,1.0,SoundStimuli/RockWithYou_MichaelJackson_Cover5S.wav,,,,,,,,,,,,,,,,,,,,,,,,,,,,,,,,,,,,,,,,,,,,,,,,,,,,,
,,,,,888741,1,2024-07-12_16h48.50.174,experiment,2024.1.5,Win32,60.0240096,6691931c2c63981b064e1f0c,6691b9953a1360840d8efd24,,,,,,,,,,,,,,,,,,,,,,,,,,,,,,,,,,,,,,,,,,,,,,,,,,,,,,,,,,,975.948,985.53,-0.0546875,-0.15625,1.0,0.0,0.0,3.57,compass,0.0,4.0,4.0,21.0,1.0,SoundStimuli/GoodGollyMissMolly_LittleRichard_Original5S.wav,,,,,,,,,,,,,,,,,,,,,,,,,,,,,,,,,,,,,,,,,,,,,,,,,,,,,
,,,,,888741,1,2024-07-12_16h48.50.174,experiment,2024.1.5,Win32,60.0240096,6691931c2c63981b064e1f0c,6691b9953a1360840d8efd24,,,,,,,,,,,,,,,,,,,,,,,,,,,,,,,,,,,,,,,,,,,,,,,,,,,,,,,,,,,985.532,991.938,-0.102864583,0.059895833,1.0,0.0,0.0,0.394,compass,0.0,5.0,5.0,8.0,1.0,SoundStimuli/LikeAPrayer_Madonna_Cover5S.wav,,,,,,,,,,,,,,,,,,,,,,,,,,,,,,,,,,,,,,,,,,,,,,,,,,,,,
,,,,,888741,1,2024-07-12_16h48.50.174,experiment,2024.1.5,Win32,60.0240096,6691931c2c63981b064e1f0c,6691b9953a1360840d8efd24,,,,,,,,,,,,,,,,,,,,,,,,,,,,,,,,,,,,,,,,,,,,,,,,,,,,,,,,,,,991.947,999.349,-0.069010417,-0.1015625,1.0,0.0,0.0,1.378,compass,0.0,6.0,6.0,27.0,1.0,SoundStimuli/ShapeofYou_EdSheeran_Cover5S.wav,,,,,,,,,,,,,,,,,,,,,,,,,,,,,,,,,,,,,,,,,,,,,,,,,,,,,
,,,,,888741,1,2024-07-12_16h48.50.174,experiment,2024.1.5,Win32,60.0240096,6691931c2c63981b064e1f0c,6691b9953a1360840d8efd24,,,,,,,,,,,,,,,,,,,,,,,,,,,,,,,,,,,,,,,,,,,,,,,,,,,,,,,,,,,999.356,1005.921,-0.12109375,-0.119791667,1.0,0.0,0.0,0.562,compass,0.0,7.0,7.0,23.0,1.0,SoundStimuli/StrawberryFieldsForever_TheBeatles_Cover5S.wav,,,,,,,,,,,,,,,,,,,,,,,,,,,,,,,,,,,,,,,,,,,,,,,,,,,,,
,,,,,888741,1,2024-07-12_16h48.50.174,experiment,2024.1.5,Win32,60.0240096,6691931c2c63981b064e1f0c,6691b9953a1360840d8efd24,,,,,,,,,,,,,,,,,,,,,,,,,,,,,,,,,,,,,,,,,,,,,,,,,,,,,,,,,,,1005.923,1012.848,0.162760417,0.141927083,1.0,0.0,0.0,0.919,compass,0.0,8.0,8.0,4.0,1.0,SoundStimuli/GetUrFreakOn_MissyElliot_Cover5S.wav,,,,,,,,,,,,,,,,,,,,,,,,,,,,,,,,,,,,,,,,,,,,,,,,,,,,,
,,,,,888741,1,2024-07-12_16h48.50.174,experiment,2024.1.5,Win32,60.0240096,6691931c2c63981b064e1f0c,6691b9953a1360840d8efd24,,,,,,,,,,,,,,,,,,,,,,,,,,,,,,,,,,,,,,,,,,,,,,,,,,,,,,,,,,,1012.849,1019.595,-0.227864583,0.139322917,1.0,0.0,0.0,0.726,compass,0.0,9.0,9.0,24.0,1.0,SoundStimuli/UptownFunk_MarkRonson_Cover5S.wav,,,,,,,,,,,,,,,,,,,,,,,,,,,,,,,,,,,,,,,,,,,,,,,,,,,,,
,,,,,888741,1,2024-07-12_16h48.50.174,experiment,2024.1.5,Win32,60.0240096,6691931c2c63981b064e1f0c,6691b9953a1360840d8efd24,,,,,,,,,,,,,,,,,,,,,,,,,,,,,,,,,,,,,,,,,,,,,,,,,,,,,,,,,,,1019.597,1027.221,-0.01953125,0.23828125,1.0,0.0,0.0,1.607,compass,0.0,10.0,10.0,25.0,1.0,SoundStimuli/Respect_ArethaFranklin_Cover5S.wav,,,,,,,,,,,,,,,,,,,,,,,,,,,,,,,,,,,,,,,,,,,,,,,,,,,,,
,,,,,888741,1,2024-07-12_16h48.50.174,experiment,2024.1.5,Win32,60.0240096,6691931c2c63981b064e1f0c,6691b9953a1360840d8efd24,,,,,,,,,,,,,,,,,,,,,,,,,,,,,,,,,,,,,,,,,,,,,,,,,,,,,,,,,,,1027.233,1034.277,-0.147135417,-0.15234375,1.0,0.0,0.0,1.036,compass,0.0,11.0,11.0,0.0,1.0,SoundStimuli/StayinAlive_BeeGees_Cover5S.wav,,,,,,,,,,,,,,,,,,,,,,,,,,,,,,,,,,,,,,,,,,,,,,,,,,,,,
,,,,,888741,1,2024-07-12_16h48.50.174,experiment,2024.1.5,Win32,60.0240096,6691931c2c63981b064e1f0c,6691b9953a1360840d8efd24,,,,,,,,,,,,,,,,,,,,,,,,,,,,,,,,,,,,,,,,,,,,,,,,,,,,,,,,,,,1034.279,1041.662,-0.18359375,0.1640625,1.0,0.0,0.0,1.371,compass,0.0,12.0,12.0,13.0,1.0,SoundStimuli/GodOnlyKnows_TheBeachBoys_Original5S.wav,,,,,,,,,,,,,,,,,,,,,,,,,,,,,,,,,,,,,,,,,,,,,,,,,,,,,
,,,,,888741,1,2024-07-12_16h48.50.174,experiment,2024.1.5,Win32,60.0240096,6691931c2c63981b064e1f0c,6691b9953a1360840d8efd24,,,,,,,,,,,,,,,,,,,,,,,,,,,,,,,,,,,,,,,,,,,,,,,,,,,,,,,,,,,1041.663,1048.39,-0.092447917,0.098958333,1.0,0.0,0.0,0.714,compass,0.0,13.0,13.0,17.0,1.0,SoundStimuli/Fallin_AliciaKeys_Cover5S.wav,,,,,,,,,,,,,,,,,,,,,,,,,,,,,,,,,,,,,,,,,,,,,,,,,,,,,
,,,,,888741,1,2024-07-12_16h48.50.174,experiment,2024.1.5,Win32,60.0240096,6691931c2c63981b064e1f0c,6691b9953a1360840d8efd24,,,,,,,,,,,,,,,,,,,,,,,,,,,,,,,,,,,,,,,,,,,,,,,,,,,,,,,,,,,1048.394,1058.013,-0.123697917,0.127604167,1.0,0.0,0.0,3.612,compass,0.0,14.0,14.0,18.0,1.0,SoundStimuli/AnotherOneBitesTheDust_Queen_Cover5S.wav,,,,,,,,,,,,,,,,,,,,,,,,,,,,,,,,,,,,,,,,,,,,,,,,,,,,,
,,,,,888741,1,2024-07-12_16h48.50.174,experiment,2024.1.5,Win32,60.0240096,6691931c2c63981b064e1f0c,6691b9953a1360840d8efd24,,,,,,,,,,,,,,,,,,,,,,,,,,,,,,,,,,,,,,,,,,,,,,,,,,,,,,,,,,,1058.015,1064.945,0.20703125,0.087239583,1.0,0.0,0.0,0.916,compass,0.0,15.0,15.0,32.0,1.0,SoundStimuli/HeatWaves_GlassAnimals_Cover5S.wav,,,,,,,,,,,,,,,,,,,,,,,,,,,,,,,,,,,,,,,,,,,,,,,,,,,,,
,,,,,888741,1,2024-07-12_16h48.50.174,experiment,2024.1.5,Win32,60.0240096,6691931c2c63981b064e1f0c,6691b9953a1360840d8efd24,,,,,,,,,,,,,,,,,,,,,,,,,,,,,,,,,,,,,,,,,,,,,,,,,,,,,,,,,,,1064.952,1071.583,-0.21484375,0.1328125,1.0,0.0,0.0,0.623,compass,0.0,16.0,16.0,26.0,1.0,SoundStimuli/LivinOnAPrayer_BonJovi_Original5S.wav,,,,,,,,,,,,,,,,,,,,,,,,,,,,,,,,,,,,,,,,,,,,,,,,,,,,,
,,,,,888741,1,2024-07-12_16h48.50.174,experiment,2024.1.5,Win32,60.0240096,6691931c2c63981b064e1f0c,6691b9953a1360840d8efd24,,,,,,,,,,,,,,,,,,,,,,,,,,,,,,,,,,,,,,,,,,,,,,,,,,,,,,,,,,,1071.585,1080.585,0.217447917,0.078125,1.0,0.0,0.0,2.99,compass,0.0,17.0,17.0,12.0,1.0,SoundStimuli/IWillAlwaysLoveYou_WhitneyHouston_Original5S.wav,,,,,,,,,,,,,,,,,,,,,,,,,,,,,,,,,,,,,,,,,,,,,,,,,,,,,
,,,,,888741,1,2024-07-12_16h48.50.174,experiment,2024.1.5,Win32,60.0240096,6691931c2c63981b064e1f0c,6691b9953a1360840d8efd24,,,,,,,,,,,,,,,,,,,,,,,,,,,,,,,,,,,,,,,,,,,,,,,,,,,,,,,,,,,1080.586,1088.843,0.217447917,0.078125,1.0,0.0,0.0,2.243,compass,0.0,18.0,18.0,14.0,1.0,SoundStimuli/BlindingLights_TheWeeknd_Cover5S.wav,,,,,,,,,,,,,,,,,,,,,,,,,,,,,,,,,,,,,,,,,,,,,,,,,,,,,
,,,,,888741,1,2024-07-12_16h48.50.174,experiment,2024.1.5,Win32,60.0240096,6691931c2c63981b064e1f0c,6691b9953a1360840d8efd24,,,,,,,,,,,,,,,,,,,,,,,,,,,,,,,,,,,,,,,,,,,,,,,,,,,,,,,,,,,1088.844,1096.536,-0.041666667,-0.18359375,1.0,0.0,0.0,1.67,compass,0.0,19.0,19.0,1.0,1.0,SoundStimuli/Stronger_KanyeWest_Cover5S.wav,,,,,,,,,,,,,,,,,,,,,,,,,,,,,,,,,,,,,,,,,,,,,,,,,,,,,
,,,,,888741,1,2024-07-12_16h48.50.174,experiment,2024.1.5,Win32,60.0240096,6691931c2c63981b064e1f0c,6691b9953a1360840d8efd24,,,,,,,,,,,,,,,,,,,,,,,,,,,,,,,,,,,,,,,,,,,,,,,,,,,,,,,,,,,1096.552,1103.422,-0.141927083,0.12890625,1.0,0.0,0.0,0.864,compass,0.0,20.0,20.0,15.0,1.0,SoundStimuli/TikTok_Kesha_Original5S.wav,,,,,,,,,,,,,,,,,,,,,,,,,,,,,,,,,,,,,,,,,,,,,,,,,,,,,
,,,,,888741,1,2024-07-12_16h48.50.174,experiment,2024.1.5,Win32,60.0240096,6691931c2c63981b064e1f0c,6691b9953a1360840d8efd24,,,,,,,,,,,,,,,,,,,,,,,,,,,,,,,,,,,,,,,,,,,,,,,,,,,,,,,,,,,1103.424,1110.108,0.1015625,0.078125,1.0,0.0,0.0,0.669,compass,0.0,21.0,21.0,6.0,1.0,SoundStimuli/Levitating_DuaLipa_Original5S.wav,,,,,,,,,,,,,,,,,,,,,,,,,,,,,,,,,,,,,,,,,,,,,,,,,,,,,
,,,,,888741,1,2024-07-12_16h48.50.174,experiment,2024.1.5,Win32,60.0240096,6691931c2c63981b064e1f0c,6691b9953a1360840d8efd24,,,,,,,,,,,,,,,,,,,,,,,,,,,,,,,,,,,,,,,,,,,,,,,,,,,,,,,,,,,1110.11,1117.825,0.1015625,0.075520833,1.0,0.0,0.0,1.704,compass,0.0,22.0,22.0,3.0,1.0,SoundStimuli/NoScrubs_TLC_Cover5S.wav,,,,,,,,,,,,,,,,,,,,,,,,,,,,,,,,,,,,,,,,,,,,,,,,,,,,,
,,,,,888741,1,2024-07-12_16h48.50.174,experiment,2024.1.5,Win32,60.0240096,6691931c2c63981b064e1f0c,6691b9953a1360840d8efd24,,,,,,,,,,,,,,,,,,,,,,,,,,,,,,,,,,,,,,,,,,,,,,,,,,,,,,,,,,,1117.827,1124.475,0.080729167,-0.244791667,1.0,0.0,0.0,0.635,compass,0.0,23.0,23.0,29.0,1.0,SoundStimuli/OldTownRoad_LilNasX_Cover5S.wav,,,,,,,,,,,,,,,,,,,,,,,,,,,,,,,,,,,,,,,,,,,,,,,,,,,,,
,,,,,888741,1,2024-07-12_16h48.50.174,experiment,2024.1.5,Win32,60.0240096,6691931c2c63981b064e1f0c,6691b9953a1360840d8efd24,,,,,,,,,,,,,,,,,,,,,,,,,,,,,,,,,,,,,,,,,,,,,,,,,,,,,,,,,,,1124.478,1132.592,-0.162760417,0.186197917,1.0,0.0,0.0,2.103,compass,0.0,24.0,24.0,28.0,1.0,SoundStimuli/ComeAndGetYourLove_Redbone_Cover5S.wav,,,,,,,,,,,,,,,,,,,,,,,,,,,,,,,,,,,,,,,,,,,,,,,,,,,,,
,,,,,888741,1,2024-07-12_16h48.50.174,experiment,2024.1.5,Win32,60.0240096,6691931c2c63981b064e1f0c,6691b9953a1360840d8efd24,,,,,,,,,,,,,,,,,,,,,,,,,,,,,,,,,,,,,,,,,,,,,,,,,,,,,,,,,,,1132.598,1139.826,-0.095052083,0.131510417,1.0,0.0,0.0,1.216,compass,0.0,25.0,25.0,2.0,1.0,SoundStimuli/Mood_24kGoldnianndior_Original5S.wav,,,,,,,,,,,,,,,,,,,,,,,,,,,,,,,,,,,,,,,,,,,,,,,,,,,,,
,,,,,888741,1,2024-07-12_16h48.50.174,experiment,2024.1.5,Win32,60.0240096,6691931c2c63981b064e1f0c,6691b9953a1360840d8efd24,,,,,,,,,,,,,,,,,,,,,,,,,,,,,,,,,,,,,,,,,,,,,,,,,,,,,,,,,,,1139.827,1146.558,-0.131510417,0.139322917,1.0,0.0,0.0,0.719,compass,0.0,26.0,26.0,7.0,1.0,SoundStimuli/NoOne_AliciaKeys_Original5S.wav,,,,,,,,,,,,,,,,,,,,,,,,,,,,,,,,,,,,,,,,,,,,,,,,,,,,,
,,,,,888741,1,2024-07-12_16h48.50.174,experiment,2024.1.5,Win32,60.0240096,6691931c2c63981b064e1f0c,6691b9953a1360840d8efd24,,,,,,,,,,,,,,,,,,,,,,,,,,,,,,,,,,,,,,,,,,,,,,,,,,,,,,,,,,,1146.562,1153.224,-0.130208333,0.138020833,1.0,0.0,0.0,0.635,compass,0.0,27.0,27.0,33.0,1.0,SoundStimuli/StandByMe_BenEKing_Original5S.wav,,,,,,,,,,,,,,,,,,,,,,,,,,,,,,,,,,,,,,,,,,,,,,,,,,,,,
,,,,,888741,1,2024-07-12_16h48.50.174,experiment,2024.1.5,Win32,60.0240096,6691931c2c63981b064e1f0c,6691b9953a1360840d8efd24,,,,,,,,,,,,,,,,,,,,,,,,,,,,,,,,,,,,,,,,,,,,,,,,,,,,,,,,,,,1153.226,1164.923,0.06640625,0.0859375,1.0,0.0,0.0,5.665,compass,0.0,28.0,28.0,11.0,1.0,SoundStimuli/Superstition_StevieWonder_Original5S.wav,,,,,,,,,,,,,,,,,,,,,,,,,,,,,,,,,,,,,,,,,,,,,,,,,,,,,
,,,,,888741,1,2024-07-12_16h48.50.174,experiment,2024.1.5,Win32,60.0240096,6691931c2c63981b064e1f0c,6691b9953a1360840d8efd24,,,,,,,,,,,,,,,,,,,,,,,,,,,,,,,,,,,,,,,,,,,,,,,,,,,,,,,,,,,1164.94,1172.654,0.122395833,-0.05859375,1.0,0.0,0.0,1.675,compass,0.0,29.0,29.0,34.0,1.0,SoundStimuli/AChangeIsGonnaCome_SamCooke_Original5S.wav,,,,,,,,,,,,,,,,,,,,,,,,,,,,,,,,,,,,,,,,,,,,,,,,,,,,,
,,,,,888741,1,2024-07-12_16h48.50.174,experiment,2024.1.5,Win32,60.0240096,6691931c2c63981b064e1f0c,6691b9953a1360840d8efd24,,,,,,,,,,,,,,,,,,,,,,,,,,,,,,,,,,,,,,,,,,,,,,,,,,,,,,,,,,,1172.659,1180.788,-0.298177083,0.180989583,1.0,0.0,0.0,2.12,compass,0.0,30.0,30.0,30.0,1.0,SoundStimuli/PokerFace_LadyGaga_Cover5S.wav,,,,,,,,,,,,,,,,,,,,,,,,,,,,,,,,,,,,,,,,,,,,,,,,,,,,,
,,,,,888741,1,2024-07-12_16h48.50.174,experiment,2024.1.5,Win32,60.0240096,6691931c2c63981b064e1f0c,6691b9953a1360840d8efd24,,,,,,,,,,,,,,,,,,,,,,,,,,,,,,,,,,,,,,,,,,,,,,,,,,,,,,,,,,,1180.789,1190.824,0.201822917,-0.095052083,1.0,0.0,0.0,4.019,compass,0.0,31.0,31.0,31.0,1.0,SoundStimuli/TheBattleOfNewOrleans_JohnnyHorton_Original5S.wav,,,,,,,,,,,,,,,,,,,,,,,,,,,,,,,,,,,,,,,,,,,,,,,,,,,,,
,,,,,888741,1,2024-07-12_16h48.50.174,experiment,2024.1.5,Win32,60.0240096,6691931c2c63981b064e1f0c,6691b9953a1360840d8efd24,,,,,,,,,,,,,,,,,,,,,,,,,,,,,,,,,,,,,,,,,,,,,,,,,,,,,,,,,,,1190.827,1197.42,-0.131510417,0.12109375,1.0,0.0,0.0,0.584,compass,0.0,32.0,32.0,9.0,1.0,SoundStimuli/Despacito_LuisFonsiDaddyYankee_Original5S.wav,,,,,,,,,,,,,,,,,,,,,,,,,,,,,,,,,,,,,,,,,,,,,,,,,,,,,
,,,,,888741,1,2024-07-12_16h48.50.174,experiment,2024.1.5,Win32,60.0240096,6691931c2c63981b064e1f0c,6691b9953a1360840d8efd24,,,,,,,,,,,,,,,,,,,,,,,,,,,,,,,,,,,,,,,,,,,,,,,,,,,,,,,,,,,1197.423,1206.04,0.166666667,-0.141927083,1.0,0.0,0.0,2.601,compass,0.0,33.0,33.0,19.0,1.0,SoundStimuli/LetsGetItOn_MarvinGaye_Original5S.wav,,,,,,,,,,,,,,,,,,,,,,,,,,,,,,,,,,,,,,,,,,,,,,,,,,,,,
,,,,,888741,1,2024-07-12_16h48.50.174,experiment,2024.1.5,Win32,60.0240096,6691931c2c63981b064e1f0c,6691b9953a1360840d8efd24,,,,,,,,,,,,,,,,,,,,,,,,,,,,,,,,,,,,,,,,,,,,,,,,,,,,,,,,,,,1206.046,1214.72,0.169270833,-0.14453125,1.0,0.0,0.0,2.658,compass,0.0,34.0,34.0,5.0,1.0,SoundStimuli/MyGirl_TheTemptations_Cover5S.wav,,,,,,,,,,,,,,,,,,,,,,,,,,,,,,,,,,,,,,,,,,,,,,,,,,,,,
,,,,,888741,1,2024-07-12_16h48.50.174,experiment,2024.1.5,Win32,60.0240096,6691931c2c63981b064e1f0c,6691b9953a1360840d8efd24,,,,,,,,,,,,,,,,,,,,,,,,,,,,,,,,,,,,,,,,,,,,,,,,,,,,,,,,,,,,,,,,,,,,,,,,,,1214.72,1246.993,space,32.199,,1246.993,1250.151,right,3.129,,0.0,2.0,2.0,2.0,1.0,block_order/blockC.xlsx,,,,,,,,,,,,,,,,,,,,,,,,,,,,,,,,,,,,,
,,,,,888741,1,2024-07-12_16h48.50.174,experiment,2024.1.5,Win32,60.0240096,6691931c2c63981b064e1f0c,6691b9953a1360840d8efd24,,,,,,,,,,,,,,,,,,,,,,,,,,,,,,,,,,,,,,,,,,,,,,,,,,,,,,,,,,,1250.215,1257.358,0.225260417,0.115885417,1.0,0.0,0.0,1.14,compass,0.0,0.0,0.0,18.0,1.0,SoundStimuli/Weak_SWV_Original5S.wav,,,,,,,,,,,,,,,,,,,,,,,,,,,,,,,,,,,,,,,,,,,,,,,,,,,,,
,,,,,888741,1,2024-07-12_16h48.50.174,experiment,2024.1.5,Win32,60.0240096,6691931c2c63981b064e1f0c,6691b9953a1360840d8efd24,,,,,,,,,,,,,,,,,,,,,,,,,,,,,,,,,,,,,,,,,,,,,,,,,,,,,,,,,,,1257.36,1267.582,0.27734375,0.157552083,1.0,0.0,0.0,4.217,compass,0.0,1.0,1.0,26.0,1.0,SoundStimuli/TheSign_AceOfBase_Original5S.wav,,,,,,,,,,,,,,,,,,,,,,,,,,,,,,,,,,,,,,,,,,,,,,,,,,,,,
,,,,,888741,1,2024-07-12_16h48.50.174,experiment,2024.1.5,Win32,60.0240096,6691931c2c63981b064e1f0c,6691b9953a1360840d8efd24,,,,,,,,,,,,,,,,,,,,,,,,,,,,,,,,,,,,,,,,,,,,,,,,,,,,,,,,,,,1267.585,1279.719,0.083333333,-0.205729167,1.0,0.0,0.0,6.119,compass,0.0,2.0,2.0,7.0,1.0,SoundStimuli/MackTheKnife_BobbyDarin_Original5S.wav,,,,,,,,,,,,,,,,,,,,,,,,,,,,,,,,,,,,,,,,,,,,,,,,,,,,,
,,,,,888741,1,2024-07-12_16h48.50.174,experiment,2024.1.5,Win32,60.0240096,6691931c2c63981b064e1f0c,6691b9953a1360840d8efd24,,,,,,,,,,,,,,,,,,,,,,,,,,,,,,,,,,,,,,,,,,,,,,,,,,,,,,,,,,,1279.725,1288.872,-0.087239583,0.069010417,1.0,0.0,0.0,3.133,compass,0.0,3.0,3.0,3.0,1.0,SoundStimuli/PartyRockAnthem_LMFAO_Cover5S.wav,,,,,,,,,,,,,,,,,,,,,,,,,,,,,,,,,,,,,,,,,,,,,,,,,,,,,
,,,,,888741,1,2024-07-12_16h48.50.174,experiment,2024.1.5,Win32,60.0240096,6691931c2c63981b064e1f0c,6691b9953a1360840d8efd24,,,,,,,,,,,,,,,,,,,,,,,,,,,,,,,,,,,,,,,,,,,,,,,,,,,,,,,,,,,1288.873,1296.706,0.286458333,-0.104166667,1.0,0.0,0.0,1.824,compass,0.0,4.0,4.0,6.0,1.0,SoundStimuli/SaveYourTears_TheWeekndArianaGrande_Original5S.wav,,,,,,,,,,,,,,,,,,,,,,,,,,,,,,,,,,,,,,,,,,,,,,,,,,,,,
,,,,,888741,1,2024-07-12_16h48.50.174,experiment,2024.1.5,Win32,60.0240096,6691931c2c63981b064e1f0c,6691b9953a1360840d8efd24,,,,,,,,,,,,,,,,,,,,,,,,,,,,,,,,,,,,,,,,,,,,,,,,,,,,,,,,,,,1296.707,1305.157,0.21484375,0.15625,1.0,0.0,0.0,2.425,compass,0.0,5.0,5.0,28.0,1.0,SoundStimuli/IWantToHoldYourHand_TheBeatles_Cover5S.wav,,,,,,,,,,,,,,,,,,,,,,,,,,,,,,,,,,,,,,,,,,,,,,,,,,,,,
,,,,,888741,1,2024-07-12_16h48.50.174,experiment,2024.1.5,Win32,60.0240096,6691931c2c63981b064e1f0c,6691b9953a1360840d8efd24,,,,,,,,,,,,,,,,,,,,,,,,,,,,,,,,,,,,,,,,,,,,,,,,,,,,,,,,,,,1305.17,1313.101,0.30859375,0.233072917,1.0,0.0,0.0,1.858,compass,0.0,6.0,6.0,14.0,1.0,SoundStimuli/LikeARollingStone_BobDylan_Cover5S.wav,,,,,,,,,,,,,,,,,,,,,,,,,,,,,,,,,,,,,,,,,,,,,,,,,,,,,
,,,,,888741,1,2024-07-12_16h48.50.174,experiment,2024.1.5,Win32,60.0240096,6691931c2c63981b064e1f0c,6691b9953a1360840d8efd24,,,,,,,,,,,,,,,,,,,,,,,,,,,,,,,,,,,,,,,,,,,,,,,,,,,,,,,,,,,1313.102,1321.012,0.20703125,0.251302083,1.0,0.0,0.0,1.901,compass,0.0,7.0,7.0,31.0,1.0,SoundStimuli/TossinAndTurnin_BobbyLewis_Cover5S.wav,,,,,,,,,,,,,,,,,,,,,,,,,,,,,,,,,,,,,,,,,,,,,,,,,,,,,
,,,,,888741,1,2024-07-12_16h48.50.174,experiment,2024.1.5,Win32,60.0240096,6691931c2c63981b064e1f0c,6691b9953a1360840d8efd24,,,,,,,,,,,,,,,,,,,,,,,,,,,,,,,,,,,,,,,,,,,,,,,,,,,,,,,,,,,1321.015,1334.797,0.225260417,-0.11328125,1.0,0.0,0.0,7.77,compass,0.0,8.0,8.0,2.0,1.0,SoundStimuli/SmellsLikeTeenSpirit_Nirvana_Cover5S.wav,,,,,,,,,,,,,,,,,,,,,,,,,,,,,,,,,,,,,,,,,,,,,,,,,,,,,
,,,,,888741,1,2024-07-12_16h48.50.174,experiment,2024.1.5,Win32,60.0240096,6691931c2c63981b064e1f0c,6691b9953a1360840d8efd24,,,,,,,,,,,,,,,,,,,,,,,,,,,,,,,,,,,,,,,,,,,,,,,,,,,,,,,,,,,1334.799,1343.577,0.0859375,0.134114583,1.0,0.0,0.0,2.767,compass,0.0,9.0,9.0,8.0,1.0,SoundStimuli/EndlessLove_DianaRossLionelRichie_Original5S.wav,,,,,,,,,,,,,,,,,,,,,,,,,,,,,,,,,,,,,,,,,,,,,,,,,,,,,
,,,,,888741,1,2024-07-12_16h48.50.174,experiment,2024.1.5,Win32,60.0240096,6691931c2c63981b064e1f0c,6691b9953a1360840d8efd24,,,,,,,,,,,,,,,,,,,,,,,,,,,,,,,,,,,,,,,,,,,,,,,,,,,,,,,,,,,1343.584,1351.179,0.190104167,0.057291667,1.0,0.0,0.0,1.592,compass,0.0,10.0,10.0,30.0,1.0,SoundStimuli/SomebodyThatIUsedtoKnow_Gotye_Cover5S.wav,,,,,,,,,,,,,,,,,,,,,,,,,,,,,,,,,,,,,,,,,,,,,,,,,,,,,
,,,,,888741,1,2024-07-12_16h48.50.174,experiment,2024.1.5,Win32,60.0240096,6691931c2c63981b064e1f0c,6691b9953a1360840d8efd24,,,,,,,,,,,,,,,,,,,,,,,,,,,,,,,,,,,,,,,,,,,,,,,,,,,,,,,,,,,1351.181,1359.293,0.256510417,0.069010417,1.0,0.0,0.0,2.096,compass,0.0,11.0,11.0,33.0,1.0,SoundStimuli/TheBoyIsMine_BrandyMonica_Cover5S.wav,,,,,,,,,,,,,,,,,,,,,,,,,,,,,,,,,,,,,,,,,,,,,,,,,,,,,
,,,,,888741,1,2024-07-12_16h48.50.174,experiment,2024.1.5,Win32,60.0240096,6691931c2c63981b064e1f0c,6691b9953a1360840d8efd24,,,,,,,,,,,,,,,,,,,,,,,,,,,,,,,,,,,,,,,,,,,,,,,,,,,,,,,,,,,1359.296,1365.957,-0.11328125,0.071614583,1.0,0.0,0.0,0.647,compass,0.0,12.0,12.0,5.0,1.0,SoundStimuli/JoyToTheWorld_ThreeDogNight_Cover5S.wav,,,,,,,,,,,,,,,,,,,,,,,,,,,,,,,,,,,,,,,,,,,,,,,,,,,,,
,,,,,888741,1,2024-07-12_16h48.50.174,experiment,2024.1.5,Win32,60.0240096,6691931c2c63981b064e1f0c,6691b9953a1360840d8efd24,,,,,,,,,,,,,,,,,,,,,,,,,,,,,,,,,,,,,,,,,,,,,,,,,,,,,,,,,,,1365.959,1373.595,-0.072916667,-0.166666667,1.0,0.0,0.0,1.628,compass,0.0,13.0,13.0,25.0,1.0,SoundStimuli/IllMakeLoveToYou_BoyzIIMen_Original5S.wav,,,,,,,,,,,,,,,,,,,,,,,,,,,,,,,,,,,,,,,,,,,,,,,,,,,,,
,,,,,888741,1,2024-07-12_16h48.50.174,experiment,2024.1.5,Win32,60.0240096,6691931c2c63981b064e1f0c,6691b9953a1360840d8efd24,,,,,,,,,,,,,,,,,,,,,,,,,,,,,,,,,,,,,,,,,,,,,,,,,,,,,,,,,,,1373.601,1380.471,0.0625,0.092447917,1.0,0.0,0.0,0.862,compass,0.0,14.0,14.0,29.0,1.0,SoundStimuli/BetteDavisEyes_KimCarnes_Cover5S.wav,,,,,,,,,,,,,,,,,,,,,,,,,,,,,,,,,,,,,,,,,,,,,,,,,,,,,
,,,,,888741,1,2024-07-12_16h48.50.174,experiment,2024.1.5,Win32,60.0240096,6691931c2c63981b064e1f0c,6691b9953a1360840d8efd24,,,,,,,,,,,,,,,,,,,,,,,,,,,,,,,,,,,,,,,,,,,,,,,,,,,,,,,,,,,1380.473,1390.08,0.130208333,0.063802083,1.0,0.0,0.0,3.604,compass,0.0,15.0,15.0,22.0,1.0,SoundStimuli/Happy_PharellWilliams_Cover5S.wav,,,,,,,,,,,,,,,,,,,,,,,,,,,,,,,,,,,,,,,,,,,,,,,,,,,,,
,,,,,888741,1,2024-07-12_16h48.50.174,experiment,2024.1.5,Win32,60.0240096,6691931c2c63981b064e1f0c,6691b9953a1360840d8efd24,,,,,,,,,,,,,,,,,,,,,,,,,,,,,,,,,,,,,,,,,,,,,,,,,,,,,,,,,,,1390.082,1396.771,0.192708333,0.09375,1.0,0.0,0.0,0.677,compass,0.0,16.0,16.0,15.0,1.0,SoundStimuli/CrazyInLove_BeyonceFtJayZ_Original5S.wav,,,,,,,,,,,,,,,,,,,,,,,,,,,,,,,,,,,,,,,,,,,,,,,,,,,,,
,,,,,888741,1,2024-07-12_16h48.50.174,experiment,2024.1.5,Win32,60.0240096,6691931c2c63981b064e1f0c,6691b9953a1360840d8efd24,,,,,,,,,,,,,,,,,,,,,,,,,,,,,,,,,,,,,,,,,,,,,,,,,,,,,,,,,,,1396.775,1403.559,-0.178385417,-0.100260417,1.0,0.0,0.0,0.779,compass,0.0,17.0,17.0,4.0,1.0,SoundStimuli/Dreams_FleetwoodMac_Cover5S.wav,,,,,,,,,,,,,,,,,,,,,,,,,,,,,,,,,,,,,,,,,,,,,,,,,,,,,
,,,,,888741,1,2024-07-12_16h48.50.174,experiment,2024.1.5,Win32,60.0240096,6691931c2c63981b064e1f0c,6691b9953a1360840d8efd24,,,,,,,,,,,,,,,,,,,,,,,,,,,,,,,,,,,,,,,,,,,,,,,,,,,,,,,,,,,1403.564,1410.241,0.126302083,0.12890625,1.0,0.0,0.0,0.665,compass,0.0,18.0,18.0,21.0,1.0,SoundStimuli/BridgeOverTroubledWater_SimonAndGarfunkel_Cover5S.wav,,,,,,,,,,,,,,,,,,,,,,,,,,,,,,,,,,,,,,,,,,,,,,,,,,,,,
,,,,,888741,1,2024-07-12_16h48.50.174,experiment,2024.1.5,Win32,60.0240096,6691931c2c63981b064e1f0c,6691b9953a1360840d8efd24,,,,,,,,,,,,,,,,,,,,,,,,,,,,,,,,,,,,,,,,,,,,,,,,,,,,,,,,,,,1410.245,1416.874,0.197916667,-0.177083333,1.0,0.0,0.0,0.616,compass,0.0,19.0,19.0,20.0,1.0,SoundStimuli/FlashdanceWhatAFeeling_IreneCara_Cover5S.wav,,,,,,,,,,,,,,,,,,,,,,,,,,,,,,,,,,,,,,,,,,,,,,,,,,,,,
,,,,,888741,1,2024-07-12_16h48.50.174,experiment,2024.1.5,Win32,60.0240096,6691931c2c63981b064e1f0c,6691b9953a1360840d8efd24,,,,,,,,,,,,,,,,,,,,,,,,,,,,,,,,,,,,,,,,,,,,,,,,,,,,,,,,,,,1416.876,1423.481,-0.130208333,-0.180989583,1.0,0.0,0.0,0.587,compass,0.0,20.0,20.0,10.0,1.0,SoundStimuli/LeFreak_Chic_Original5S.wav,,,,,,,,,,,,,,,,,,,,,,,,,,,,,,,,,,,,,,,,,,,,,,,,,,,,,
,,,,,888741,1,2024-07-12_16h48.50.174,experiment,2024.1.5,Win32,60.0240096,6691931c2c63981b064e1f0c,6691b9953a1360840d8efd24,,,,,,,,,,,,,,,,,,,,,,,,,,,,,,,,,,,,,,,,,,,,,,,,,,,,,,,,,,,1423.485,1430.73,0.240885417,0.1171875,1.0,0.0,0.0,1.231,compass,0.0,21.0,21.0,13.0,1.0,SoundStimuli/Perfect_EdSheeran_Original5S.wav,,,,,,,,,,,,,,,,,,,,,,,,,,,,,,,,,,,,,,,,,,,,,,,,,,,,,
,,,,,888741,1,2024-07-12_16h48.50.174,experiment,2024.1.5,Win32,60.0240096,6691931c2c63981b064e1f0c,6691b9953a1360840d8efd24,,,,,,,,,,,,,,,,,,,,,,,,,,,,,,,,,,,,,,,,,,,,,,,,,,,,,,,,,,,1430.732,1439.747,0.227864583,-0.130208333,1.0,0.0,0.0,3.004,compass,0.0,22.0,22.0,16.0,1.0,SoundStimuli/ItsAllInTheGame_TommyEdwards_Original5S.wav,,,,,,,,,,,,,,,,,,,,,,,,,,,,,,,,,,,,,,,,,,,,,,,,,,,,,
,,,,,888741,1,2024-07-12_16h48.50.174,experiment,2024.1.5,Win32,60.0240096,6691931c2c63981b064e1f0c,6691b9953a1360840d8efd24,,,,,,,,,,,,,,,,,,,,,,,,,,,,,,,,,,,,,,,,,,,,,,,,,,,,,,,,,,,1439.751,1445.825,0.200520833,0.138020833,1.0,0.0,0.0,0.068,compass,0.0,23.0,23.0,17.0,1.0,SoundStimuli/IWannaDanceWithSomebody_WhitneyHouston_Cover5S.wav,,,,,,,,,,,,,,,,,,,,,,,,,,,,,,,,,,,,,,,,,,,,,,,,,,,,,
,,,,,888741,1,2024-07-12_16h48.50.174,experiment,2024.1.5,Win32,60.0240096,6691931c2c63981b064e1f0c,6691b9953a1360840d8efd24,,,,,,,,,,,,,,,,,,,,,,,,,,,,,,,,,,,,,,,,,,,,,,,,,,,,,,,,,,,1445.827,1452.916,-0.0703125,-0.134114583,1.0,0.0,0.0,1.076,compass,0.0,24.0,24.0,12.0,1.0,SoundStimuli/UnbreakMyHeart_ToniBraxton_Cover5S.wav,,,,,,,,,,,,,,,,,,,,,,,,,,,,,,,,,,,,,,,,,,,,,,,,,,,,,
,,,,,888741,1,2024-07-12_16h48.50.174,experiment,2024.1.5,Win32,60.0240096,6691931c2c63981b064e1f0c,6691b9953a1360840d8efd24,,,,,,,,,,,,,,,,,,,,,,,,,,,,,,,,,,,,,,,,,,,,,,,,,,,,,,,,,,,1452.917,1459.791,0.180989583,0.190104167,1.0,0.0,0.0,0.868,compass,0.0,25.0,25.0,34.0,1.0,SoundStimuli/Irreplaceable_Beyonce_Original5S.wav,,,,,,,,,,,,,,,,,,,,,,,,,,,,,,,,,,,,,,,,,,,,,,,,,,,,,
,,,,,888741,1,2024-07-12_16h48.50.174,experiment,2024.1.5,Win32,60.0240096,6691931c2c63981b064e1f0c,6691b9953a1360840d8efd24,,,,,,,,,,,,,,,,,,,,,,,,,,,,,,,,,,,,,,,,,,,,,,,,,,,,,,,,,,,1459.793,1467.333,0.180989583,0.190104167,1.0,0.0,0.0,1.479,compass,0.0,26.0,26.0,24.0,1.0,SoundStimuli/Kiss_Prince_Original5S.wav,,,,,,,,,,,,,,,,,,,,,,,,,,,,,,,,,,,,,,,,,,,,,,,,,,,,,
,,,,,888741,1,2024-07-12_16h48.50.174,experiment,2024.1.5,Win32,60.0240096,6691931c2c63981b064e1f0c,6691b9953a1360840d8efd24,,,,,,,,,,,,,,,,,,,,,,,,,,,,,,,,,,,,,,,,,,,,,,,,,,,,,,,,,,,1467.338,1474.144,0.233072917,-0.166666667,1.0,0.0,0.0,0.797,compass,0.0,27.0,27.0,32.0,1.0,SoundStimuli/Dilemma_NellyKellyRowland_Original5S.wav,,,,,,,,,,,,,,,,,,,,,,,,,,,,,,,,,,,,,,,,,,,,,,,,,,,,,
,,,,,888741,1,2024-07-12_16h48.50.174,experiment,2024.1.5,Win32,60.0240096,6691931c2c63981b064e1f0c,6691b9953a1360840d8efd24,,,,,,,,,,,,,,,,,,,,,,,,,,,,,,,,,,,,,,,,,,,,,,,,,,,,,,,,,,,1474.149,1480.707,0.135416667,-0.135416667,1.0,0.0,0.0,0.548,compass,0.0,28.0,28.0,27.0,1.0,SoundStimuli/EyeOfTheTiger_Survivor_Original5S.wav,,,,,,,,,,,,,,,,,,,,,,,,,,,,,,,,,,,,,,,,,,,,,,,,,,,,,
,,,,,888741,1,2024-07-12_16h48.50.174,experiment,2024.1.5,Win32,60.0240096,6691931c2c63981b064e1f0c,6691b9953a1360840d8efd24,,,,,,,,,,,,,,,,,,,,,,,,,,,,,,,,,,,,,,,,,,,,,,,,,,,,,,,,,,,1480.708,1488.67,-0.174479167,-0.20703125,1.0,0.0,0.0,1.937,compass,0.0,29.0,29.0,11.0,1.0,SoundStimuli/BlurredLines_RobinThicke_Original5S.wav,,,,,,,,,,,,,,,,,,,,,,,,,,,,,,,,,,,,,,,,,,,,,,,,,,,,,
,,,,,888741,1,2024-07-12_16h48.50.174,experiment,2024.1.5,Win32,60.0240096,6691931c2c63981b064e1f0c,6691b9953a1360840d8efd24,,,,,,,,,,,,,,,,,,,,,,,,,,,,,,,,,,,,,,,,,,,,,,,,,,,,,,,,,,,1488.672,1496.567,0.23828125,0.078125,1.0,0.0,0.0,1.881,compass,0.0,30.0,30.0,23.0,1.0,SoundStimuli/IWalkTheLine_JohnnyCash_Cover5S.wav,,,,,,,,,,,,,,,,,,,,,,,,,,,,,,,,,,,,,,,,,,,,,,,,,,,,,
,,,,,888741,1,2024-07-12_16h48.50.174,experiment,2024.1.5,Win32,60.0240096,6691931c2c63981b064e1f0c,6691b9953a1360840d8efd24,,,,,,,,,,,,,,,,,,,,,,,,,,,,,,,,,,,,,,,,,,,,,,,,,,,,,,,,,,,1496.569,1504.46,0.25390625,-0.147135417,1.0,0.0,0.0,1.87,compass,0.0,31.0,31.0,9.0,1.0,SoundStimuli/HowDoILive_LeAnnRimes_Original5S.wav,,,,,,,,,,,,,,,,,,,,,,,,,,,,,,,,,,,,,,,,,,,,,,,,,,,,,
,,,,,888741,1,2024-07-12_16h48.50.174,experiment,2024.1.5,Win32,60.0240096,6691931c2c63981b064e1f0c,6691b9953a1360840d8efd24,,,,,,,,,,,,,,,,,,,,,,,,,,,,,,,,,,,,,,,,,,,,,,,,,,,,,,,,,,,1504.466,1519.872,0.184895833,0.100260417,1.0,0.0,0.0,9.391,compass,0.0,32.0,32.0,0.0,1.0,SoundStimuli/GimmeShelter_RollingStones_Cover5S.wav,,,,,,,,,,,,,,,,,,,,,,,,,,,,,,,,,,,,,,,,,,,,,,,,,,,,,
,,,,,888741,1,2024-07-12_16h48.50.174,experiment,2024.1.5,Win32,60.0240096,6691931c2c63981b064e1f0c,6691b9953a1360840d8efd24,,,,,,,,,,,,,,,,,,,,,,,,,,,,,,,,,,,,,,,,,,,,,,,,,,,,,,,,,,,1519.873,1529.966,0.21875,-0.27734375,1.0,0.0,0.0,4.064,compass,0.0,33.0,33.0,1.0,1.0,SoundStimuli/Smooth_SantanaRobThomas_Cover5S.wav,,,,,,,,,,,,,,,,,,,,,,,,,,,,,,,,,,,,,,,,,,,,,,,,,,,,,
,,,,,888741,1,2024-07-12_16h48.50.174,experiment,2024.1.5,Win32,60.0240096,6691931c2c63981b064e1f0c,6691b9953a1360840d8efd24,,,,,,,,,,,,,,,,,,,,,,,,,,,,,,,,,,,,,,,,,,,,,,,,,,,,,,,,,,,1529.967,1538.224,-0.145833333,-0.18359375,1.0,0.0,0.0,2.25,compass,0.0,34.0,34.0,19.0,1.0,SoundStimuli/YouLightUpMyLife_DebbyBoone_Cover5S.wav,,,,,,,,,,,,,,,,,,,,,,,,,,,,,,,,,,,,,,,,,,,,,,,,,,,,,
,,,,,888741,1,2024-07-12_16h48.50.174,experiment,2024.1.5,Win32,60.0240096,6691931c2c63981b064e1f0c,6691b9953a1360840d8efd24,,,,,,,,,,,,,,,,,,,,,,,,,,,,,,,,,,,,,,,,,,,,,,,,,,,,,,,,,,,,,,,,,,,,,,,,,,1538.225,1538.227,,,,1538.227,1538.227,,,,0.0,3.0,3.0,3.0,1.0,block_order/blockB.xlsx,,,,,,,,,,,,,,,,,,,,,,,,,,,,,,,,,,,,,
,,,,,888741,1,2024-07-12_16h48.50.174,experiment,2024.1.5,Win32,60.0240096,6691931c2c63981b064e1f0c,6691b9953a1360840d8efd24,,,,,,,,,,,,,,,,,,,,,,,,,,,,,,,,,,,,,,,,,,,,,,,,,,,,,,,,,,,,,,,,,,,,,,,,,,,,,,,,,,,,,,,,,,20.0,Item 2,not a musician,Item 3,apple music,5.0,5.0,hanging out with friends,Often,Rarely,Sometimes,Sometimes,Always,Sometimes,Rarely,Always,Sometimes,Always,Sometimes,Sometimes,Rarely,Sometimes,Rarely,Often,reggae,electronic,A cappella,no other genre,it has increased due to new trends in the industry,there is no other,0.0,0.0,0.0,0.0,1.0,,
,,,,,888741,1,2024-07-12_16h48.50.174,experiment,2024.1.5,Win32,60.0240096,6691931c2c63981b064e1f0c,6691b9953a1360840d8efd24,,,,,,,,,,,,,,,,,,,,,,,,,,,,,,,,,,,,,,,,,,,,,,,,,,,,,,,,,,,,,,,,,,,,,,,,,,,,,,,,,,,,,,,,,,,,,,,,,,,,,,,,,,,,,,,,,,,,,,,,,,,,,1867.306,1868.486
