welcome.started,welcome.stopped,space_to_continue.keys,space_to_continue.rt,space_to_continue.duration,participant,session,date,expName,psychopyVersion,OS,frameRate,STUDY_ID,SESSION_ID,consent.consent,consent.consent_recontact,consent_check.started,consent_check.stopped,calibration_ready.started,calibration_ready.stopped,cal_ready.keys,cal_ready.rt,cal_ready.duration,calibration.started,calibration.stopped,mouse.x,mouse.y,mouse.leftButton,mouse.midButton,mouse.rightButton,mouse.time,mouse.clicked_name,move_on.keys,move_on.rt,move_on.duration,run_cal.thisRepN,run_cal.thisTrialN,run_cal.thisN,run_cal.thisIndex,run_cal.ran,emotion_training_ready.started,emotion_training_ready.stopped,training_move_on.keys,training_move_on.rt,training_move_on.duration,examples.started,examples.stopped,emotion_scale.started,emotion_scale.stopped,scale_next.keys,scale_next.rt,scale_next.duration,instructions.started,instructions.stopped,next.keys,next.rt,next.duration,practice_task.started,practice_task.stopped,mouse_rating_2.x,mouse_rating_2.y,mouse_rating_2.leftButton,mouse_rating_2.midButton,mouse_rating_2.rightButton,mouse_rating_2.time,mouse_rating_2.clicked_name,ready.started,ready.stopped,key_resp.keys,key_resp.rt,key_resp.duration,set_group.started,set_group.stopped,task.started,task.stopped,mouse_rating.x,mouse_rating.y,mouse_rating.leftButton,mouse_rating.midButton,mouse_rating.rightButton,mouse_rating.time,mouse_rating.clicked_name,trials.thisRepN,trials.thisTrialN,trials.thisN,trials.thisIndex,trials.ran,clip,short_break.started,short_break.stopped,space_to_move_on.keys,space_to_move_on.rt,space_to_move_on.duration,instruction_reminder.started,instruction_reminder.stopped,reminder_move_on.keys,reminder_move_on.rt,reminder_move_on.duration,blocks.thisRepN,blocks.thisTrialN,blocks.thisN,blocks.thisIndex,blocks.ran,block,post_survey.age,post_survey.musician,post_survey.music_making,post_survey.listen_time,post_survey.medium,post_survey.music_seeking,post_survey.music_choice,post_survey.activities,post_survey.question1.Reggae,post_survey.question1.Disco,post_survey.question1.Hip hop,post_survey.question1.Folk/indie,post_survey.question1.Metal,post_survey.question1.Electronic (EDM),post_survey.question1.Latin,post_survey.question1.Alternative rock,post_survey.question1.Country,post_survey.question1.R&B,post_survey.question1.Classic rock,post_survey.question1.Classical,post_survey.question1.A cappella,post_survey.question1.Ambient,post_survey.question1.Jazz,post_survey.question1.Pop,post_survey.other_genres,post_survey.genres_ranked.text1,post_survey.genres_ranked.text2,post_survey.genres_ranked.text3,post_survey.habit_change,post_survey.habits,show_exp.thisRepN,show_exp.thisTrialN,show_exp.thisN,show_exp.thisIndex,show_exp.ran,goodbye.started,goodbye.stopped
0.0004,2.9502,space,2.8666,,901377,1,2024-07-12_15h55.30.425,experiment,2024.1.5,Win32,14.12429379,6691931c2c63981b064e1f0c,6691b29af5a9621f77201ba4,,,,,,,,,,,,,,,,,,,,,,,,,,,,,,,,,,,,,,,,,,,,,,,,,,,,,,,,,,,,,,,,,,,,,,,,,,,,,,,,,,,,,,,,,,,,,,,,,,,,,,,,,,,,,,,,,,,,,,,,,,,,,,,
,,,,,901377,1,2024-07-12_15h55.30.425,experiment,2024.1.5,Win32,14.12429379,6691931c2c63981b064e1f0c,6691b29af5a9621f77201ba4,yes,yes,,,,,,,,,,,,,,,,,,,,,,,,,,,,,,,,,,,,,,,,,,,,,,,,,,,,,,,,,,,,,,,,,,,,,,,,,,,,,,,,,,,,,,,,,,,,,,,,,,,,,,,,,,,,,,,,,,,,,,,,,,,,,
,,,,,901377,1,2024-07-12_15h55.30.425,experiment,2024.1.5,Win32,14.12429379,6691931c2c63981b064e1f0c,6691b29af5a9621f77201ba4,,,13.0216,13.0217,,,,,,,,,,,,,,,,,,,,,,,,,,,,,,,,,,,,,,,,,,,,,,,,,,,,,,,,,,,,,,,,,,,,,,,,,,,,,,,,,,,,,,,,,,,,,,,,,,,,,,,,,,,,,,,,,,,,,,,,,,,
,,,,,901377,1,2024-07-12_15h55.30.425,experiment,2024.1.5,Win32,14.12429379,6691931c2c63981b064e1f0c,6691b29af5a9621f77201ba4,,,,,13.0227,117.6636,space,104.5564,,117.6722,139.6366,[0.009259259259259259],[-0.4148148430718316],[1],[0],[0],[7.022799999713897],"[""play_button""]",y,20.7878,9.99999e-05,0.0,0.0,0.0,0.0,1.0,,,,,,,,,,,,,,,,,,,,,,,,,,,,,,,,,,,,,,,,,,,,,,,,,,,,,,,,,,,,,,,,,,,,,,,,,,,,,,,,,,,,,,,,,,,,,,,,,,,,,
,,,,,901377,1,2024-07-12_15h55.30.425,experiment,2024.1.5,Win32,14.12429379,6691931c2c63981b064e1f0c,6691b29af5a9621f77201ba4,,,,,,,,,,,,,,,,,,,,,,,,,,,139.637,154.2445,space,14.5002,,154.2446,274.2873,274.2875,280.5783,right,2.6218,,280.5785,285.8425,space,5.1679,,285.8427,296.2458,0.240740741,-0.285185213,1.0,0.0,0.0,4.3405,compass_2,296.246,297.7801,space,1.4557,,297.7802,297.7854,297.8023,304.4924,-0.277777778,0.191666674,1.0,0.0,0.0,0.6043,compass,0.0,0.0,0.0,0.0,1.0,SoundStimuli/GimmeShelter_RollingStones_Original5S.wav,,,,,,,,,,,,,,,,,,,,,,,,,,,,,,,,,,,,,,,,,,,,,,,,,,,,,
,,,,,901377,1,2024-07-12_15h55.30.425,experiment,2024.1.5,Win32,14.12429379,6691931c2c63981b064e1f0c,6691b29af5a9621f77201ba4,,,,,,,,,,,,,,,,,,,,,,,,,,,,,,,,,,,,,,,,,,,,,,,,,,,,,,,,,,,,304.5002,310.9575,-0.160185143,0.259259259,1.0,0.0,0.0,0.4062,compass,0.0,1.0,1.0,27.0,1.0,SoundStimuli/EyeOfTheTiger_Survivor_Cover5S.wav,,,,,,,,,,,,,,,,,,,,,,,,,,,,,,,,,,,,,,,,,,,,,,,,,,,,,
,,,,,901377,1,2024-07-12_15h55.30.425,experiment,2024.1.5,Win32,14.12429379,6691931c2c63981b064e1f0c,6691b29af5a9621f77201ba4,,,,,,,,,,,,,,,,,,,,,,,,,,,,,,,,,,,,,,,,,,,,,,,,,,,,,,,,,,,,310.963,317.3316,0.327777863,0.328703704,1.0,0.0,0.0,0.2893,compass,0.0,2.0,2.0,28.0,1.0,SoundStimuli/IWantToHoldYourHand_TheBeatles_Original5S.wav,,,,,,,,,,,,,,,,,,,,,,,,,,,,,,,,,,,,,,,,,,,,,,,,,,,,,
,,,,,901377,1,2024-07-12_15h55.30.425,experiment,2024.1.5,Win32,14.12429379,6691931c2c63981b064e1f0c,6691b29af5a9621f77201ba4,,,,,,,,,,,,,,,,,,,,,,,,,,,,,,,,,,,,,,,,,,,,,,,,,,,,,,,,,,,,317.3377,323.8088,-0.298148155,0.310185185,1.0,0.0,0.0,0.3982,compass,0.0,3.0,3.0,30.0,1.0,SoundStimuli/SomebodyThatIUsedtoKnow_Gotye_Original5S.wav,,,,,,,,,,,,,,,,,,,,,,,,,,,,,,,,,,,,,,,,,,,,,,,,,,,,,
,,,,,901377,1,2024-07-12_15h55.30.425,experiment,2024.1.5,Win32,14.12429379,6691931c2c63981b064e1f0c,6691b29af5a9621f77201ba4,,,,,,,,,,,,,,,,,,,,,,,,,,,,,,,,,,,,,,,,,,,,,,,,,,,,,,,,,,,,323.8161,332.3312,0.05277782,-0.298148191,1.0,0.0,0.0,2.5144,compass,0.0,4.0,4.0,32.0,1.0,SoundStimuli/Dilemma_NellyKellyRowland_Cover5S.wav,,,,,,,,,,,,,,,,,,,,,,,,,,,,,,,,,,,,,,,,,,,,,,,,,,,,,
,,,,,901377,1,2024-07-12_15h55.30.425,experiment,2024.1.5,Win32,14.12429379,6691931c2c63981b064e1f0c,6691b29af5a9621f77201ba4,,,,,,,,,,,,,,,,,,,,,,,,,,,,,,,,,,,,,,,,,,,,,,,,,,,,,,,,,,,,332.3366,339.0325,-0.202777792,-0.294444473,1.0,0.0,0.0,0.5929,compass,0.0,5.0,5.0,21.0,1.0,SoundStimuli/BridgeOverTroubledWater_SimonAndGarfunkel_Original5S.wav,,,,,,,,,,,,,,,,,,,,,,,,,,,,,,,,,,,,,,,,,,,,,,,,,,,,,
,,,,,901377,1,2024-07-12_15h55.30.425,experiment,2024.1.5,Win32,14.12429379,6691931c2c63981b064e1f0c,6691b29af5a9621f77201ba4,,,,,,,,,,,,,,,,,,,,,,,,,,,,,,,,,,,,,,,,,,,,,,,,,,,,,,,,,,,,339.0395,345.9792,0.275925954,0.307407397,1.0,0.0,0.0,0.9084,compass,0.0,6.0,6.0,11.0,1.0,SoundStimuli/BlurredLines_RobinThicke_Cover5S.wav,,,,,,,,,,,,,,,,,,,,,,,,,,,,,,,,,,,,,,,,,,,,,,,,,,,,,
,,,,,901377,1,2024-07-12_15h55.30.425,experiment,2024.1.5,Win32,14.12429379,6691931c2c63981b064e1f0c,6691b29af5a9621f77201ba4,,,,,,,,,,,,,,,,,,,,,,,,,,,,,,,,,,,,,,,,,,,,,,,,,,,,,,,,,,,,345.9848,352.384,0.325925898,-0.329629616,1.0,0.0,0.0,0.297,compass,0.0,7.0,7.0,25.0,1.0,SoundStimuli/IllMakeLoveToYou_BoyzIIMen_Cover5S.wav,,,,,,,,,,,,,,,,,,,,,,,,,,,,,,,,,,,,,,,,,,,,,,,,,,,,,
,,,,,901377,1,2024-07-12_15h55.30.425,experiment,2024.1.5,Win32,14.12429379,6691931c2c63981b064e1f0c,6691b29af5a9621f77201ba4,,,,,,,,,,,,,,,,,,,,,,,,,,,,,,,,,,,,,,,,,,,,,,,,,,,,,,,,,,,,352.3896,358.9181,0.010185171,-0.167592578,1.0,0.0,0.0,0.5089,compass,0.0,8.0,8.0,24.0,1.0,SoundStimuli/Kiss_Prince_Cover5S.wav,,,,,,,,,,,,,,,,,,,,,,,,,,,,,,,,,,,,,,,,,,,,,,,,,,,,,
,,,,,901377,1,2024-07-12_15h55.30.425,experiment,2024.1.5,Win32,14.12429379,6691931c2c63981b064e1f0c,6691b29af5a9621f77201ba4,,,,,,,,,,,,,,,,,,,,,,,,,,,,,,,,,,,,,,,,,,,,,,,,,,,,,,,,,,,,358.9237,365.5764,0.110185199,0.306481485,1.0,0.0,0.0,0.6259,compass,0.0,9.0,9.0,14.0,1.0,SoundStimuli/LikeARollingStone_BobDylan_Original5S.wav,,,,,,,,,,,,,,,,,,,,,,,,,,,,,,,,,,,,,,,,,,,,,,,,,,,,,
,,,,,901377,1,2024-07-12_15h55.30.425,experiment,2024.1.5,Win32,14.12429379,6691931c2c63981b064e1f0c,6691b29af5a9621f77201ba4,,,,,,,,,,,,,,,,,,,,,,,,,,,,,,,,,,,,,,,,,,,,,,,,,,,,,,,,,,,,365.5826,372.3836,-0.19722218,0.125925912,1.0,0.0,0.0,0.7973,compass,0.0,10.0,10.0,2.0,1.0,SoundStimuli/SmellsLikeTeenSpirit_Nirvana_Original5S.wav,,,,,,,,,,,,,,,,,,,,,,,,,,,,,,,,,,,,,,,,,,,,,,,,,,,,,
,,,,,901377,1,2024-07-12_15h55.30.425,experiment,2024.1.5,Win32,14.12429379,6691931c2c63981b064e1f0c,6691b29af5a9621f77201ba4,,,,,,,,,,,,,,,,,,,,,,,,,,,,,,,,,,,,,,,,,,,,,,,,,,,,,,,,,,,,372.3893,378.934,0.266666695,-0.323148162,1.0,0.0,0.0,0.4915,compass,0.0,11.0,11.0,16.0,1.0,SoundStimuli/ItsAllInTheGame_TommyEdwards_Cover5S.wav,,,,,,,,,,,,,,,,,,,,,,,,,,,,,,,,,,,,,,,,,,,,,,,,,,,,,
,,,,,901377,1,2024-07-12_15h55.30.425,experiment,2024.1.5,Win32,14.12429379,6691931c2c63981b064e1f0c,6691b29af5a9621f77201ba4,,,,,,,,,,,,,,,,,,,,,,,,,,,,,,,,,,,,,,,,,,,,,,,,,,,,,,,,,,,,378.94,385.5557,0.060185185,0.331481474,1.0,0.0,0.0,0.6085,compass,0.0,12.0,12.0,15.0,1.0,SoundStimuli/CrazyInLove_BeyonceFtJayZ_Cover5S.wav,,,,,,,,,,,,,,,,,,,,,,,,,,,,,,,,,,,,,,,,,,,,,,,,,,,,,
,,,,,901377,1,2024-07-12_15h55.30.425,experiment,2024.1.5,Win32,14.12429379,6691931c2c63981b064e1f0c,6691b29af5a9621f77201ba4,,,,,,,,,,,,,,,,,,,,,,,,,,,,,,,,,,,,,,,,,,,,,,,,,,,,,,,,,,,,385.5613,392.0592,0.209259245,-0.305555556,1.0,0.0,0.0,0.4927,compass,0.0,13.0,13.0,23.0,1.0,SoundStimuli/IWalkTheLine_JohnnyCash_Original5S.wav,,,,,,,,,,,,,,,,,,,,,,,,,,,,,,,,,,,,,,,,,,,,,,,,,,,,,
,,,,,901377,1,2024-07-12_15h55.30.425,experiment,2024.1.5,Win32,14.12429379,6691931c2c63981b064e1f0c,6691b29af5a9621f77201ba4,,,,,,,,,,,,,,,,,,,,,,,,,,,,,,,,,,,,,,,,,,,,,,,,,,,,,,,,,,,,392.0652,398.4475,0.337962963,0.347222222,1.0,0.0,0.0,0.3019,compass,0.0,14.0,14.0,1.0,1.0,SoundStimuli/Smooth_SantanaRobThomas_Original5S.wav,,,,,,,,,,,,,,,,,,,,,,,,,,,,,,,,,,,,,,,,,,,,,,,,,,,,,
,,,,,901377,1,2024-07-12_15h55.30.425,experiment,2024.1.5,Win32,14.12429379,6691931c2c63981b064e1f0c,6691b29af5a9621f77201ba4,,,,,,,,,,,,,,,,,,,,,,,,,,,,,,,,,,,,,,,,,,,,,,,,,,,,,,,,,,,,398.4531,407.5645,0.339814787,0.337037034,1.0,0.0,0.0,3.0986,compass,0.0,15.0,15.0,17.0,1.0,SoundStimuli/IWannaDanceWithSomebody_WhitneyHouston_Original5S.wav,,,,,,,,,,,,,,,,,,,,,,,,,,,,,,,,,,,,,,,,,,,,,,,,,,,,,
,,,,,901377,1,2024-07-12_15h55.30.425,experiment,2024.1.5,Win32,14.12429379,6691931c2c63981b064e1f0c,6691b29af5a9621f77201ba4,,,,,,,,,,,,,,,,,,,,,,,,,,,,,,,,,,,,,,,,,,,,,,,,,,,,,,,,,,,,407.5704,415.211,0.162962949,-0.340740769,1.0,0.0,0.0,1.5789,compass,0.0,16.0,16.0,34.0,1.0,SoundStimuli/Irreplaceable_Beyonce_Cover5S.wav,,,,,,,,,,,,,,,,,,,,,,,,,,,,,,,,,,,,,,,,,,,,,,,,,,,,,
,,,,,901377,1,2024-07-12_15h55.30.425,experiment,2024.1.5,Win32,14.12429379,6691931c2c63981b064e1f0c,6691b29af5a9621f77201ba4,,,,,,,,,,,,,,,,,,,,,,,,,,,,,,,,,,,,,,,,,,,,,,,,,,,,,,,,,,,,415.2164,421.6973,0.244444459,0.319444444,1.0,0.0,0.0,0.4015,compass,0.0,17.0,17.0,31.0,1.0,SoundStimuli/TossinAndTurnin_BobbyLewis_Original5S.wav,,,,,,,,,,,,,,,,,,,,,,,,,,,,,,,,,,,,,,,,,,,,,,,,,,,,,
,,,,,901377,1,2024-07-12_15h55.30.425,experiment,2024.1.5,Win32,14.12429379,6691931c2c63981b064e1f0c,6691b29af5a9621f77201ba4,,,,,,,,,,,,,,,,,,,,,,,,,,,,,,,,,,,,,,,,,,,,,,,,,,,,,,,,,,,,421.7045,428.1592,-0.324999986,-0.131481524,1.0,0.0,0.0,0.3908,compass,0.0,18.0,18.0,6.0,1.0,SoundStimuli/SaveYourTears_TheWeekndArianaGrande_Cover5S.wav,,,,,,,,,,,,,,,,,,,,,,,,,,,,,,,,,,,,,,,,,,,,,,,,,,,,,
,,,,,901377,1,2024-07-12_15h55.30.425,experiment,2024.1.5,Win32,14.12429379,6691931c2c63981b064e1f0c,6691b29af5a9621f77201ba4,,,,,,,,,,,,,,,,,,,,,,,,,,,,,,,,,,,,,,,,,,,,,,,,,,,,,,,,,,,,428.1661,434.4518,-0.336111104,0.067592586,1.0,0.0,0.0,0.2037,compass,0.0,19.0,19.0,9.0,1.0,SoundStimuli/HowDoILive_LeAnnRimes_Cover5S.wav,,,,,,,,,,,,,,,,,,,,,,,,,,,,,,,,,,,,,,,,,,,,,,,,,,,,,
,,,,,901377,1,2024-07-12_15h55.30.425,experiment,2024.1.5,Win32,14.12429379,6691931c2c63981b064e1f0c,6691b29af5a9621f77201ba4,,,,,,,,,,,,,,,,,,,,,,,,,,,,,,,,,,,,,,,,,,,,,,,,,,,,,,,,,,,,434.4571,440.8999,-0.332407386,-0.067592586,1.0,0.0,0.0,0.3862,compass,0.0,20.0,20.0,29.0,1.0,SoundStimuli/BetteDavisEyes_KimCarnes_Original5S.wav,,,,,,,,,,,,,,,,,,,,,,,,,,,,,,,,,,,,,,,,,,,,,,,,,,,,,
,,,,,901377,1,2024-07-12_15h55.30.425,experiment,2024.1.5,Win32,14.12429379,6691931c2c63981b064e1f0c,6691b29af5a9621f77201ba4,,,,,,,,,,,,,,,,,,,,,,,,,,,,,,,,,,,,,,,,,,,,,,,,,,,,,,,,,,,,440.9058,447.3201,-0.252777735,-0.185185185,1.0,0.0,0.0,0.406,compass,0.0,21.0,21.0,12.0,1.0,SoundStimuli/UnbreakMyHeart_ToniBraxton_Original5S.wav,,,,,,,,,,,,,,,,,,,,,,,,,,,,,,,,,,,,,,,,,,,,,,,,,,,,,
,,,,,901377,1,2024-07-12_15h55.30.425,experiment,2024.1.5,Win32,14.12429379,6691931c2c63981b064e1f0c,6691b29af5a9621f77201ba4,,,,,,,,,,,,,,,,,,,,,,,,,,,,,,,,,,,,,,,,,,,,,,,,,,,,,,,,,,,,447.3253,453.9388,0.156481496,-0.056481503,1.0,0.0,0.0,0.5908,compass,0.0,22.0,22.0,4.0,1.0,SoundStimuli/Dreams_FleetwoodMac_Original5S.wav,,,,,,,,,,,,,,,,,,,,,,,,,,,,,,,,,,,,,,,,,,,,,,,,,,,,,
,,,,,901377,1,2024-07-12_15h55.30.425,experiment,2024.1.5,Win32,14.12429379,6691931c2c63981b064e1f0c,6691b29af5a9621f77201ba4,,,,,,,,,,,,,,,,,,,,,,,,,,,,,,,,,,,,,,,,,,,,,,,,,,,,,,,,,,,,453.9442,460.2872,0.337962963,0.203703704,1.0,0.0,0.0,0.3125,compass,0.0,23.0,23.0,22.0,1.0,SoundStimuli/Happy_PharellWilliams_Original5S.wav,,,,,,,,,,,,,,,,,,,,,,,,,,,,,,,,,,,,,,,,,,,,,,,,,,,,,
,,,,,901377,1,2024-07-12_15h55.30.425,experiment,2024.1.5,Win32,14.12429379,6691931c2c63981b064e1f0c,6691b29af5a9621f77201ba4,,,,,,,,,,,,,,,,,,,,,,,,,,,,,,,,,,,,,,,,,,,,,,,,,,,,,,,,,,,,460.2925,466.3944,0.026851866,0.337037034,1.0,0.0,0.0,0.1016,compass,0.0,24.0,24.0,10.0,1.0,SoundStimuli/LeFreak_Chic_Cover5S.wav,,,,,,,,,,,,,,,,,,,,,,,,,,,,,,,,,,,,,,,,,,,,,,,,,,,,,
,,,,,901377,1,2024-07-12_15h55.30.425,experiment,2024.1.5,Win32,14.12429379,6691931c2c63981b064e1f0c,6691b29af5a9621f77201ba4,,,,,,,,,,,,,,,,,,,,,,,,,,,,,,,,,,,,,,,,,,,,,,,,,,,,,,,,,,,,466.4004,473.2626,0.266666695,-0.256481524,1.0,0.0,0.0,0.8029,compass,0.0,25.0,25.0,19.0,1.0,SoundStimuli/YouLightUpMyLife_DebbyBoone_Original5S.wav,,,,,,,,,,,,,,,,,,,,,,,,,,,,,,,,,,,,,,,,,,,,,,,,,,,,,
,,,,,901377,1,2024-07-12_15h55.30.425,experiment,2024.1.5,Win32,14.12429379,6691931c2c63981b064e1f0c,6691b29af5a9621f77201ba4,,,,,,,,,,,,,,,,,,,,,,,,,,,,,,,,,,,,,,,,,,,,,,,,,,,,,,,,,,,,473.268,479.714,0.343518575,0.343518522,1.0,0.0,0.0,0.3968,compass,0.0,26.0,26.0,3.0,1.0,SoundStimuli/PartyRockAnthem_LMFAO_Original5S.wav,,,,,,,,,,,,,,,,,,,,,,,,,,,,,,,,,,,,,,,,,,,,,,,,,,,,,
,,,,,901377,1,2024-07-12_15h55.30.425,experiment,2024.1.5,Win32,14.12429379,6691931c2c63981b064e1f0c,6691b29af5a9621f77201ba4,,,,,,,,,,,,,,,,,,,,,,,,,,,,,,,,,,,,,,,,,,,,,,,,,,,,,,,,,,,,479.7202,486.605,0.099074116,-0.250925912,1.0,0.0,0.0,0.8015,compass,0.0,27.0,27.0,8.0,1.0,SoundStimuli/EndlessLove_DianaRossLionelRichie_Cover5S.wav,,,,,,,,,,,,,,,,,,,,,,,,,,,,,,,,,,,,,,,,,,,,,,,,,,,,,
,,,,,901377,1,2024-07-12_15h55.30.425,experiment,2024.1.5,Win32,14.12429379,6691931c2c63981b064e1f0c,6691b29af5a9621f77201ba4,,,,,,,,,,,,,,,,,,,,,,,,,,,,,,,,,,,,,,,,,,,,,,,,,,,,,,,,,,,,486.611,492.9398,0.211111139,0.247222212,1.0,0.0,0.0,0.2936,compass,0.0,28.0,28.0,5.0,1.0,SoundStimuli/JoyToTheWorld_ThreeDogNight_Original5S.wav,,,,,,,,,,,,,,,,,,,,,,,,,,,,,,,,,,,,,,,,,,,,,,,,,,,,,
,,,,,901377,1,2024-07-12_15h55.30.425,experiment,2024.1.5,Win32,14.12429379,6691931c2c63981b064e1f0c,6691b29af5a9621f77201ba4,,,,,,,,,,,,,,,,,,,,,,,,,,,,,,,,,,,,,,,,,,,,,,,,,,,,,,,,,,,,492.9461,499.3384,0.054629644,-0.242592635,1.0,0.0,0.0,0.3916,compass,0.0,29.0,29.0,18.0,1.0,SoundStimuli/Weak_SWV_Cover5S.wav,,,,,,,,,,,,,,,,,,,,,,,,,,,,,,,,,,,,,,,,,,,,,,,,,,,,,
,,,,,901377,1,2024-07-12_15h55.30.425,experiment,2024.1.5,Win32,14.12429379,6691931c2c63981b064e1f0c,6691b29af5a9621f77201ba4,,,,,,,,,,,,,,,,,,,,,,,,,,,,,,,,,,,,,,,,,,,,,,,,,,,,,,,,,,,,499.3439,506.1549,0.12037037,0.289814808,1.0,0.0,0.0,0.7848,compass,0.0,30.0,30.0,26.0,1.0,SoundStimuli/TheSign_AceOfBase_Cover5S.wav,,,,,,,,,,,,,,,,,,,,,,,,,,,,,,,,,,,,,,,,,,,,,,,,,,,,,
,,,,,901377,1,2024-07-12_15h55.30.425,experiment,2024.1.5,Win32,14.12429379,6691931c2c63981b064e1f0c,6691b29af5a9621f77201ba4,,,,,,,,,,,,,,,,,,,,,,,,,,,,,,,,,,,,,,,,,,,,,,,,,,,,,,,,,,,,506.1606,512.6728,-0.188888903,0.130555541,1.0,0.0,0.0,0.4922,compass,0.0,31.0,31.0,33.0,1.0,SoundStimuli/TheBoyIsMine_BrandyMonica_Original5S.wav,,,,,,,,,,,,,,,,,,,,,,,,,,,,,,,,,,,,,,,,,,,,,,,,,,,,,
,,,,,901377,1,2024-07-12_15h55.30.425,experiment,2024.1.5,Win32,14.12429379,6691931c2c63981b064e1f0c,6691b29af5a9621f77201ba4,,,,,,,,,,,,,,,,,,,,,,,,,,,,,,,,,,,,,,,,,,,,,,,,,,,,,,,,,,,,512.6781,519.2536,0.338888945,0.341666663,1.0,0.0,0.0,0.4948,compass,0.0,32.0,32.0,20.0,1.0,SoundStimuli/FlashdanceWhatAFeeling_IreneCara_Original5S.wav,,,,,,,,,,,,,,,,,,,,,,,,,,,,,,,,,,,,,,,,,,,,,,,,,,,,,
,,,,,901377,1,2024-07-12_15h55.30.425,experiment,2024.1.5,Win32,14.12429379,6691931c2c63981b064e1f0c,6691b29af5a9621f77201ba4,,,,,,,,,,,,,,,,,,,,,,,,,,,,,,,,,,,,,,,,,,,,,,,,,,,,,,,,,,,,519.2589,525.6355,-0.246296282,-0.14444443,1.0,0.0,0.0,0.291,compass,0.0,33.0,33.0,7.0,1.0,SoundStimuli/MackTheKnife_BobbyDarin_Cover5S.wav,,,,,,,,,,,,,,,,,,,,,,,,,,,,,,,,,,,,,,,,,,,,,,,,,,,,,
,,,,,901377,1,2024-07-12_15h55.30.425,experiment,2024.1.5,Win32,14.12429379,6691931c2c63981b064e1f0c,6691b29af5a9621f77201ba4,,,,,,,,,,,,,,,,,,,,,,,,,,,,,,,,,,,,,,,,,,,,,,,,,,,,,,,,,,,,525.6411,533.7004,0.319444444,-0.228703746,1.0,0.0,0.0,1.9864,compass,0.0,34.0,34.0,13.0,1.0,SoundStimuli/Perfect_EdSheeran_Cover5S.wav,,,,,,,,,,,,,,,,,,,,,,,,,,,,,,,,,,,,,,,,,,,,,,,,,,,,,
,,,,,901377,1,2024-07-12_15h55.30.425,experiment,2024.1.5,Win32,14.12429379,6691931c2c63981b064e1f0c,6691b29af5a9621f77201ba4,,,,,,,,,,,,,,,,,,,,,,,,,,,,,,,,,,,,,,,,,,,,,,,,,,,,,,,,,,,,,,,,,,,,,,,,,,,533.7011,542.1293,space,8.3365,,542.1293,546.6591,right,4.4401,,0.0,0.0,0.0,0.0,1.0,block_order/blockD.xlsx,,,,,,,,,,,,,,,,,,,,,,,,,,,,,,,,,,,,,
,,,,,901377,1,2024-07-12_15h55.30.425,experiment,2024.1.5,Win32,14.12429379,6691931c2c63981b064e1f0c,6691b29af5a9621f77201ba4,,,,,,,,,,,,,,,,,,,,,,,,,,,,,,,,,,,,,,,,,,,,,,,,,,,,,,,,,,,,546.669,553.1574,-0.315740727,0.175925926,1.0,0.0,0.0,0.4065,compass,0.0,0.0,0.0,7.0,1.0,SoundStimuli/NoOne_AliciaKeys_Original5S.wav,,,,,,,,,,,,,,,,,,,,,,,,,,,,,,,,,,,,,,,,,,,,,,,,,,,,,
,,,,,901377,1,2024-07-12_15h55.30.425,experiment,2024.1.5,Win32,14.12429379,6691931c2c63981b064e1f0c,6691b29af5a9621f77201ba4,,,,,,,,,,,,,,,,,,,,,,,,,,,,,,,,,,,,,,,,,,,,,,,,,,,,,,,,,,,,553.163,559.8596,0.348148205,0.218518522,1.0,0.0,0.0,0.6096,compass,0.0,1.0,1.0,22.0,1.0,SoundStimuli/RockWithYou_MichaelJackson_Cover5S.wav,,,,,,,,,,,,,,,,,,,,,,,,,,,,,,,,,,,,,,,,,,,,,,,,,,,,,
,,,,,901377,1,2024-07-12_15h55.30.425,experiment,2024.1.5,Win32,14.12429379,6691931c2c63981b064e1f0c,6691b29af5a9621f77201ba4,,,,,,,,,,,,,,,,,,,,,,,,,,,,,,,,,,,,,,,,,,,,,,,,,,,,,,,,,,,,559.8671,566.3487,0.346296381,0.349074063,1.0,0.0,0.0,0.4017,compass,0.0,2.0,2.0,6.0,1.0,SoundStimuli/Levitating_DuaLipa_Original5S.wav,,,,,,,,,,,,,,,,,,,,,,,,,,,,,,,,,,,,,,,,,,,,,,,,,,,,,
,,,,,901377,1,2024-07-12_15h55.30.425,experiment,2024.1.5,Win32,14.12429379,6691931c2c63981b064e1f0c,6691b29af5a9621f77201ba4,,,,,,,,,,,,,,,,,,,,,,,,,,,,,,,,,,,,,,,,,,,,,,,,,,,,,,,,,,,,566.3553,572.761,-0.178703661,-0.199999986,1.0,0.0,0.0,0.3095,compass,0.0,3.0,3.0,29.0,1.0,SoundStimuli/OldTownRoad_LilNasX_Cover5S.wav,,,,,,,,,,,,,,,,,,,,,,,,,,,,,,,,,,,,,,,,,,,,,,,,,,,,,
,,,,,901377,1,2024-07-12_15h55.30.425,experiment,2024.1.5,Win32,14.12429379,6691931c2c63981b064e1f0c,6691b29af5a9621f77201ba4,,,,,,,,,,,,,,,,,,,,,,,,,,,,,,,,,,,,,,,,,,,,,,,,,,,,,,,,,,,,572.7683,579.4548,0.312037009,0.237037041,1.0,0.0,0.0,0.6129,compass,0.0,4.0,4.0,1.0,1.0,SoundStimuli/Stronger_KanyeWest_Cover5S.wav,,,,,,,,,,,,,,,,,,,,,,,,,,,,,,,,,,,,,,,,,,,,,,,,,,,,,
,,,,,901377,1,2024-07-12_15h55.30.425,experiment,2024.1.5,Win32,14.12429379,6691931c2c63981b064e1f0c,6691b29af5a9621f77201ba4,,,,,,,,,,,,,,,,,,,,,,,,,,,,,,,,,,,,,,,,,,,,,,,,,,,,,,,,,,,,579.461,586.1211,-0.140740712,0.123148141,1.0,0.0,0.0,0.602,compass,0.0,5.0,5.0,3.0,1.0,SoundStimuli/NoScrubs_TLC_Cover5S.wav,,,,,,,,,,,,,,,,,,,,,,,,,,,,,,,,,,,,,,,,,,,,,,,,,,,,,
,,,,,901377,1,2024-07-12_15h55.30.425,experiment,2024.1.5,Win32,14.12429379,6691931c2c63981b064e1f0c,6691b29af5a9621f77201ba4,,,,,,,,,,,,,,,,,,,,,,,,,,,,,,,,,,,,,,,,,,,,,,,,,,,,,,,,,,,,586.1269,594.0634,-0.037037037,0.194444444,1.0,0.0,0.0,1.9123,compass,0.0,6.0,6.0,28.0,1.0,SoundStimuli/ComeAndGetYourLove_Redbone_Cover5S.wav,,,,,,,,,,,,,,,,,,,,,,,,,,,,,,,,,,,,,,,,,,,,,,,,,,,,,
,,,,,901377,1,2024-07-12_15h55.30.425,experiment,2024.1.5,Win32,14.12429379,6691931c2c63981b064e1f0c,6691b29af5a9621f77201ba4,,,,,,,,,,,,,,,,,,,,,,,,,,,,,,,,,,,,,,,,,,,,,,,,,,,,,,,,,,,,594.0693,600.5185,0.343518575,-0.171296296,1.0,0.0,0.0,0.4032,compass,0.0,7.0,7.0,19.0,1.0,SoundStimuli/LetsGetItOn_MarvinGaye_Original5S.wav,,,,,,,,,,,,,,,,,,,,,,,,,,,,,,,,,,,,,,,,,,,,,,,,,,,,,
,,,,,901377,1,2024-07-12_15h55.30.425,experiment,2024.1.5,Win32,14.12429379,6691931c2c63981b064e1f0c,6691b29af5a9621f77201ba4,,,,,,,,,,,,,,,,,,,,,,,,,,,,,,,,,,,,,,,,,,,,,,,,,,,,,,,,,,,,600.5244,608.5396,0.12037037,0.199074074,1.0,0.0,0.0,1.9448,compass,0.0,8.0,8.0,4.0,1.0,SoundStimuli/GetUrFreakOn_MissyElliot_Cover5S.wav,,,,,,,,,,,,,,,,,,,,,,,,,,,,,,,,,,,,,,,,,,,,,,,,,,,,,
,,,,,901377,1,2024-07-12_15h55.30.425,experiment,2024.1.5,Win32,14.12429379,6691931c2c63981b064e1f0c,6691b29af5a9621f77201ba4,,,,,,,,,,,,,,,,,,,,,,,,,,,,,,,,,,,,,,,,,,,,,,,,,,,,,,,,,,,,608.5451,614.9397,0.33148151,-0.150925954,1.0,0.0,0.0,0.3057,compass,0.0,9.0,9.0,31.0,1.0,SoundStimuli/TheBattleOfNewOrleans_JohnnyHorton_Original5S.wav,,,,,,,,,,,,,,,,,,,,,,,,,,,,,,,,,,,,,,,,,,,,,,,,,,,,,
,,,,,901377,1,2024-07-12_15h55.30.425,experiment,2024.1.5,Win32,14.12429379,6691931c2c63981b064e1f0c,6691b29af5a9621f77201ba4,,,,,,,,,,,,,,,,,,,,,,,,,,,,,,,,,,,,,,,,,,,,,,,,,,,,,,,,,,,,614.946,621.4333,-0.280555513,0.16574072,1.0,0.0,0.0,0.4216,compass,0.0,10.0,10.0,16.0,1.0,SoundStimuli/BohemianRhapsody_Queen_Cover5S.wav,,,,,,,,,,,,,,,,,,,,,,,,,,,,,,,,,,,,,,,,,,,,,,,,,,,,,
,,,,,901377,1,2024-07-12_15h55.30.425,experiment,2024.1.5,Win32,14.12429379,6691931c2c63981b064e1f0c,6691b29af5a9621f77201ba4,,,,,,,,,,,,,,,,,,,,,,,,,,,,,,,,,,,,,,,,,,,,,,,,,,,,,,,,,,,,621.4397,627.8857,0.334259316,-0.209259245,1.0,0.0,0.0,0.4374,compass,0.0,11.0,11.0,27.0,1.0,SoundStimuli/ShapeofYou_EdSheeran_Cover5S.wav,,,,,,,,,,,,,,,,,,,,,,,,,,,,,,,,,,,,,,,,,,,,,,,,,,,,,
,,,,,901377,1,2024-07-12_15h55.30.425,experiment,2024.1.5,Win32,14.12429379,6691931c2c63981b064e1f0c,6691b29af5a9621f77201ba4,,,,,,,,,,,,,,,,,,,,,,,,,,,,,,,,,,,,,,,,,,,,,,,,,,,,,,,,,,,,627.8917,634.7285,0.0,-0.12037037,1.0,0.0,0.0,0.8266,compass,0.0,12.0,12.0,5.0,1.0,SoundStimuli/MyGirl_TheTemptations_Cover5S.wav,,,,,,,,,,,,,,,,,,,,,,,,,,,,,,,,,,,,,,,,,,,,,,,,,,,,,
,,,,,901377,1,2024-07-12_15h55.30.425,experiment,2024.1.5,Win32,14.12429379,6691931c2c63981b064e1f0c,6691b29af5a9621f77201ba4,,,,,,,,,,,,,,,,,,,,,,,,,,,,,,,,,,,,,,,,,,,,,,,,,,,,,,,,,,,,634.7352,641.2741,-0.108333305,0.306481485,1.0,0.0,0.0,0.5065,compass,0.0,13.0,13.0,23.0,1.0,SoundStimuli/StrawberryFieldsForever_TheBeatles_Cover5S.wav,,,,,,,,,,,,,,,,,,,,,,,,,,,,,,,,,,,,,,,,,,,,,,,,,,,,,
,,,,,901377,1,2024-07-12_15h55.30.425,experiment,2024.1.5,Win32,14.12429379,6691931c2c63981b064e1f0c,6691b29af5a9621f77201ba4,,,,,,,,,,,,,,,,,,,,,,,,,,,,,,,,,,,,,,,,,,,,,,,,,,,,,,,,,,,,641.28,648.9862,0.117592635,0.348148152,1.0,0.0,0.0,1.6518,compass,0.0,14.0,14.0,11.0,1.0,SoundStimuli/Superstition_StevieWonder_Original5S.wav,,,,,,,,,,,,,,,,,,,,,,,,,,,,,,,,,,,,,,,,,,,,,,,,,,,,,
,,,,,901377,1,2024-07-12_15h55.30.425,experiment,2024.1.5,Win32,14.12429379,6691931c2c63981b064e1f0c,6691b29af5a9621f77201ba4,,,,,,,,,,,,,,,,,,,,,,,,,,,,,,,,,,,,,,,,,,,,,,,,,,,,,,,,,,,,648.9925,656.0492,0.150925954,-0.219444487,1.0,0.0,0.0,1.0347,compass,0.0,15.0,15.0,12.0,1.0,SoundStimuli/IWillAlwaysLoveYou_WhitneyHouston_Original5S.wav,,,,,,,,,,,,,,,,,,,,,,,,,,,,,,,,,,,,,,,,,,,,,,,,,,,,,
,,,,,901377,1,2024-07-12_15h55.30.425,experiment,2024.1.5,Win32,14.12429379,6691931c2c63981b064e1f0c,6691b29af5a9621f77201ba4,,,,,,,,,,,,,,,,,,,,,,,,,,,,,,,,,,,,,,,,,,,,,,,,,,,,,,,,,,,,656.0556,662.4212,0.226851852,0.333333333,1.0,0.0,0.0,0.3113,compass,0.0,16.0,16.0,26.0,1.0,SoundStimuli/LivinOnAPrayer_BonJovi_Original5S.wav,,,,,,,,,,,,,,,,,,,,,,,,,,,,,,,,,,,,,,,,,,,,,,,,,,,,,
,,,,,901377,1,2024-07-12_15h55.30.425,experiment,2024.1.5,Win32,14.12429379,6691931c2c63981b064e1f0c,6691b29af5a9621f77201ba4,,,,,,,,,,,,,,,,,,,,,,,,,,,,,,,,,,,,,,,,,,,,,,,,,,,,,,,,,,,,662.4273,669.1019,0.00462963,-0.116666653,1.0,0.0,0.0,0.5989,compass,0.0,17.0,17.0,13.0,1.0,SoundStimuli/GodOnlyKnows_TheBeachBoys_Original5S.wav,,,,,,,,,,,,,,,,,,,,,,,,,,,,,,,,,,,,,,,,,,,,,,,,,,,,,
,,,,,901377,1,2024-07-12_15h55.30.425,experiment,2024.1.5,Win32,14.12429379,6691931c2c63981b064e1f0c,6691b29af5a9621f77201ba4,,,,,,,,,,,,,,,,,,,,,,,,,,,,,,,,,,,,,,,,,,,,,,,,,,,,,,,,,,,,669.108,675.5029,0.119444459,0.102777764,1.0,0.0,0.0,0.2959,compass,0.0,18.0,18.0,0.0,1.0,SoundStimuli/StayinAlive_BeeGees_Cover5S.wav,,,,,,,,,,,,,,,,,,,,,,,,,,,,,,,,,,,,,,,,,,,,,,,,,,,,,
,,,,,901377,1,2024-07-12_15h55.30.425,experiment,2024.1.5,Win32,14.12429379,6691931c2c63981b064e1f0c,6691b29af5a9621f77201ba4,,,,,,,,,,,,,,,,,,,,,,,,,,,,,,,,,,,,,,,,,,,,,,,,,,,,,,,,,,,,675.5085,681.9659,-0.255555541,0.277777778,1.0,0.0,0.0,0.4015,compass,0.0,19.0,19.0,25.0,1.0,SoundStimuli/Respect_ArethaFranklin_Cover5S.wav,,,,,,,,,,,,,,,,,,,,,,,,,,,,,,,,,,,,,,,,,,,,,,,,,,,,,
,,,,,901377,1,2024-07-12_15h55.30.425,experiment,2024.1.5,Win32,14.12429379,6691931c2c63981b064e1f0c,6691b29af5a9621f77201ba4,,,,,,,,,,,,,,,,,,,,,,,,,,,,,,,,,,,,,,,,,,,,,,,,,,,,,,,,,,,,681.9712,689.7952,0.103703746,0.290740737,1.0,0.0,0.0,1.7613,compass,0.0,20.0,20.0,32.0,1.0,SoundStimuli/HeatWaves_GlassAnimals_Cover5S.wav,,,,,,,,,,,,,,,,,,,,,,,,,,,,,,,,,,,,,,,,,,,,,,,,,,,,,
,,,,,901377,1,2024-07-12_15h55.30.425,experiment,2024.1.5,Win32,14.12429379,6691931c2c63981b064e1f0c,6691b29af5a9621f77201ba4,,,,,,,,,,,,,,,,,,,,,,,,,,,,,,,,,,,,,,,,,,,,,,,,,,,,,,,,,,,,689.803,696.2941,-0.125,0.097222222,1.0,0.0,0.0,0.4293,compass,0.0,21.0,21.0,9.0,1.0,SoundStimuli/Despacito_LuisFonsiDaddyYankee_Original5S.wav,,,,,,,,,,,,,,,,,,,,,,,,,,,,,,,,,,,,,,,,,,,,,,,,,,,,,
,,,,,901377,1,2024-07-12_15h55.30.425,experiment,2024.1.5,Win32,14.12429379,6691931c2c63981b064e1f0c,6691b29af5a9621f77201ba4,,,,,,,,,,,,,,,,,,,,,,,,,,,,,,,,,,,,,,,,,,,,,,,,,,,,,,,,,,,,696.2999,702.6824,-0.343518504,0.179629608,1.0,0.0,0.0,0.3109,compass,0.0,22.0,22.0,2.0,1.0,SoundStimuli/Mood_24kGoldnianndior_Original5S.wav,,,,,,,,,,,,,,,,,,,,,,,,,,,,,,,,,,,,,,,,,,,,,,,,,,,,,
,,,,,901377,1,2024-07-12_15h55.30.425,experiment,2024.1.5,Win32,14.12429379,6691931c2c63981b064e1f0c,6691b29af5a9621f77201ba4,,,,,,,,,,,,,,,,,,,,,,,,,,,,,,,,,,,,,,,,,,,,,,,,,,,,,,,,,,,,702.6887,709.1796,-0.314814815,-0.130555541,1.0,0.0,0.0,0.4016,compass,0.0,23.0,23.0,18.0,1.0,SoundStimuli/AnotherOneBitesTheDust_Queen_Cover5S.wav,,,,,,,,,,,,,,,,,,,,,,,,,,,,,,,,,,,,,,,,,,,,,,,,,,,,,
,,,,,901377,1,2024-07-12_15h55.30.425,experiment,2024.1.5,Win32,14.12429379,6691931c2c63981b064e1f0c,6691b29af5a9621f77201ba4,,,,,,,,,,,,,,,,,,,,,,,,,,,,,,,,,,,,,,,,,,,,,,,,,,,,,,,,,,,,709.1857,715.9561,-0.284259231,-0.229629658,1.0,0.0,0.0,0.7016,compass,0.0,24.0,24.0,10.0,1.0,SoundStimuli/BadDay_DanielPowter_Original5S.wav,,,,,,,,,,,,,,,,,,,,,,,,,,,,,,,,,,,,,,,,,,,,,,,,,,,,,
,,,,,901377,1,2024-07-12_15h55.30.425,experiment,2024.1.5,Win32,14.12429379,6691931c2c63981b064e1f0c,6691b29af5a9621f77201ba4,,,,,,,,,,,,,,,,,,,,,,,,,,,,,,,,,,,,,,,,,,,,,,,,,,,,,,,,,,,,715.9617,723.0702,0.137962977,0.206481474,1.0,0.0,0.0,1.0114,compass,0.0,25.0,25.0,14.0,1.0,SoundStimuli/BlindingLights_TheWeeknd_Cover5S.wav,,,,,,,,,,,,,,,,,,,,,,,,,,,,,,,,,,,,,,,,,,,,,,,,,,,,,
,,,,,901377,1,2024-07-12_15h55.30.425,experiment,2024.1.5,Win32,14.12429379,6691931c2c63981b064e1f0c,6691b29af5a9621f77201ba4,,,,,,,,,,,,,,,,,,,,,,,,,,,,,,,,,,,,,,,,,,,,,,,,,,,,,,,,,,,,723.0758,730.8241,0.27870369,0.272222219,1.0,0.0,0.0,1.6678,compass,0.0,26.0,26.0,21.0,1.0,SoundStimuli/GoodGollyMissMolly_LittleRichard_Original5S.wav,,,,,,,,,,,,,,,,,,,,,,,,,,,,,,,,,,,,,,,,,,,,,,,,,,,,,
,,,,,901377,1,2024-07-12_15h55.30.425,experiment,2024.1.5,Win32,14.12429379,6691931c2c63981b064e1f0c,6691b29af5a9621f77201ba4,,,,,,,,,,,,,,,,,,,,,,,,,,,,,,,,,,,,,,,,,,,,,,,,,,,,,,,,,,,,730.8308,737.3533,0.157407407,0.236111111,1.0,0.0,0.0,0.5095,compass,0.0,27.0,27.0,20.0,1.0,SoundStimuli/HeyYa_Outkast_Original5S.wav,,,,,,,,,,,,,,,,,,,,,,,,,,,,,,,,,,,,,,,,,,,,,,,,,,,,,
,,,,,901377,1,2024-07-12_15h55.30.425,experiment,2024.1.5,Win32,14.12429379,6691931c2c63981b064e1f0c,6691b29af5a9621f77201ba4,,,,,,,,,,,,,,,,,,,,,,,,,,,,,,,,,,,,,,,,,,,,,,,,,,,,,,,,,,,,737.3595,743.9462,0.341666751,0.339814804,1.0,0.0,0.0,0.5029,compass,0.0,28.0,28.0,15.0,1.0,SoundStimuli/TikTok_Kesha_Original5S.wav,,,,,,,,,,,,,,,,,,,,,,,,,,,,,,,,,,,,,,,,,,,,,,,,,,,,,
,,,,,901377,1,2024-07-12_15h55.30.425,experiment,2024.1.5,Win32,14.12429379,6691931c2c63981b064e1f0c,6691b29af5a9621f77201ba4,,,,,,,,,,,,,,,,,,,,,,,,,,,,,,,,,,,,,,,,,,,,,,,,,,,,,,,,,,,,743.9526,750.6816,0.334259316,0.338888892,1.0,0.0,0.0,0.6327,compass,0.0,29.0,29.0,8.0,1.0,SoundStimuli/LikeAPrayer_Madonna_Cover5S.wav,,,,,,,,,,,,,,,,,,,,,,,,,,,,,,,,,,,,,,,,,,,,,,,,,,,,,
,,,,,901377,1,2024-07-12_15h55.30.425,experiment,2024.1.5,Win32,14.12429379,6691931c2c63981b064e1f0c,6691b29af5a9621f77201ba4,,,,,,,,,,,,,,,,,,,,,,,,,,,,,,,,,,,,,,,,,,,,,,,,,,,,,,,,,,,,750.6874,757.0426,-0.137036995,-0.112037023,1.0,0.0,0.0,0.3039,compass,0.0,30.0,30.0,33.0,1.0,SoundStimuli/StandByMe_BenEKing_Original5S.wav,,,,,,,,,,,,,,,,,,,,,,,,,,,,,,,,,,,,,,,,,,,,,,,,,,,,,
,,,,,901377,1,2024-07-12_15h55.30.425,experiment,2024.1.5,Win32,14.12429379,6691931c2c63981b064e1f0c,6691b29af5a9621f77201ba4,,,,,,,,,,,,,,,,,,,,,,,,,,,,,,,,,,,,,,,,,,,,,,,,,,,,,,,,,,,,757.0492,764.34,0.227777764,0.118518511,1.0,0.0,0.0,1.2059,compass,0.0,31.0,31.0,24.0,1.0,SoundStimuli/UptownFunk_MarkRonson_Cover5S.wav,,,,,,,,,,,,,,,,,,,,,,,,,,,,,,,,,,,,,,,,,,,,,,,,,,,,,
,,,,,901377,1,2024-07-12_15h55.30.425,experiment,2024.1.5,Win32,14.12429379,6691931c2c63981b064e1f0c,6691b29af5a9621f77201ba4,,,,,,,,,,,,,,,,,,,,,,,,,,,,,,,,,,,,,,,,,,,,,,,,,,,,,,,,,,,,764.3459,770.8194,0.26944443,-0.227777764,1.0,0.0,0.0,0.4088,compass,0.0,32.0,32.0,17.0,1.0,SoundStimuli/Fallin_AliciaKeys_Cover5S.wav,,,,,,,,,,,,,,,,,,,,,,,,,,,,,,,,,,,,,,,,,,,,,,,,,,,,,
,,,,,901377,1,2024-07-12_15h55.30.425,experiment,2024.1.5,Win32,14.12429379,6691931c2c63981b064e1f0c,6691b29af5a9621f77201ba4,,,,,,,,,,,,,,,,,,,,,,,,,,,,,,,,,,,,,,,,,,,,,,,,,,,,,,,,,,,,770.825,777.5585,-0.243518476,-0.157407407,1.0,0.0,0.0,0.7244,compass,0.0,33.0,33.0,34.0,1.0,SoundStimuli/AChangeIsGonnaCome_SamCooke_Original5S.wav,,,,,,,,,,,,,,,,,,,,,,,,,,,,,,,,,,,,,,,,,,,,,,,,,,,,,
,,,,,901377,1,2024-07-12_15h55.30.425,experiment,2024.1.5,Win32,14.12429379,6691931c2c63981b064e1f0c,6691b29af5a9621f77201ba4,,,,,,,,,,,,,,,,,,,,,,,,,,,,,,,,,,,,,,,,,,,,,,,,,,,,,,,,,,,,777.5644,784.0182,0.07222225,0.232407411,1.0,0.0,0.0,0.3999,compass,0.0,34.0,34.0,30.0,1.0,SoundStimuli/PokerFace_LadyGaga_Cover5S.wav,,,,,,,,,,,,,,,,,,,,,,,,,,,,,,,,,,,,,,,,,,,,,,,,,,,,,
,,,,,901377,1,2024-07-12_15h55.30.425,experiment,2024.1.5,Win32,14.12429379,6691931c2c63981b064e1f0c,6691b29af5a9621f77201ba4,,,,,,,,,,,,,,,,,,,,,,,,,,,,,,,,,,,,,,,,,,,,,,,,,,,,,,,,,,,,,,,,,,,,,,,,,,,784.0184,785.369,space,1.2732,,785.3691,789.0744,right,3.6156,9.99999e-05,0.0,1.0,1.0,1.0,1.0,block_order/blockC.xlsx,,,,,,,,,,,,,,,,,,,,,,,,,,,,,,,,,,,,,
,,,,,901377,1,2024-07-12_15h55.30.425,experiment,2024.1.5,Win32,14.12429379,6691931c2c63981b064e1f0c,6691b29af5a9621f77201ba4,,,,,,,,,,,,,,,,,,,,,,,,,,,,,,,,,,,,,,,,,,,,,,,,,,,,,,,,,,,,789.0837,795.6388,0.299074102,-0.168518561,1.0,0.0,0.0,0.5059,compass,0.0,0.0,0.0,19.0,1.0,SoundStimuli/YouLightUpMyLife_DebbyBoone_Cover5S.wav,,,,,,,,,,,,,,,,,,,,,,,,,,,,,,,,,,,,,,,,,,,,,,,,,,,,,
,,,,,901377,1,2024-07-12_15h55.30.425,experiment,2024.1.5,Win32,14.12429379,6691931c2c63981b064e1f0c,6691b29af5a9621f77201ba4,,,,,,,,,,,,,,,,,,,,,,,,,,,,,,,,,,,,,,,,,,,,,,,,,,,,,,,,,,,,795.6443,803.0357,0.341666751,-0.079629651,1.0,0.0,0.0,1.315,compass,0.0,1.0,1.0,3.0,1.0,SoundStimuli/PartyRockAnthem_LMFAO_Cover5S.wav,,,,,,,,,,,,,,,,,,,,,,,,,,,,,,,,,,,,,,,,,,,,,,,,,,,,,
,,,,,901377,1,2024-07-12_15h55.30.425,experiment,2024.1.5,Win32,14.12429379,6691931c2c63981b064e1f0c,6691b29af5a9621f77201ba4,,,,,,,,,,,,,,,,,,,,,,,,,,,,,,,,,,,,,,,,,,,,,,,,,,,,,,,,,,,,803.0413,809.5452,-0.282407407,-0.10555557,1.0,0.0,0.0,0.4188,compass,0.0,2.0,2.0,30.0,1.0,SoundStimuli/SomebodyThatIUsedtoKnow_Gotye_Cover5S.wav,,,,,,,,,,,,,,,,,,,,,,,,,,,,,,,,,,,,,,,,,,,,,,,,,,,,,
,,,,,901377,1,2024-07-12_15h55.30.425,experiment,2024.1.5,Win32,14.12429379,6691931c2c63981b064e1f0c,6691b29af5a9621f77201ba4,,,,,,,,,,,,,,,,,,,,,,,,,,,,,,,,,,,,,,,,,,,,,,,,,,,,,,,,,,,,809.5525,816.6695,0.33148151,-0.034259266,1.0,0.0,0.0,1.0271,compass,0.0,3.0,3.0,1.0,1.0,SoundStimuli/Smooth_SantanaRobThomas_Cover5S.wav,,,,,,,,,,,,,,,,,,,,,,,,,,,,,,,,,,,,,,,,,,,,,,,,,,,,,
,,,,,901377,1,2024-07-12_15h55.30.425,experiment,2024.1.5,Win32,14.12429379,6691931c2c63981b064e1f0c,6691b29af5a9621f77201ba4,,,,,,,,,,,,,,,,,,,,,,,,,,,,,,,,,,,,,,,,,,,,,,,,,,,,,,,,,,,,816.6754,823.144,-0.308333326,0.099074081,1.0,0.0,0.0,0.4362,compass,0.0,4.0,4.0,0.0,1.0,SoundStimuli/GimmeShelter_RollingStones_Cover5S.wav,,,,,,,,,,,,,,,,,,,,,,,,,,,,,,,,,,,,,,,,,,,,,,,,,,,,,
,,,,,901377,1,2024-07-12_15h55.30.425,experiment,2024.1.5,Win32,14.12429379,6691931c2c63981b064e1f0c,6691b29af5a9621f77201ba4,,,,,,,,,,,,,,,,,,,,,,,,,,,,,,,,,,,,,,,,,,,,,,,,,,,,,,,,,,,,823.1498,829.6447,-0.304629608,-0.057407414,1.0,0.0,0.0,0.4067,compass,0.0,5.0,5.0,6.0,1.0,SoundStimuli/SaveYourTears_TheWeekndArianaGrande_Original5S.wav,,,,,,,,,,,,,,,,,,,,,,,,,,,,,,,,,,,,,,,,,,,,,,,,,,,,,
,,,,,901377,1,2024-07-12_15h55.30.425,experiment,2024.1.5,Win32,14.12429379,6691931c2c63981b064e1f0c,6691b29af5a9621f77201ba4,,,,,,,,,,,,,,,,,,,,,,,,,,,,,,,,,,,,,,,,,,,,,,,,,,,,,,,,,,,,829.6507,836.4831,0.260185171,-0.137037065,1.0,0.0,0.0,0.8177,compass,0.0,6.0,6.0,23.0,1.0,SoundStimuli/IWalkTheLine_JohnnyCash_Cover5S.wav,,,,,,,,,,,,,,,,,,,,,,,,,,,,,,,,,,,,,,,,,,,,,,,,,,,,,
,,,,,901377,1,2024-07-12_15h55.30.425,experiment,2024.1.5,Win32,14.12429379,6691931c2c63981b064e1f0c,6691b29af5a9621f77201ba4,,,,,,,,,,,,,,,,,,,,,,,,,,,,,,,,,,,,,,,,,,,,,,,,,,,,,,,,,,,,836.4893,843.0091,0.330555527,-0.154629672,1.0,0.0,0.0,0.5184,compass,0.0,7.0,7.0,14.0,1.0,SoundStimuli/LikeARollingStone_BobDylan_Cover5S.wav,,,,,,,,,,,,,,,,,,,,,,,,,,,,,,,,,,,,,,,,,,,,,,,,,,,,,
,,,,,901377,1,2024-07-12_15h55.30.425,experiment,2024.1.5,Win32,14.12429379,6691931c2c63981b064e1f0c,6691b29af5a9621f77201ba4,,,,,,,,,,,,,,,,,,,,,,,,,,,,,,,,,,,,,,,,,,,,,,,,,,,,,,,,,,,,843.0145,849.532,0.337962963,-0.241666653,1.0,0.0,0.0,0.5089,compass,0.0,8.0,8.0,25.0,1.0,SoundStimuli/IllMakeLoveToYou_BoyzIIMen_Original5S.wav,,,,,,,,,,,,,,,,,,,,,,,,,,,,,,,,,,,,,,,,,,,,,,,,,,,,,
,,,,,901377,1,2024-07-12_15h55.30.425,experiment,2024.1.5,Win32,14.12429379,6691931c2c63981b064e1f0c,6691b29af5a9621f77201ba4,,,,,,,,,,,,,,,,,,,,,,,,,,,,,,,,,,,,,,,,,,,,,,,,,,,,,,,,,,,,849.538,856.9387,0.124074088,-0.190740727,1.0,0.0,0.0,1.3301,compass,0.0,9.0,9.0,4.0,1.0,SoundStimuli/Dreams_FleetwoodMac_Cover5S.wav,,,,,,,,,,,,,,,,,,,,,,,,,,,,,,,,,,,,,,,,,,,,,,,,,,,,,
,,,,,901377,1,2024-07-12_15h55.30.425,experiment,2024.1.5,Win32,14.12429379,6691931c2c63981b064e1f0c,6691b29af5a9621f77201ba4,,,,,,,,,,,,,,,,,,,,,,,,,,,,,,,,,,,,,,,,,,,,,,,,,,,,,,,,,,,,856.9459,863.9138,0.280555584,0.158333319,1.0,0.0,0.0,0.9071,compass,0.0,10.0,10.0,5.0,1.0,SoundStimuli/JoyToTheWorld_ThreeDogNight_Cover5S.wav,,,,,,,,,,,,,,,,,,,,,,,,,,,,,,,,,,,,,,,,,,,,,,,,,,,,,
,,,,,901377,1,2024-07-12_15h55.30.425,experiment,2024.1.5,Win32,14.12429379,6691931c2c63981b064e1f0c,6691b29af5a9621f77201ba4,,,,,,,,,,,,,,,,,,,,,,,,,,,,,,,,,,,,,,,,,,,,,,,,,,,,,,,,,,,,863.9202,870.4512,0.332407492,0.058333326,1.0,0.0,0.0,0.5054,compass,0.0,11.0,11.0,26.0,1.0,SoundStimuli/TheSign_AceOfBase_Original5S.wav,,,,,,,,,,,,,,,,,,,,,,,,,,,,,,,,,,,,,,,,,,,,,,,,,,,,,
,,,,,901377,1,2024-07-12_15h55.30.425,experiment,2024.1.5,Win32,14.12429379,6691931c2c63981b064e1f0c,6691b29af5a9621f77201ba4,,,,,,,,,,,,,,,,,,,,,,,,,,,,,,,,,,,,,,,,,,,,,,,,,,,,,,,,,,,,870.4571,877.0795,0.341666751,-0.295370384,1.0,0.0,0.0,0.6045,compass,0.0,12.0,12.0,17.0,1.0,SoundStimuli/IWannaDanceWithSomebody_WhitneyHouston_Cover5S.wav,,,,,,,,,,,,,,,,,,,,,,,,,,,,,,,,,,,,,,,,,,,,,,,,,,,,,
,,,,,901377,1,2024-07-12_15h55.30.425,experiment,2024.1.5,Win32,14.12429379,6691931c2c63981b064e1f0c,6691b29af5a9621f77201ba4,,,,,,,,,,,,,,,,,,,,,,,,,,,,,,,,,,,,,,,,,,,,,,,,,,,,,,,,,,,,877.0851,883.8394,0.210185228,0.094444452,1.0,0.0,0.0,0.6969,compass,0.0,13.0,13.0,11.0,1.0,SoundStimuli/BlurredLines_RobinThicke_Original5S.wav,,,,,,,,,,,,,,,,,,,,,,,,,,,,,,,,,,,,,,,,,,,,,,,,,,,,,
,,,,,901377,1,2024-07-12_15h55.30.425,experiment,2024.1.5,Win32,14.12429379,6691931c2c63981b064e1f0c,6691b29af5a9621f77201ba4,,,,,,,,,,,,,,,,,,,,,,,,,,,,,,,,,,,,,,,,,,,,,,,,,,,,,,,,,,,,883.8456,890.3816,0.22592594,-0.237963005,1.0,0.0,0.0,0.5117,compass,0.0,14.0,14.0,16.0,1.0,SoundStimuli/ItsAllInTheGame_TommyEdwards_Original5S.wav,,,,,,,,,,,,,,,,,,,,,,,,,,,,,,,,,,,,,,,,,,,,,,,,,,,,,
,,,,,901377,1,2024-07-12_15h55.30.425,experiment,2024.1.5,Win32,14.12429379,6691931c2c63981b064e1f0c,6691b29af5a9621f77201ba4,,,,,,,,,,,,,,,,,,,,,,,,,,,,,,,,,,,,,,,,,,,,,,,,,,,,,,,,,,,,890.3895,896.8549,0.314814815,0.315740744,1.0,0.0,0.0,0.3981,compass,0.0,15.0,15.0,10.0,1.0,SoundStimuli/LeFreak_Chic_Original5S.wav,,,,,,,,,,,,,,,,,,,,,,,,,,,,,,,,,,,,,,,,,,,,,,,,,,,,,
,,,,,901377,1,2024-07-12_15h55.30.425,experiment,2024.1.5,Win32,14.12429379,6691931c2c63981b064e1f0c,6691b29af5a9621f77201ba4,,,,,,,,,,,,,,,,,,,,,,,,,,,,,,,,,,,,,,,,,,,,,,,,,,,,,,,,,,,,896.8607,903.4279,-0.112037023,0.076851845,1.0,0.0,0.0,0.5078,compass,0.0,16.0,16.0,31.0,1.0,SoundStimuli/TossinAndTurnin_BobbyLewis_Cover5S.wav,,,,,,,,,,,,,,,,,,,,,,,,,,,,,,,,,,,,,,,,,,,,,,,,,,,,,
,,,,,901377,1,2024-07-12_15h55.30.425,experiment,2024.1.5,Win32,14.12429379,6691931c2c63981b064e1f0c,6691b29af5a9621f77201ba4,,,,,,,,,,,,,,,,,,,,,,,,,,,,,,,,,,,,,,,,,,,,,,,,,,,,,,,,,,,,903.4337,910.2304,0.291666667,-0.266666695,1.0,0.0,0.0,0.7039,compass,0.0,17.0,17.0,32.0,1.0,SoundStimuli/Dilemma_NellyKellyRowland_Original5S.wav,,,,,,,,,,,,,,,,,,,,,,,,,,,,,,,,,,,,,,,,,,,,,,,,,,,,,
,,,,,901377,1,2024-07-12_15h55.30.425,experiment,2024.1.5,Win32,14.12429379,6691931c2c63981b064e1f0c,6691b29af5a9621f77201ba4,,,,,,,,,,,,,,,,,,,,,,,,,,,,,,,,,,,,,,,,,,,,,,,,,,,,,,,,,,,,910.2359,917.4973,-0.273148148,-0.242592635,1.0,0.0,0.0,1.1984,compass,0.0,18.0,18.0,9.0,1.0,SoundStimuli/HowDoILive_LeAnnRimes_Original5S.wav,,,,,,,,,,,,,,,,,,,,,,,,,,,,,,,,,,,,,,,,,,,,,,,,,,,,,
,,,,,901377,1,2024-07-12_15h55.30.425,experiment,2024.1.5,Win32,14.12429379,6691931c2c63981b064e1f0c,6691b29af5a9621f77201ba4,,,,,,,,,,,,,,,,,,,,,,,,,,,,,,,,,,,,,,,,,,,,,,,,,,,,,,,,,,,,917.5048,923.9282,-0.325925933,-0.044444437,1.0,0.0,0.0,0.3986,compass,0.0,19.0,19.0,12.0,1.0,SoundStimuli/UnbreakMyHeart_ToniBraxton_Cover5S.wav,,,,,,,,,,,,,,,,,,,,,,,,,,,,,,,,,,,,,,,,,,,,,,,,,,,,,
,,,,,901377,1,2024-07-12_15h55.30.425,experiment,2024.1.5,Win32,14.12429379,6691931c2c63981b064e1f0c,6691b29af5a9621f77201ba4,,,,,,,,,,,,,,,,,,,,,,,,,,,,,,,,,,,,,,,,,,,,,,,,,,,,,,,,,,,,923.9342,930.6703,0.051851838,-0.298148191,1.0,0.0,0.0,0.7098,compass,0.0,20.0,20.0,21.0,1.0,SoundStimuli/BridgeOverTroubledWater_SimonAndGarfunkel_Cover5S.wav,,,,,,,,,,,,,,,,,,,,,,,,,,,,,,,,,,,,,,,,,,,,,,,,,,,,,
,,,,,901377,1,2024-07-12_15h55.30.425,experiment,2024.1.5,Win32,14.12429379,6691931c2c63981b064e1f0c,6691b29af5a9621f77201ba4,,,,,,,,,,,,,,,,,,,,,,,,,,,,,,,,,,,,,,,,,,,,,,,,,,,,,,,,,,,,930.6757,937.248,0.012037065,-0.289814843,1.0,0.0,0.0,0.5099,compass,0.0,21.0,21.0,29.0,1.0,SoundStimuli/BetteDavisEyes_KimCarnes_Cover5S.wav,,,,,,,,,,,,,,,,,,,,,,,,,,,,,,,,,,,,,,,,,,,,,,,,,,,,,
,,,,,901377,1,2024-07-12_15h55.30.425,experiment,2024.1.5,Win32,14.12429379,6691931c2c63981b064e1f0c,6691b29af5a9621f77201ba4,,,,,,,,,,,,,,,,,,,,,,,,,,,,,,,,,,,,,,,,,,,,,,,,,,,,,,,,,,,,937.2554,944.1108,0.336111139,-0.112963005,1.0,0.0,0.0,0.8188,compass,0.0,22.0,22.0,27.0,1.0,SoundStimuli/EyeOfTheTiger_Survivor_Original5S.wav,,,,,,,,,,,,,,,,,,,,,,,,,,,,,,,,,,,,,,,,,,,,,,,,,,,,,
,,,,,901377,1,2024-07-12_15h55.30.425,experiment,2024.1.5,Win32,14.12429379,6691931c2c63981b064e1f0c,6691b29af5a9621f77201ba4,,,,,,,,,,,,,,,,,,,,,,,,,,,,,,,,,,,,,,,,,,,,,,,,,,,,,,,,,,,,944.1171,951.6177,0.039814843,-0.104629658,1.0,0.0,0.0,1.4154,compass,0.0,23.0,23.0,7.0,1.0,SoundStimuli/MackTheKnife_BobbyDarin_Original5S.wav,,,,,,,,,,,,,,,,,,,,,,,,,,,,,,,,,,,,,,,,,,,,,,,,,,,,,
,,,,,901377,1,2024-07-12_15h55.30.425,experiment,2024.1.5,Win32,14.12429379,6691931c2c63981b064e1f0c,6691b29af5a9621f77201ba4,,,,,,,,,,,,,,,,,,,,,,,,,,,,,,,,,,,,,,,,,,,,,,,,,,,,,,,,,,,,951.6235,958.3787,0.332407492,0.114814794,1.0,0.0,0.0,0.7253,compass,0.0,24.0,24.0,20.0,1.0,SoundStimuli/FlashdanceWhatAFeeling_IreneCara_Cover5S.wav,,,,,,,,,,,,,,,,,,,,,,,,,,,,,,,,,,,,,,,,,,,,,,,,,,,,,
,,,,,901377,1,2024-07-12_15h55.30.425,experiment,2024.1.5,Win32,14.12429379,6691931c2c63981b064e1f0c,6691b29af5a9621f77201ba4,,,,,,,,,,,,,,,,,,,,,,,,,,,,,,,,,,,,,,,,,,,,,,,,,,,,,,,,,,,,958.3855,964.9034,0.332407492,-0.329629616,1.0,0.0,0.0,0.4987,compass,0.0,25.0,25.0,28.0,1.0,SoundStimuli/IWantToHoldYourHand_TheBeatles_Cover5S.wav,,,,,,,,,,,,,,,,,,,,,,,,,,,,,,,,,,,,,,,,,,,,,,,,,,,,,
,,,,,901377,1,2024-07-12_15h55.30.425,experiment,2024.1.5,Win32,14.12429379,6691931c2c63981b064e1f0c,6691b29af5a9621f77201ba4,,,,,,,,,,,,,,,,,,,,,,,,,,,,,,,,,,,,,,,,,,,,,,,,,,,,,,,,,,,,964.9111,971.2946,-0.318518497,0.057407414,1.0,0.0,0.0,0.3048,compass,0.0,26.0,26.0,2.0,1.0,SoundStimuli/SmellsLikeTeenSpirit_Nirvana_Cover5S.wav,,,,,,,,,,,,,,,,,,,,,,,,,,,,,,,,,,,,,,,,,,,,,,,,,,,,,
,,,,,901377,1,2024-07-12_15h55.30.425,experiment,2024.1.5,Win32,14.12429379,6691931c2c63981b064e1f0c,6691b29af5a9621f77201ba4,,,,,,,,,,,,,,,,,,,,,,,,,,,,,,,,,,,,,,,,,,,,,,,,,,,,,,,,,,,,971.3006,977.81,-0.17314812,-0.049074067,1.0,0.0,0.0,0.4944,compass,0.0,27.0,27.0,34.0,1.0,SoundStimuli/Irreplaceable_Beyonce_Original5S.wav,,,,,,,,,,,,,,,,,,,,,,,,,,,,,,,,,,,,,,,,,,,,,,,,,,,,,
,,,,,901377,1,2024-07-12_15h55.30.425,experiment,2024.1.5,Win32,14.12429379,6691931c2c63981b064e1f0c,6691b29af5a9621f77201ba4,,,,,,,,,,,,,,,,,,,,,,,,,,,,,,,,,,,,,,,,,,,,,,,,,,,,,,,,,,,,977.8161,984.2549,0.337962963,-0.320370356,1.0,0.0,0.0,0.4033,compass,0.0,28.0,28.0,13.0,1.0,SoundStimuli/Perfect_EdSheeran_Original5S.wav,,,,,,,,,,,,,,,,,,,,,,,,,,,,,,,,,,,,,,,,,,,,,,,,,,,,,
,,,,,901377,1,2024-07-12_15h55.30.425,experiment,2024.1.5,Win32,14.12429379,6691931c2c63981b064e1f0c,6691b29af5a9621f77201ba4,,,,,,,,,,,,,,,,,,,,,,,,,,,,,,,,,,,,,,,,,,,,,,,,,,,,,,,,,,,,984.2607,990.8132,-0.295370384,-0.12037037,1.0,0.0,0.0,0.4998,compass,0.0,29.0,29.0,33.0,1.0,SoundStimuli/TheBoyIsMine_BrandyMonica_Cover5S.wav,,,,,,,,,,,,,,,,,,,,,,,,,,,,,,,,,,,,,,,,,,,,,,,,,,,,,
,,,,,901377,1,2024-07-12_15h55.30.425,experiment,2024.1.5,Win32,14.12429379,6691931c2c63981b064e1f0c,6691b29af5a9621f77201ba4,,,,,,,,,,,,,,,,,,,,,,,,,,,,,,,,,,,,,,,,,,,,,,,,,,,,,,,,,,,,990.8188,997.8379,-0.080555527,-0.130555541,1.0,0.0,0.0,0.9925,compass,0.0,30.0,30.0,8.0,1.0,SoundStimuli/EndlessLove_DianaRossLionelRichie_Original5S.wav,,,,,,,,,,,,,,,,,,,,,,,,,,,,,,,,,,,,,,,,,,,,,,,,,,,,,
,,,,,901377,1,2024-07-12_15h55.30.425,experiment,2024.1.5,Win32,14.12429379,6691931c2c63981b064e1f0c,6691b29af5a9621f77201ba4,,,,,,,,,,,,,,,,,,,,,,,,,,,,,,,,,,,,,,,,,,,,,,,,,,,,,,,,,,,,997.8436,1004.2537,0.339814787,-0.087962963,1.0,0.0,0.0,0.3079,compass,0.0,31.0,31.0,22.0,1.0,SoundStimuli/Happy_PharellWilliams_Cover5S.wav,,,,,,,,,,,,,,,,,,,,,,,,,,,,,,,,,,,,,,,,,,,,,,,,,,,,,
,,,,,901377,1,2024-07-12_15h55.30.425,experiment,2024.1.5,Win32,14.12429379,6691931c2c63981b064e1f0c,6691b29af5a9621f77201ba4,,,,,,,,,,,,,,,,,,,,,,,,,,,,,,,,,,,,,,,,,,,,,,,,,,,,,,,,,,,,1004.2601,1011.2325,0.011111153,-0.191666709,1.0,0.0,0.0,0.9096,compass,0.0,32.0,32.0,18.0,1.0,SoundStimuli/Weak_SWV_Original5S.wav,,,,,,,,,,,,,,,,,,,,,,,,,,,,,,,,,,,,,,,,,,,,,,,,,,,,,
,,,,,901377,1,2024-07-12_15h55.30.425,experiment,2024.1.5,Win32,14.12429379,6691931c2c63981b064e1f0c,6691b29af5a9621f77201ba4,,,,,,,,,,,,,,,,,,,,,,,,,,,,,,,,,,,,,,,,,,,,,,,,,,,,,,,,,,,,1011.2395,1017.8038,0.223148134,0.070370356,1.0,0.0,0.0,0.4971,compass,0.0,33.0,33.0,24.0,1.0,SoundStimuli/Kiss_Prince_Original5S.wav,,,,,,,,,,,,,,,,,,,,,,,,,,,,,,,,,,,,,,,,,,,,,,,,,,,,,
,,,,,901377,1,2024-07-12_15h55.30.425,experiment,2024.1.5,Win32,14.12429379,6691931c2c63981b064e1f0c,6691b29af5a9621f77201ba4,,,,,,,,,,,,,,,,,,,,,,,,,,,,,,,,,,,,,,,,,,,,,,,,,,,,,,,,,,,,1017.8093,1024.292,0.143518519,0.344444434,1.0,0.0,0.0,0.407,compass,0.0,34.0,34.0,15.0,1.0,SoundStimuli/CrazyInLove_BeyonceFtJayZ_Original5S.wav,,,,,,,,,,,,,,,,,,,,,,,,,,,,,,,,,,,,,,,,,,,,,,,,,,,,,
,,,,,901377,1,2024-07-12_15h55.30.425,experiment,2024.1.5,Win32,14.12429379,6691931c2c63981b064e1f0c,6691b29af5a9621f77201ba4,,,,,,,,,,,,,,,,,,,,,,,,,,,,,,,,,,,,,,,,,,,,,,,,,,,,,,,,,,,,,,,,,,,,,,,,,,,1024.2922,1025.7014,space,1.3302,,1025.7015,1026.4871,right,0.7024,9.99999e-05,0.0,2.0,2.0,2.0,1.0,block_order/blockB.xlsx,,,,,,,,,,,,,,,,,,,,,,,,,,,,,,,,,,,,,
,,,,,901377,1,2024-07-12_15h55.30.425,experiment,2024.1.5,Win32,14.12429379,6691931c2c63981b064e1f0c,6691b29af5a9621f77201ba4,,,,,,,,,,,,,,,,,,,,,,,,,,,,,,,,,,,,,,,,,,,,,,,,,,,,,,,,,,,,1026.499,1032.9334,-0.29351849,-0.031481496,1.0,0.0,0.0,0.4184,compass,0.0,0.0,0.0,3.0,1.0,SoundStimuli/NoScrubs_TLC_Original5S.wav,,,,,,,,,,,,,,,,,,,,,,,,,,,,,,,,,,,,,,,,,,,,,,,,,,,,,
,,,,,901377,1,2024-07-12_15h55.30.425,experiment,2024.1.5,Win32,14.12429379,6691931c2c63981b064e1f0c,6691b29af5a9621f77201ba4,,,,,,,,,,,,,,,,,,,,,,,,,,,,,,,,,,,,,,,,,,,,,,,,,,,,,,,,,,,,1032.9408,1039.7602,0.160185213,-0.106481481,1.0,0.0,0.0,0.729,compass,0.0,1.0,1.0,33.0,1.0,SoundStimuli/StandByMe_BenEKing_Cover5S.wav,,,,,,,,,,,,,,,,,,,,,,,,,,,,,,,,,,,,,,,,,,,,,,,,,,,,,
,,,,,901377,1,2024-07-12_15h55.30.425,experiment,2024.1.5,Win32,14.12429379,6691931c2c63981b064e1f0c,6691b29af5a9621f77201ba4,,,,,,,,,,,,,,,,,,,,,,,,,,,,,,,,,,,,,,,,,,,,,,,,,,,,,,,,,,,,1039.7661,1047.204,0.036111125,0.337962963,1.0,0.0,0.0,1.437,compass,0.0,2.0,2.0,6.0,1.0,SoundStimuli/Levitating_DuaLipa_Cover5S.wav,,,,,,,,,,,,,,,,,,,,,,,,,,,,,,,,,,,,,,,,,,,,,,,,,,,,,
,,,,,901377,1,2024-07-12_15h55.30.425,experiment,2024.1.5,Win32,14.12429379,6691931c2c63981b064e1f0c,6691b29af5a9621f77201ba4,,,,,,,,,,,,,,,,,,,,,,,,,,,,,,,,,,,,,,,,,,,,,,,,,,,,,,,,,,,,1047.2103,1053.6442,-0.314814815,0.268518519,1.0,0.0,0.0,0.4014,compass,0.0,3.0,3.0,7.0,1.0,SoundStimuli/NoOne_AliciaKeys_Cover5S.wav,,,,,,,,,,,,,,,,,,,,,,,,,,,,,,,,,,,,,,,,,,,,,,,,,,,,,
,,,,,901377,1,2024-07-12_15h55.30.425,experiment,2024.1.5,Win32,14.12429379,6691931c2c63981b064e1f0c,6691b29af5a9621f77201ba4,,,,,,,,,,,,,,,,,,,,,,,,,,,,,,,,,,,,,,,,,,,,,,,,,,,,,,,,,,,,1053.6499,1060.7142,0.196296339,-0.14907406,1.0,0.0,0.0,1.0084,compass,0.0,4.0,4.0,5.0,1.0,SoundStimuli/MyGirl_TheTemptations_Original5S.wav,,,,,,,,,,,,,,,,,,,,,,,,,,,,,,,,,,,,,,,,,,,,,,,,,,,,,
,,,,,901377,1,2024-07-12_15h55.30.425,experiment,2024.1.5,Win32,14.12429379,6691931c2c63981b064e1f0c,6691b29af5a9621f77201ba4,,,,,,,,,,,,,,,,,,,,,,,,,,,,,,,,,,,,,,,,,,,,,,,,,,,,,,,,,,,,1060.7194,1067.1819,-0.282407407,-0.259259259,1.0,0.0,0.0,0.401,compass,0.0,5.0,5.0,32.0,1.0,SoundStimuli/HeatWaves_GlassAnimals_Original5S.wav,,,,,,,,,,,,,,,,,,,,,,,,,,,,,,,,,,,,,,,,,,,,,,,,,,,,,
,,,,,901377,1,2024-07-12_15h55.30.425,experiment,2024.1.5,Win32,14.12429379,6691931c2c63981b064e1f0c,6691b29af5a9621f77201ba4,,,,,,,,,,,,,,,,,,,,,,,,,,,,,,,,,,,,,,,,,,,,,,,,,,,,,,,,,,,,1067.1877,1074.2542,0.30277775,0.112037023,1.0,0.0,0.0,0.9919,compass,0.0,6.0,6.0,22.0,1.0,SoundStimuli/RockWithYou_MichaelJackson_Original5S.wav,,,,,,,,,,,,,,,,,,,,,,,,,,,,,,,,,,,,,,,,,,,,,,,,,,,,,
,,,,,901377,1,2024-07-12_15h55.30.425,experiment,2024.1.5,Win32,14.12429379,6691931c2c63981b064e1f0c,6691b29af5a9621f77201ba4,,,,,,,,,,,,,,,,,,,,,,,,,,,,,,,,,,,,,,,,,,,,,,,,,,,,,,,,,,,,1074.2603,1080.7163,0.152777778,0.325925915,1.0,0.0,0.0,0.4369,compass,0.0,7.0,7.0,14.0,1.0,SoundStimuli/BlindingLights_TheWeeknd_Original5S.wav,,,,,,,,,,,,,,,,,,,,,,,,,,,,,,,,,,,,,,,,,,,,,,,,,,,,,
,,,,,901377,1,2024-07-12_15h55.30.425,experiment,2024.1.5,Win32,14.12429379,6691931c2c63981b064e1f0c,6691b29af5a9621f77201ba4,,,,,,,,,,,,,,,,,,,,,,,,,,,,,,,,,,,,,,,,,,,,,,,,,,,,,,,,,,,,1080.7236,1087.1509,0.329629686,-0.243518547,1.0,0.0,0.0,0.3397,compass,0.0,8.0,8.0,27.0,1.0,SoundStimuli/ShapeofYou_EdSheeran_Original5S.wav,,,,,,,,,,,,,,,,,,,,,,,,,,,,,,,,,,,,,,,,,,,,,,,,,,,,,
,,,,,901377,1,2024-07-12_15h55.30.425,experiment,2024.1.5,Win32,14.12429379,6691931c2c63981b064e1f0c,6691b29af5a9621f77201ba4,,,,,,,,,,,,,,,,,,,,,,,,,,,,,,,,,,,,,,,,,,,,,,,,,,,,,,,,,,,,1087.1575,1093.6815,-0.186111097,-0.076851845,1.0,0.0,0.0,0.4239,compass,0.0,9.0,9.0,23.0,1.0,SoundStimuli/StrawberryFieldsForever_TheBeatles_Original5S.wav,,,,,,,,,,,,,,,,,,,,,,,,,,,,,,,,,,,,,,,,,,,,,,,,,,,,,
,,,,,901377,1,2024-07-12_15h55.30.425,experiment,2024.1.5,Win32,14.12429379,6691931c2c63981b064e1f0c,6691b29af5a9621f77201ba4,,,,,,,,,,,,,,,,,,,,,,,,,,,,,,,,,,,,,,,,,,,,,,,,,,,,,,,,,,,,1093.6882,1100.1827,0.333333333,0.127777771,1.0,0.0,0.0,0.439,compass,0.0,10.0,10.0,28.0,1.0,SoundStimuli/ComeAndGetYourLove_Redbone_Original5S.wav,,,,,,,,,,,,,,,,,,,,,,,,,,,,,,,,,,,,,,,,,,,,,,,,,,,,,
,,,,,901377,1,2024-07-12_15h55.30.425,experiment,2024.1.5,Win32,14.12429379,6691931c2c63981b064e1f0c,6691b29af5a9621f77201ba4,,,,,,,,,,,,,,,,,,,,,,,,,,,,,,,,,,,,,,,,,,,,,,,,,,,,,,,,,,,,1100.1904,1107.5044,-0.189814815,-0.117592635,1.0,0.0,0.0,1.3089,compass,0.0,11.0,11.0,13.0,1.0,SoundStimuli/GodOnlyKnows_TheBeachBoys_Cover5S.wav,,,,,,,,,,,,,,,,,,,,,,,,,,,,,,,,,,,,,,,,,,,,,,,,,,,,,
,,,,,901377,1,2024-07-12_15h55.30.425,experiment,2024.1.5,Win32,14.12429379,6691931c2c63981b064e1f0c,6691b29af5a9621f77201ba4,,,,,,,,,,,,,,,,,,,,,,,,,,,,,,,,,,,,,,,,,,,,,,,,,,,,,,,,,,,,1107.5107,1114.7528,-0.331481474,-0.053703697,1.0,0.0,0.0,1.2035,compass,0.0,12.0,12.0,9.0,1.0,SoundStimuli/Despacito_LuisFonsiDaddyYankee_Cover5S.wav,,,,,,,,,,,,,,,,,,,,,,,,,,,,,,,,,,,,,,,,,,,,,,,,,,,,,
,,,,,901377,1,2024-07-12_15h55.30.425,experiment,2024.1.5,Win32,14.12429379,6691931c2c63981b064e1f0c,6691b29af5a9621f77201ba4,,,,,,,,,,,,,,,,,,,,,,,,,,,,,,,,,,,,,,,,,,,,,,,,,,,,,,,,,,,,1114.7595,1121.2079,0.07685188,-0.324999986,1.0,0.0,0.0,0.347,compass,0.0,13.0,13.0,31.0,1.0,SoundStimuli/TheBattleOfNewOrleans_JohnnyHorton_Cover5S.wav,,,,,,,,,,,,,,,,,,,,,,,,,,,,,,,,,,,,,,,,,,,,,,,,,,,,,
,,,,,901377,1,2024-07-12_15h55.30.425,experiment,2024.1.5,Win32,14.12429379,6691931c2c63981b064e1f0c,6691b29af5a9621f77201ba4,,,,,,,,,,,,,,,,,,,,,,,,,,,,,,,,,,,,,,,,,,,,,,,,,,,,,,,,,,,,1121.2136,1127.6717,0.33148151,-0.325925968,1.0,0.0,0.0,0.4125,compass,0.0,14.0,14.0,15.0,1.0,SoundStimuli/TikTok_Kesha_Cover5S.wav,,,,,,,,,,,,,,,,,,,,,,,,,,,,,,,,,,,,,,,,,,,,,,,,,,,,,
,,,,,901377,1,2024-07-12_15h55.30.425,experiment,2024.1.5,Win32,14.12429379,6691931c2c63981b064e1f0c,6691b29af5a9621f77201ba4,,,,,,,,,,,,,,,,,,,,,,,,,,,,,,,,,,,,,,,,,,,,,,,,,,,,,,,,,,,,1127.6792,1134.1333,0.165740755,0.332407404,1.0,0.0,0.0,0.4038,compass,0.0,15.0,15.0,25.0,1.0,SoundStimuli/Respect_ArethaFranklin_Original5S.wav,,,,,,,,,,,,,,,,,,,,,,,,,,,,,,,,,,,,,,,,,,,,,,,,,,,,,
,,,,,901377,1,2024-07-12_15h55.30.425,experiment,2024.1.5,Win32,14.12429379,6691931c2c63981b064e1f0c,6691b29af5a9621f77201ba4,,,,,,,,,,,,,,,,,,,,,,,,,,,,,,,,,,,,,,,,,,,,,,,,,,,,,,,,,,,,1134.1388,1140.5999,-0.315740727,-0.137037065,1.0,0.0,0.0,0.4401,compass,0.0,16.0,16.0,29.0,1.0,SoundStimuli/OldTownRoad_LilNasX_Original5S.wav,,,,,,,,,,,,,,,,,,,,,,,,,,,,,,,,,,,,,,,,,,,,,,,,,,,,,
,,,,,901377,1,2024-07-12_15h55.30.425,experiment,2024.1.5,Win32,14.12429379,6691931c2c63981b064e1f0c,6691b29af5a9621f77201ba4,,,,,,,,,,,,,,,,,,,,,,,,,,,,,,,,,,,,,,,,,,,,,,,,,,,,,,,,,,,,1140.6054,1147.0108,0.239814829,0.15370369,1.0,0.0,0.0,0.3157,compass,0.0,17.0,17.0,24.0,1.0,SoundStimuli/UptownFunk_MarkRonson_Original5S.wav,,,,,,,,,,,,,,,,,,,,,,,,,,,,,,,,,,,,,,,,,,,,,,,,,,,,,
,,,,,901377,1,2024-07-12_15h55.30.425,experiment,2024.1.5,Win32,14.12429379,6691931c2c63981b064e1f0c,6691b29af5a9621f77201ba4,,,,,,,,,,,,,,,,,,,,,,,,,,,,,,,,,,,,,,,,,,,,,,,,,,,,,,,,,,,,1147.0169,1153.6796,-0.250925912,0.042592578,1.0,0.0,0.0,0.6385,compass,0.0,18.0,18.0,18.0,1.0,SoundStimuli/AnotherOneBitesTheDust_Queen_Original5S.wav,,,,,,,,,,,,,,,,,,,,,,,,,,,,,,,,,,,,,,,,,,,,,,,,,,,,,
,,,,,901377,1,2024-07-12_15h55.30.425,experiment,2024.1.5,Win32,14.12429379,6691931c2c63981b064e1f0c,6691b29af5a9621f77201ba4,,,,,,,,,,,,,,,,,,,,,,,,,,,,,,,,,,,,,,,,,,,,,,,,,,,,,,,,,,,,1153.6857,1160.8903,0.316666638,-0.334259245,1.0,0.0,0.0,1.1471,compass,0.0,19.0,19.0,19.0,1.0,SoundStimuli/LetsGetItOn_MarvinGaye_Cover5S.wav,,,,,,,,,,,,,,,,,,,,,,,,,,,,,,,,,,,,,,,,,,,,,,,,,,,,,
,,,,,901377,1,2024-07-12_15h55.30.425,experiment,2024.1.5,Win32,14.12429379,6691931c2c63981b064e1f0c,6691b29af5a9621f77201ba4,,,,,,,,,,,,,,,,,,,,,,,,,,,,,,,,,,,,,,,,,,,,,,,,,,,,,,,,,,,,1160.8969,1167.3554,0.036111125,0.337962963,1.0,0.0,0.0,0.4222,compass,0.0,20.0,20.0,30.0,1.0,SoundStimuli/PokerFace_LadyGaga_Original5S.wav,,,,,,,,,,,,,,,,,,,,,,,,,,,,,,,,,,,,,,,,,,,,,,,,,,,,,
,,,,,901377,1,2024-07-12_15h55.30.425,experiment,2024.1.5,Win32,14.12429379,6691931c2c63981b064e1f0c,6691b29af5a9621f77201ba4,,,,,,,,,,,,,,,,,,,,,,,,,,,,,,,,,,,,,,,,,,,,,,,,,,,,,,,,,,,,1167.3612,1173.883,-0.323148127,0.137962942,1.0,0.0,0.0,0.5128,compass,0.0,21.0,21.0,16.0,1.0,SoundStimuli/BohemianRhapsody_Queen_Original5S.wav,,,,,,,,,,,,,,,,,,,,,,,,,,,,,,,,,,,,,,,,,,,,,,,,,,,,,
,,,,,901377,1,2024-07-12_15h55.30.425,experiment,2024.1.5,Win32,14.12429379,6691931c2c63981b064e1f0c,6691b29af5a9621f77201ba4,,,,,,,,,,,,,,,,,,,,,,,,,,,,,,,,,,,,,,,,,,,,,,,,,,,,,,,,,,,,1173.8888,1180.3381,0.143518519,-0.334259245,1.0,0.0,0.0,0.43,compass,0.0,22.0,22.0,17.0,1.0,SoundStimuli/Fallin_AliciaKeys_Original5S.wav,,,,,,,,,,,,,,,,,,,,,,,,,,,,,,,,,,,,,,,,,,,,,,,,,,,,,
,,,,,901377,1,2024-07-12_15h55.30.425,experiment,2024.1.5,Win32,14.12429379,6691931c2c63981b064e1f0c,6691b29af5a9621f77201ba4,,,,,,,,,,,,,,,,,,,,,,,,,,,,,,,,,,,,,,,,,,,,,,,,,,,,,,,,,,,,1180.3439,1186.7032,0.082407422,-0.212037051,1.0,0.0,0.0,0.309,compass,0.0,23.0,23.0,4.0,1.0,SoundStimuli/GetUrFreakOn_MissyElliot_Original5S.wav,,,,,,,,,,,,,,,,,,,,,,,,,,,,,,,,,,,,,,,,,,,,,,,,,,,,,
,,,,,901377,1,2024-07-12_15h55.30.425,experiment,2024.1.5,Win32,14.12429379,6691931c2c63981b064e1f0c,6691b29af5a9621f77201ba4,,,,,,,,,,,,,,,,,,,,,,,,,,,,,,,,,,,,,,,,,,,,,,,,,,,,,,,,,,,,1186.7085,1193.4493,-0.318518497,-0.145370413,1.0,0.0,0.0,0.7269,compass,0.0,24.0,24.0,26.0,1.0,SoundStimuli/LivinOnAPrayer_BonJovi_Cover5S.wav,,,,,,,,,,,,,,,,,,,,,,,,,,,,,,,,,,,,,,,,,,,,,,,,,,,,,
,,,,,901377,1,2024-07-12_15h55.30.425,experiment,2024.1.5,Win32,14.12429379,6691931c2c63981b064e1f0c,6691b29af5a9621f77201ba4,,,,,,,,,,,,,,,,,,,,,,,,,,,,,,,,,,,,,,,,,,,,,,,,,,,,,,,,,,,,1193.4554,1199.9867,-0.325925933,-0.321296339,1.0,0.0,0.0,0.5216,compass,0.0,25.0,25.0,10.0,1.0,SoundStimuli/BadDay_DanielPowter_Cover5S.wav,,,,,,,,,,,,,,,,,,,,,,,,,,,,,,,,,,,,,,,,,,,,,,,,,,,,,
,,,,,901377,1,2024-07-12_15h55.30.425,experiment,2024.1.5,Win32,14.12429379,6691931c2c63981b064e1f0c,6691b29af5a9621f77201ba4,,,,,,,,,,,,,,,,,,,,,,,,,,,,,,,,,,,,,,,,,,,,,,,,,,,,,,,,,,,,1199.9925,1206.4742,-0.175925926,0.160185178,1.0,0.0,0.0,0.4099,compass,0.0,26.0,26.0,1.0,1.0,SoundStimuli/Stronger_KanyeWest_Original5S.wav,,,,,,,,,,,,,,,,,,,,,,,,,,,,,,,,,,,,,,,,,,,,,,,,,,,,,
,,,,,901377,1,2024-07-12_15h55.30.425,experiment,2024.1.5,Win32,14.12429379,6691931c2c63981b064e1f0c,6691b29af5a9621f77201ba4,,,,,,,,,,,,,,,,,,,,,,,,,,,,,,,,,,,,,,,,,,,,,,,,,,,,,,,,,,,,1206.4816,1212.838,0.255555541,-0.310185185,1.0,0.0,0.0,0.3086,compass,0.0,27.0,27.0,12.0,1.0,SoundStimuli/IWillAlwaysLoveYou_WhitneyHouston_Cover5S.wav,,,,,,,,,,,,,,,,,,,,,,,,,,,,,,,,,,,,,,,,,,,,,,,,,,,,,
,,,,,901377,1,2024-07-12_15h55.30.425,experiment,2024.1.5,Win32,14.12429379,6691931c2c63981b064e1f0c,6691b29af5a9621f77201ba4,,,,,,,,,,,,,,,,,,,,,,,,,,,,,,,,,,,,,,,,,,,,,,,,,,,,,,,,,,,,1212.8439,1219.2641,-0.279629601,0.158333319,1.0,0.0,0.0,0.3291,compass,0.0,28.0,28.0,2.0,1.0,SoundStimuli/Mood_24kGoldnianndior_Cover5S.wav,,,,,,,,,,,,,,,,,,,,,,,,,,,,,,,,,,,,,,,,,,,,,,,,,,,,,
,,,,,901377,1,2024-07-12_15h55.30.425,experiment,2024.1.5,Win32,14.12429379,6691931c2c63981b064e1f0c,6691b29af5a9621f77201ba4,,,,,,,,,,,,,,,,,,,,,,,,,,,,,,,,,,,,,,,,,,,,,,,,,,,,,,,,,,,,1219.2718,1226.9097,-0.215740698,0.192592586,1.0,0.0,0.0,1.5748,compass,0.0,29.0,29.0,34.0,1.0,SoundStimuli/AChangeIsGonnaCome_SamCooke_Cover5S.wav,,,,,,,,,,,,,,,,,,,,,,,,,,,,,,,,,,,,,,,,,,,,,,,,,,,,,
,,,,,901377,1,2024-07-12_15h55.30.425,experiment,2024.1.5,Win32,14.12429379,6691931c2c63981b064e1f0c,6691b29af5a9621f77201ba4,,,,,,,,,,,,,,,,,,,,,,,,,,,,,,,,,,,,,,,,,,,,,,,,,,,,,,,,,,,,1226.916,1233.4823,0.227777764,0.095370363,1.0,0.0,0.0,0.5291,compass,0.0,30.0,30.0,21.0,1.0,SoundStimuli/GoodGollyMissMolly_LittleRichard_Cover5S.wav,,,,,,,,,,,,,,,,,,,,,,,,,,,,,,,,,,,,,,,,,,,,,,,,,,,,,
,,,,,901377,1,2024-07-12_15h55.30.425,experiment,2024.1.5,Win32,14.12429379,6691931c2c63981b064e1f0c,6691b29af5a9621f77201ba4,,,,,,,,,,,,,,,,,,,,,,,,,,,,,,,,,,,,,,,,,,,,,,,,,,,,,,,,,,,,1233.4889,1242.4275,-0.001851824,-0.116666653,1.0,0.0,0.0,2.8757,compass,0.0,31.0,31.0,11.0,1.0,SoundStimuli/Superstition_StevieWonder_Cover5S.wav,,,,,,,,,,,,,,,,,,,,,,,,,,,,,,,,,,,,,,,,,,,,,,,,,,,,,
,,,,,901377,1,2024-07-12_15h55.30.425,experiment,2024.1.5,Win32,14.12429379,6691931c2c63981b064e1f0c,6691b29af5a9621f77201ba4,,,,,,,,,,,,,,,,,,,,,,,,,,,,,,,,,,,,,,,,,,,,,,,,,,,,,,,,,,,,1242.4341,1248.7893,0.186111097,0.226851852,1.0,0.0,0.0,0.3083,compass,0.0,32.0,32.0,8.0,1.0,SoundStimuli/LikeAPrayer_Madonna_Original5S.wav,,,,,,,,,,,,,,,,,,,,,,,,,,,,,,,,,,,,,,,,,,,,,,,,,,,,,
,,,,,901377,1,2024-07-12_15h55.30.425,experiment,2024.1.5,Win32,14.12429379,6691931c2c63981b064e1f0c,6691b29af5a9621f77201ba4,,,,,,,,,,,,,,,,,,,,,,,,,,,,,,,,,,,,,,,,,,,,,,,,,,,,,,,,,,,,1248.7952,1255.2448,-0.141666624,0.262962959,1.0,0.0,0.0,0.4182,compass,0.0,33.0,33.0,0.0,1.0,SoundStimuli/StayinAlive_BeeGees_Original5S.wav,,,,,,,,,,,,,,,,,,,,,,,,,,,,,,,,,,,,,,,,,,,,,,,,,,,,,
,,,,,901377,1,2024-07-12_15h55.30.425,experiment,2024.1.5,Win32,14.12429379,6691931c2c63981b064e1f0c,6691b29af5a9621f77201ba4,,,,,,,,,,,,,,,,,,,,,,,,,,,,,,,,,,,,,,,,,,,,,,,,,,,,,,,,,,,,1255.2512,1261.8619,0.022222236,-0.303703732,1.0,0.0,0.0,0.5261,compass,0.0,34.0,34.0,20.0,1.0,SoundStimuli/HeyYa_Outkast_Cover5S.wav,,,,,,,,,,,,,,,,,,,,,,,,,,,,,,,,,,,,,,,,,,,,,,,,,,,,,
,,,,,901377,1,2024-07-12_15h55.30.425,experiment,2024.1.5,Win32,14.12429379,6691931c2c63981b064e1f0c,6691b29af5a9621f77201ba4,,,,,,,,,,,,,,,,,,,,,,,,,,,,,,,,,,,,,,,,,,,,,,,,,,,,,,,,,,,,,,,,,,,,,,,,,,,1261.862,1261.862,,,,1261.862,1261.8621,,,,0.0,3.0,3.0,3.0,1.0,block_order/blockA.xlsx,,,,,,,,,,,,,,,,,,,,,,,,,,,,,,,,,,,,,
,,,,,901377,1,2024-07-12_15h55.30.425,experiment,2024.1.5,Win32,14.12429379,6691931c2c63981b064e1f0c,6691b29af5a9621f77201ba4,,,,,,,,,,,,,,,,,,,,,,,,,,,,,,,,,,,,,,,,,,,,,,,,,,,,,,,,,,,,,,,,,,,,,,,,,,,,,,,,,,,,,,,,,,,29.0,Item 2,Not a musician and very bad at all forms of music,Item 5,Spotify and iPod,5.0,6.0,"work, chores, playing videogames, crafting, art",Never,Sometimes,Often,Always,Rarely,Sometimes,Never,Sometimes,Rarely,Rarely,Rarely,Rarely,Never,Rarely,Rarely,Often,soundtracks/original scores,folk,rock,pop,"As a kid I mostly listened to CDs and listened to music I learned from my parents before branching out into popular artists to teens at the time and musicians I heard from movies/shows. Lots of angsty emo stuff as a teen. Got into more experimental stuff in high school, like Tom Waits. Started branching out. Used an iPod + iTunes for the most part up until I was out of college (2017).","Nowadays, I'm finally mainly using Spotify, though I still have an old iPod classic that I use. I tend to find new artists via Spotify's discover playlists and songs featured in shows I like.",0.0,0.0,0.0,0.0,1.0,,
,,,,,901377,1,2024-07-12_15h55.30.425,experiment,2024.1.5,Win32,14.12429379,6691931c2c63981b064e1f0c,6691b29af5a9621f77201ba4,,,,,,,,,,,,,,,,,,,,,,,,,,,,,,,,,,,,,,,,,,,,,,,,,,,,,,,,,,,,,,,,,,,,,,,,,,,,,,,,,,,,,,,,,,,,,,,,,,,,,,,,,,,,,,,,,,,,,,,,,,,,,,1540.0354,1542.2072
