welcome.started,welcome.stopped,space_to_continue.keys,space_to_continue.rt,space_to_continue.duration,participant,session,date,expName,psychopyVersion,OS,frameRate,STUDY_ID,SESSION_ID,consent.consent,consent.consent_recontact,consent_check.started,consent_check.stopped,calibration_ready.started,calibration_ready.stopped,cal_ready.keys,cal_ready.rt,cal_ready.duration,calibration.started,calibration.stopped,mouse.x,mouse.y,mouse.leftButton,mouse.midButton,mouse.rightButton,mouse.time,mouse.clicked_name,move_on.keys,move_on.rt,move_on.duration,run_cal.thisRepN,run_cal.thisTrialN,run_cal.thisN,run_cal.thisIndex,run_cal.ran,emotion_training_ready.started,emotion_training_ready.stopped,training_move_on.keys,training_move_on.rt,training_move_on.duration,examples.started,examples.stopped,emotion_scale.started,emotion_scale.stopped,scale_next.keys,scale_next.rt,scale_next.duration,instructions.started,instructions.stopped,next.keys,next.rt,next.duration,practice_task.started,practice_task.stopped,mouse_rating_2.x,mouse_rating_2.y,mouse_rating_2.leftButton,mouse_rating_2.midButton,mouse_rating_2.rightButton,mouse_rating_2.time,mouse_rating_2.clicked_name,ready.started,ready.stopped,key_resp.keys,key_resp.rt,key_resp.duration,set_group.started,set_group.stopped,task.started,task.stopped,mouse_rating.x,mouse_rating.y,mouse_rating.leftButton,mouse_rating.midButton,mouse_rating.rightButton,mouse_rating.time,mouse_rating.clicked_name,trials.thisRepN,trials.thisTrialN,trials.thisN,trials.thisIndex,trials.ran,clip,short_break.started,short_break.stopped,space_to_move_on.keys,space_to_move_on.rt,space_to_move_on.duration,instruction_reminder.started,instruction_reminder.stopped,reminder_move_on.keys,reminder_move_on.rt,reminder_move_on.duration,blocks.thisRepN,blocks.thisTrialN,blocks.thisN,blocks.thisIndex,blocks.ran,block,post_survey.age,post_survey.musician,post_survey.music_making,post_survey.listen_time,post_survey.medium,post_survey.music_seeking,post_survey.music_choice,post_survey.activities,post_survey.question1.Latin,post_survey.question1.A cappella,post_survey.question1.Reggae,post_survey.question1.R&B,post_survey.question1.Folk/indie,post_survey.question1.Ambient,post_survey.question1.Electronic (EDM),post_survey.question1.Jazz,post_survey.question1.Alternative rock,post_survey.question1.Disco,post_survey.question1.Metal,post_survey.question1.Pop,post_survey.question1.Hip hop,post_survey.question1.Country,post_survey.question1.Classic rock,post_survey.question1.Classical,post_survey.genres_ranked.text1,post_survey.genres_ranked.text2,post_survey.genres_ranked.text3,post_survey.habit_change,post_survey.habits,show_exp.thisRepN,show_exp.thisTrialN,show_exp.thisN,show_exp.thisIndex,show_exp.ran,goodbye.started,goodbye.stopped
0.0,1.55,space,1.516,,913152,1,2024-07-12_18h37.39.899,experiment,2024.1.5,MacIntel,59.95203837,6691931c2c63981b064e1f0c,6691b013c592812b0fa77191,,,,,,,,,,,,,,,,,,,,,,,,,,,,,,,,,,,,,,,,,,,,,,,,,,,,,,,,,,,,,,,,,,,,,,,,,,,,,,,,,,,,,,,,,,,,,,,,,,,,,,,,,,,,,,,,,,,,,,,,,,,,,,
,,,,,913152,1,2024-07-12_18h37.39.899,experiment,2024.1.5,MacIntel,59.95203837,6691931c2c63981b064e1f0c,6691b013c592812b0fa77191,yes,yes,,,,,,,,,,,,,,,,,,,,,,,,,,,,,,,,,,,,,,,,,,,,,,,,,,,,,,,,,,,,,,,,,,,,,,,,,,,,,,,,,,,,,,,,,,,,,,,,,,,,,,,,,,,,,,,,,,,,,,,,,,,,
,,,,,913152,1,2024-07-12_18h37.39.899,experiment,2024.1.5,MacIntel,59.95203837,6691931c2c63981b064e1f0c,6691b013c592812b0fa77191,,,15.378,15.378,,,,,,,,,,,,,,,,,,,,,,,,,,,,,,,,,,,,,,,,,,,,,,,,,,,,,,,,,,,,,,,,,,,,,,,,,,,,,,,,,,,,,,,,,,,,,,,,,,,,,,,,,,,,,,,,,,,,,,,,,,
,,,,,913152,1,2024-07-12_18h37.39.899,experiment,2024.1.5,MacIntel,59.95203837,6691931c2c63981b064e1f0c,6691b013c592812b0fa77191,,,,,15.38,19.634,space,4.187,,19.636,31.301,[-0.01582014987510408],[-0.4200666111573689],[1],[0],[0],[2.851000000000006],"[""play_button""]",y,10.634,,0.0,0.0,0.0,0.0,1.0,,,,,,,,,,,,,,,,,,,,,,,,,,,,,,,,,,,,,,,,,,,,,,,,,,,,,,,,,,,,,,,,,,,,,,,,,,,,,,,,,,,,,,,,,,,,,,,,,,,,
,,,,,913152,1,2024-07-12_18h37.39.899,experiment,2024.1.5,MacIntel,59.95203837,6691931c2c63981b064e1f0c,6691b013c592812b0fa77191,,,,,,,,,,,,,,,,,,,,,,,,,,,31.302,56.883,space,25.481,,56.884,176.902,176.903,184.865,right,4.421,,184.865,193.366,space,8.418,,193.367,200.268,0.153205662,-0.273522065,1.0,0.0,0.0,0.899,compass_2,200.268,202.25,space,1.937,,202.25,202.25,202.272,211.551,0.206494588,-0.1244796,1.0,0.0,0.0,3.267,compass,0.0,0.0,0.0,34.0,1.0,SoundStimuli/AChangeIsGonnaCome_SamCooke_Original5S.wav,,,,,,,,,,,,,,,,,,,,,,,,,,,,,,,,,,,,,,,,,,,,,,,,,,,,
,,,,,913152,1,2024-07-12_18h37.39.899,experiment,2024.1.5,MacIntel,59.95203837,6691931c2c63981b064e1f0c,6691b013c592812b0fa77191,,,,,,,,,,,,,,,,,,,,,,,,,,,,,,,,,,,,,,,,,,,,,,,,,,,,,,,,,,,,211.553,218.167,0.141548709,0.12531224,1.0,0.0,0.0,0.6,compass,0.0,1.0,1.0,0.0,1.0,SoundStimuli/StayinAlive_BeeGees_Cover5S.wav,,,,,,,,,,,,,,,,,,,,,,,,,,,,,,,,,,,,,,,,,,,,,,,,,,,,
,,,,,913152,1,2024-07-12_18h37.39.899,experiment,2024.1.5,MacIntel,59.95203837,6691931c2c63981b064e1f0c,6691b013c592812b0fa77191,,,,,,,,,,,,,,,,,,,,,,,,,,,,,,,,,,,,,,,,,,,,,,,,,,,,,,,,,,,,218.168,228.634,0.245628643,0.178601166,1.0,0.0,0.0,4.449,compass,0.0,2.0,2.0,2.0,1.0,SoundStimuli/Mood_24kGoldnianndior_Original5S.wav,,,,,,,,,,,,,,,,,,,,,,,,,,,,,,,,,,,,,,,,,,,,,,,,,,,,
,,,,,913152,1,2024-07-12_18h37.39.899,experiment,2024.1.5,MacIntel,59.95203837,6691931c2c63981b064e1f0c,6691b013c592812b0fa77191,,,,,,,,,,,,,,,,,,,,,,,,,,,,,,,,,,,,,,,,,,,,,,,,,,,,,,,,,,,,228.634,239.536,-0.282264779,0.235220649,1.0,0.0,0.0,4.886,compass,0.0,3.0,3.0,25.0,1.0,SoundStimuli/Respect_ArethaFranklin_Cover5S.wav,,,,,,,,,,,,,,,,,,,,,,,,,,,,,,,,,,,,,,,,,,,,,,,,,,,,
,,,,,913152,1,2024-07-12_18h37.39.899,experiment,2024.1.5,MacIntel,59.95203837,6691931c2c63981b064e1f0c,6691b013c592812b0fa77191,,,,,,,,,,,,,,,,,,,,,,,,,,,,,,,,,,,,,,,,,,,,,,,,,,,,,,,,,,,,239.539,245.95,0.272273106,-0.063696919,1.0,0.0,0.0,0.401,compass,0.0,4.0,4.0,27.0,1.0,SoundStimuli/ShapeofYou_EdSheeran_Cover5S.wav,,,,,,,,,,,,,,,,,,,,,,,,,,,,,,,,,,,,,,,,,,,,,,,,,,,,
,,,,,913152,1,2024-07-12_18h37.39.899,experiment,2024.1.5,MacIntel,59.95203837,6691931c2c63981b064e1f0c,6691b013c592812b0fa77191,,,,,,,,,,,,,,,,,,,,,,,,,,,,,,,,,,,,,,,,,,,,,,,,,,,,,,,,,,,,245.952,252.184,0.269775187,0.087843464,1.0,0.0,0.0,0.217,compass,0.0,5.0,5.0,7.0,1.0,SoundStimuli/NoOne_AliciaKeys_Original5S.wav,,,,,,,,,,,,,,,,,,,,,,,,,,,,,,,,,,,,,,,,,,,,,,,,,,,,
,,,,,913152,1,2024-07-12_18h37.39.899,experiment,2024.1.5,MacIntel,59.95203837,6691931c2c63981b064e1f0c,6691b013c592812b0fa77191,,,,,,,,,,,,,,,,,,,,,,,,,,,,,,,,,,,,,,,,,,,,,,,,,,,,,,,,,,,,252.185,263.399,0.225645296,0.192756037,1.0,0.0,0.0,5.2,compass,0.0,6.0,6.0,26.0,1.0,SoundStimuli/LivinOnAPrayer_BonJovi_Original5S.wav,,,,,,,,,,,,,,,,,,,,,,,,,,,,,,,,,,,,,,,,,,,,,,,,,,,,
,,,,,913152,1,2024-07-12_18h37.39.899,experiment,2024.1.5,MacIntel,59.95203837,6691931c2c63981b064e1f0c,6691b013c592812b0fa77191,,,,,,,,,,,,,,,,,,,,,,,,,,,,,,,,,,,,,,,,,,,,,,,,,,,,,,,,,,,,263.401,269.785,0.275603664,-0.072855953,1.0,0.0,0.0,0.37,compass,0.0,7.0,7.0,22.0,1.0,SoundStimuli/RockWithYou_MichaelJackson_Cover5S.wav,,,,,,,,,,,,,,,,,,,,,,,,,,,,,,,,,,,,,,,,,,,,,,,,,,,,
,,,,,913152,1,2024-07-12_18h37.39.899,experiment,2024.1.5,MacIntel,59.95203837,6691931c2c63981b064e1f0c,6691b013c592812b0fa77191,,,,,,,,,,,,,,,,,,,,,,,,,,,,,,,,,,,,,,,,,,,,,,,,,,,,,,,,,,,,269.787,278.0,0.243130724,-0.1561199,1.0,0.0,0.0,2.199,compass,0.0,8.0,8.0,19.0,1.0,SoundStimuli/LetsGetItOn_MarvinGaye_Original5S.wav,,,,,,,,,,,,,,,,,,,,,,,,,,,,,,,,,,,,,,,,,,,,,,,,,,,,
,,,,,913152,1,2024-07-12_18h37.39.899,experiment,2024.1.5,MacIntel,59.95203837,6691931c2c63981b064e1f0c,6691b013c592812b0fa77191,,,,,,,,,,,,,,,,,,,,,,,,,,,,,,,,,,,,,,,,,,,,,,,,,,,,,,,,,,,,278.001,288.949,0.244796003,0.230224813,1.0,0.0,0.0,4.934,compass,0.0,9.0,9.0,21.0,1.0,SoundStimuli/GoodGollyMissMolly_LittleRichard_Original5S.wav,,,,,,,,,,,,,,,,,,,,,,,,,,,,,,,,,,,,,,,,,,,,,,,,,,,,
,,,,,913152,1,2024-07-12_18h37.39.899,experiment,2024.1.5,MacIntel,59.95203837,6691931c2c63981b064e1f0c,6691b013c592812b0fa77191,,,,,,,,,,,,,,,,,,,,,,,,,,,,,,,,,,,,,,,,,,,,,,,,,,,,,,,,,,,,288.95,295.465,0.206494588,0.14029975,1.0,0.0,0.0,0.501,compass,0.0,10.0,10.0,14.0,1.0,SoundStimuli/BlindingLights_TheWeeknd_Cover5S.wav,,,,,,,,,,,,,,,,,,,,,,,,,,,,,,,,,,,,,,,,,,,,,,,,,,,,
,,,,,913152,1,2024-07-12_18h37.39.899,experiment,2024.1.5,MacIntel,59.95203837,6691931c2c63981b064e1f0c,6691b013c592812b0fa77191,,,,,,,,,,,,,,,,,,,,,,,,,,,,,,,,,,,,,,,,,,,,,,,,,,,,,,,,,,,,295.466,307.468,-0.12489592,0.217735221,1.0,0.0,0.0,5.986,compass,0.0,11.0,11.0,30.0,1.0,SoundStimuli/PokerFace_LadyGaga_Cover5S.wav,,,,,,,,,,,,,,,,,,,,,,,,,,,,,,,,,,,,,,,,,,,,,,,,,,,,
,,,,,913152,1,2024-07-12_18h37.39.899,experiment,2024.1.5,MacIntel,59.95203837,6691931c2c63981b064e1f0c,6691b013c592812b0fa77191,,,,,,,,,,,,,,,,,,,,,,,,,,,,,,,,,,,,,,,,,,,,,,,,,,,,,,,,,,,,307.471,319.001,-0.087427144,0.260199833,1.0,0.0,0.0,5.517,compass,0.0,12.0,12.0,4.0,1.0,SoundStimuli/GetUrFreakOn_MissyElliot_Cover5S.wav,,,,,,,,,,,,,,,,,,,,,,,,,,,,,,,,,,,,,,,,,,,,,,,,,,,,
,,,,,913152,1,2024-07-12_18h37.39.899,experiment,2024.1.5,MacIntel,59.95203837,6691931c2c63981b064e1f0c,6691b013c592812b0fa77191,,,,,,,,,,,,,,,,,,,,,,,,,,,,,,,,,,,,,,,,,,,,,,,,,,,,,,,,,,,,319.003,328.983,0.189009159,0.238551207,1.0,0.0,0.0,3.967,compass,0.0,13.0,13.0,28.0,1.0,SoundStimuli/ComeAndGetYourLove_Redbone_Cover5S.wav,,,,,,,,,,,,,,,,,,,,,,,,,,,,,,,,,,,,,,,,,,,,,,,,,,,,
,,,,,913152,1,2024-07-12_18h37.39.899,experiment,2024.1.5,MacIntel,59.95203837,6691931c2c63981b064e1f0c,6691b013c592812b0fa77191,,,,,,,,,,,,,,,,,,,,,,,,,,,,,,,,,,,,,,,,,,,,,,,,,,,,,,,,,,,,328.985,335.2,0.271440466,0.081182348,1.0,0.0,0.0,0.2,compass,0.0,14.0,14.0,17.0,1.0,SoundStimuli/Fallin_AliciaKeys_Cover5S.wav,,,,,,,,,,,,,,,,,,,,,,,,,,,,,,,,,,,,,,,,,,,,,,,,,,,,
,,,,,913152,1,2024-07-12_18h37.39.899,experiment,2024.1.5,MacIntel,59.95203837,6691931c2c63981b064e1f0c,6691b013c592812b0fa77191,,,,,,,,,,,,,,,,,,,,,,,,,,,,,,,,,,,,,,,,,,,,,,,,,,,,,,,,,,,,335.202,345.233,0.202331391,0.204412989,1.0,0.0,0.0,4.018,compass,0.0,15.0,15.0,12.0,1.0,SoundStimuli/IWillAlwaysLoveYou_WhitneyHouston_Original5S.wav,,,,,,,,,,,,,,,,,,,,,,,,,,,,,,,,,,,,,,,,,,,,,,,,,,,,
,,,,,913152,1,2024-07-12_18h37.39.899,experiment,2024.1.5,MacIntel,59.95203837,6691931c2c63981b064e1f0c,6691b013c592812b0fa77191,,,,,,,,,,,,,,,,,,,,,,,,,,,,,,,,,,,,,,,,,,,,,,,,,,,,,,,,,,,,345.234,353.932,0.178184846,0.204412989,1.0,0.0,0.0,2.683,compass,0.0,16.0,16.0,32.0,1.0,SoundStimuli/HeatWaves_GlassAnimals_Cover5S.wav,,,,,,,,,,,,,,,,,,,,,,,,,,,,,,,,,,,,,,,,,,,,,,,,,,,,
,,,,,913152,1,2024-07-12_18h37.39.899,experiment,2024.1.5,MacIntel,59.95203837,6691931c2c63981b064e1f0c,6691b013c592812b0fa77191,,,,,,,,,,,,,,,,,,,,,,,,,,,,,,,,,,,,,,,,,,,,,,,,,,,,,,,,,,,,353.934,371.367,-0.232306411,0.1561199,1.0,0.0,0.0,11.417,compass,0.0,17.0,17.0,1.0,1.0,SoundStimuli/Stronger_KanyeWest_Cover5S.wav,,,,,,,,,,,,,,,,,,,,,,,,,,,,,,,,,,,,,,,,,,,,,,,,,,,,
,,,,,913152,1,2024-07-12_18h37.39.899,experiment,2024.1.5,MacIntel,59.95203837,6691931c2c63981b064e1f0c,6691b013c592812b0fa77191,,,,,,,,,,,,,,,,,,,,,,,,,,,,,,,,,,,,,,,,,,,,,,,,,,,,,,,,,,,,371.371,377.949,0.224812656,0.21856786,1.0,0.0,0.0,0.568,compass,0.0,18.0,18.0,23.0,1.0,SoundStimuli/StrawberryFieldsForever_TheBeatles_Cover5S.wav,,,,,,,,,,,,,,,,,,,,,,,,,,,,,,,,,,,,,,,,,,,,,,,,,,,,
,,,,,913152,1,2024-07-12_18h37.39.899,experiment,2024.1.5,MacIntel,59.95203837,6691931c2c63981b064e1f0c,6691b013c592812b0fa77191,,,,,,,,,,,,,,,,,,,,,,,,,,,,,,,,,,,,,,,,,,,,,,,,,,,,,,,,,,,,377.95,387.317,0.24979184,-0.243547044,1.0,0.0,0.0,3.35,compass,0.0,19.0,19.0,33.0,1.0,SoundStimuli/StandByMe_BenEKing_Original5S.wav,,,,,,,,,,,,,,,,,,,,,,,,,,,,,,,,,,,,,,,,,,,,,,,,,,,,
,,,,,913152,1,2024-07-12_18h37.39.899,experiment,2024.1.5,MacIntel,59.95203837,6691931c2c63981b064e1f0c,6691b013c592812b0fa77191,,,,,,,,,,,,,,,,,,,,,,,,,,,,,,,,,,,,,,,,,,,,,,,,,,,,,,,,,,,,387.319,397.4,0.185678601,0.184429642,1.0,0.0,0.0,4.066,compass,0.0,20.0,20.0,24.0,1.0,SoundStimuli/UptownFunk_MarkRonson_Cover5S.wav,,,,,,,,,,,,,,,,,,,,,,,,,,,,,,,,,,,,,,,,,,,,,,,,,,,,
,,,,,913152,1,2024-07-12_18h37.39.899,experiment,2024.1.5,MacIntel,59.95203837,6691931c2c63981b064e1f0c,6691b013c592812b0fa77191,,,,,,,,,,,,,,,,,,,,,,,,,,,,,,,,,,,,,,,,,,,,,,,,,,,,,,,,,,,,397.402,404.285,0.216486261,-0.07868443,1.0,0.0,0.0,0.867,compass,0.0,21.0,21.0,10.0,1.0,SoundStimuli/BadDay_DanielPowter_Original5S.wav,,,,,,,,,,,,,,,,,,,,,,,,,,,,,,,,,,,,,,,,,,,,,,,,,,,,
,,,,,913152,1,2024-07-12_18h37.39.899,experiment,2024.1.5,MacIntel,59.95203837,6691931c2c63981b064e1f0c,6691b013c592812b0fa77191,,,,,,,,,,,,,,,,,,,,,,,,,,,,,,,,,,,,,,,,,,,,,,,,,,,,,,,,,,,,404.288,410.585,0.258118235,-0.056203164,1.0,0.0,0.0,0.284,compass,0.0,22.0,22.0,31.0,1.0,SoundStimuli/TheBattleOfNewOrleans_JohnnyHorton_Original5S.wav,,,,,,,,,,,,,,,,,,,,,,,,,,,,,,,,,,,,,,,,,,,,,,,,,,,,
,,,,,913152,1,2024-07-12_18h37.39.899,experiment,2024.1.5,MacIntel,59.95203837,6691931c2c63981b064e1f0c,6691b013c592812b0fa77191,,,,,,,,,,,,,,,,,,,,,,,,,,,,,,,,,,,,,,,,,,,,,,,,,,,,,,,,,,,,410.586,426.75,-0.052456286,-0.146128226,1.0,0.0,0.0,10.151,compass,0.0,23.0,23.0,13.0,1.0,SoundStimuli/GodOnlyKnows_TheBeachBoys_Original5S.wav,,,,,,,,,,,,,,,,,,,,,,,,,,,,,,,,,,,,,,,,,,,,,,,,,,,,
,,,,,913152,1,2024-07-12_18h37.39.899,experiment,2024.1.5,MacIntel,59.95203837,6691931c2c63981b064e1f0c,6691b013c592812b0fa77191,,,,,,,,,,,,,,,,,,,,,,,,,,,,,,,,,,,,,,,,,,,,,,,,,,,,,,,,,,,,426.751,439.851,0.266444629,0.247710241,1.0,0.0,0.0,7.084,compass,0.0,24.0,24.0,16.0,1.0,SoundStimuli/BohemianRhapsody_Queen_Cover5S.wav,,,,,,,,,,,,,,,,,,,,,,,,,,,,,,,,,,,,,,,,,,,,,,,,,,,,
,,,,,913152,1,2024-07-12_18h37.39.899,experiment,2024.1.5,MacIntel,59.95203837,6691931c2c63981b064e1f0c,6691b013c592812b0fa77191,,,,,,,,,,,,,,,,,,,,,,,,,,,,,,,,,,,,,,,,,,,,,,,,,,,,,,,,,,,,439.853,446.816,0.223147377,-0.07785179,1.0,0.0,0.0,0.951,compass,0.0,25.0,25.0,5.0,1.0,SoundStimuli/MyGirl_TheTemptations_Cover5S.wav,,,,,,,,,,,,,,,,,,,,,,,,,,,,,,,,,,,,,,,,,,,,,,,,,,,,
,,,,,913152,1,2024-07-12_18h37.39.899,experiment,2024.1.5,MacIntel,59.95203837,6691931c2c63981b064e1f0c,6691b013c592812b0fa77191,,,,,,,,,,,,,,,,,,,,,,,,,,,,,,,,,,,,,,,,,,,,,,,,,,,,,,,,,,,,446.818,460.699,0.247293922,0.246877602,1.0,0.0,0.0,7.867,compass,0.0,26.0,26.0,15.0,1.0,SoundStimuli/TikTok_Kesha_Original5S.wav,,,,,,,,,,,,,,,,,,,,,,,,,,,,,,,,,,,,,,,,,,,,,,,,,,,,
,,,,,913152,1,2024-07-12_18h37.39.899,experiment,2024.1.5,MacIntel,59.95203837,6691931c2c63981b064e1f0c,6691b013c592812b0fa77191,,,,,,,,,,,,,,,,,,,,,,,,,,,,,,,,,,,,,,,,,,,,,,,,,,,,,,,,,,,,460.7,467.266,-0.151540383,-0.063696919,1.0,0.0,0.0,0.551,compass,0.0,27.0,27.0,18.0,1.0,SoundStimuli/AnotherOneBitesTheDust_Queen_Cover5S.wav,,,,,,,,,,,,,,,,,,,,,,,,,,,,,,,,,,,,,,,,,,,,,,,,,,,,
,,,,,913152,1,2024-07-12_18h37.39.899,experiment,2024.1.5,MacIntel,59.95203837,6691931c2c63981b064e1f0c,6691b013c592812b0fa77191,,,,,,,,,,,,,,,,,,,,,,,,,,,,,,,,,,,,,,,,,,,,,,,,,,,,,,,,,,,,467.267,485.084,-0.189009159,-0.070358035,1.0,0.0,0.0,11.801,compass,0.0,28.0,28.0,3.0,1.0,SoundStimuli/NoScrubs_TLC_Cover5S.wav,,,,,,,,,,,,,,,,,,,,,,,,,,,,,,,,,,,,,,,,,,,,,,,,,,,,
,,,,,913152,1,2024-07-12_18h37.39.899,experiment,2024.1.5,MacIntel,59.95203837,6691931c2c63981b064e1f0c,6691b013c592812b0fa77191,,,,,,,,,,,,,,,,,,,,,,,,,,,,,,,,,,,,,,,,,,,,,,,,,,,,,,,,,,,,485.087,494.383,0.238967527,0.279350541,1.0,0.0,0.0,3.284,compass,0.0,29.0,29.0,6.0,1.0,SoundStimuli/Levitating_DuaLipa_Original5S.wav,,,,,,,,,,,,,,,,,,,,,,,,,,,,,,,,,,,,,,,,,,,,,,,,,,,,
,,,,,913152,1,2024-07-12_18h37.39.899,experiment,2024.1.5,MacIntel,59.95203837,6691931c2c63981b064e1f0c,6691b013c592812b0fa77191,,,,,,,,,,,,,,,,,,,,,,,,,,,,,,,,,,,,,,,,,,,,,,,,,,,,,,,,,,,,494.384,501.515,0.082431307,0.241049126,1.0,0.0,0.0,1.115,compass,0.0,30.0,30.0,11.0,1.0,SoundStimuli/Superstition_StevieWonder_Original5S.wav,,,,,,,,,,,,,,,,,,,,,,,,,,,,,,,,,,,,,,,,,,,,,,,,,,,,
,,,,,913152,1,2024-07-12_18h37.39.899,experiment,2024.1.5,MacIntel,59.95203837,6691931c2c63981b064e1f0c,6691b013c592812b0fa77191,,,,,,,,,,,,,,,,,,,,,,,,,,,,,,,,,,,,,,,,,,,,,,,,,,,,,,,,,,,,501.516,513.067,0.23480433,0.239383847,1.0,0.0,0.0,5.534,compass,0.0,31.0,31.0,29.0,1.0,SoundStimuli/OldTownRoad_LilNasX_Cover5S.wav,,,,,,,,,,,,,,,,,,,,,,,,,,,,,,,,,,,,,,,,,,,,,,,,,,,,
,,,,,913152,1,2024-07-12_18h37.39.899,experiment,2024.1.5,MacIntel,59.95203837,6691931c2c63981b064e1f0c,6691b013c592812b0fa77191,,,,,,,,,,,,,,,,,,,,,,,,,,,,,,,,,,,,,,,,,,,,,,,,,,,,,,,,,,,,513.07,519.482,-0.050791007,0.306827644,1.0,0.0,0.0,0.4,compass,0.0,32.0,32.0,20.0,1.0,SoundStimuli/HeyYa_Outkast_Original5S.wav,,,,,,,,,,,,,,,,,,,,,,,,,,,,,,,,,,,,,,,,,,,,,,,,,,,,
,,,,,913152,1,2024-07-12_18h37.39.899,experiment,2024.1.5,MacIntel,59.95203837,6691931c2c63981b064e1f0c,6691b013c592812b0fa77191,,,,,,,,,,,,,,,,,,,,,,,,,,,,,,,,,,,,,,,,,,,,,,,,,,,,,,,,,,,,519.482,525.866,0.09325562,0.28101582,1.0,0.0,0.0,0.384,compass,0.0,33.0,33.0,9.0,1.0,SoundStimuli/Despacito_LuisFonsiDaddyYankee_Original5S.wav,,,,,,,,,,,,,,,,,,,,,,,,,,,,,,,,,,,,,,,,,,,,,,,,,,,,
,,,,,913152,1,2024-07-12_18h37.39.899,experiment,2024.1.5,MacIntel,59.95203837,6691931c2c63981b064e1f0c,6691b013c592812b0fa77191,,,,,,,,,,,,,,,,,,,,,,,,,,,,,,,,,,,,,,,,,,,,,,,,,,,,,,,,,,,,525.867,542.634,0.256452956,0.277685262,1.0,0.0,0.0,10.751,compass,0.0,34.0,34.0,8.0,1.0,SoundStimuli/LikeAPrayer_Madonna_Cover5S.wav,,,,,,,,,,,,,,,,,,,,,,,,,,,,,,,,,,,,,,,,,,,,,,,,,,,,
,,,,,913152,1,2024-07-12_18h37.39.899,experiment,2024.1.5,MacIntel,59.95203837,6691931c2c63981b064e1f0c,6691b013c592812b0fa77191,,,,,,,,,,,,,,,,,,,,,,,,,,,,,,,,,,,,,,,,,,,,,,,,,,,,,,,,,,,,,,,,,,,,,,,,,,,542.635,544.614,space,1.931,,544.614,550.881,right,6.207,,0.0,0.0,0.0,0.0,1.0,block_order/blockC.xlsx,,,,,,,,,,,,,,,,,,,,,,,,,,,,,,,,,,,,
,,,,,913152,1,2024-07-12_18h37.39.899,experiment,2024.1.5,MacIntel,59.95203837,6691931c2c63981b064e1f0c,6691b013c592812b0fa77191,,,,,,,,,,,,,,,,,,,,,,,,,,,,,,,,,,,,,,,,,,,,,,,,,,,,,,,,,,,,550.901,561.332,0.264779351,-0.105328893,1.0,0.0,0.0,4.418,compass,0.0,0.0,0.0,18.0,1.0,SoundStimuli/Weak_SWV_Cover5S.wav,,,,,,,,,,,,,,,,,,,,,,,,,,,,,,,,,,,,,,,,,,,,,,,,,,,,
,,,,,913152,1,2024-07-12_18h37.39.899,experiment,2024.1.5,MacIntel,59.95203837,6691931c2c63981b064e1f0c,6691b013c592812b0fa77191,,,,,,,,,,,,,,,,,,,,,,,,,,,,,,,,,,,,,,,,,,,,,,,,,,,,,,,,,,,,561.335,575.385,-0.176519567,-0.087010824,1.0,0.0,0.0,8.034,compass,0.0,1.0,1.0,4.0,1.0,SoundStimuli/Dreams_FleetwoodMac_Original5S.wav,,,,,,,,,,,,,,,,,,,,,,,,,,,,,,,,,,,,,,,,,,,,,,,,,,,,
,,,,,913152,1,2024-07-12_18h37.39.899,experiment,2024.1.5,MacIntel,59.95203837,6691931c2c63981b064e1f0c,6691b013c592812b0fa77191,,,,,,,,,,,,,,,,,,,,,,,,,,,,,,,,,,,,,,,,,,,,,,,,,,,,,,,,,,,,575.388,585.366,-0.191507077,-0.074521232,1.0,0.0,0.0,3.968,compass,0.0,2.0,2.0,32.0,1.0,SoundStimuli/Dilemma_NellyKellyRowland_Cover5S.wav,,,,,,,,,,,,,,,,,,,,,,,,,,,,,,,,,,,,,,,,,,,,,,,,,,,,
,,,,,913152,1,2024-07-12_18h37.39.899,experiment,2024.1.5,MacIntel,59.95203837,6691931c2c63981b064e1f0c,6691b013c592812b0fa77191,,,,,,,,,,,,,,,,,,,,,,,,,,,,,,,,,,,,,,,,,,,,,,,,,,,,,,,,,,,,585.367,591.682,0.170691091,0.173605329,1.0,0.0,0.0,0.3,compass,0.0,3.0,3.0,31.0,1.0,SoundStimuli/TossinAndTurnin_BobbyLewis_Original5S.wav,,,,,,,,,,,,,,,,,,,,,,,,,,,,,,,,,,,,,,,,,,,,,,,,,,,,
,,,,,913152,1,2024-07-12_18h37.39.899,experiment,2024.1.5,MacIntel,59.95203837,6691931c2c63981b064e1f0c,6691b013c592812b0fa77191,,,,,,,,,,,,,,,,,,,,,,,,,,,,,,,,,,,,,,,,,,,,,,,,,,,,,,,,,,,,591.683,600.749,-0.096586178,0.104496253,1.0,0.0,0.0,3.05,compass,0.0,4.0,4.0,2.0,1.0,SoundStimuli/SmellsLikeTeenSpirit_Nirvana_Original5S.wav,,,,,,,,,,,,,,,,,,,,,,,,,,,,,,,,,,,,,,,,,,,,,,,,,,,,
,,,,,913152,1,2024-07-12_18h37.39.899,experiment,2024.1.5,MacIntel,59.95203837,6691931c2c63981b064e1f0c,6691b013c592812b0fa77191,,,,,,,,,,,,,,,,,,,,,,,,,,,,,,,,,,,,,,,,,,,,,,,,,,,,,,,,,,,,600.751,607.915,0.226477935,-0.153621982,1.0,0.0,0.0,1.151,compass,0.0,5.0,5.0,25.0,1.0,SoundStimuli/IllMakeLoveToYou_BoyzIIMen_Cover5S.wav,,,,,,,,,,,,,,,,,,,,,,,,,,,,,,,,,,,,,,,,,,,,,,,,,,,,
,,,,,913152,1,2024-07-12_18h37.39.899,experiment,2024.1.5,MacIntel,59.95203837,6691931c2c63981b064e1f0c,6691b013c592812b0fa77191,,,,,,,,,,,,,,,,,,,,,,,,,,,,,,,,,,,,,,,,,,,,,,,,,,,,,,,,,,,,607.919,615.531,0.211490425,0.26602831,1.0,0.0,0.0,1.601,compass,0.0,6.0,6.0,26.0,1.0,SoundStimuli/TheSign_AceOfBase_Cover5S.wav,,,,,,,,,,,,,,,,,,,,,,,,,,,,,,,,,,,,,,,,,,,,,,,,,,,,
,,,,,913152,1,2024-07-12_18h37.39.899,experiment,2024.1.5,MacIntel,59.95203837,6691931c2c63981b064e1f0c,6691b013c592812b0fa77191,,,,,,,,,,,,,,,,,,,,,,,,,,,,,,,,,,,,,,,,,,,,,,,,,,,,,,,,,,,,615.533,622.665,0.247293922,0.276019983,1.0,0.0,0.0,1.116,compass,0.0,7.0,7.0,1.0,1.0,SoundStimuli/Smooth_SantanaRobThomas_Original5S.wav,,,,,,,,,,,,,,,,,,,,,,,,,,,,,,,,,,,,,,,,,,,,,,,,,,,,
,,,,,913152,1,2024-07-12_18h37.39.899,experiment,2024.1.5,MacIntel,59.95203837,6691931c2c63981b064e1f0c,6691b013c592812b0fa77191,,,,,,,,,,,,,,,,,,,,,,,,,,,,,,,,,,,,,,,,,,,,,,,,,,,,,,,,,,,,622.666,629.248,0.298084929,0.308492923,1.0,0.0,0.0,0.567,compass,0.0,8.0,8.0,22.0,1.0,SoundStimuli/Happy_PharellWilliams_Original5S.wav,,,,,,,,,,,,,,,,,,,,,,,,,,,,,,,,,,,,,,,,,,,,,,,,,,,,
,,,,,913152,1,2024-07-12_18h37.39.899,experiment,2024.1.5,MacIntel,59.95203837,6691931c2c63981b064e1f0c,6691b013c592812b0fa77191,,,,,,,,,,,,,,,,,,,,,,,,,,,,,,,,,,,,,,,,,,,,,,,,,,,,,,,,,,,,629.249,635.581,-0.3122398,-0.051207327,1.0,0.0,0.0,0.316,compass,0.0,9.0,9.0,30.0,1.0,SoundStimuli/SomebodyThatIUsedtoKnow_Gotye_Original5S.wav,,,,,,,,,,,,,,,,,,,,,,,,,,,,,,,,,,,,,,,,,,,,,,,,,,,,
,,,,,913152,1,2024-07-12_18h37.39.899,experiment,2024.1.5,MacIntel,59.95203837,6691931c2c63981b064e1f0c,6691b013c592812b0fa77191,,,,,,,,,,,,,,,,,,,,,,,,,,,,,,,,,,,,,,,,,,,,,,,,,,,,,,,,,,,,635.582,642.182,0.270607827,-0.116153206,1.0,0.0,0.0,0.583,compass,0.0,10.0,10.0,13.0,1.0,SoundStimuli/Perfect_EdSheeran_Cover5S.wav,,,,,,,,,,,,,,,,,,,,,,,,,,,,,,,,,,,,,,,,,,,,,,,,,,,,
,,,,,913152,1,2024-07-12_18h37.39.899,experiment,2024.1.5,MacIntel,59.95203837,6691931c2c63981b064e1f0c,6691b013c592812b0fa77191,,,,,,,,,,,,,,,,,,,,,,,,,,,,,,,,,,,,,,,,,,,,,,,,,,,,,,,,,,,,642.185,648.298,-0.159866778,0.10949209,1.0,0.0,0.0,0.099,compass,0.0,11.0,11.0,5.0,1.0,SoundStimuli/JoyToTheWorld_ThreeDogNight_Original5S.wav,,,,,,,,,,,,,,,,,,,,,,,,,,,,,,,,,,,,,,,,,,,,,,,,,,,,
,,,,,913152,1,2024-07-12_18h37.39.899,experiment,2024.1.5,MacIntel,59.95203837,6691931c2c63981b064e1f0c,6691b013c592812b0fa77191,,,,,,,,,,,,,,,,,,,,,,,,,,,,,,,,,,,,,,,,,,,,,,,,,,,,,,,,,,,,648.299,656.665,0.21815154,-0.067860117,1.0,0.0,0.0,2.35,compass,0.0,12.0,12.0,8.0,1.0,SoundStimuli/EndlessLove_DianaRossLionelRichie_Cover5S.wav,,,,,,,,,,,,,,,,,,,,,,,,,,,,,,,,,,,,,,,,,,,,,,,,,,,,
,,,,,913152,1,2024-07-12_18h37.39.899,experiment,2024.1.5,MacIntel,59.95203837,6691931c2c63981b064e1f0c,6691b013c592812b0fa77191,,,,,,,,,,,,,,,,,,,,,,,,,,,,,,,,,,,,,,,,,,,,,,,,,,,,,,,,,,,,656.667,663.315,0.245628643,0.151956703,1.0,0.0,0.0,0.634,compass,0.0,13.0,13.0,28.0,1.0,SoundStimuli/IWantToHoldYourHand_TheBeatles_Original5S.wav,,,,,,,,,,,,,,,,,,,,,,,,,,,,,,,,,,,,,,,,,,,,,,,,,,,,
,,,,,913152,1,2024-07-12_18h37.39.899,experiment,2024.1.5,MacIntel,59.95203837,6691931c2c63981b064e1f0c,6691b013c592812b0fa77191,,,,,,,,,,,,,,,,,,,,,,,,,,,,,,,,,,,,,,,,,,,,,,,,,,,,,,,,,,,,663.317,669.664,0.279766861,-0.117818485,1.0,0.0,0.0,0.334,compass,0.0,14.0,14.0,19.0,1.0,SoundStimuli/YouLightUpMyLife_DebbyBoone_Original5S.wav,,,,,,,,,,,,,,,,,,,,,,,,,,,,,,,,,,,,,,,,,,,,,,,,,,,,
,,,,,913152,1,2024-07-12_18h37.39.899,experiment,2024.1.5,MacIntel,59.95203837,6691931c2c63981b064e1f0c,6691b013c592812b0fa77191,,,,,,,,,,,,,,,,,,,,,,,,,,,,,,,,,,,,,,,,,,,,,,,,,,,,,,,,,,,,669.665,676.015,0.135720233,0.256036636,1.0,0.0,0.0,0.334,compass,0.0,15.0,15.0,11.0,1.0,SoundStimuli/BlurredLines_RobinThicke_Cover5S.wav,,,,,,,,,,,,,,,,,,,,,,,,,,,,,,,,,,,,,,,,,,,,,,,,,,,,
,,,,,913152,1,2024-07-12_18h37.39.899,experiment,2024.1.5,MacIntel,59.95203837,6691931c2c63981b064e1f0c,6691b013c592812b0fa77191,,,,,,,,,,,,,,,,,,,,,,,,,,,,,,,,,,,,,,,,,,,,,,,,,,,,,,,,,,,,676.018,682.347,0.241465445,-0.09450458,1.0,0.0,0.0,0.316,compass,0.0,16.0,16.0,16.0,1.0,SoundStimuli/ItsAllInTheGame_TommyEdwards_Cover5S.wav,,,,,,,,,,,,,,,,,,,,,,,,,,,,,,,,,,,,,,,,,,,,,,,,,,,,
,,,,,913152,1,2024-07-12_18h37.39.899,experiment,2024.1.5,MacIntel,59.95203837,6691931c2c63981b064e1f0c,6691b013c592812b0fa77191,,,,,,,,,,,,,,,,,,,,,,,,,,,,,,,,,,,,,,,,,,,,,,,,,,,,,,,,,,,,682.348,692.099,0.166527893,-0.189425479,1.0,0.0,0.0,3.75,compass,0.0,17.0,17.0,9.0,1.0,SoundStimuli/HowDoILive_LeAnnRimes_Cover5S.wav,,,,,,,,,,,,,,,,,,,,,,,,,,,,,,,,,,,,,,,,,,,,,,,,,,,,
,,,,,913152,1,2024-07-12_18h37.39.899,experiment,2024.1.5,MacIntel,59.95203837,6691931c2c63981b064e1f0c,6691b013c592812b0fa77191,,,,,,,,,,,,,,,,,,,,,,,,,,,,,,,,,,,,,,,,,,,,,,,,,,,,,,,,,,,,692.101,698.415,0.161532057,-0.105328893,1.0,0.0,0.0,0.3,compass,0.0,18.0,18.0,20.0,1.0,SoundStimuli/FlashdanceWhatAFeeling_IreneCara_Original5S.wav,,,,,,,,,,,,,,,,,,,,,,,,,,,,,,,,,,,,,,,,,,,,,,,,,,,,
,,,,,913152,1,2024-07-12_18h37.39.899,experiment,2024.1.5,MacIntel,59.95203837,6691931c2c63981b064e1f0c,6691b013c592812b0fa77191,,,,,,,,,,,,,,,,,,,,,,,,,,,,,,,,,,,,,,,,,,,,,,,,,,,,,,,,,,,,698.416,711.02,-0.10907577,-0.092839301,1.0,0.0,0.0,6.587,compass,0.0,19.0,19.0,29.0,1.0,SoundStimuli/BetteDavisEyes_KimCarnes_Original5S.wav,,,,,,,,,,,,,,,,,,,,,,,,,,,,,,,,,,,,,,,,,,,,,,,,,,,,
,,,,,913152,1,2024-07-12_18h37.39.899,experiment,2024.1.5,MacIntel,59.95203837,6691931c2c63981b064e1f0c,6691b013c592812b0fa77191,,,,,,,,,,,,,,,,,,,,,,,,,,,,,,,,,,,,,,,,,,,,,,,,,,,,,,,,,,,,711.023,717.781,0.243963364,0.256869276,1.0,0.0,0.0,0.75,compass,0.0,20.0,20.0,27.0,1.0,SoundStimuli/EyeOfTheTiger_Survivor_Cover5S.wav,,,,,,,,,,,,,,,,,,,,,,,,,,,,,,,,,,,,,,,,,,,,,,,,,,,,
,,,,,913152,1,2024-07-12_18h37.39.899,experiment,2024.1.5,MacIntel,59.95203837,6691931c2c63981b064e1f0c,6691b013c592812b0fa77191,,,,,,,,,,,,,,,,,,,,,,,,,,,,,,,,,,,,,,,,,,,,,,,,,,,,,,,,,,,,717.783,727.716,0.014154871,0.23438801,1.0,0.0,0.0,3.917,compass,0.0,21.0,21.0,10.0,1.0,SoundStimuli/LeFreak_Chic_Cover5S.wav,,,,,,,,,,,,,,,,,,,,,,,,,,,,,,,,,,,,,,,,,,,,,,,,,,,,
,,,,,913152,1,2024-07-12_18h37.39.899,experiment,2024.1.5,MacIntel,59.95203837,6691931c2c63981b064e1f0c,6691b013c592812b0fa77191,,,,,,,,,,,,,,,,,,,,,,,,,,,,,,,,,,,,,,,,,,,,,,,,,,,,,,,,,,,,727.718,738.3,0.002497918,0.213572023,1.0,0.0,0.0,4.568,compass,0.0,22.0,22.0,15.0,1.0,SoundStimuli/CrazyInLove_BeyonceFtJayZ_Cover5S.wav,,,,,,,,,,,,,,,,,,,,,,,,,,,,,,,,,,,,,,,,,,,,,,,,,,,,
,,,,,913152,1,2024-07-12_18h37.39.899,experiment,2024.1.5,MacIntel,59.95203837,6691931c2c63981b064e1f0c,6691b013c592812b0fa77191,,,,,,,,,,,,,,,,,,,,,,,,,,,,,,,,,,,,,,,,,,,,,,,,,,,,,,,,,,,,738.304,745.214,-0.114904246,0.222731057,1.0,0.0,0.0,0.901,compass,0.0,23.0,23.0,33.0,1.0,SoundStimuli/TheBoyIsMine_BrandyMonica_Original5S.wav,,,,,,,,,,,,,,,,,,,,,,,,,,,,,,,,,,,,,,,,,,,,,,,,,,,,
,,,,,913152,1,2024-07-12_18h37.39.899,experiment,2024.1.5,MacIntel,59.95203837,6691931c2c63981b064e1f0c,6691b013c592812b0fa77191,,,,,,,,,,,,,,,,,,,,,,,,,,,,,,,,,,,,,,,,,,,,,,,,,,,,,,,,,,,,745.215,751.864,0.276436303,0.291007494,1.0,0.0,0.0,0.634,compass,0.0,24.0,24.0,17.0,1.0,SoundStimuli/IWannaDanceWithSomebody_WhitneyHouston_Original5S.wav,,,,,,,,,,,,,,,,,,,,,,,,,,,,,,,,,,,,,,,,,,,,,,,,,,,,
,,,,,913152,1,2024-07-12_18h37.39.899,experiment,2024.1.5,MacIntel,59.95203837,6691931c2c63981b064e1f0c,6691b013c592812b0fa77191,,,,,,,,,,,,,,,,,,,,,,,,,,,,,,,,,,,,,,,,,,,,,,,,,,,,,,,,,,,,751.867,759.048,0.230641132,-0.103663614,1.0,0.0,0.0,1.167,compass,0.0,25.0,25.0,23.0,1.0,SoundStimuli/IWalkTheLine_JohnnyCash_Original5S.wav,,,,,,,,,,,,,,,,,,,,,,,,,,,,,,,,,,,,,,,,,,,,,,,,,,,,
,,,,,913152,1,2024-07-12_18h37.39.899,experiment,2024.1.5,MacIntel,59.95203837,6691931c2c63981b064e1f0c,6691b013c592812b0fa77191,,,,,,,,,,,,,,,,,,,,,,,,,,,,,,,,,,,,,,,,,,,,,,,,,,,,,,,,,,,,759.05,766.048,0.222314738,-0.100333056,1.0,0.0,0.0,0.983,compass,0.0,26.0,26.0,24.0,1.0,SoundStimuli/Kiss_Prince_Cover5S.wav,,,,,,,,,,,,,,,,,,,,,,,,,,,,,,,,,,,,,,,,,,,,,,,,,,,,
,,,,,913152,1,2024-07-12_18h37.39.899,experiment,2024.1.5,MacIntel,59.95203837,6691931c2c63981b064e1f0c,6691b013c592812b0fa77191,,,,,,,,,,,,,,,,,,,,,,,,,,,,,,,,,,,,,,,,,,,,,,,,,,,,,,,,,,,,766.05,772.334,-0.213988343,-0.080349709,1.0,0.0,0.0,0.269,compass,0.0,27.0,27.0,34.0,1.0,SoundStimuli/Irreplaceable_Beyonce_Cover5S.wav,,,,,,,,,,,,,,,,,,,,,,,,,,,,,,,,,,,,,,,,,,,,,,,,,,,,
,,,,,913152,1,2024-07-12_18h37.39.899,experiment,2024.1.5,MacIntel,59.95203837,6691931c2c63981b064e1f0c,6691b013c592812b0fa77191,,,,,,,,,,,,,,,,,,,,,,,,,,,,,,,,,,,,,,,,,,,,,,,,,,,,,,,,,,,,772.336,778.964,-0.231473772,-0.102830974,1.0,0.0,0.0,0.617,compass,0.0,28.0,28.0,12.0,1.0,SoundStimuli/UnbreakMyHeart_ToniBraxton_Original5S.wav,,,,,,,,,,,,,,,,,,,,,,,,,,,,,,,,,,,,,,,,,,,,,,,,,,,,
,,,,,913152,1,2024-07-12_18h37.39.899,experiment,2024.1.5,MacIntel,59.95203837,6691931c2c63981b064e1f0c,6691b013c592812b0fa77191,,,,,,,,,,,,,,,,,,,,,,,,,,,,,,,,,,,,,,,,,,,,,,,,,,,,,,,,,,,,778.965,785.632,-0.231473772,-0.102830974,1.0,0.0,0.0,0.652,compass,0.0,29.0,29.0,6.0,1.0,SoundStimuli/SaveYourTears_TheWeekndArianaGrande_Cover5S.wav,,,,,,,,,,,,,,,,,,,,,,,,,,,,,,,,,,,,,,,,,,,,,,,,,,,,
,,,,,913152,1,2024-07-12_18h37.39.899,experiment,2024.1.5,MacIntel,59.95203837,6691931c2c63981b064e1f0c,6691b013c592812b0fa77191,,,,,,,,,,,,,,,,,,,,,,,,,,,,,,,,,,,,,,,,,,,,,,,,,,,,,,,,,,,,785.633,792.081,-0.222314738,-0.137801832,1.0,0.0,0.0,0.444,compass,0.0,30.0,30.0,21.0,1.0,SoundStimuli/BridgeOverTroubledWater_SimonAndGarfunkel_Original5S.wav,,,,,,,,,,,,,,,,,,,,,,,,,,,,,,,,,,,,,,,,,,,,,,,,,,,,
,,,,,913152,1,2024-07-12_18h37.39.899,experiment,2024.1.5,MacIntel,59.95203837,6691931c2c63981b064e1f0c,6691b013c592812b0fa77191,,,,,,,,,,,,,,,,,,,,,,,,,,,,,,,,,,,,,,,,,,,,,,,,,,,,,,,,,,,,792.083,798.114,0.261448793,-0.089508743,1.0,0.0,0.0,0.017,compass,0.0,31.0,31.0,0.0,1.0,SoundStimuli/GimmeShelter_RollingStones_Original5S.wav,,,,,,,,,,,,,,,,,,,,,,,,,,,,,,,,,,,,,,,,,,,,,,,,,,,,
,,,,,913152,1,2024-07-12_18h37.39.899,experiment,2024.1.5,MacIntel,59.95203837,6691931c2c63981b064e1f0c,6691b013c592812b0fa77191,,,,,,,,,,,,,,,,,,,,,,,,,,,,,,,,,,,,,,,,,,,,,,,,,,,,,,,,,,,,798.115,804.664,0.243130724,-0.097002498,1.0,0.0,0.0,0.534,compass,0.0,32.0,32.0,14.0,1.0,SoundStimuli/LikeARollingStone_BobDylan_Original5S.wav,,,,,,,,,,,,,,,,,,,,,,,,,,,,,,,,,,,,,,,,,,,,,,,,,,,,
,,,,,913152,1,2024-07-12_18h37.39.899,experiment,2024.1.5,MacIntel,59.95203837,6691931c2c63981b064e1f0c,6691b013c592812b0fa77191,,,,,,,,,,,,,,,,,,,,,,,,,,,,,,,,,,,,,,,,,,,,,,,,,,,,,,,,,,,,804.665,811.334,0.275603664,0.284346378,1.0,0.0,0.0,0.652,compass,0.0,33.0,33.0,3.0,1.0,SoundStimuli/PartyRockAnthem_LMFAO_Original5S.wav,,,,,,,,,,,,,,,,,,,,,,,,,,,,,,,,,,,,,,,,,,,,,,,,,,,,
,,,,,913152,1,2024-07-12_18h37.39.899,experiment,2024.1.5,MacIntel,59.95203837,6691931c2c63981b064e1f0c,6691b013c592812b0fa77191,,,,,,,,,,,,,,,,,,,,,,,,,,,,,,,,,,,,,,,,,,,,,,,,,,,,,,,,,,,,811.338,818.18,-0.293089092,0.131140716,1.0,0.0,0.0,0.833,compass,0.0,34.0,34.0,7.0,1.0,SoundStimuli/MackTheKnife_BobbyDarin_Cover5S.wav,,,,,,,,,,,,,,,,,,,,,,,,,,,,,,,,,,,,,,,,,,,,,,,,,,,,
,,,,,913152,1,2024-07-12_18h37.39.899,experiment,2024.1.5,MacIntel,59.95203837,6691931c2c63981b064e1f0c,6691b013c592812b0fa77191,,,,,,,,,,,,,,,,,,,,,,,,,,,,,,,,,,,,,,,,,,,,,,,,,,,,,,,,,,,,,,,,,,,,,,,,,,,818.181,821.297,space,3.086,,821.298,825.197,right,3.864,,0.0,1.0,1.0,1.0,1.0,block_order/blockD.xlsx,,,,,,,,,,,,,,,,,,,,,,,,,,,,,,,,,,,,
,,,,,913152,1,2024-07-12_18h37.39.899,experiment,2024.1.5,MacIntel,59.95203837,6691931c2c63981b064e1f0c,6691b013c592812b0fa77191,,,,,,,,,,,,,,,,,,,,,,,,,,,,,,,,,,,,,,,,,,,,,,,,,,,,,,,,,,,,825.214,831.663,-0.068276436,0.196086595,1.0,0.0,0.0,0.399,compass,0.0,0.0,0.0,30.0,1.0,SoundStimuli/PokerFace_LadyGaga_Original5S.wav,,,,,,,,,,,,,,,,,,,,,,,,,,,,,,,,,,,,,,,,,,,,,,,,,,,,
,,,,,913152,1,2024-07-12_18h37.39.899,experiment,2024.1.5,MacIntel,59.95203837,6691931c2c63981b064e1f0c,6691b013c592812b0fa77191,,,,,,,,,,,,,,,,,,,,,,,,,,,,,,,,,,,,,,,,,,,,,,,,,,,,,,,,,,,,831.664,838.233,0.264779351,0.276852623,1.0,0.0,0.0,0.551,compass,0.0,1.0,1.0,8.0,1.0,SoundStimuli/LikeAPrayer_Madonna_Original5S.wav,,,,,,,,,,,,,,,,,,,,,,,,,,,,,,,,,,,,,,,,,,,,,,,,,,,,
,,,,,913152,1,2024-07-12_18h37.39.899,experiment,2024.1.5,MacIntel,59.95203837,6691931c2c63981b064e1f0c,6691b013c592812b0fa77191,,,,,,,,,,,,,,,,,,,,,,,,,,,,,,,,,,,,,,,,,,,,,,,,,,,,,,,,,,,,838.235,844.799,0.194004996,0.158617818,1.0,0.0,0.0,0.551,compass,0.0,2.0,2.0,12.0,1.0,SoundStimuli/IWillAlwaysLoveYou_WhitneyHouston_Cover5S.wav,,,,,,,,,,,,,,,,,,,,,,,,,,,,,,,,,,,,,,,,,,,,,,,,,,,,
,,,,,913152,1,2024-07-12_18h37.39.899,experiment,2024.1.5,MacIntel,59.95203837,6691931c2c63981b064e1f0c,6691b013c592812b0fa77191,,,,,,,,,,,,,,,,,,,,,,,,,,,,,,,,,,,,,,,,,,,,,,,,,,,,,,,,,,,,844.804,854.198,0.224812656,-0.089508743,1.0,0.0,0.0,3.383,compass,0.0,3.0,3.0,32.0,1.0,SoundStimuli/HeatWaves_GlassAnimals_Original5S.wav,,,,,,,,,,,,,,,,,,,,,,,,,,,,,,,,,,,,,,,,,,,,,,,,,,,,
,,,,,913152,1,2024-07-12_18h37.39.899,experiment,2024.1.5,MacIntel,59.95203837,6691931c2c63981b064e1f0c,6691b013c592812b0fa77191,,,,,,,,,,,,,,,,,,,,,,,,,,,,,,,,,,,,,,,,,,,,,,,,,,,,,,,,,,,,854.2,861.513,0.206494588,0.141965029,1.0,0.0,0.0,1.3,compass,0.0,4.0,4.0,4.0,1.0,SoundStimuli/GetUrFreakOn_MissyElliot_Original5S.wav,,,,,,,,,,,,,,,,,,,,,,,,,,,,,,,,,,,,,,,,,,,,,,,,,,,,
,,,,,913152,1,2024-07-12_18h37.39.899,experiment,2024.1.5,MacIntel,59.95203837,6691931c2c63981b064e1f0c,6691b013c592812b0fa77191,,,,,,,,,,,,,,,,,,,,,,,,,,,,,,,,,,,,,,,,,,,,,,,,,,,,,,,,,,,,861.515,868.047,0.240632806,-0.107826811,1.0,0.0,0.0,0.517,compass,0.0,5.0,5.0,26.0,1.0,SoundStimuli/LivinOnAPrayer_BonJovi_Cover5S.wav,,,,,,,,,,,,,,,,,,,,,,,,,,,,,,,,,,,,,,,,,,,,,,,,,,,,
,,,,,913152,1,2024-07-12_18h37.39.899,experiment,2024.1.5,MacIntel,59.95203837,6691931c2c63981b064e1f0c,6691b013c592812b0fa77191,,,,,,,,,,,,,,,,,,,,,,,,,,,,,,,,,,,,,,,,,,,,,,,,,,,,,,,,,,,,868.05,874.247,0.213988343,-0.160283097,1.0,0.0,0.0,0.195,compass,0.0,6.0,6.0,20.0,1.0,SoundStimuli/HeyYa_Outkast_Cover5S.wav,,,,,,,,,,,,,,,,,,,,,,,,,,,,,,,,,,,,,,,,,,,,,,,,,,,,
,,,,,913152,1,2024-07-12_18h37.39.899,experiment,2024.1.5,MacIntel,59.95203837,6691931c2c63981b064e1f0c,6691b013c592812b0fa77191,,,,,,,,,,,,,,,,,,,,,,,,,,,,,,,,,,,,,,,,,,,,,,,,,,,,,,,,,,,,874.249,880.364,0.221482098,0.052039967,1.0,0.0,0.0,0.1,compass,0.0,7.0,7.0,18.0,1.0,SoundStimuli/AnotherOneBitesTheDust_Queen_Original5S.wav,,,,,,,,,,,,,,,,,,,,,,,,,,,,,,,,,,,,,,,,,,,,,,,,,,,,
,,,,,913152,1,2024-07-12_18h37.39.899,experiment,2024.1.5,MacIntel,59.95203837,6691931c2c63981b064e1f0c,6691b013c592812b0fa77191,,,,,,,,,,,,,,,,,,,,,,,,,,,,,,,,,,,,,,,,,,,,,,,,,,,,,,,,,,,,880.366,886.899,0.253955037,0.259367194,1.0,0.0,0.0,0.517,compass,0.0,8.0,8.0,14.0,1.0,SoundStimuli/BlindingLights_TheWeeknd_Original5S.wav,,,,,,,,,,,,,,,,,,,,,,,,,,,,,,,,,,,,,,,,,,,,,,,,,,,,
,,,,,913152,1,2024-07-12_18h37.39.899,experiment,2024.1.5,MacIntel,59.95203837,6691931c2c63981b064e1f0c,6691b013c592812b0fa77191,,,,,,,,,,,,,,,,,,,,,,,,,,,,,,,,,,,,,,,,,,,,,,,,,,,,,,,,,,,,886.9,893.664,0.209825146,0.151956703,1.0,0.0,0.0,0.751,compass,0.0,9.0,9.0,21.0,1.0,SoundStimuli/GoodGollyMissMolly_LittleRichard_Cover5S.wav,,,,,,,,,,,,,,,,,,,,,,,,,,,,,,,,,,,,,,,,,,,,,,,,,,,,
,,,,,913152,1,2024-07-12_18h37.39.899,experiment,2024.1.5,MacIntel,59.95203837,6691931c2c63981b064e1f0c,6691b013c592812b0fa77191,,,,,,,,,,,,,,,,,,,,,,,,,,,,,,,,,,,,,,,,,,,,,,,,,,,,,,,,,,,,893.666,900.313,0.220649459,-0.128642798,1.0,0.0,0.0,0.633,compass,0.0,10.0,10.0,15.0,1.0,SoundStimuli/TikTok_Kesha_Cover5S.wav,,,,,,,,,,,,,,,,,,,,,,,,,,,,,,,,,,,,,,,,,,,,,,,,,,,,
,,,,,913152,1,2024-07-12_18h37.39.899,experiment,2024.1.5,MacIntel,59.95203837,6691931c2c63981b064e1f0c,6691b013c592812b0fa77191,,,,,,,,,,,,,,,,,,,,,,,,,,,,,,,,,,,,,,,,,,,,,,,,,,,,,,,,,,,,900.315,906.447,-0.185678601,0.074521232,1.0,0.0,0.0,0.116,compass,0.0,11.0,11.0,7.0,1.0,SoundStimuli/NoOne_AliciaKeys_Cover5S.wav,,,,,,,,,,,,,,,,,,,,,,,,,,,,,,,,,,,,,,,,,,,,,,,,,,,,
,,,,,913152,1,2024-07-12_18h37.39.899,experiment,2024.1.5,MacIntel,59.95203837,6691931c2c63981b064e1f0c,6691b013c592812b0fa77191,,,,,,,,,,,,,,,,,,,,,,,,,,,,,,,,,,,,,,,,,,,,,,,,,,,,,,,,,,,,906.449,912.983,0.274771024,0.275187344,1.0,0.0,0.0,0.519,compass,0.0,12.0,12.0,27.0,1.0,SoundStimuli/ShapeofYou_EdSheeran_Original5S.wav,,,,,,,,,,,,,,,,,,,,,,,,,,,,,,,,,,,,,,,,,,,,,,,,,,,,
,,,,,913152,1,2024-07-12_18h37.39.899,experiment,2024.1.5,MacIntel,59.95203837,6691931c2c63981b064e1f0c,6691b013c592812b0fa77191,,,,,,,,,,,,,,,,,,,,,,,,,,,,,,,,,,,,,,,,,,,,,,,,,,,,,,,,,,,,912.987,920.58,-0.23397169,-0.09450458,1.0,0.0,0.0,1.583,compass,0.0,13.0,13.0,19.0,1.0,SoundStimuli/LetsGetItOn_MarvinGaye_Cover5S.wav,,,,,,,,,,,,,,,,,,,,,,,,,,,,,,,,,,,,,,,,,,,,,,,,,,,,
,,,,,913152,1,2024-07-12_18h37.39.899,experiment,2024.1.5,MacIntel,59.95203837,6691931c2c63981b064e1f0c,6691b013c592812b0fa77191,,,,,,,,,,,,,,,,,,,,,,,,,,,,,,,,,,,,,,,,,,,,,,,,,,,,,,,,,,,,920.582,927.199,0.225645296,-0.091174022,1.0,0.0,0.0,0.601,compass,0.0,14.0,14.0,23.0,1.0,SoundStimuli/StrawberryFieldsForever_TheBeatles_Original5S.wav,,,,,,,,,,,,,,,,,,,,,,,,,,,,,,,,,,,,,,,,,,,,,,,,,,,,
,,,,,913152,1,2024-07-12_18h37.39.899,experiment,2024.1.5,MacIntel,59.95203837,6691931c2c63981b064e1f0c,6691b013c592812b0fa77191,,,,,,,,,,,,,,,,,,,,,,,,,,,,,,,,,,,,,,,,,,,,,,,,,,,,,,,,,,,,927.2,933.315,0.219816819,-0.09367194,1.0,0.0,0.0,0.101,compass,0.0,15.0,15.0,28.0,1.0,SoundStimuli/ComeAndGetYourLove_Redbone_Original5S.wav,,,,,,,,,,,,,,,,,,,,,,,,,,,,,,,,,,,,,,,,,,,,,,,,,,,,
,,,,,913152,1,2024-07-12_18h37.39.899,experiment,2024.1.5,MacIntel,59.95203837,6691931c2c63981b064e1f0c,6691b013c592812b0fa77191,,,,,,,,,,,,,,,,,,,,,,,,,,,,,,,,,,,,,,,,,,,,,,,,,,,,,,,,,,,,933.317,940.33,0.219816819,-0.127810158,1.0,0.0,0.0,0.999,compass,0.0,16.0,16.0,25.0,1.0,SoundStimuli/Respect_ArethaFranklin_Original5S.wav,,,,,,,,,,,,,,,,,,,,,,,,,,,,,,,,,,,,,,,,,,,,,,,,,,,,
,,,,,913152,1,2024-07-12_18h37.39.899,experiment,2024.1.5,MacIntel,59.95203837,6691931c2c63981b064e1f0c,6691b013c592812b0fa77191,,,,,,,,,,,,,,,,,,,,,,,,,,,,,,,,,,,,,,,,,,,,,,,,,,,,,,,,,,,,940.332,947.3,0.229808493,-0.10865945,1.0,0.0,0.0,0.953,compass,0.0,17.0,17.0,33.0,1.0,SoundStimuli/StandByMe_BenEKing_Cover5S.wav,,,,,,,,,,,,,,,,,,,,,,,,,,,,,,,,,,,,,,,,,,,,,,,,,,,,
,,,,,913152,1,2024-07-12_18h37.39.899,experiment,2024.1.5,MacIntel,59.95203837,6691931c2c63981b064e1f0c,6691b013c592812b0fa77191,,,,,,,,,,,,,,,,,,,,,,,,,,,,,,,,,,,,,,,,,,,,,,,,,,,,,,,,,,,,947.304,953.864,0.208159867,0.03122398,1.0,0.0,0.0,0.551,compass,0.0,18.0,18.0,9.0,1.0,SoundStimuli/Despacito_LuisFonsiDaddyYankee_Cover5S.wav,,,,,,,,,,,,,,,,,,,,,,,,,,,,,,,,,,,,,,,,,,,,,,,,,,,,
,,,,,913152,1,2024-07-12_18h37.39.899,experiment,2024.1.5,MacIntel,59.95203837,6691931c2c63981b064e1f0c,6691b013c592812b0fa77191,,,,,,,,,,,,,,,,,,,,,,,,,,,,,,,,,,,,,,,,,,,,,,,,,,,,,,,,,,,,953.867,960.314,0.134054954,0.143630308,1.0,0.0,0.0,0.434,compass,0.0,19.0,19.0,29.0,1.0,SoundStimuli/OldTownRoad_LilNasX_Original5S.wav,,,,,,,,,,,,,,,,,,,,,,,,,,,,,,,,,,,,,,,,,,,,,,,,,,,,
,,,,,913152,1,2024-07-12_18h37.39.899,experiment,2024.1.5,MacIntel,59.95203837,6691931c2c63981b064e1f0c,6691b013c592812b0fa77191,,,,,,,,,,,,,,,,,,,,,,,,,,,,,,,,,,,,,,,,,,,,,,,,,,,,,,,,,,,,960.316,966.831,-0.103247294,-0.136969192,1.0,0.0,0.0,0.5,compass,0.0,20.0,20.0,13.0,1.0,SoundStimuli/GodOnlyKnows_TheBeachBoys_Cover5S.wav,,,,,,,,,,,,,,,,,,,,,,,,,,,,,,,,,,,,,,,,,,,,,,,,,,,,
,,,,,913152,1,2024-07-12_18h37.39.899,experiment,2024.1.5,MacIntel,59.95203837,6691931c2c63981b064e1f0c,6691b013c592812b0fa77191,,,,,,,,,,,,,,,,,,,,,,,,,,,,,,,,,,,,,,,,,,,,,,,,,,,,,,,,,,,,966.834,974.482,0.086594505,-0.105328893,1.0,0.0,0.0,1.635,compass,0.0,21.0,21.0,31.0,1.0,SoundStimuli/TheBattleOfNewOrleans_JohnnyHorton_Cover5S.wav,,,,,,,,,,,,,,,,,,,,,,,,,,,,,,,,,,,,,,,,,,,,,,,,,,,,
,,,,,913152,1,2024-07-12_18h37.39.899,experiment,2024.1.5,MacIntel,59.95203837,6691931c2c63981b064e1f0c,6691b013c592812b0fa77191,,,,,,,,,,,,,,,,,,,,,,,,,,,,,,,,,,,,,,,,,,,,,,,,,,,,,,,,,,,,974.485,980.965,0.241465445,0.191090758,1.0,0.0,0.0,0.468,compass,0.0,22.0,22.0,24.0,1.0,SoundStimuli/UptownFunk_MarkRonson_Original5S.wav,,,,,,,,,,,,,,,,,,,,,,,,,,,,,,,,,,,,,,,,,,,,,,,,,,,,
,,,,,913152,1,2024-07-12_18h37.39.899,experiment,2024.1.5,MacIntel,59.95203837,6691931c2c63981b064e1f0c,6691b013c592812b0fa77191,,,,,,,,,,,,,,,,,,,,,,,,,,,,,,,,,,,,,,,,,,,,,,,,,,,,,,,,,,,,980.967,987.047,-0.189009159,0.201915071,1.0,0.0,0.0,0.067,compass,0.0,23.0,23.0,16.0,1.0,SoundStimuli/BohemianRhapsody_Queen_Original5S.wav,,,,,,,,,,,,,,,,,,,,,,,,,,,,,,,,,,,,,,,,,,,,,,,,,,,,
,,,,,913152,1,2024-07-12_18h37.39.899,experiment,2024.1.5,MacIntel,59.95203837,6691931c2c63981b064e1f0c,6691b013c592812b0fa77191,,,,,,,,,,,,,,,,,,,,,,,,,,,,,,,,,,,,,,,,,,,,,,,,,,,,,,,,,,,,987.049,993.864,0.09408826,0.232722731,1.0,0.0,0.0,0.8,compass,0.0,24.0,24.0,1.0,1.0,SoundStimuli/Stronger_KanyeWest_Original5S.wav,,,,,,,,,,,,,,,,,,,,,,,,,,,,,,,,,,,,,,,,,,,,,,,,,,,,
,,,,,913152,1,2024-07-12_18h37.39.899,experiment,2024.1.5,MacIntel,59.95203837,6691931c2c63981b064e1f0c,6691b013c592812b0fa77191,,,,,,,,,,,,,,,,,,,,,,,,,,,,,,,,,,,,,,,,,,,,,,,,,,,,,,,,,,,,993.866,1000.03,-0.253122398,0.240216486,1.0,0.0,0.0,0.15,compass,0.0,25.0,25.0,3.0,1.0,SoundStimuli/NoScrubs_TLC_Original5S.wav,,,,,,,,,,,,,,,,,,,,,,,,,,,,,,,,,,,,,,,,,,,,,,,,,,,,
,,,,,913152,1,2024-07-12_18h37.39.899,experiment,2024.1.5,MacIntel,59.95203837,6691931c2c63981b064e1f0c,6691b013c592812b0fa77191,,,,,,,,,,,,,,,,,,,,,,,,,,,,,,,,,,,,,,,,,,,,,,,,,,,,,,,,,,,,1000.031,1006.798,-0.229808493,-0.167776853,1.0,0.0,0.0,0.751,compass,0.0,26.0,26.0,10.0,1.0,SoundStimuli/BadDay_DanielPowter_Cover5S.wav,,,,,,,,,,,,,,,,,,,,,,,,,,,,,,,,,,,,,,,,,,,,,,,,,,,,
,,,,,913152,1,2024-07-12_18h37.39.899,experiment,2024.1.5,MacIntel,59.95203837,6691931c2c63981b064e1f0c,6691b013c592812b0fa77191,,,,,,,,,,,,,,,,,,,,,,,,,,,,,,,,,,,,,,,,,,,,,,,,,,,,,,,,,,,,1006.801,1012.88,-0.226477935,-0.167776853,1.0,0.0,0.0,0.067,compass,0.0,27.0,27.0,2.0,1.0,SoundStimuli/Mood_24kGoldnianndior_Cover5S.wav,,,,,,,,,,,,,,,,,,,,,,,,,,,,,,,,,,,,,,,,,,,,,,,,,,,,
,,,,,913152,1,2024-07-12_18h37.39.899,experiment,2024.1.5,MacIntel,59.95203837,6691931c2c63981b064e1f0c,6691b013c592812b0fa77191,,,,,,,,,,,,,,,,,,,,,,,,,,,,,,,,,,,,,,,,,,,,,,,,,,,,,,,,,,,,1012.881,1019.697,0.247293922,0.244379684,1.0,0.0,0.0,0.8,compass,0.0,28.0,28.0,0.0,1.0,SoundStimuli/StayinAlive_BeeGees_Original5S.wav,,,,,,,,,,,,,,,,,,,,,,,,,,,,,,,,,,,,,,,,,,,,,,,,,,,,
,,,,,913152,1,2024-07-12_18h37.39.899,experiment,2024.1.5,MacIntel,59.95203837,6691931c2c63981b064e1f0c,6691b013c592812b0fa77191,,,,,,,,,,,,,,,,,,,,,,,,,,,,,,,,,,,,,,,,,,,,,,,,,,,,,,,,,,,,1019.7,1025.73,0.23397169,-0.139467111,1.0,0.0,0.0,0.016,compass,0.0,29.0,29.0,22.0,1.0,SoundStimuli/RockWithYou_MichaelJackson_Original5S.wav,,,,,,,,,,,,,,,,,,,,,,,,,,,,,,,,,,,,,,,,,,,,,,,,,,,,
,,,,,913152,1,2024-07-12_18h37.39.899,experiment,2024.1.5,MacIntel,59.95203837,6691931c2c63981b064e1f0c,6691b013c592812b0fa77191,,,,,,,,,,,,,,,,,,,,,,,,,,,,,,,,,,,,,,,,,,,,,,,,,,,,,,,,,,,,1025.732,1034.029,0.268109908,0.282681099,1.0,0.0,0.0,2.283,compass,0.0,30.0,30.0,6.0,1.0,SoundStimuli/Levitating_DuaLipa_Cover5S.wav,,,,,,,,,,,,,,,,,,,,,,,,,,,,,,,,,,,,,,,,,,,,,,,,,,,,
,,,,,913152,1,2024-07-12_18h37.39.899,experiment,2024.1.5,MacIntel,59.95203837,6691931c2c63981b064e1f0c,6691b013c592812b0fa77191,,,,,,,,,,,,,,,,,,,,,,,,,,,,,,,,,,,,,,,,,,,,,,,,,,,,,,,,,,,,1034.031,1040.315,0.295587011,-0.121149042,1.0,0.0,0.0,0.268,compass,0.0,31.0,31.0,17.0,1.0,SoundStimuli/Fallin_AliciaKeys_Original5S.wav,,,,,,,,,,,,,,,,,,,,,,,,,,,,,,,,,,,,,,,,,,,,,,,,,,,,
,,,,,913152,1,2024-07-12_18h37.39.899,experiment,2024.1.5,MacIntel,59.95203837,6691931c2c63981b064e1f0c,6691b013c592812b0fa77191,,,,,,,,,,,,,,,,,,,,,,,,,,,,,,,,,,,,,,,,,,,,,,,,,,,,,,,,,,,,1040.319,1048.632,-0.148209825,-0.097002498,1.0,0.0,0.0,2.302,compass,0.0,32.0,32.0,11.0,1.0,SoundStimuli/Superstition_StevieWonder_Cover5S.wav,,,,,,,,,,,,,,,,,,,,,,,,,,,,,,,,,,,,,,,,,,,,,,,,,,,,
,,,,,913152,1,2024-07-12_18h37.39.899,experiment,2024.1.5,MacIntel,59.95203837,6691931c2c63981b064e1f0c,6691b013c592812b0fa77191,,,,,,,,,,,,,,,,,,,,,,,,,,,,,,,,,,,,,,,,,,,,,,,,,,,,,,,,,,,,1048.635,1055.197,0.258118235,0.277685262,1.0,0.0,0.0,0.551,compass,0.0,33.0,33.0,34.0,1.0,SoundStimuli/AChangeIsGonnaCome_SamCooke_Cover5S.wav,,,,,,,,,,,,,,,,,,,,,,,,,,,,,,,,,,,,,,,,,,,,,,,,,,,,
,,,,,913152,1,2024-07-12_18h37.39.899,experiment,2024.1.5,MacIntel,59.95203837,6691931c2c63981b064e1f0c,6691b013c592812b0fa77191,,,,,,,,,,,,,,,,,,,,,,,,,,,,,,,,,,,,,,,,,,,,,,,,,,,,,,,,,,,,1055.198,1061.647,0.235636969,-0.085345545,1.0,0.0,0.0,0.434,compass,0.0,34.0,34.0,5.0,1.0,SoundStimuli/MyGirl_TheTemptations_Original5S.wav,,,,,,,,,,,,,,,,,,,,,,,,,,,,,,,,,,,,,,,,,,,,,,,,,,,,
,,,,,913152,1,2024-07-12_18h37.39.899,experiment,2024.1.5,MacIntel,59.95203837,6691931c2c63981b064e1f0c,6691b013c592812b0fa77191,,,,,,,,,,,,,,,,,,,,,,,,,,,,,,,,,,,,,,,,,,,,,,,,,,,,,,,,,,,,,,,,,,,,,,,,,,,1061.649,1063.331,space,1.649,,1063.331,1065.546,right,2.171,,0.0,2.0,2.0,2.0,1.0,block_order/blockA.xlsx,,,,,,,,,,,,,,,,,,,,,,,,,,,,,,,,,,,,
,,,,,913152,1,2024-07-12_18h37.39.899,experiment,2024.1.5,MacIntel,59.95203837,6691931c2c63981b064e1f0c,6691b013c592812b0fa77191,,,,,,,,,,,,,,,,,,,,,,,,,,,,,,,,,,,,,,,,,,,,,,,,,,,,,,,,,,,,1065.553,1072.515,0.167360533,-0.147793505,1.0,0.0,0.0,0.951,compass,0.0,0.0,0.0,25.0,1.0,SoundStimuli/IllMakeLoveToYou_BoyzIIMen_Original5S.wav,,,,,,,,,,,,,,,,,,,,,,,,,,,,,,,,,,,,,,,,,,,,,,,,,,,,
,,,,,913152,1,2024-07-12_18h37.39.899,experiment,2024.1.5,MacIntel,59.95203837,6691931c2c63981b064e1f0c,6691b013c592812b0fa77191,,,,,,,,,,,,,,,,,,,,,,,,,,,,,,,,,,,,,,,,,,,,,,,,,,,,,,,,,,,,1072.519,1079.247,0.264779351,-0.113655287,1.0,0.0,0.0,0.718,compass,0.0,1.0,1.0,3.0,1.0,SoundStimuli/PartyRockAnthem_LMFAO_Cover5S.wav,,,,,,,,,,,,,,,,,,,,,,,,,,,,,,,,,,,,,,,,,,,,,,,,,,,,
,,,,,913152,1,2024-07-12_18h37.39.899,experiment,2024.1.5,MacIntel,59.95203837,6691931c2c63981b064e1f0c,6691b013c592812b0fa77191,,,,,,,,,,,,,,,,,,,,,,,,,,,,,,,,,,,,,,,,,,,,,,,,,,,,,,,,,,,,1079.248,1085.697,-0.263114072,0.267693589,1.0,0.0,0.0,0.434,compass,0.0,2.0,2.0,2.0,1.0,SoundStimuli/SmellsLikeTeenSpirit_Nirvana_Cover5S.wav,,,,,,,,,,,,,,,,,,,,,,,,,,,,,,,,,,,,,,,,,,,,,,,,,,,,
,,,,,913152,1,2024-07-12_18h37.39.899,experiment,2024.1.5,MacIntel,59.95203837,6691931c2c63981b064e1f0c,6691b013c592812b0fa77191,,,,,,,,,,,,,,,,,,,,,,,,,,,,,,,,,,,,,,,,,,,,,,,,,,,,,,,,,,,,1085.7,1091.73,-0.178184846,-0.150291424,1.0,0.0,0.0,0.017,compass,0.0,3.0,3.0,7.0,1.0,SoundStimuli/MackTheKnife_BobbyDarin_Original5S.wav,,,,,,,,,,,,,,,,,,,,,,,,,,,,,,,,,,,,,,,,,,,,,,,,,,,,
,,,,,913152,1,2024-07-12_18h37.39.899,experiment,2024.1.5,MacIntel,59.95203837,6691931c2c63981b064e1f0c,6691b013c592812b0fa77191,,,,,,,,,,,,,,,,,,,,,,,,,,,,,,,,,,,,,,,,,,,,,,,,,,,,,,,,,,,,1091.733,1098.097,0.274771024,0.276019983,1.0,0.0,0.0,0.351,compass,0.0,4.0,4.0,15.0,1.0,SoundStimuli/CrazyInLove_BeyonceFtJayZ_Original5S.wav,,,,,,,,,,,,,,,,,,,,,,,,,,,,,,,,,,,,,,,,,,,,,,,,,,,,
,,,,,913152,1,2024-07-12_18h37.39.899,experiment,2024.1.5,MacIntel,59.95203837,6691931c2c63981b064e1f0c,6691b013c592812b0fa77191,,,,,,,,,,,,,,,,,,,,,,,,,,,,,,,,,,,,,,,,,,,,,,,,,,,,,,,,,,,,1098.099,1104.529,0.2805995,-0.198584513,1.0,0.0,0.0,0.416,compass,0.0,5.0,5.0,17.0,1.0,SoundStimuli/IWannaDanceWithSomebody_WhitneyHouston_Cover5S.wav,,,,,,,,,,,,,,,,,,,,,,,,,,,,,,,,,,,,,,,,,,,,,,,,,,,,
,,,,,913152,1,2024-07-12_18h37.39.899,experiment,2024.1.5,MacIntel,59.95203837,6691931c2c63981b064e1f0c,6691b013c592812b0fa77191,,,,,,,,,,,,,,,,,,,,,,,,,,,,,,,,,,,,,,,,,,,,,,,,,,,,,,,,,,,,1104.53,1110.931,0.263114072,0.200249792,1.0,0.0,0.0,0.384,compass,0.0,6.0,6.0,10.0,1.0,SoundStimuli/LeFreak_Chic_Original5S.wav,,,,,,,,,,,,,,,,,,,,,,,,,,,,,,,,,,,,,,,,,,,,,,,,,,,,
,,,,,913152,1,2024-07-12_18h37.39.899,experiment,2024.1.5,MacIntel,59.95203837,6691931c2c63981b064e1f0c,6691b013c592812b0fa77191,,,,,,,,,,,,,,,,,,,,,,,,,,,,,,,,,,,,,,,,,,,,,,,,,,,,,,,,,,,,1110.934,1117.28,0.254787677,-0.127810158,1.0,0.0,0.0,0.333,compass,0.0,7.0,7.0,23.0,1.0,SoundStimuli/IWalkTheLine_JohnnyCash_Cover5S.wav,,,,,,,,,,,,,,,,,,,,,,,,,,,,,,,,,,,,,,,,,,,,,,,,,,,,
,,,,,913152,1,2024-07-12_18h37.39.899,experiment,2024.1.5,MacIntel,59.95203837,6691931c2c63981b064e1f0c,6691b013c592812b0fa77191,,,,,,,,,,,,,,,,,,,,,,,,,,,,,,,,,,,,,,,,,,,,,,,,,,,,,,,,,,,,1117.28,1125.413,0.254787677,-0.127810158,1.0,0.0,0.0,2.117,compass,0.0,8.0,8.0,19.0,1.0,SoundStimuli/YouLightUpMyLife_DebbyBoone_Cover5S.wav,,,,,,,,,,,,,,,,,,,,,,,,,,,,,,,,,,,,,,,,,,,,,,,,,,,,
,,,,,913152,1,2024-07-12_18h37.39.899,experiment,2024.1.5,MacIntel,59.95203837,6691931c2c63981b064e1f0c,6691b013c592812b0fa77191,,,,,,,,,,,,,,,,,,,,,,,,,,,,,,,,,,,,,,,,,,,,,,,,,,,,,,,,,,,,1125.415,1131.747,-0.241465445,-0.10865945,1.0,0.0,0.0,0.317,compass,0.0,9.0,9.0,21.0,1.0,SoundStimuli/BridgeOverTroubledWater_SimonAndGarfunkel_Cover5S.wav,,,,,,,,,,,,,,,,,,,,,,,,,,,,,,,,,,,,,,,,,,,,,,,,,,,,
,,,,,913152,1,2024-07-12_18h37.39.899,experiment,2024.1.5,MacIntel,59.95203837,6691931c2c63981b064e1f0c,6691b013c592812b0fa77191,,,,,,,,,,,,,,,,,,,,,,,,,,,,,,,,,,,,,,,,,,,,,,,,,,,,,,,,,,,,1131.748,1137.88,-0.160699417,-0.092839301,1.0,0.0,0.0,0.116,compass,0.0,10.0,10.0,8.0,1.0,SoundStimuli/EndlessLove_DianaRossLionelRichie_Original5S.wav,,,,,,,,,,,,,,,,,,,,,,,,,,,,,,,,,,,,,,,,,,,,,,,,,,,,
,,,,,913152,1,2024-07-12_18h37.39.899,experiment,2024.1.5,MacIntel,59.95203837,6691931c2c63981b064e1f0c,6691b013c592812b0fa77191,,,,,,,,,,,,,,,,,,,,,,,,,,,,,,,,,,,,,,,,,,,,,,,,,,,,,,,,,,,,1137.881,1144.215,-0.184845962,-0.07868443,1.0,0.0,0.0,0.319,compass,0.0,11.0,11.0,33.0,1.0,SoundStimuli/TheBoyIsMine_BrandyMonica_Cover5S.wav,,,,,,,,,,,,,,,,,,,,,,,,,,,,,,,,,,,,,,,,,,,,,,,,,,,,
,,,,,913152,1,2024-07-12_18h37.39.899,experiment,2024.1.5,MacIntel,59.95203837,6691931c2c63981b064e1f0c,6691b013c592812b0fa77191,,,,,,,,,,,,,,,,,,,,,,,,,,,,,,,,,,,,,,,,,,,,,,,,,,,,,,,,,,,,1144.219,1150.846,-0.227310575,0.240216486,1.0,0.0,0.0,0.617,compass,0.0,12.0,12.0,34.0,1.0,SoundStimuli/Irreplaceable_Beyonce_Original5S.wav,,,,,,,,,,,,,,,,,,,,,,,,,,,,,,,,,,,,,,,,,,,,,,,,,,,,
,,,,,913152,1,2024-07-12_18h37.39.899,experiment,2024.1.5,MacIntel,59.95203837,6691931c2c63981b064e1f0c,6691b013c592812b0fa77191,,,,,,,,,,,,,,,,,,,,,,,,,,,,,,,,,,,,,,,,,,,,,,,,,,,,,,,,,,,,1150.847,1158.73,0.054954205,0.04621149,1.0,0.0,0.0,1.866,compass,0.0,13.0,13.0,12.0,1.0,SoundStimuli/UnbreakMyHeart_ToniBraxton_Cover5S.wav,,,,,,,,,,,,,,,,,,,,,,,,,,,,,,,,,,,,,,,,,,,,,,,,,,,,
,,,,,913152,1,2024-07-12_18h37.39.899,experiment,2024.1.5,MacIntel,59.95203837,6691931c2c63981b064e1f0c,6691b013c592812b0fa77191,,,,,,,,,,,,,,,,,,,,,,,,,,,,,,,,,,,,,,,,,,,,,,,,,,,,,,,,,,,,1158.731,1165.78,0.084096586,-0.103663614,1.0,0.0,0.0,1.033,compass,0.0,14.0,14.0,1.0,1.0,SoundStimuli/Smooth_SantanaRobThomas_Cover5S.wav,,,,,,,,,,,,,,,,,,,,,,,,,,,,,,,,,,,,,,,,,,,,,,,,,,,,
,,,,,913152,1,2024-07-12_18h37.39.899,experiment,2024.1.5,MacIntel,59.95203837,6691931c2c63981b064e1f0c,6691b013c592812b0fa77191,,,,,,,,,,,,,,,,,,,,,,,,,,,,,,,,,,,,,,,,,,,,,,,,,,,,,,,,,,,,1165.782,1172.731,0.146544546,0.107826811,1.0,0.0,0.0,0.935,compass,0.0,15.0,15.0,26.0,1.0,SoundStimuli/TheSign_AceOfBase_Original5S.wav,,,,,,,,,,,,,,,,,,,,,,,,,,,,,,,,,,,,,,,,,,,,,,,,,,,,
,,,,,913152,1,2024-07-12_18h37.39.899,experiment,2024.1.5,MacIntel,59.95203837,6691931c2c63981b064e1f0c,6691b013c592812b0fa77191,,,,,,,,,,,,,,,,,,,,,,,,,,,,,,,,,,,,,,,,,,,,,,,,,,,,,,,,,,,,1172.734,1179.964,0.146544546,0.107826811,1.0,0.0,0.0,1.218,compass,0.0,16.0,16.0,20.0,1.0,SoundStimuli/FlashdanceWhatAFeeling_IreneCara_Cover5S.wav,,,,,,,,,,,,,,,,,,,,,,,,,,,,,,,,,,,,,,,,,,,,,,,,,,,,
,,,,,913152,1,2024-07-12_18h37.39.899,experiment,2024.1.5,MacIntel,59.95203837,6691931c2c63981b064e1f0c,6691b013c592812b0fa77191,,,,,,,,,,,,,,,,,,,,,,,,,,,,,,,,,,,,,,,,,,,,,,,,,,,,,,,,,,,,1179.966,1186.795,0.111573689,-0.081182348,1.0,0.0,0.0,0.816,compass,0.0,17.0,17.0,31.0,1.0,SoundStimuli/TossinAndTurnin_BobbyLewis_Cover5S.wav,,,,,,,,,,,,,,,,,,,,,,,,,,,,,,,,,,,,,,,,,,,,,,,,,,,,
,,,,,913152,1,2024-07-12_18h37.39.899,experiment,2024.1.5,MacIntel,59.95203837,6691931c2c63981b064e1f0c,6691b013c592812b0fa77191,,,,,,,,,,,,,,,,,,,,,,,,,,,,,,,,,,,,,,,,,,,,,,,,,,,,,,,,,,,,1186.796,1193.263,0.262281432,-0.302664446,1.0,0.0,0.0,0.45,compass,0.0,18.0,18.0,16.0,1.0,SoundStimuli/ItsAllInTheGame_TommyEdwards_Original5S.wav,,,,,,,,,,,,,,,,,,,,,,,,,,,,,,,,,,,,,,,,,,,,,,,,,,,,
,,,,,913152,1,2024-07-12_18h37.39.899,experiment,2024.1.5,MacIntel,59.95203837,6691931c2c63981b064e1f0c,6691b013c592812b0fa77191,,,,,,,,,,,,,,,,,,,,,,,,,,,,,,,,,,,,,,,,,,,,,,,,,,,,,,,,,,,,1193.265,1199.778,0.287260616,0.035387177,1.0,0.0,0.0,0.5,compass,0.0,19.0,19.0,18.0,1.0,SoundStimuli/Weak_SWV_Original5S.wav,,,,,,,,,,,,,,,,,,,,,,,,,,,,,,,,,,,,,,,,,,,,,,,,,,,,
,,,,,913152,1,2024-07-12_18h37.39.899,experiment,2024.1.5,MacIntel,59.95203837,6691931c2c63981b064e1f0c,6691b013c592812b0fa77191,,,,,,,,,,,,,,,,,,,,,,,,,,,,,,,,,,,,,,,,,,,,,,,,,,,,,,,,,,,,1199.781,1206.047,0.253955037,0.307660283,1.0,0.0,0.0,0.25,compass,0.0,20.0,20.0,27.0,1.0,SoundStimuli/EyeOfTheTiger_Survivor_Original5S.wav,,,,,,,,,,,,,,,,,,,,,,,,,,,,,,,,,,,,,,,,,,,,,,,,,,,,
,,,,,913152,1,2024-07-12_18h37.39.899,experiment,2024.1.5,MacIntel,59.95203837,6691931c2c63981b064e1f0c,6691b013c592812b0fa77191,,,,,,,,,,,,,,,,,,,,,,,,,,,,,,,,,,,,,,,,,,,,,,,,,,,,,,,,,,,,1206.048,1212.831,0.225645296,0.201915071,1.0,0.0,0.0,0.768,compass,0.0,21.0,21.0,4.0,1.0,SoundStimuli/Dreams_FleetwoodMac_Cover5S.wav,,,,,,,,,,,,,,,,,,,,,,,,,,,,,,,,,,,,,,,,,,,,,,,,,,,,
,,,,,913152,1,2024-07-12_18h37.39.899,experiment,2024.1.5,MacIntel,59.95203837,6691931c2c63981b064e1f0c,6691b013c592812b0fa77191,,,,,,,,,,,,,,,,,,,,,,,,,,,,,,,,,,,,,,,,,,,,,,,,,,,,,,,,,,,,1212.834,1219.379,0.232306411,-0.104496253,1.0,0.0,0.0,0.533,compass,0.0,22.0,22.0,14.0,1.0,SoundStimuli/LikeARollingStone_BobDylan_Cover5S.wav,,,,,,,,,,,,,,,,,,,,,,,,,,,,,,,,,,,,,,,,,,,,,,,,,,,,
,,,,,913152,1,2024-07-12_18h37.39.899,experiment,2024.1.5,MacIntel,59.95203837,6691931c2c63981b064e1f0c,6691b013c592812b0fa77191,,,,,,,,,,,,,,,,,,,,,,,,,,,,,,,,,,,,,,,,,,,,,,,,,,,,,,,,,,,,1219.38,1225.731,0.184845962,-0.097002498,1.0,0.0,0.0,0.334,compass,0.0,23.0,23.0,32.0,1.0,SoundStimuli/Dilemma_NellyKellyRowland_Original5S.wav,,,,,,,,,,,,,,,,,,,,,,,,,,,,,,,,,,,,,,,,,,,,,,,,,,,,
,,,,,913152,1,2024-07-12_18h37.39.899,experiment,2024.1.5,MacIntel,59.95203837,6691931c2c63981b064e1f0c,6691b013c592812b0fa77191,,,,,,,,,,,,,,,,,,,,,,,,,,,,,,,,,,,,,,,,,,,,,,,,,,,,,,,,,,,,1225.733,1232.697,-0.184845962,-0.087010824,1.0,0.0,0.0,0.952,compass,0.0,24.0,24.0,28.0,1.0,SoundStimuli/IWantToHoldYourHand_TheBeatles_Cover5S.wav,,,,,,,,,,,,,,,,,,,,,,,,,,,,,,,,,,,,,,,,,,,,,,,,,,,,
,,,,,913152,1,2024-07-12_18h37.39.899,experiment,2024.1.5,MacIntel,59.95203837,6691931c2c63981b064e1f0c,6691b013c592812b0fa77191,,,,,,,,,,,,,,,,,,,,,,,,,,,,,,,,,,,,,,,,,,,,,,,,,,,,,,,,,,,,1232.698,1239.247,0.275603664,0.035387177,1.0,0.0,0.0,0.533,compass,0.0,25.0,25.0,24.0,1.0,SoundStimuli/Kiss_Prince_Original5S.wav,,,,,,,,,,,,,,,,,,,,,,,,,,,,,,,,,,,,,,,,,,,,,,,,,,,,
,,,,,913152,1,2024-07-12_18h37.39.899,experiment,2024.1.5,MacIntel,59.95203837,6691931c2c63981b064e1f0c,6691b013c592812b0fa77191,,,,,,,,,,,,,,,,,,,,,,,,,,,,,,,,,,,,,,,,,,,,,,,,,,,,,,,,,,,,1239.248,1247.014,-0.320566195,0.230224813,1.0,0.0,0.0,1.751,compass,0.0,26.0,26.0,11.0,1.0,SoundStimuli/BlurredLines_RobinThicke_Original5S.wav,,,,,,,,,,,,,,,,,,,,,,,,,,,,,,,,,,,,,,,,,,,,,,,,,,,,
,,,,,913152,1,2024-07-12_18h37.39.899,experiment,2024.1.5,MacIntel,59.95203837,6691931c2c63981b064e1f0c,6691b013c592812b0fa77191,,,,,,,,,,,,,,,,,,,,,,,,,,,,,,,,,,,,,,,,,,,,,,,,,,,,,,,,,,,,1247.016,1254.129,0.227310575,-0.101165695,1.0,0.0,0.0,1.1,compass,0.0,27.0,27.0,0.0,1.0,SoundStimuli/GimmeShelter_RollingStones_Cover5S.wav,,,,,,,,,,,,,,,,,,,,,,,,,,,,,,,,,,,,,,,,,,,,,,,,,,,,
,,,,,913152,1,2024-07-12_18h37.39.899,experiment,2024.1.5,MacIntel,59.95203837,6691931c2c63981b064e1f0c,6691b013c592812b0fa77191,,,,,,,,,,,,,,,,,,,,,,,,,,,,,,,,,,,,,,,,,,,,,,,,,,,,,,,,,,,,1254.13,1260.579,-0.333055787,-0.066194838,1.0,0.0,0.0,0.433,compass,0.0,28.0,28.0,30.0,1.0,SoundStimuli/SomebodyThatIUsedtoKnow_Gotye_Cover5S.wav,,,,,,,,,,,,,,,,,,,,,,,,,,,,,,,,,,,,,,,,,,,,,,,,,,,,
,,,,,913152,1,2024-07-12_18h37.39.899,experiment,2024.1.5,MacIntel,59.95203837,6691931c2c63981b064e1f0c,6691b013c592812b0fa77191,,,,,,,,,,,,,,,,,,,,,,,,,,,,,,,,,,,,,,,,,,,,,,,,,,,,,,,,,,,,1260.581,1267.079,0.308076603,0.231890092,1.0,0.0,0.0,0.484,compass,0.0,29.0,29.0,22.0,1.0,SoundStimuli/Happy_PharellWilliams_Cover5S.wav,,,,,,,,,,,,,,,,,,,,,,,,,,,,,,,,,,,,,,,,,,,,,,,,,,,,
,,,,,913152,1,2024-07-12_18h37.39.899,experiment,2024.1.5,MacIntel,59.95203837,6691931c2c63981b064e1f0c,6691b013c592812b0fa77191,,,,,,,,,,,,,,,,,,,,,,,,,,,,,,,,,,,,,,,,,,,,,,,,,,,,,,,,,,,,1267.081,1274.245,-0.121565362,0.113655287,1.0,0.0,0.0,1.15,compass,0.0,30.0,30.0,9.0,1.0,SoundStimuli/HowDoILive_LeAnnRimes_Original5S.wav,,,,,,,,,,,,,,,,,,,,,,,,,,,,,,,,,,,,,,,,,,,,,,,,,,,,
,,,,,913152,1,2024-07-12_18h37.39.899,experiment,2024.1.5,MacIntel,59.95203837,6691931c2c63981b064e1f0c,6691b013c592812b0fa77191,,,,,,,,,,,,,,,,,,,,,,,,,,,,,,,,,,,,,,,,,,,,,,,,,,,,,,,,,,,,1274.246,1280.697,0.260616153,-0.228559534,1.0,0.0,0.0,0.434,compass,0.0,31.0,31.0,13.0,1.0,SoundStimuli/Perfect_EdSheeran_Original5S.wav,,,,,,,,,,,,,,,,,,,,,,,,,,,,,,,,,,,,,,,,,,,,,,,,,,,,
,,,,,913152,1,2024-07-12_18h37.39.899,experiment,2024.1.5,MacIntel,59.95203837,6691931c2c63981b064e1f0c,6691b013c592812b0fa77191,,,,,,,,,,,,,,,,,,,,,,,,,,,,,,,,,,,,,,,,,,,,,,,,,,,,,,,,,,,,1280.701,1287.329,-0.178184846,0.211906744,1.0,0.0,0.0,0.618,compass,0.0,32.0,32.0,5.0,1.0,SoundStimuli/JoyToTheWorld_ThreeDogNight_Cover5S.wav,,,,,,,,,,,,,,,,,,,,,,,,,,,,,,,,,,,,,,,,,,,,,,,,,,,,
,,,,,913152,1,2024-07-12_18h37.39.899,experiment,2024.1.5,MacIntel,59.95203837,6691931c2c63981b064e1f0c,6691b013c592812b0fa77191,,,,,,,,,,,,,,,,,,,,,,,,,,,,,,,,,,,,,,,,,,,,,,,,,,,,,,,,,,,,1287.33,1293.779,-0.261448793,0.208576187,1.0,0.0,0.0,0.433,compass,0.0,33.0,33.0,6.0,1.0,SoundStimuli/SaveYourTears_TheWeekndArianaGrande_Original5S.wav,,,,,,,,,,,,,,,,,,,,,,,,,,,,,,,,,,,,,,,,,,,,,,,,,,,,
,,,,,913152,1,2024-07-12_18h37.39.899,experiment,2024.1.5,MacIntel,59.95203837,6691931c2c63981b064e1f0c,6691b013c592812b0fa77191,,,,,,,,,,,,,,,,,,,,,,,,,,,,,,,,,,,,,,,,,,,,,,,,,,,,,,,,,,,,1293.779,1300.446,-0.243130724,-0.251873439,1.0,0.0,0.0,0.667,compass,0.0,34.0,34.0,29.0,1.0,SoundStimuli/BetteDavisEyes_KimCarnes_Cover5S.wav,,,,,,,,,,,,,,,,,,,,,,,,,,,,,,,,,,,,,,,,,,,,,,,,,,,,
,,,,,913152,1,2024-07-12_18h37.39.899,experiment,2024.1.5,MacIntel,59.95203837,6691931c2c63981b064e1f0c,6691b013c592812b0fa77191,,,,,,,,,,,,,,,,,,,,,,,,,,,,,,,,,,,,,,,,,,,,,,,,,,,,,,,,,,,,,,,,,,,,,,,,,,,1300.446,1300.447,,,,1300.447,1300.447,,,,0.0,3.0,3.0,3.0,1.0,block_order/blockB.xlsx,,,,,,,,,,,,,,,,,,,,,,,,,,,,,,,,,,,,
,,,,,913152,1,2024-07-12_18h37.39.899,experiment,2024.1.5,MacIntel,59.95203837,6691931c2c63981b064e1f0c,6691b013c592812b0fa77191,,,,,,,,,,,,,,,,,,,,,,,,,,,,,,,,,,,,,,,,,,,,,,,,,,,,,,,,,,,,,,,,,,,,,,,,,,,,,,,,,,,,,,,,,,,21.0,Item 1,I played cello between the ages of 7 and 12 and sang in musicals from 14 to 18.,Item 3,Spotify,5.0,7.0,I put it in the background when I'm doing admin work like answering emails. I also use it when I'm walking or commuting.,Never,Never,Sometimes,Sometimes,Often,Never,Never,Sometimes,Often,Never,Never,Rarely,Often,Sometimes,Rarely,Rarely,Alt rock,Folk/indie,Hip hop,I listened to a lot of classical music when I was younger and have definitely started listening to significantly more hip hop in recent years.,When I'm relaxing I put on folk/indie and when I'm working or commuting I put on alt rock and hip hop.,0.0,0.0,0.0,0.0,1.0,,
,,,,,913152,1,2024-07-12_18h37.39.899,experiment,2024.1.5,MacIntel,59.95203837,6691931c2c63981b064e1f0c,6691b013c592812b0fa77191,,,,,,,,,,,,,,,,,,,,,,,,,,,,,,,,,,,,,,,,,,,,,,,,,,,,,,,,,,,,,,,,,,,,,,,,,,,,,,,,,,,,,,,,,,,,,,,,,,,,,,,,,,,,,,,,,,,,,,,,,,,,,1556.034,1558.562
