welcome.started,welcome.stopped,space_to_continue.keys,space_to_continue.rt,space_to_continue.duration,participant,session,date,expName,psychopyVersion,OS,frameRate,STUDY_ID,SESSION_ID,consent.consent,consent.consent_recontact,consent_check.started,consent_check.stopped,calibration_ready.started,calibration_ready.stopped,cal_ready.keys,cal_ready.rt,cal_ready.duration,calibration.started,calibration.stopped,mouse.x,mouse.y,mouse.leftButton,mouse.midButton,mouse.rightButton,mouse.time,mouse.clicked_name,move_on.keys,move_on.rt,move_on.duration,run_cal.thisRepN,run_cal.thisTrialN,run_cal.thisN,run_cal.thisIndex,run_cal.ran,emotion_training_ready.started,emotion_training_ready.stopped,training_move_on.keys,training_move_on.rt,training_move_on.duration,examples.started,examples.stopped,emotion_scale.started,emotion_scale.stopped,scale_next.keys,scale_next.rt,scale_next.duration,instructions.started,instructions.stopped,next.keys,next.rt,next.duration,practice_task.started,practice_task.stopped,mouse_rating_2.x,mouse_rating_2.y,mouse_rating_2.leftButton,mouse_rating_2.midButton,mouse_rating_2.rightButton,mouse_rating_2.time,mouse_rating_2.clicked_name,ready.started,ready.stopped,key_resp.keys,key_resp.rt,key_resp.duration,set_group.started,set_group.stopped,task.started,task.stopped,mouse_rating.x,mouse_rating.y,mouse_rating.leftButton,mouse_rating.midButton,mouse_rating.rightButton,mouse_rating.time,mouse_rating.clicked_name,trials.thisRepN,trials.thisTrialN,trials.thisN,trials.thisIndex,trials.ran,clip,short_break.started,short_break.stopped,space_to_move_on.keys,space_to_move_on.rt,space_to_move_on.duration,instruction_reminder.started,instruction_reminder.stopped,reminder_move_on.keys,reminder_move_on.rt,reminder_move_on.duration,blocks.thisRepN,blocks.thisTrialN,blocks.thisN,blocks.thisIndex,blocks.ran,block,post_survey.age,post_survey.musician,post_survey.music_making,post_survey.listen_time,post_survey.medium,post_survey.music_seeking,post_survey.music_choice,post_survey.activities,post_survey.question1.Disco,post_survey.question1.Metal,post_survey.question1.Alternative rock,post_survey.question1.Country,post_survey.question1.Jazz,post_survey.question1.Ambient,post_survey.question1.Classic rock,post_survey.question1.A cappella,post_survey.question1.Folk/indie,post_survey.question1.Hip hop,post_survey.question1.Latin,post_survey.question1.Classical,post_survey.question1.R&B,post_survey.question1.Pop,post_survey.question1.Reggae,post_survey.question1.Electronic (EDM),post_survey.other_genres,post_survey.genres_ranked.text1,post_survey.genres_ranked.text2,post_survey.genres_ranked.text3,post_survey.habit_change,show_exp.thisRepN,show_exp.thisTrialN,show_exp.thisN,show_exp.thisIndex,show_exp.ran,goodbye.started,goodbye.stopped
0.0003,1.6875,space,1.6682,,927536,1,2024-07-12_18h18.43.631,experiment,2024.1.5,Win32,60.60606061,6691931c2c63981b064e1f0c,6691ab9d317a1e0cd44ce37c,,,,,,,,,,,,,,,,,,,,,,,,,,,,,,,,,,,,,,,,,,,,,,,,,,,,,,,,,,,,,,,,,,,,,,,,,,,,,,,,,,,,,,,,,,,,,,,,,,,,,,,,,,,,,,,,,,,,,,,,,,,,,,
,,,,,927536,1,2024-07-12_18h18.43.631,experiment,2024.1.5,Win32,60.60606061,6691931c2c63981b064e1f0c,6691ab9d317a1e0cd44ce37c,yes,yes,,,,,,,,,,,,,,,,,,,,,,,,,,,,,,,,,,,,,,,,,,,,,,,,,,,,,,,,,,,,,,,,,,,,,,,,,,,,,,,,,,,,,,,,,,,,,,,,,,,,,,,,,,,,,,,,,,,,,,,,,,,,
,,,,,927536,1,2024-07-12_18h18.43.631,experiment,2024.1.5,Win32,60.60606061,6691931c2c63981b064e1f0c,6691ab9d317a1e0cd44ce37c,,,23.3659,23.3661,,,,,,,,,,,,,,,,,,,,,,,,,,,,,,,,,,,,,,,,,,,,,,,,,,,,,,,,,,,,,,,,,,,,,,,,,,,,,,,,,,,,,,,,,,,,,,,,,,,,,,,,,,,,,,,,,,,,,,,,,,
,,,,,927536,1,2024-07-12_18h18.43.631,experiment,2024.1.5,Win32,60.60606061,6691931c2c63981b064e1f0c,6691ab9d317a1e0cd44ce37c,,,,,23.369,57.5431,space,34.1552,,57.5782,111.7109,"[-0.02870364718967014,-0.01481475830078125]","[-0.41388888888888886,-0.4148148430718316]","[1,1]","[0,0]","[0,0]","[9.200899999976158,18.31229999995233]","[""play_button""]",y,53.0637,,0.0,0.0,0.0,0.0,1.0,,,,,,,,,,,,,,,,,,,,,,,,,,,,,,,,,,,,,,,,,,,,,,,,,,,,,,,,,,,,,,,,,,,,,,,,,,,,,,,,,,,,,,,,,,,,,,,,,,,,
,,,,,927536,1,2024-07-12_18h18.43.631,experiment,2024.1.5,Win32,60.60606061,6691931c2c63981b064e1f0c,6691ab9d317a1e0cd44ce37c,,,,,,,,,,,,,,,,,,,,,,,,,,,111.7116,135.3275,space,23.5849,,135.3283,255.334,255.3349,271.363,right,12.4979,,271.3633,278.0441,space,6.623,,278.0446,285.0923,0.187963019,-0.168518533,1.0,0.0,0.0,1.0338,compass_2,285.0928,287.1417,space,2.0189,,287.142,287.1701,287.199,294.124,0.153703732,-0.155555556,1.0,0.0,0.0,0.9171,compass,0.0,0.0,0.0,8.0,1.0,SoundStimuli/EndlessLove_DianaRossLionelRichie_Original5S.wav,,,,,,,,,,,,,,,,,,,,,,,,,,,,,,,,,,,,,,,,,,,,,,,,,,,,
,,,,,927536,1,2024-07-12_18h18.43.631,experiment,2024.1.5,Win32,60.60606061,6691931c2c63981b064e1f0c,6691ab9d317a1e0cd44ce37c,,,,,,,,,,,,,,,,,,,,,,,,,,,,,,,,,,,,,,,,,,,,,,,,,,,,,,,,,,,,294.1495,302.2043,0.202777778,0.208333333,1.0,0.0,0.0,2.0493,compass,0.0,1.0,1.0,27.0,1.0,SoundStimuli/EyeOfTheTiger_Survivor_Original5S.wav,,,,,,,,,,,,,,,,,,,,,,,,,,,,,,,,,,,,,,,,,,,,,,,,,,,,
,,,,,927536,1,2024-07-12_18h18.43.631,experiment,2024.1.5,Win32,60.60606061,6691931c2c63981b064e1f0c,6691ab9d317a1e0cd44ce37c,,,,,,,,,,,,,,,,,,,,,,,,,,,,,,,,,,,,,,,,,,,,,,,,,,,,,,,,,,,,302.2268,311.577,-0.179629601,0.177777778,1.0,0.0,0.0,3.3491,compass,0.0,2.0,2.0,30.0,1.0,SoundStimuli/SomebodyThatIUsedtoKnow_Gotye_Cover5S.wav,,,,,,,,,,,,,,,,,,,,,,,,,,,,,,,,,,,,,,,,,,,,,,,,,,,,
,,,,,927536,1,2024-07-12_18h18.43.631,experiment,2024.1.5,Win32,60.60606061,6691931c2c63981b064e1f0c,6691ab9d317a1e0cd44ce37c,,,,,,,,,,,,,,,,,,,,,,,,,,,,,,,,,,,,,,,,,,,,,,,,,,,,,,,,,,,,311.6051,318.8232,-0.195370356,-0.163888889,1.0,0.0,0.0,1.1983,compass,0.0,3.0,3.0,0.0,1.0,SoundStimuli/GimmeShelter_RollingStones_Cover5S.wav,,,,,,,,,,,,,,,,,,,,,,,,,,,,,,,,,,,,,,,,,,,,,,,,,,,,
,,,,,927536,1,2024-07-12_18h18.43.631,experiment,2024.1.5,Win32,60.60606061,6691931c2c63981b064e1f0c,6691ab9d317a1e0cd44ce37c,,,,,,,,,,,,,,,,,,,,,,,,,,,,,,,,,,,,,,,,,,,,,,,,,,,,,,,,,,,,318.8441,325.4488,0.141666667,-0.115740755,1.0,0.0,0.0,0.5993,compass,0.0,4.0,4.0,32.0,1.0,SoundStimuli/Dilemma_NellyKellyRowland_Original5S.wav,,,,,,,,,,,,,,,,,,,,,,,,,,,,,,,,,,,,,,,,,,,,,,,,,,,,
,,,,,927536,1,2024-07-12_18h18.43.631,experiment,2024.1.5,Win32,60.60606061,6691931c2c63981b064e1f0c,6691ab9d317a1e0cd44ce37c,,,,,,,,,,,,,,,,,,,,,,,,,,,,,,,,,,,,,,,,,,,,,,,,,,,,,,,,,,,,325.466,332.0317,0.302777778,0.334259256,1.0,0.0,0.0,0.5501,compass,0.0,5.0,5.0,10.0,1.0,SoundStimuli/LeFreak_Chic_Original5S.wav,,,,,,,,,,,,,,,,,,,,,,,,,,,,,,,,,,,,,,,,,,,,,,,,,,,,
,,,,,927536,1,2024-07-12_18h18.43.631,experiment,2024.1.5,Win32,60.60606061,6691931c2c63981b064e1f0c,6691ab9d317a1e0cd44ce37c,,,,,,,,,,,,,,,,,,,,,,,,,,,,,,,,,,,,,,,,,,,,,,,,,,,,,,,,,,,,332.0598,339.7289,0.189814843,-0.225,1.0,0.0,0.0,1.6658,compass,0.0,6.0,6.0,12.0,1.0,SoundStimuli/UnbreakMyHeart_ToniBraxton_Cover5S.wav,,,,,,,,,,,,,,,,,,,,,,,,,,,,,,,,,,,,,,,,,,,,,,,,,,,,
,,,,,927536,1,2024-07-12_18h18.43.631,experiment,2024.1.5,Win32,60.60606061,6691931c2c63981b064e1f0c,6691ab9d317a1e0cd44ce37c,,,,,,,,,,,,,,,,,,,,,,,,,,,,,,,,,,,,,,,,,,,,,,,,,,,,,,,,,,,,339.7462,346.528,0.036111111,0.046296268,1.0,0.0,0.0,0.7668,compass,0.0,7.0,7.0,7.0,1.0,SoundStimuli/MackTheKnife_BobbyDarin_Original5S.wav,,,,,,,,,,,,,,,,,,,,,,,,,,,,,,,,,,,,,,,,,,,,,,,,,,,,
,,,,,927536,1,2024-07-12_18h18.43.631,experiment,2024.1.5,Win32,60.60606061,6691931c2c63981b064e1f0c,6691ab9d317a1e0cd44ce37c,,,,,,,,,,,,,,,,,,,,,,,,,,,,,,,,,,,,,,,,,,,,,,,,,,,,,,,,,,,,346.5555,355.2262,0.087037065,-0.075,1.0,0.0,0.0,2.6655,compass,0.0,8.0,8.0,25.0,1.0,SoundStimuli/IllMakeLoveToYou_BoyzIIMen_Original5S.wav,,,,,,,,,,,,,,,,,,,,,,,,,,,,,,,,,,,,,,,,,,,,,,,,,,,,
,,,,,927536,1,2024-07-12_18h18.43.631,experiment,2024.1.5,Win32,60.60606061,6691931c2c63981b064e1f0c,6691ab9d317a1e0cd44ce37c,,,,,,,,,,,,,,,,,,,,,,,,,,,,,,,,,,,,,,,,,,,,,,,,,,,,,,,,,,,,355.2544,361.7413,0.155555556,-0.172222222,1.0,0.0,0.0,0.4835,compass,0.0,9.0,9.0,14.0,1.0,SoundStimuli/LikeARollingStone_BobDylan_Cover5S.wav,,,,,,,,,,,,,,,,,,,,,,,,,,,,,,,,,,,,,,,,,,,,,,,,,,,,
,,,,,927536,1,2024-07-12_18h18.43.631,experiment,2024.1.5,Win32,60.60606061,6691931c2c63981b064e1f0c,6691ab9d317a1e0cd44ce37c,,,,,,,,,,,,,,,,,,,,,,,,,,,,,,,,,,,,,,,,,,,,,,,,,,,,,,,,,,,,361.7703,368.5899,-0.211111111,0.214814801,1.0,0.0,0.0,0.8167,compass,0.0,10.0,10.0,2.0,1.0,SoundStimuli/SmellsLikeTeenSpirit_Nirvana_Cover5S.wav,,,,,,,,,,,,,,,,,,,,,,,,,,,,,,,,,,,,,,,,,,,,,,,,,,,,
,,,,,927536,1,2024-07-12_18h18.43.631,experiment,2024.1.5,Win32,60.60606061,6691931c2c63981b064e1f0c,6691ab9d317a1e0cd44ce37c,,,,,,,,,,,,,,,,,,,,,,,,,,,,,,,,,,,,,,,,,,,,,,,,,,,,,,,,,,,,368.6164,375.3045,0.30648151,0.324074067,1.0,0.0,0.0,0.6825,compass,0.0,11.0,11.0,20.0,1.0,SoundStimuli/FlashdanceWhatAFeeling_IreneCara_Cover5S.wav,,,,,,,,,,,,,,,,,,,,,,,,,,,,,,,,,,,,,,,,,,,,,,,,,,,,
,,,,,927536,1,2024-07-12_18h18.43.631,experiment,2024.1.5,Win32,60.60606061,6691931c2c63981b064e1f0c,6691ab9d317a1e0cd44ce37c,,,,,,,,,,,,,,,,,,,,,,,,,,,,,,,,,,,,,,,,,,,,,,,,,,,,,,,,,,,,375.3216,381.7369,0.105555556,-0.026851866,1.0,0.0,0.0,0.3999,compass,0.0,12.0,12.0,26.0,1.0,SoundStimuli/TheSign_AceOfBase_Original5S.wav,,,,,,,,,,,,,,,,,,,,,,,,,,,,,,,,,,,,,,,,,,,,,,,,,,,,
,,,,,927536,1,2024-07-12_18h18.43.631,experiment,2024.1.5,Win32,60.60606061,6691931c2c63981b064e1f0c,6691ab9d317a1e0cd44ce37c,,,,,,,,,,,,,,,,,,,,,,,,,,,,,,,,,,,,,,,,,,,,,,,,,,,,,,,,,,,,381.764,388.4024,0.1,-0.089814843,1.0,0.0,0.0,0.6334,compass,0.0,13.0,13.0,16.0,1.0,SoundStimuli/ItsAllInTheGame_TommyEdwards_Original5S.wav,,,,,,,,,,,,,,,,,,,,,,,,,,,,,,,,,,,,,,,,,,,,,,,,,,,,
,,,,,927536,1,2024-07-12_18h18.43.631,experiment,2024.1.5,Win32,60.60606061,6691931c2c63981b064e1f0c,6691ab9d317a1e0cd44ce37c,,,,,,,,,,,,,,,,,,,,,,,,,,,,,,,,,,,,,,,,,,,,,,,,,,,,,,,,,,,,388.4323,395.1179,0.139814843,-0.095370399,1.0,0.0,0.0,0.6828,compass,0.0,14.0,14.0,18.0,1.0,SoundStimuli/Weak_SWV_Original5S.wav,,,,,,,,,,,,,,,,,,,,,,,,,,,,,,,,,,,,,,,,,,,,,,,,,,,,
,,,,,927536,1,2024-07-12_18h18.43.631,experiment,2024.1.5,Win32,60.60606061,6691931c2c63981b064e1f0c,6691ab9d317a1e0cd44ce37c,,,,,,,,,,,,,,,,,,,,,,,,,,,,,,,,,,,,,,,,,,,,,,,,,,,,,,,,,,,,395.1458,401.6495,0.134259288,0.147222222,1.0,0.0,0.0,0.4995,compass,0.0,15.0,15.0,11.0,1.0,SoundStimuli/BlurredLines_RobinThicke_Original5S.wav,,,,,,,,,,,,,,,,,,,,,,,,,,,,,,,,,,,,,,,,,,,,,,,,,,,,
,,,,,927536,1,2024-07-12_18h18.43.631,experiment,2024.1.5,Win32,60.60606061,6691931c2c63981b064e1f0c,6691ab9d317a1e0cd44ce37c,,,,,,,,,,,,,,,,,,,,,,,,,,,,,,,,,,,,,,,,,,,,,,,,,,,,,,,,,,,,401.6778,408.5473,0.109259288,-0.077777778,1.0,0.0,0.0,0.8662,compass,0.0,16.0,16.0,29.0,1.0,SoundStimuli/BetteDavisEyes_KimCarnes_Cover5S.wav,,,,,,,,,,,,,,,,,,,,,,,,,,,,,,,,,,,,,,,,,,,,,,,,,,,,
,,,,,927536,1,2024-07-12_18h18.43.631,experiment,2024.1.5,Win32,60.60606061,6691931c2c63981b064e1f0c,6691ab9d317a1e0cd44ce37c,,,,,,,,,,,,,,,,,,,,,,,,,,,,,,,,,,,,,,,,,,,,,,,,,,,,,,,,,,,,408.5691,415.0967,0.161111111,0.1,1.0,0.0,0.0,0.5168,compass,0.0,17.0,17.0,3.0,1.0,SoundStimuli/PartyRockAnthem_LMFAO_Cover5S.wav,,,,,,,,,,,,,,,,,,,,,,,,,,,,,,,,,,,,,,,,,,,,,,,,,,,,
,,,,,927536,1,2024-07-12_18h18.43.631,experiment,2024.1.5,Win32,60.60606061,6691931c2c63981b064e1f0c,6691ab9d317a1e0cd44ce37c,,,,,,,,,,,,,,,,,,,,,,,,,,,,,,,,,,,,,,,,,,,,,,,,,,,,,,,,,,,,415.1248,422.7272,0.15648151,-0.024074088,1.0,0.0,0.0,1.5988,compass,0.0,18.0,18.0,24.0,1.0,SoundStimuli/Kiss_Prince_Original5S.wav,,,,,,,,,,,,,,,,,,,,,,,,,,,,,,,,,,,,,,,,,,,,,,,,,,,,
,,,,,927536,1,2024-07-12_18h18.43.631,experiment,2024.1.5,Win32,60.60606061,6691931c2c63981b064e1f0c,6691ab9d317a1e0cd44ce37c,,,,,,,,,,,,,,,,,,,,,,,,,,,,,,,,,,,,,,,,,,,,,,,,,,,,,,,,,,,,422.7373,430.6762,0.168518575,0.22870369,1.0,0.0,0.0,1.9326,compass,0.0,19.0,19.0,5.0,1.0,SoundStimuli/JoyToTheWorld_ThreeDogNight_Cover5S.wav,,,,,,,,,,,,,,,,,,,,,,,,,,,,,,,,,,,,,,,,,,,,,,,,,,,,
,,,,,927536,1,2024-07-12_18h18.43.631,experiment,2024.1.5,Win32,60.60606061,6691931c2c63981b064e1f0c,6691ab9d317a1e0cd44ce37c,,,,,,,,,,,,,,,,,,,,,,,,,,,,,,,,,,,,,,,,,,,,,,,,,,,,,,,,,,,,430.7041,437.6081,0.179629686,-0.223148176,1.0,0.0,0.0,0.8999,compass,0.0,20.0,20.0,28.0,1.0,SoundStimuli/IWantToHoldYourHand_TheBeatles_Cover5S.wav,,,,,,,,,,,,,,,,,,,,,,,,,,,,,,,,,,,,,,,,,,,,,,,,,,,,
,,,,,927536,1,2024-07-12_18h18.43.631,experiment,2024.1.5,Win32,60.60606061,6691931c2c63981b064e1f0c,6691ab9d317a1e0cd44ce37c,,,,,,,,,,,,,,,,,,,,,,,,,,,,,,,,,,,,,,,,,,,,,,,,,,,,,,,,,,,,437.6357,444.2066,0.300925954,0.323148145,1.0,0.0,0.0,0.5663,compass,0.0,21.0,21.0,22.0,1.0,SoundStimuli/Happy_PharellWilliams_Cover5S.wav,,,,,,,,,,,,,,,,,,,,,,,,,,,,,,,,,,,,,,,,,,,,,,,,,,,,
,,,,,927536,1,2024-07-12_18h18.43.631,experiment,2024.1.5,Win32,60.60606061,6691931c2c63981b064e1f0c,6691ab9d317a1e0cd44ce37c,,,,,,,,,,,,,,,,,,,,,,,,,,,,,,,,,,,,,,,,,,,,,,,,,,,,,,,,,,,,444.2372,452.2883,-0.14351849,-0.058333333,1.0,0.0,0.0,2.0493,compass,0.0,22.0,22.0,9.0,1.0,SoundStimuli/HowDoILive_LeAnnRimes_Original5S.wav,,,,,,,,,,,,,,,,,,,,,,,,,,,,,,,,,,,,,,,,,,,,,,,,,,,,
,,,,,927536,1,2024-07-12_18h18.43.631,experiment,2024.1.5,Win32,60.60606061,6691931c2c63981b064e1f0c,6691ab9d317a1e0cd44ce37c,,,,,,,,,,,,,,,,,,,,,,,,,,,,,,,,,,,,,,,,,,,,,,,,,,,,,,,,,,,,452.3188,458.8364,0.166666667,-0.175925954,1.0,0.0,0.0,0.516,compass,0.0,23.0,23.0,23.0,1.0,SoundStimuli/IWalkTheLine_JohnnyCash_Cover5S.wav,,,,,,,,,,,,,,,,,,,,,,,,,,,,,,,,,,,,,,,,,,,,,,,,,,,,
,,,,,927536,1,2024-07-12_18h18.43.631,experiment,2024.1.5,Win32,60.60606061,6691931c2c63981b064e1f0c,6691ab9d317a1e0cd44ce37c,,,,,,,,,,,,,,,,,,,,,,,,,,,,,,,,,,,,,,,,,,,,,,,,,,,,,,,,,,,,458.8581,466.868,-0.187962935,-0.169444444,1.0,0.0,0.0,1.9935,compass,0.0,24.0,24.0,33.0,1.0,SoundStimuli/TheBoyIsMine_BrandyMonica_Cover5S.wav,,,,,,,,,,,,,,,,,,,,,,,,,,,,,,,,,,,,,,,,,,,,,,,,,,,,
,,,,,927536,1,2024-07-12_18h18.43.631,experiment,2024.1.5,Win32,60.60606061,6691931c2c63981b064e1f0c,6691ab9d317a1e0cd44ce37c,,,,,,,,,,,,,,,,,,,,,,,,,,,,,,,,,,,,,,,,,,,,,,,,,,,,,,,,,,,,466.8888,474.2009,0.164814843,-0.177777778,1.0,0.0,0.0,1.2917,compass,0.0,25.0,25.0,17.0,1.0,SoundStimuli/IWannaDanceWithSomebody_WhitneyHouston_Cover5S.wav,,,,,,,,,,,,,,,,,,,,,,,,,,,,,,,,,,,,,,,,,,,,,,,,,,,,
,,,,,927536,1,2024-07-12_18h18.43.631,experiment,2024.1.5,Win32,60.60606061,6691931c2c63981b064e1f0c,6691ab9d317a1e0cd44ce37c,,,,,,,,,,,,,,,,,,,,,,,,,,,,,,,,,,,,,,,,,,,,,,,,,,,,,,,,,,,,474.2265,480.933,0.175,-0.187037065,1.0,0.0,0.0,0.7009,compass,0.0,26.0,26.0,13.0,1.0,SoundStimuli/Perfect_EdSheeran_Original5S.wav,,,,,,,,,,,,,,,,,,,,,,,,,,,,,,,,,,,,,,,,,,,,,,,,,,,,
,,,,,927536,1,2024-07-12_18h18.43.631,experiment,2024.1.5,Win32,60.60606061,6691931c2c63981b064e1f0c,6691ab9d317a1e0cd44ce37c,,,,,,,,,,,,,,,,,,,,,,,,,,,,,,,,,,,,,,,,,,,,,,,,,,,,,,,,,,,,480.9632,487.6971,0.165740797,-0.177777778,1.0,0.0,0.0,0.732,compass,0.0,27.0,27.0,19.0,1.0,SoundStimuli/YouLightUpMyLife_DebbyBoone_Cover5S.wav,,,,,,,,,,,,,,,,,,,,,,,,,,,,,,,,,,,,,,,,,,,,,,,,,,,,
,,,,,927536,1,2024-07-12_18h18.43.631,experiment,2024.1.5,Win32,60.60606061,6691931c2c63981b064e1f0c,6691ab9d317a1e0cd44ce37c,,,,,,,,,,,,,,,,,,,,,,,,,,,,,,,,,,,,,,,,,,,,,,,,,,,,,,,,,,,,487.7251,495.4788,-0.147222222,-0.012962977,1.0,0.0,0.0,1.7491,compass,0.0,28.0,28.0,34.0,1.0,SoundStimuli/Irreplaceable_Beyonce_Original5S.wav,,,,,,,,,,,,,,,,,,,,,,,,,,,,,,,,,,,,,,,,,,,,,,,,,,,,
,,,,,927536,1,2024-07-12_18h18.43.631,experiment,2024.1.5,Win32,60.60606061,6691931c2c63981b064e1f0c,6691ab9d317a1e0cd44ce37c,,,,,,,,,,,,,,,,,,,,,,,,,,,,,,,,,,,,,,,,,,,,,,,,,,,,,,,,,,,,495.5042,502.127,-0.162036981,0.101851824,1.0,0.0,0.0,0.6156,compass,0.0,29.0,29.0,6.0,1.0,SoundStimuli/SaveYourTears_TheWeekndArianaGrande_Original5S.wav,,,,,,,,,,,,,,,,,,,,,,,,,,,,,,,,,,,,,,,,,,,,,,,,,,,,
,,,,,927536,1,2024-07-12_18h18.43.631,experiment,2024.1.5,Win32,60.60606061,6691931c2c63981b064e1f0c,6691ab9d317a1e0cd44ce37c,,,,,,,,,,,,,,,,,,,,,,,,,,,,,,,,,,,,,,,,,,,,,,,,,,,,,,,,,,,,502.1479,508.4768,0.189814843,0.255555556,1.0,0.0,0.0,0.3165,compass,0.0,30.0,30.0,15.0,1.0,SoundStimuli/CrazyInLove_BeyonceFtJayZ_Original5S.wav,,,,,,,,,,,,,,,,,,,,,,,,,,,,,,,,,,,,,,,,,,,,,,,,,,,,
,,,,,927536,1,2024-07-12_18h18.43.631,experiment,2024.1.5,Win32,60.60606061,6691931c2c63981b064e1f0c,6691ab9d317a1e0cd44ce37c,,,,,,,,,,,,,,,,,,,,,,,,,,,,,,,,,,,,,,,,,,,,,,,,,,,,,,,,,,,,508.5066,517.1073,0.214814843,0.281481467,1.0,0.0,0.0,2.5989,compass,0.0,31.0,31.0,1.0,1.0,SoundStimuli/Smooth_SantanaRobThomas_Cover5S.wav,,,,,,,,,,,,,,,,,,,,,,,,,,,,,,,,,,,,,,,,,,,,,,,,,,,,
,,,,,927536,1,2024-07-12_18h18.43.631,experiment,2024.1.5,Win32,60.60606061,6691931c2c63981b064e1f0c,6691ab9d317a1e0cd44ce37c,,,,,,,,,,,,,,,,,,,,,,,,,,,,,,,,,,,,,,,,,,,,,,,,,,,,,,,,,,,,517.1356,523.6227,0.228703732,0.280555556,1.0,0.0,0.0,0.4754,compass,0.0,32.0,32.0,4.0,1.0,SoundStimuli/Dreams_FleetwoodMac_Cover5S.wav,,,,,,,,,,,,,,,,,,,,,,,,,,,,,,,,,,,,,,,,,,,,,,,,,,,,
,,,,,927536,1,2024-07-12_18h18.43.631,experiment,2024.1.5,Win32,60.60606061,6691931c2c63981b064e1f0c,6691ab9d317a1e0cd44ce37c,,,,,,,,,,,,,,,,,,,,,,,,,,,,,,,,,,,,,,,,,,,,,,,,,,,,,,,,,,,,523.6514,530.1713,0.175925954,0.337037034,1.0,0.0,0.0,0.5163,compass,0.0,33.0,33.0,31.0,1.0,SoundStimuli/TossinAndTurnin_BobbyLewis_Cover5S.wav,,,,,,,,,,,,,,,,,,,,,,,,,,,,,,,,,,,,,,,,,,,,,,,,,,,,
,,,,,927536,1,2024-07-12_18h18.43.631,experiment,2024.1.5,Win32,60.60606061,6691931c2c63981b064e1f0c,6691ab9d317a1e0cd44ce37c,,,,,,,,,,,,,,,,,,,,,,,,,,,,,,,,,,,,,,,,,,,,,,,,,,,,,,,,,,,,530.1995,538.3035,-0.199074046,-0.045370399,1.0,0.0,0.0,2.0992,compass,0.0,34.0,34.0,21.0,1.0,SoundStimuli/BridgeOverTroubledWater_SimonAndGarfunkel_Cover5S.wav,,,,,,,,,,,,,,,,,,,,,,,,,,,,,,,,,,,,,,,,,,,,,,,,,,,,
,,,,,927536,1,2024-07-12_18h18.43.631,experiment,2024.1.5,Win32,60.60606061,6691931c2c63981b064e1f0c,6691ab9d317a1e0cd44ce37c,,,,,,,,,,,,,,,,,,,,,,,,,,,,,,,,,,,,,,,,,,,,,,,,,,,,,,,,,,,,,,,,,,,,,,,,,,,538.3364,555.7345,space,17.3749,,555.7348,561.583,right,5.8177,,0.0,0.0,0.0,0.0,1.0,block_order/blockB.xlsx,,,,,,,,,,,,,,,,,,,,,,,,,,,,,,,,,,,,
,,,,,927536,1,2024-07-12_18h18.43.631,experiment,2024.1.5,Win32,60.60606061,6691931c2c63981b064e1f0c,6691ab9d317a1e0cd44ce37c,,,,,,,,,,,,,,,,,,,,,,,,,,,,,,,,,,,,,,,,,,,,,,,,,,,,,,,,,,,,561.6337,569.762,0.15648151,-0.116666667,1.0,0.0,0.0,2.1158,compass,0.0,0.0,0.0,33.0,1.0,SoundStimuli/StandByMe_BenEKing_Cover5S.wav,,,,,,,,,,,,,,,,,,,,,,,,,,,,,,,,,,,,,,,,,,,,,,,,,,,,
,,,,,927536,1,2024-07-12_18h18.43.631,experiment,2024.1.5,Win32,60.60606061,6691931c2c63981b064e1f0c,6691ab9d317a1e0cd44ce37c,,,,,,,,,,,,,,,,,,,,,,,,,,,,,,,,,,,,,,,,,,,,,,,,,,,,,,,,,,,,569.7761,576.462,-0.176851824,-0.119444444,1.0,0.0,0.0,0.6835,compass,0.0,1.0,1.0,23.0,1.0,SoundStimuli/StrawberryFieldsForever_TheBeatles_Original5S.wav,,,,,,,,,,,,,,,,,,,,,,,,,,,,,,,,,,,,,,,,,,,,,,,,,,,,
,,,,,927536,1,2024-07-12_18h18.43.631,experiment,2024.1.5,Win32,60.60606061,6691931c2c63981b064e1f0c,6691ab9d317a1e0cd44ce37c,,,,,,,,,,,,,,,,,,,,,,,,,,,,,,,,,,,,,,,,,,,,,,,,,,,,,,,,,,,,576.4889,584.9595,-0.187037023,-0.132407422,1.0,0.0,0.0,2.466,compass,0.0,2.0,2.0,2.0,1.0,SoundStimuli/Mood_24kGoldnianndior_Cover5S.wav,,,,,,,,,,,,,,,,,,,,,,,,,,,,,,,,,,,,,,,,,,,,,,,,,,,,
,,,,,927536,1,2024-07-12_18h18.43.631,experiment,2024.1.5,Win32,60.60606061,6691931c2c63981b064e1f0c,6691ab9d317a1e0cd44ce37c,,,,,,,,,,,,,,,,,,,,,,,,,,,,,,,,,,,,,,,,,,,,,,,,,,,,,,,,,,,,584.9875,591.5749,0.185185242,0.137962935,1.0,0.0,0.0,0.5832,compass,0.0,3.0,3.0,18.0,1.0,SoundStimuli/AnotherOneBitesTheDust_Queen_Original5S.wav,,,,,,,,,,,,,,,,,,,,,,,,,,,,,,,,,,,,,,,,,,,,,,,,,,,,
,,,,,927536,1,2024-07-12_18h18.43.631,experiment,2024.1.5,Win32,60.60606061,6691931c2c63981b064e1f0c,6691ab9d317a1e0cd44ce37c,,,,,,,,,,,,,,,,,,,,,,,,,,,,,,,,,,,,,,,,,,,,,,,,,,,,,,,,,,,,591.5984,598.0065,0.221296353,0.273148134,1.0,0.0,0.0,0.3996,compass,0.0,4.0,4.0,28.0,1.0,SoundStimuli/ComeAndGetYourLove_Redbone_Original5S.wav,,,,,,,,,,,,,,,,,,,,,,,,,,,,,,,,,,,,,,,,,,,,,,,,,,,,
,,,,,927536,1,2024-07-12_18h18.43.631,experiment,2024.1.5,Win32,60.60606061,6691931c2c63981b064e1f0c,6691ab9d317a1e0cd44ce37c,,,,,,,,,,,,,,,,,,,,,,,,,,,,,,,,,,,,,,,,,,,,,,,,,,,,,,,,,,,,598.027,604.7058,-0.200925912,-0.115740755,1.0,0.0,0.0,0.661,compass,0.0,5.0,5.0,26.0,1.0,SoundStimuli/LivinOnAPrayer_BonJovi_Cover5S.wav,,,,,,,,,,,,,,,,,,,,,,,,,,,,,,,,,,,,,,,,,,,,,,,,,,,,
,,,,,927536,1,2024-07-12_18h18.43.631,experiment,2024.1.5,Win32,60.60606061,6691931c2c63981b064e1f0c,6691ab9d317a1e0cd44ce37c,,,,,,,,,,,,,,,,,,,,,,,,,,,,,,,,,,,,,,,,,,,,,,,,,,,,,,,,,,,,604.737,611.337,0.168518575,0.227777778,1.0,0.0,0.0,0.583,compass,0.0,6.0,6.0,29.0,1.0,SoundStimuli/OldTownRoad_LilNasX_Original5S.wav,,,,,,,,,,,,,,,,,,,,,,,,,,,,,,,,,,,,,,,,,,,,,,,,,,,,
,,,,,927536,1,2024-07-12_18h18.43.631,experiment,2024.1.5,Win32,60.60606061,6691931c2c63981b064e1f0c,6691ab9d317a1e0cd44ce37c,,,,,,,,,,,,,,,,,,,,,,,,,,,,,,,,,,,,,,,,,,,,,,,,,,,,,,,,,,,,611.3626,617.4364,0.167592621,-0.099074088,1.0,0.0,0.0,0.0674,compass,0.0,7.0,7.0,11.0,1.0,SoundStimuli/Superstition_StevieWonder_Cover5S.wav,,,,,,,,,,,,,,,,,,,,,,,,,,,,,,,,,,,,,,,,,,,,,,,,,,,,
,,,,,927536,1,2024-07-12_18h18.43.631,experiment,2024.1.5,Win32,60.60606061,6691931c2c63981b064e1f0c,6691ab9d317a1e0cd44ce37c,,,,,,,,,,,,,,,,,,,,,,,,,,,,,,,,,,,,,,,,,,,,,,,,,,,,,,,,,,,,617.4653,624.0676,0.225925954,0.218518511,1.0,0.0,0.0,0.5998,compass,0.0,8.0,8.0,9.0,1.0,SoundStimuli/Despacito_LuisFonsiDaddyYankee_Cover5S.wav,,,,,,,,,,,,,,,,,,,,,,,,,,,,,,,,,,,,,,,,,,,,,,,,,,,,
,,,,,927536,1,2024-07-12_18h18.43.631,experiment,2024.1.5,Win32,60.60606061,6691931c2c63981b064e1f0c,6691ab9d317a1e0cd44ce37c,,,,,,,,,,,,,,,,,,,,,,,,,,,,,,,,,,,,,,,,,,,,,,,,,,,,,,,,,,,,624.094,631.3825,0.178703732,0.270370356,1.0,0.0,0.0,1.2827,compass,0.0,9.0,9.0,25.0,1.0,SoundStimuli/Respect_ArethaFranklin_Original5S.wav,,,,,,,,,,,,,,,,,,,,,,,,,,,,,,,,,,,,,,,,,,,,,,,,,,,,
,,,,,927536,1,2024-07-12_18h18.43.631,experiment,2024.1.5,Win32,60.60606061,6691931c2c63981b064e1f0c,6691ab9d317a1e0cd44ce37c,,,,,,,,,,,,,,,,,,,,,,,,,,,,,,,,,,,,,,,,,,,,,,,,,,,,,,,,,,,,631.4045,646.9301,0.224074131,-0.170370399,1.0,0.0,0.0,9.5148,compass,0.0,10.0,10.0,15.0,1.0,SoundStimuli/TikTok_Kesha_Cover5S.wav,,,,,,,,,,,,,,,,,,,,,,,,,,,,,,,,,,,,,,,,,,,,,,,,,,,,
,,,,,927536,1,2024-07-12_18h18.43.631,experiment,2024.1.5,Win32,60.60606061,6691931c2c63981b064e1f0c,6691ab9d317a1e0cd44ce37c,,,,,,,,,,,,,,,,,,,,,,,,,,,,,,,,,,,,,,,,,,,,,,,,,,,,,,,,,,,,646.959,653.8782,0.172222222,0.249074067,1.0,0.0,0.0,0.9164,compass,0.0,11.0,11.0,24.0,1.0,SoundStimuli/UptownFunk_MarkRonson_Original5S.wav,,,,,,,,,,,,,,,,,,,,,,,,,,,,,,,,,,,,,,,,,,,,,,,,,,,,
,,,,,927536,1,2024-07-12_18h18.43.631,experiment,2024.1.5,Win32,60.60606061,6691931c2c63981b064e1f0c,6691ab9d317a1e0cd44ce37c,,,,,,,,,,,,,,,,,,,,,,,,,,,,,,,,,,,,,,,,,,,,,,,,,,,,,,,,,,,,653.9068,662.1424,-0.210185157,-0.129629644,1.0,0.0,0.0,2.232,compass,0.0,12.0,12.0,20.0,1.0,SoundStimuli/HeyYa_Outkast_Cover5S.wav,,,,,,,,,,,,,,,,,,,,,,,,,,,,,,,,,,,,,,,,,,,,,,,,,,,,
,,,,,927536,1,2024-07-12_18h18.43.631,experiment,2024.1.5,Win32,60.60606061,6691931c2c63981b064e1f0c,6691ab9d317a1e0cd44ce37c,,,,,,,,,,,,,,,,,,,,,,,,,,,,,,,,,,,,,,,,,,,,,,,,,,,,,,,,,,,,662.1664,668.6241,-0.184259245,0.100925912,1.0,0.0,0.0,0.4496,compass,0.0,13.0,13.0,1.0,1.0,SoundStimuli/Stronger_KanyeWest_Original5S.wav,,,,,,,,,,,,,,,,,,,,,,,,,,,,,,,,,,,,,,,,,,,,,,,,,,,,
,,,,,927536,1,2024-07-12_18h18.43.631,experiment,2024.1.5,Win32,60.60606061,6691931c2c63981b064e1f0c,6691ab9d317a1e0cd44ce37c,,,,,,,,,,,,,,,,,,,,,,,,,,,,,,,,,,,,,,,,,,,,,,,,,,,,,,,,,,,,668.6438,674.956,0.172222222,-0.13148151,1.0,0.0,0.0,0.2998,compass,0.0,14.0,14.0,12.0,1.0,SoundStimuli/IWillAlwaysLoveYou_WhitneyHouston_Cover5S.wav,,,,,,,,,,,,,,,,,,,,,,,,,,,,,,,,,,,,,,,,,,,,,,,,,,,,
,,,,,927536,1,2024-07-12_18h18.43.631,experiment,2024.1.5,Win32,60.60606061,6691931c2c63981b064e1f0c,6691ab9d317a1e0cd44ce37c,,,,,,,,,,,,,,,,,,,,,,,,,,,,,,,,,,,,,,,,,,,,,,,,,,,,,,,,,,,,674.9767,681.7555,0.170370399,0.3,1.0,0.0,0.0,0.7667,compass,0.0,15.0,15.0,30.0,1.0,SoundStimuli/PokerFace_LadyGaga_Original5S.wav,,,,,,,,,,,,,,,,,,,,,,,,,,,,,,,,,,,,,,,,,,,,,,,,,,,,
,,,,,927536,1,2024-07-12_18h18.43.631,experiment,2024.1.5,Win32,60.60606061,6691931c2c63981b064e1f0c,6691ab9d317a1e0cd44ce37c,,,,,,,,,,,,,,,,,,,,,,,,,,,,,,,,,,,,,,,,,,,,,,,,,,,,,,,,,,,,681.7868,688.5204,-0.207407379,-0.15648151,1.0,0.0,0.0,0.7162,compass,0.0,16.0,16.0,3.0,1.0,SoundStimuli/NoScrubs_TLC_Original5S.wav,,,,,,,,,,,,,,,,,,,,,,,,,,,,,,,,,,,,,,,,,,,,,,,,,,,,
,,,,,927536,1,2024-07-12_18h18.43.631,experiment,2024.1.5,Win32,60.60606061,6691931c2c63981b064e1f0c,6691ab9d317a1e0cd44ce37c,,,,,,,,,,,,,,,,,,,,,,,,,,,,,,,,,,,,,,,,,,,,,,,,,,,,,,,,,,,,688.5475,695.0026,0.161111111,-0.166666667,1.0,0.0,0.0,0.45,compass,0.0,17.0,17.0,27.0,1.0,SoundStimuli/ShapeofYou_EdSheeran_Original5S.wav,,,,,,,,,,,,,,,,,,,,,,,,,,,,,,,,,,,,,,,,,,,,,,,,,,,,
,,,,,927536,1,2024-07-12_18h18.43.631,experiment,2024.1.5,Win32,60.60606061,6691931c2c63981b064e1f0c,6691ab9d317a1e0cd44ce37c,,,,,,,,,,,,,,,,,,,,,,,,,,,,,,,,,,,,,,,,,,,,,,,,,,,,,,,,,,,,695.0317,706.9496,0.152777778,0.111111111,1.0,0.0,0.0,5.9148,compass,0.0,18.0,18.0,31.0,1.0,SoundStimuli/TheBattleOfNewOrleans_JohnnyHorton_Cover5S.wav,,,,,,,,,,,,,,,,,,,,,,,,,,,,,,,,,,,,,,,,,,,,,,,,,,,,
,,,,,927536,1,2024-07-12_18h18.43.631,experiment,2024.1.5,Win32,60.60606061,6691931c2c63981b064e1f0c,6691ab9d317a1e0cd44ce37c,,,,,,,,,,,,,,,,,,,,,,,,,,,,,,,,,,,,,,,,,,,,,,,,,,,,,,,,,,,,706.9719,713.4149,0.161111111,-0.160185199,1.0,0.0,0.0,0.433,compass,0.0,19.0,19.0,34.0,1.0,SoundStimuli/AChangeIsGonnaCome_SamCooke_Cover5S.wav,,,,,,,,,,,,,,,,,,,,,,,,,,,,,,,,,,,,,,,,,,,,,,,,,,,,
,,,,,927536,1,2024-07-12_18h18.43.631,experiment,2024.1.5,Win32,60.60606061,6691931c2c63981b064e1f0c,6691ab9d317a1e0cd44ce37c,,,,,,,,,,,,,,,,,,,,,,,,,,,,,,,,,,,,,,,,,,,,,,,,,,,,,,,,,,,,713.4367,720.8459,0.188888889,-0.137037065,1.0,0.0,0.0,1.3993,compass,0.0,20.0,20.0,22.0,1.0,SoundStimuli/RockWithYou_MichaelJackson_Original5S.wav,,,,,,,,,,,,,,,,,,,,,,,,,,,,,,,,,,,,,,,,,,,,,,,,,,,,
,,,,,927536,1,2024-07-12_18h18.43.631,experiment,2024.1.5,Win32,60.60606061,6691931c2c63981b064e1f0c,6691ab9d317a1e0cd44ce37c,,,,,,,,,,,,,,,,,,,,,,,,,,,,,,,,,,,,,,,,,,,,,,,,,,,,,,,,,,,,720.8593,727.8281,-0.196296268,0.137962935,1.0,0.0,0.0,0.9602,compass,0.0,21.0,21.0,6.0,1.0,SoundStimuli/Levitating_DuaLipa_Cover5S.wav,,,,,,,,,,,,,,,,,,,,,,,,,,,,,,,,,,,,,,,,,,,,,,,,,,,,
,,,,,927536,1,2024-07-12_18h18.43.631,experiment,2024.1.5,Win32,60.60606061,6691931c2c63981b064e1f0c,6691ab9d317a1e0cd44ce37c,,,,,,,,,,,,,,,,,,,,,,,,,,,,,,,,,,,,,,,,,,,,,,,,,,,,,,,,,,,,727.8475,735.2266,0.160185242,0.208333333,1.0,0.0,0.0,1.3661,compass,0.0,22.0,22.0,21.0,1.0,SoundStimuli/GoodGollyMissMolly_LittleRichard_Cover5S.wav,,,,,,,,,,,,,,,,,,,,,,,,,,,,,,,,,,,,,,,,,,,,,,,,,,,,
,,,,,927536,1,2024-07-12_18h18.43.631,experiment,2024.1.5,Win32,60.60606061,6691931c2c63981b064e1f0c,6691ab9d317a1e0cd44ce37c,,,,,,,,,,,,,,,,,,,,,,,,,,,,,,,,,,,,,,,,,,,,,,,,,,,,,,,,,,,,735.2504,742.3084,-0.192592578,-0.19629631,1.0,0.0,0.0,1.05,compass,0.0,23.0,23.0,16.0,1.0,SoundStimuli/BohemianRhapsody_Queen_Original5S.wav,,,,,,,,,,,,,,,,,,,,,,,,,,,,,,,,,,,,,,,,,,,,,,,,,,,,
,,,,,927536,1,2024-07-12_18h18.43.631,experiment,2024.1.5,Win32,60.60606061,6691931c2c63981b064e1f0c,6691ab9d317a1e0cd44ce37c,,,,,,,,,,,,,,,,,,,,,,,,,,,,,,,,,,,,,,,,,,,,,,,,,,,,,,,,,,,,742.3289,748.8904,-0.181481467,-0.144444444,1.0,0.0,0.0,0.5497,compass,0.0,24.0,24.0,13.0,1.0,SoundStimuli/GodOnlyKnows_TheBeachBoys_Cover5S.wav,,,,,,,,,,,,,,,,,,,,,,,,,,,,,,,,,,,,,,,,,,,,,,,,,,,,
,,,,,927536,1,2024-07-12_18h18.43.631,experiment,2024.1.5,Win32,60.60606061,6691931c2c63981b064e1f0c,6691ab9d317a1e0cd44ce37c,,,,,,,,,,,,,,,,,,,,,,,,,,,,,,,,,,,,,,,,,,,,,,,,,,,,,,,,,,,,748.9175,755.4225,0.160185242,0.215740734,1.0,0.0,0.0,0.4996,compass,0.0,25.0,25.0,14.0,1.0,SoundStimuli/BlindingLights_TheWeeknd_Original5S.wav,,,,,,,,,,,,,,,,,,,,,,,,,,,,,,,,,,,,,,,,,,,,,,,,,,,,
,,,,,927536,1,2024-07-12_18h18.43.631,experiment,2024.1.5,Win32,60.60606061,6691931c2c63981b064e1f0c,6691ab9d317a1e0cd44ce37c,,,,,,,,,,,,,,,,,,,,,,,,,,,,,,,,,,,,,,,,,,,,,,,,,,,,,,,,,,,,755.4509,761.9878,0.265740797,0.209259245,1.0,0.0,0.0,0.5333,compass,0.0,26.0,26.0,7.0,1.0,SoundStimuli/NoOne_AliciaKeys_Cover5S.wav,,,,,,,,,,,,,,,,,,,,,,,,,,,,,,,,,,,,,,,,,,,,,,,,,,,,
,,,,,927536,1,2024-07-12_18h18.43.631,experiment,2024.1.5,Win32,60.60606061,6691931c2c63981b064e1f0c,6691ab9d317a1e0cd44ce37c,,,,,,,,,,,,,,,,,,,,,,,,,,,,,,,,,,,,,,,,,,,,,,,,,,,,,,,,,,,,762.0158,768.5197,0.159259288,-0.25648151,1.0,0.0,0.0,0.4993,compass,0.0,27.0,27.0,5.0,1.0,SoundStimuli/MyGirl_TheTemptations_Original5S.wav,,,,,,,,,,,,,,,,,,,,,,,,,,,,,,,,,,,,,,,,,,,,,,,,,,,,
,,,,,927536,1,2024-07-12_18h18.43.631,experiment,2024.1.5,Win32,60.60606061,6691931c2c63981b064e1f0c,6691ab9d317a1e0cd44ce37c,,,,,,,,,,,,,,,,,,,,,,,,,,,,,,,,,,,,,,,,,,,,,,,,,,,,,,,,,,,,768.5513,775.2517,0.200925954,-0.151851866,1.0,0.0,0.0,0.6995,compass,0.0,28.0,28.0,19.0,1.0,SoundStimuli/LetsGetItOn_MarvinGaye_Cover5S.wav,,,,,,,,,,,,,,,,,,,,,,,,,,,,,,,,,,,,,,,,,,,,,,,,,,,,
,,,,,927536,1,2024-07-12_18h18.43.631,experiment,2024.1.5,Win32,60.60606061,6691931c2c63981b064e1f0c,6691ab9d317a1e0cd44ce37c,,,,,,,,,,,,,,,,,,,,,,,,,,,,,,,,,,,,,,,,,,,,,,,,,,,,,,,,,,,,775.28,782.0007,-0.199074046,-0.149074088,1.0,0.0,0.0,0.7168,compass,0.0,29.0,29.0,10.0,1.0,SoundStimuli/BadDay_DanielPowter_Cover5S.wav,,,,,,,,,,,,,,,,,,,,,,,,,,,,,,,,,,,,,,,,,,,,,,,,,,,,
,,,,,927536,1,2024-07-12_18h18.43.631,experiment,2024.1.5,Win32,60.60606061,6691931c2c63981b064e1f0c,6691ab9d317a1e0cd44ce37c,,,,,,,,,,,,,,,,,,,,,,,,,,,,,,,,,,,,,,,,,,,,,,,,,,,,,,,,,,,,782.0257,788.5485,0.212037065,0.284259245,1.0,0.0,0.0,0.5165,compass,0.0,30.0,30.0,0.0,1.0,SoundStimuli/StayinAlive_BeeGees_Original5S.wav,,,,,,,,,,,,,,,,,,,,,,,,,,,,,,,,,,,,,,,,,,,,,,,,,,,,
,,,,,927536,1,2024-07-12_18h18.43.631,experiment,2024.1.5,Win32,60.60606061,6691931c2c63981b064e1f0c,6691ab9d317a1e0cd44ce37c,,,,,,,,,,,,,,,,,,,,,,,,,,,,,,,,,,,,,,,,,,,,,,,,,,,,,,,,,,,,788.5759,795.3972,0.168518575,0.190740734,1.0,0.0,0.0,0.8163,compass,0.0,31.0,31.0,4.0,1.0,SoundStimuli/GetUrFreakOn_MissyElliot_Original5S.wav,,,,,,,,,,,,,,,,,,,,,,,,,,,,,,,,,,,,,,,,,,,,,,,,,,,,
,,,,,927536,1,2024-07-12_18h18.43.631,experiment,2024.1.5,Win32,60.60606061,6691931c2c63981b064e1f0c,6691ab9d317a1e0cd44ce37c,,,,,,,,,,,,,,,,,,,,,,,,,,,,,,,,,,,,,,,,,,,,,,,,,,,,,,,,,,,,795.4254,802.0632,0.229629686,0.222222222,1.0,0.0,0.0,0.6337,compass,0.0,32.0,32.0,8.0,1.0,SoundStimuli/LikeAPrayer_Madonna_Original5S.wav,,,,,,,,,,,,,,,,,,,,,,,,,,,,,,,,,,,,,,,,,,,,,,,,,,,,
,,,,,927536,1,2024-07-12_18h18.43.631,experiment,2024.1.5,Win32,60.60606061,6691931c2c63981b064e1f0c,6691ab9d317a1e0cd44ce37c,,,,,,,,,,,,,,,,,,,,,,,,,,,,,,,,,,,,,,,,,,,,,,,,,,,,,,,,,,,,802.0889,810.3269,0.195370399,-0.15648151,1.0,0.0,0.0,2.2326,compass,0.0,33.0,33.0,32.0,1.0,SoundStimuli/HeatWaves_GlassAnimals_Original5S.wav,,,,,,,,,,,,,,,,,,,,,,,,,,,,,,,,,,,,,,,,,,,,,,,,,,,,
,,,,,927536,1,2024-07-12_18h18.43.631,experiment,2024.1.5,Win32,60.60606061,6691931c2c63981b064e1f0c,6691ab9d317a1e0cd44ce37c,,,,,,,,,,,,,,,,,,,,,,,,,,,,,,,,,,,,,,,,,,,,,,,,,,,,,,,,,,,,810.3498,816.8261,-0.151851824,-0.147222222,1.0,0.0,0.0,0.4664,compass,0.0,34.0,34.0,17.0,1.0,SoundStimuli/Fallin_AliciaKeys_Original5S.wav,,,,,,,,,,,,,,,,,,,,,,,,,,,,,,,,,,,,,,,,,,,,,,,,,,,,
,,,,,927536,1,2024-07-12_18h18.43.631,experiment,2024.1.5,Win32,60.60606061,6691931c2c63981b064e1f0c,6691ab9d317a1e0cd44ce37c,,,,,,,,,,,,,,,,,,,,,,,,,,,,,,,,,,,,,,,,,,,,,,,,,,,,,,,,,,,,,,,,,,,,,,,,,,,816.8264,827.5567,space,10.7138,,827.5569,831.4062,right,3.8355,,0.0,1.0,1.0,1.0,1.0,block_order/blockA.xlsx,,,,,,,,,,,,,,,,,,,,,,,,,,,,,,,,,,,,
,,,,,927536,1,2024-07-12_18h18.43.631,experiment,2024.1.5,Win32,60.60606061,6691931c2c63981b064e1f0c,6691ab9d317a1e0cd44ce37c,,,,,,,,,,,,,,,,,,,,,,,,,,,,,,,,,,,,,,,,,,,,,,,,,,,,,,,,,,,,831.4419,837.9213,0.190740797,0.219444444,1.0,0.0,0.0,0.4667,compass,0.0,0.0,0.0,11.0,1.0,SoundStimuli/BlurredLines_RobinThicke_Cover5S.wav,,,,,,,,,,,,,,,,,,,,,,,,,,,,,,,,,,,,,,,,,,,,,,,,,,,,
,,,,,927536,1,2024-07-12_18h18.43.631,experiment,2024.1.5,Win32,60.60606061,6691931c2c63981b064e1f0c,6691ab9d317a1e0cd44ce37c,,,,,,,,,,,,,,,,,,,,,,,,,,,,,,,,,,,,,,,,,,,,,,,,,,,,,,,,,,,,837.9479,844.4198,0.183333333,-0.187962977,1.0,0.0,0.0,0.4661,compass,0.0,1.0,1.0,14.0,1.0,SoundStimuli/LikeARollingStone_BobDylan_Original5S.wav,,,,,,,,,,,,,,,,,,,,,,,,,,,,,,,,,,,,,,,,,,,,,,,,,,,,
,,,,,927536,1,2024-07-12_18h18.43.631,experiment,2024.1.5,Win32,60.60606061,6691931c2c63981b064e1f0c,6691ab9d317a1e0cd44ce37c,,,,,,,,,,,,,,,,,,,,,,,,,,,,,,,,,,,,,,,,,,,,,,,,,,,,,,,,,,,,844.4466,851.0188,0.325925954,0.337962956,1.0,0.0,0.0,0.5665,compass,0.0,2.0,2.0,22.0,1.0,SoundStimuli/Happy_PharellWilliams_Original5S.wav,,,,,,,,,,,,,,,,,,,,,,,,,,,,,,,,,,,,,,,,,,,,,,,,,,,,
,,,,,927536,1,2024-07-12_18h18.43.631,experiment,2024.1.5,Win32,60.60606061,6691931c2c63981b064e1f0c,6691ab9d317a1e0cd44ce37c,,,,,,,,,,,,,,,,,,,,,,,,,,,,,,,,,,,,,,,,,,,,,,,,,,,,,,,,,,,,851.048,857.5164,0.167592621,-0.184259288,1.0,0.0,0.0,0.4657,compass,0.0,3.0,3.0,23.0,1.0,SoundStimuli/IWalkTheLine_JohnnyCash_Original5S.wav,,,,,,,,,,,,,,,,,,,,,,,,,,,,,,,,,,,,,,,,,,,,,,,,,,,,
,,,,,927536,1,2024-07-12_18h18.43.631,experiment,2024.1.5,Win32,60.60606061,6691931c2c63981b064e1f0c,6691ab9d317a1e0cd44ce37c,,,,,,,,,,,,,,,,,,,,,,,,,,,,,,,,,,,,,,,,,,,,,,,,,,,,,,,,,,,,857.5336,864.0159,0.160185242,0.198148134,1.0,0.0,0.0,0.4668,compass,0.0,4.0,4.0,31.0,1.0,SoundStimuli/TossinAndTurnin_BobbyLewis_Original5S.wav,,,,,,,,,,,,,,,,,,,,,,,,,,,,,,,,,,,,,,,,,,,,,,,,,,,,
,,,,,927536,1,2024-07-12_18h18.43.631,experiment,2024.1.5,Win32,60.60606061,6691931c2c63981b064e1f0c,6691ab9d317a1e0cd44ce37c,,,,,,,,,,,,,,,,,,,,,,,,,,,,,,,,,,,,,,,,,,,,,,,,,,,,,,,,,,,,864.043,871.1641,0.188888889,-0.108333333,1.0,0.0,0.0,1.116,compass,0.0,5.0,5.0,29.0,1.0,SoundStimuli/BetteDavisEyes_KimCarnes_Original5S.wav,,,,,,,,,,,,,,,,,,,,,,,,,,,,,,,,,,,,,,,,,,,,,,,,,,,,
,,,,,927536,1,2024-07-12_18h18.43.631,experiment,2024.1.5,Win32,60.60606061,6691931c2c63981b064e1f0c,6691ab9d317a1e0cd44ce37c,,,,,,,,,,,,,,,,,,,,,,,,,,,,,,,,,,,,,,,,,,,,,,,,,,,,,,,,,,,,871.1856,877.7453,0.188888889,-0.108333333,1.0,0.0,0.0,0.5492,compass,0.0,6.0,6.0,13.0,1.0,SoundStimuli/Perfect_EdSheeran_Cover5S.wav,,,,,,,,,,,,,,,,,,,,,,,,,,,,,,,,,,,,,,,,,,,,,,,,,,,,
,,,,,927536,1,2024-07-12_18h18.43.631,experiment,2024.1.5,Win32,60.60606061,6691931c2c63981b064e1f0c,6691ab9d317a1e0cd44ce37c,,,,,,,,,,,,,,,,,,,,,,,,,,,,,,,,,,,,,,,,,,,,,,,,,,,,,,,,,,,,877.7597,885.8947,-0.175925869,0.058333333,1.0,0.0,0.0,2.1336,compass,0.0,7.0,7.0,10.0,1.0,SoundStimuli/LeFreak_Chic_Cover5S.wav,,,,,,,,,,,,,,,,,,,,,,,,,,,,,,,,,,,,,,,,,,,,,,,,,,,,
,,,,,927536,1,2024-07-12_18h18.43.631,experiment,2024.1.5,Win32,60.60606061,6691931c2c63981b064e1f0c,6691ab9d317a1e0cd44ce37c,,,,,,,,,,,,,,,,,,,,,,,,,,,,,,,,,,,,,,,,,,,,,,,,,,,,,,,,,,,,885.917,892.4597,0.225,0.291666667,1.0,0.0,0.0,0.5336,compass,0.0,8.0,8.0,3.0,1.0,SoundStimuli/PartyRockAnthem_LMFAO_Original5S.wav,,,,,,,,,,,,,,,,,,,,,,,,,,,,,,,,,,,,,,,,,,,,,,,,,,,,
,,,,,927536,1,2024-07-12_18h18.43.631,experiment,2024.1.5,Win32,60.60606061,6691931c2c63981b064e1f0c,6691ab9d317a1e0cd44ce37c,,,,,,,,,,,,,,,,,,,,,,,,,,,,,,,,,,,,,,,,,,,,,,,,,,,,,,,,,,,,892.4881,899.4073,0.168518575,-0.178703732,1.0,0.0,0.0,0.9157,compass,0.0,9.0,9.0,9.0,1.0,SoundStimuli/HowDoILive_LeAnnRimes_Cover5S.wav,,,,,,,,,,,,,,,,,,,,,,,,,,,,,,,,,,,,,,,,,,,,,,,,,,,,
,,,,,927536,1,2024-07-12_18h18.43.631,experiment,2024.1.5,Win32,60.60606061,6691931c2c63981b064e1f0c,6691ab9d317a1e0cd44ce37c,,,,,,,,,,,,,,,,,,,,,,,,,,,,,,,,,,,,,,,,,,,,,,,,,,,,,,,,,,,,899.426,905.9399,-0.194444444,-0.155555556,1.0,0.0,0.0,0.5001,compass,0.0,10.0,10.0,0.0,1.0,SoundStimuli/GimmeShelter_RollingStones_Original5S.wav,,,,,,,,,,,,,,,,,,,,,,,,,,,,,,,,,,,,,,,,,,,,,,,,,,,,
,,,,,927536,1,2024-07-12_18h18.43.631,experiment,2024.1.5,Win32,60.60606061,6691931c2c63981b064e1f0c,6691ab9d317a1e0cd44ce37c,,,,,,,,,,,,,,,,,,,,,,,,,,,,,,,,,,,,,,,,,,,,,,,,,,,,,,,,,,,,905.9667,912.538,0.199074131,0.247222222,1.0,0.0,0.0,0.5656,compass,0.0,11.0,11.0,27.0,1.0,SoundStimuli/EyeOfTheTiger_Survivor_Cover5S.wav,,,,,,,,,,,,,,,,,,,,,,,,,,,,,,,,,,,,,,,,,,,,,,,,,,,,
,,,,,927536,1,2024-07-12_18h18.43.631,experiment,2024.1.5,Win32,60.60606061,6691931c2c63981b064e1f0c,6691ab9d317a1e0cd44ce37c,,,,,,,,,,,,,,,,,,,,,,,,,,,,,,,,,,,,,,,,,,,,,,,,,,,,,,,,,,,,912.5599,919.1866,0.132407464,-0.049074088,1.0,0.0,0.0,0.6161,compass,0.0,12.0,12.0,33.0,1.0,SoundStimuli/TheBoyIsMine_BrandyMonica_Original5S.wav,,,,,,,,,,,,,,,,,,,,,,,,,,,,,,,,,,,,,,,,,,,,,,,,,,,,
,,,,,927536,1,2024-07-12_18h18.43.631,experiment,2024.1.5,Win32,60.60606061,6691931c2c63981b064e1f0c,6691ab9d317a1e0cd44ce37c,,,,,,,,,,,,,,,,,,,,,,,,,,,,,,,,,,,,,,,,,,,,,,,,,,,,,,,,,,,,919.2037,927.0856,-0.152777778,-0.128703732,1.0,0.0,0.0,1.8664,compass,0.0,13.0,13.0,7.0,1.0,SoundStimuli/MackTheKnife_BobbyDarin_Cover5S.wav,,,,,,,,,,,,,,,,,,,,,,,,,,,,,,,,,,,,,,,,,,,,,,,,,,,,
,,,,,927536,1,2024-07-12_18h18.43.631,experiment,2024.1.5,Win32,60.60606061,6691931c2c63981b064e1f0c,6691ab9d317a1e0cd44ce37c,,,,,,,,,,,,,,,,,,,,,,,,,,,,,,,,,,,,,,,,,,,,,,,,,,,,,,,,,,,,927.1146,934.3168,0.166666667,0.295370356,1.0,0.0,0.0,1.1926,compass,0.0,14.0,14.0,20.0,1.0,SoundStimuli/FlashdanceWhatAFeeling_IreneCara_Original5S.wav,,,,,,,,,,,,,,,,,,,,,,,,,,,,,,,,,,,,,,,,,,,,,,,,,,,,
,,,,,927536,1,2024-07-12_18h18.43.631,experiment,2024.1.5,Win32,60.60606061,6691931c2c63981b064e1f0c,6691ab9d317a1e0cd44ce37c,,,,,,,,,,,,,,,,,,,,,,,,,,,,,,,,,,,,,,,,,,,,,,,,,,,,,,,,,,,,934.3441,940.8325,-0.199074046,0.197222222,1.0,0.0,0.0,0.4834,compass,0.0,15.0,15.0,2.0,1.0,SoundStimuli/SmellsLikeTeenSpirit_Nirvana_Original5S.wav,,,,,,,,,,,,,,,,,,,,,,,,,,,,,,,,,,,,,,,,,,,,,,,,,,,,
,,,,,927536,1,2024-07-12_18h18.43.631,experiment,2024.1.5,Win32,60.60606061,6691931c2c63981b064e1f0c,6691ab9d317a1e0cd44ce37c,,,,,,,,,,,,,,,,,,,,,,,,,,,,,,,,,,,,,,,,,,,,,,,,,,,,,,,,,,,,940.8608,947.3808,0.169444444,-0.212963019,1.0,0.0,0.0,0.5163,compass,0.0,16.0,16.0,18.0,1.0,SoundStimuli/Weak_SWV_Cover5S.wav,,,,,,,,,,,,,,,,,,,,,,,,,,,,,,,,,,,,,,,,,,,,,,,,,,,,
,,,,,927536,1,2024-07-12_18h18.43.631,experiment,2024.1.5,Win32,60.60606061,6691931c2c63981b064e1f0c,6691ab9d317a1e0cd44ce37c,,,,,,,,,,,,,,,,,,,,,,,,,,,,,,,,,,,,,,,,,,,,,,,,,,,,,,,,,,,,947.4082,953.713,0.262963019,0.242592578,1.0,0.0,0.0,0.2996,compass,0.0,17.0,17.0,17.0,1.0,SoundStimuli/IWannaDanceWithSomebody_WhitneyHouston_Original5S.wav,,,,,,,,,,,,,,,,,,,,,,,,,,,,,,,,,,,,,,,,,,,,,,,,,,,,
,,,,,927536,1,2024-07-12_18h18.43.631,experiment,2024.1.5,Win32,60.60606061,6691931c2c63981b064e1f0c,6691ab9d317a1e0cd44ce37c,,,,,,,,,,,,,,,,,,,,,,,,,,,,,,,,,,,,,,,,,,,,,,,,,,,,,,,,,,,,953.7416,962.3612,0.221296353,-0.095370399,1.0,0.0,0.0,2.6159,compass,0.0,18.0,18.0,8.0,1.0,SoundStimuli/EndlessLove_DianaRossLionelRichie_Cover5S.wav,,,,,,,,,,,,,,,,,,,,,,,,,,,,,,,,,,,,,,,,,,,,,,,,,,,,
,,,,,927536,1,2024-07-12_18h18.43.631,experiment,2024.1.5,Win32,60.60606061,6691931c2c63981b064e1f0c,6691ab9d317a1e0cd44ce37c,,,,,,,,,,,,,,,,,,,,,,,,,,,,,,,,,,,,,,,,,,,,,,,,,,,,,,,,,,,,962.3871,969.8922,0.110185242,-0.042592621,1.0,0.0,0.0,1.4938,compass,0.0,19.0,19.0,16.0,1.0,SoundStimuli/ItsAllInTheGame_TommyEdwards_Cover5S.wav,,,,,,,,,,,,,,,,,,,,,,,,,,,,,,,,,,,,,,,,,,,,,,,,,,,,
,,,,,927536,1,2024-07-12_18h18.43.631,experiment,2024.1.5,Win32,60.60606061,6691931c2c63981b064e1f0c,6691ab9d317a1e0cd44ce37c,,,,,,,,,,,,,,,,,,,,,,,,,,,,,,,,,,,,,,,,,,,,,,,,,,,,,,,,,,,,969.9155,978.1239,-0.124074046,0.075,1.0,0.0,0.0,2.1988,compass,0.0,20.0,20.0,1.0,1.0,SoundStimuli/Smooth_SantanaRobThomas_Original5S.wav,,,,,,,,,,,,,,,,,,,,,,,,,,,,,,,,,,,,,,,,,,,,,,,,,,,,
,,,,,927536,1,2024-07-12_18h18.43.631,experiment,2024.1.5,Win32,60.60606061,6691931c2c63981b064e1f0c,6691ab9d317a1e0cd44ce37c,,,,,,,,,,,,,,,,,,,,,,,,,,,,,,,,,,,,,,,,,,,,,,,,,,,,,,,,,,,,978.1481,984.6957,0.171296353,-0.103703732,1.0,0.0,0.0,0.5398,compass,0.0,21.0,21.0,4.0,1.0,SoundStimuli/Dreams_FleetwoodMac_Original5S.wav,,,,,,,,,,,,,,,,,,,,,,,,,,,,,,,,,,,,,,,,,,,,,,,,,,,,
,,,,,927536,1,2024-07-12_18h18.43.631,experiment,2024.1.5,Win32,60.60606061,6691931c2c63981b064e1f0c,6691ab9d317a1e0cd44ce37c,,,,,,,,,,,,,,,,,,,,,,,,,,,,,,,,,,,,,,,,,,,,,,,,,,,,,,,,,,,,984.7141,991.4045,0.192592621,0.161111111,1.0,0.0,0.0,0.6831,compass,0.0,22.0,22.0,28.0,1.0,SoundStimuli/IWantToHoldYourHand_TheBeatles_Original5S.wav,,,,,,,,,,,,,,,,,,,,,,,,,,,,,,,,,,,,,,,,,,,,,,,,,,,,
,,,,,927536,1,2024-07-12_18h18.43.631,experiment,2024.1.5,Win32,60.60606061,6691931c2c63981b064e1f0c,6691ab9d317a1e0cd44ce37c,,,,,,,,,,,,,,,,,,,,,,,,,,,,,,,,,,,,,,,,,,,,,,,,,,,,,,,,,,,,991.427,998.769,0.178703732,0.101851824,1.0,0.0,0.0,1.3327,compass,0.0,23.0,23.0,5.0,1.0,SoundStimuli/JoyToTheWorld_ThreeDogNight_Original5S.wav,,,,,,,,,,,,,,,,,,,,,,,,,,,,,,,,,,,,,,,,,,,,,,,,,,,,
,,,,,927536,1,2024-07-12_18h18.43.631,experiment,2024.1.5,Win32,60.60606061,6691931c2c63981b064e1f0c,6691ab9d317a1e0cd44ce37c,,,,,,,,,,,,,,,,,,,,,,,,,,,,,,,,,,,,,,,,,,,,,,,,,,,,,,,,,,,,998.7826,1007.0683,-0.04351849,-0.027777778,1.0,0.0,0.0,2.2826,compass,0.0,24.0,24.0,34.0,1.0,SoundStimuli/Irreplaceable_Beyonce_Cover5S.wav,,,,,,,,,,,,,,,,,,,,,,,,,,,,,,,,,,,,,,,,,,,,,,,,,,,,
,,,,,927536,1,2024-07-12_18h18.43.631,experiment,2024.1.5,Win32,60.60606061,6691931c2c63981b064e1f0c,6691ab9d317a1e0cd44ce37c,,,,,,,,,,,,,,,,,,,,,,,,,,,,,,,,,,,,,,,,,,,,,,,,,,,,,,,,,,,,1007.0959,1015.3326,0.122222222,-0.079629644,1.0,0.0,0.0,2.2324,compass,0.0,25.0,25.0,32.0,1.0,SoundStimuli/Dilemma_NellyKellyRowland_Cover5S.wav,,,,,,,,,,,,,,,,,,,,,,,,,,,,,,,,,,,,,,,,,,,,,,,,,,,,
,,,,,927536,1,2024-07-12_18h18.43.631,experiment,2024.1.5,Win32,60.60606061,6691931c2c63981b064e1f0c,6691ab9d317a1e0cd44ce37c,,,,,,,,,,,,,,,,,,,,,,,,,,,,,,,,,,,,,,,,,,,,,,,,,,,,,,,,,,,,1015.364,1022.3306,0.149074131,-0.090740755,1.0,0.0,0.0,0.9657,compass,0.0,26.0,26.0,25.0,1.0,SoundStimuli/IllMakeLoveToYou_BoyzIIMen_Cover5S.wav,,,,,,,,,,,,,,,,,,,,,,,,,,,,,,,,,,,,,,,,,,,,,,,,,,,,
,,,,,927536,1,2024-07-12_18h18.43.631,experiment,2024.1.5,Win32,60.60606061,6691931c2c63981b064e1f0c,6691ab9d317a1e0cd44ce37c,,,,,,,,,,,,,,,,,,,,,,,,,,,,,,,,,,,,,,,,,,,,,,,,,,,,,,,,,,,,1022.3431,1029.2295,-0.182407379,-0.05648151,1.0,0.0,0.0,0.8832,compass,0.0,27.0,27.0,30.0,1.0,SoundStimuli/SomebodyThatIUsedtoKnow_Gotye_Original5S.wav,,,,,,,,,,,,,,,,,,,,,,,,,,,,,,,,,,,,,,,,,,,,,,,,,,,,
,,,,,927536,1,2024-07-12_18h18.43.631,experiment,2024.1.5,Win32,60.60606061,6691931c2c63981b064e1f0c,6691ab9d317a1e0cd44ce37c,,,,,,,,,,,,,,,,,,,,,,,,,,,,,,,,,,,,,,,,,,,,,,,,,,,,,,,,,,,,1029.257,1035.678,-0.187962935,-0.161111111,1.0,0.0,0.0,0.4094,compass,0.0,28.0,28.0,6.0,1.0,SoundStimuli/SaveYourTears_TheWeekndArianaGrande_Cover5S.wav,,,,,,,,,,,,,,,,,,,,,,,,,,,,,,,,,,,,,,,,,,,,,,,,,,,,
,,,,,927536,1,2024-07-12_18h18.43.631,experiment,2024.1.5,Win32,60.60606061,6691931c2c63981b064e1f0c,6691ab9d317a1e0cd44ce37c,,,,,,,,,,,,,,,,,,,,,,,,,,,,,,,,,,,,,,,,,,,,,,,,,,,,,,,,,,,,1035.7005,1044.3265,-0.062036981,-0.051851866,1.0,0.0,0.0,2.6163,compass,0.0,29.0,29.0,24.0,1.0,SoundStimuli/Kiss_Prince_Cover5S.wav,,,,,,,,,,,,,,,,,,,,,,,,,,,,,,,,,,,,,,,,,,,,,,,,,,,,
,,,,,927536,1,2024-07-12_18h18.43.631,experiment,2024.1.5,Win32,60.60606061,6691931c2c63981b064e1f0c,6691ab9d317a1e0cd44ce37c,,,,,,,,,,,,,,,,,,,,,,,,,,,,,,,,,,,,,,,,,,,,,,,,,,,,,,,,,,,,1044.3578,1053.1073,0.255555556,-0.089814843,1.0,0.0,0.0,2.7488,compass,0.0,30.0,30.0,15.0,1.0,SoundStimuli/CrazyInLove_BeyonceFtJayZ_Cover5S.wav,,,,,,,,,,,,,,,,,,,,,,,,,,,,,,,,,,,,,,,,,,,,,,,,,,,,
,,,,,927536,1,2024-07-12_18h18.43.631,experiment,2024.1.5,Win32,60.60606061,6691931c2c63981b064e1f0c,6691ab9d317a1e0cd44ce37c,,,,,,,,,,,,,,,,,,,,,,,,,,,,,,,,,,,,,,,,,,,,,,,,,,,,,,,,,,,,1053.1248,1059.6896,-0.169444444,-0.139814843,1.0,0.0,0.0,0.5497,compass,0.0,31.0,31.0,12.0,1.0,SoundStimuli/UnbreakMyHeart_ToniBraxton_Original5S.wav,,,,,,,,,,,,,,,,,,,,,,,,,,,,,,,,,,,,,,,,,,,,,,,,,,,,
,,,,,927536,1,2024-07-12_18h18.43.631,experiment,2024.1.5,Win32,60.60606061,6691931c2c63981b064e1f0c,6691ab9d317a1e0cd44ce37c,,,,,,,,,,,,,,,,,,,,,,,,,,,,,,,,,,,,,,,,,,,,,,,,,,,,,,,,,,,,1059.7184,1066.2056,-0.196296268,-0.144444444,1.0,0.0,0.0,0.4835,compass,0.0,32.0,32.0,21.0,1.0,SoundStimuli/BridgeOverTroubledWater_SimonAndGarfunkel_Original5S.wav,,,,,,,,,,,,,,,,,,,,,,,,,,,,,,,,,,,,,,,,,,,,,,,,,,,,
,,,,,927536,1,2024-07-12_18h18.43.631,experiment,2024.1.5,Win32,60.60606061,6691931c2c63981b064e1f0c,6691ab9d317a1e0cd44ce37c,,,,,,,,,,,,,,,,,,,,,,,,,,,,,,,,,,,,,,,,,,,,,,,,,,,,,,,,,,,,1066.2326,1072.5704,-0.094444444,0.06851849,1.0,0.0,0.0,0.3331,compass,0.0,33.0,33.0,26.0,1.0,SoundStimuli/TheSign_AceOfBase_Cover5S.wav,,,,,,,,,,,,,,,,,,,,,,,,,,,,,,,,,,,,,,,,,,,,,,,,,,,,
,,,,,927536,1,2024-07-12_18h18.43.631,experiment,2024.1.5,Win32,60.60606061,6691931c2c63981b064e1f0c,6691ab9d317a1e0cd44ce37c,,,,,,,,,,,,,,,,,,,,,,,,,,,,,,,,,,,,,,,,,,,,,,,,,,,,,,,,,,,,1072.5954,1080.5365,0.155555556,-0.114814843,1.0,0.0,0.0,1.9338,compass,0.0,34.0,34.0,19.0,1.0,SoundStimuli/YouLightUpMyLife_DebbyBoone_Original5S.wav,,,,,,,,,,,,,,,,,,,,,,,,,,,,,,,,,,,,,,,,,,,,,,,,,,,,
,,,,,927536,1,2024-07-12_18h18.43.631,experiment,2024.1.5,Win32,60.60606061,6691931c2c63981b064e1f0c,6691ab9d317a1e0cd44ce37c,,,,,,,,,,,,,,,,,,,,,,,,,,,,,,,,,,,,,,,,,,,,,,,,,,,,,,,,,,,,,,,,,,,,,,,,,,,1080.5373,1098.2141,space,17.6518,,1098.2141,1100.4144,right,2.1768,,0.0,2.0,2.0,2.0,1.0,block_order/blockD.xlsx,,,,,,,,,,,,,,,,,,,,,,,,,,,,,,,,,,,,
,,,,,927536,1,2024-07-12_18h18.43.631,experiment,2024.1.5,Win32,60.60606061,6691931c2c63981b064e1f0c,6691ab9d317a1e0cd44ce37c,,,,,,,,,,,,,,,,,,,,,,,,,,,,,,,,,,,,,,,,,,,,,,,,,,,,,,,,,,,,1100.4547,1108.1122,0.162963019,0.188888889,1.0,0.0,0.0,1.6492,compass,0.0,0.0,0.0,0.0,1.0,SoundStimuli/StayinAlive_BeeGees_Cover5S.wav,,,,,,,,,,,,,,,,,,,,,,,,,,,,,,,,,,,,,,,,,,,,,,,,,,,,
,,,,,927536,1,2024-07-12_18h18.43.631,experiment,2024.1.5,Win32,60.60606061,6691931c2c63981b064e1f0c,6691ab9d317a1e0cd44ce37c,,,,,,,,,,,,,,,,,,,,,,,,,,,,,,,,,,,,,,,,,,,,,,,,,,,,,,,,,,,,1108.1292,1114.7112,-0.195370356,0.230555556,1.0,0.0,0.0,0.5666,compass,0.0,1.0,1.0,25.0,1.0,SoundStimuli/Respect_ArethaFranklin_Cover5S.wav,,,,,,,,,,,,,,,,,,,,,,,,,,,,,,,,,,,,,,,,,,,,,,,,,,,,
,,,,,927536,1,2024-07-12_18h18.43.631,experiment,2024.1.5,Win32,60.60606061,6691931c2c63981b064e1f0c,6691ab9d317a1e0cd44ce37c,,,,,,,,,,,,,,,,,,,,,,,,,,,,,,,,,,,,,,,,,,,,,,,,,,,,,,,,,,,,1114.7372,1126.5247,0.163888889,0.190740734,1.0,0.0,0.0,5.7817,compass,0.0,2.0,2.0,32.0,1.0,SoundStimuli/HeatWaves_GlassAnimals_Cover5S.wav,,,,,,,,,,,,,,,,,,,,,,,,,,,,,,,,,,,,,,,,,,,,,,,,,,,,
,,,,,927536,1,2024-07-12_18h18.43.631,experiment,2024.1.5,Win32,60.60606061,6691931c2c63981b064e1f0c,6691ab9d317a1e0cd44ce37c,,,,,,,,,,,,,,,,,,,,,,,,,,,,,,,,,,,,,,,,,,,,,,,,,,,,,,,,,,,,1126.5423,1134.2906,0.175,-0.113888889,1.0,0.0,0.0,1.7335,compass,0.0,3.0,3.0,29.0,1.0,SoundStimuli/OldTownRoad_LilNasX_Cover5S.wav,,,,,,,,,,,,,,,,,,,,,,,,,,,,,,,,,,,,,,,,,,,,,,,,,,,,
,,,,,927536,1,2024-07-12_18h18.43.631,experiment,2024.1.5,Win32,60.60606061,6691931c2c63981b064e1f0c,6691ab9d317a1e0cd44ce37c,,,,,,,,,,,,,,,,,,,,,,,,,,,,,,,,,,,,,,,,,,,,,,,,,,,,,,,,,,,,1134.3217,1140.8224,0.275,0.319444444,1.0,0.0,0.0,0.4998,compass,0.0,4.0,4.0,24.0,1.0,SoundStimuli/UptownFunk_MarkRonson_Cover5S.wav,,,,,,,,,,,,,,,,,,,,,,,,,,,,,,,,,,,,,,,,,,,,,,,,,,,,
,,,,,927536,1,2024-07-12_18h18.43.631,experiment,2024.1.5,Win32,60.60606061,6691931c2c63981b064e1f0c,6691ab9d317a1e0cd44ce37c,,,,,,,,,,,,,,,,,,,,,,,,,,,,,,,,,,,,,,,,,,,,,,,,,,,,,,,,,,,,1140.8521,1148.8705,0.116666667,0.077777778,1.0,0.0,0.0,2.0157,compass,0.0,5.0,5.0,1.0,1.0,SoundStimuli/Stronger_KanyeWest_Cover5S.wav,,,,,,,,,,,,,,,,,,,,,,,,,,,,,,,,,,,,,,,,,,,,,,,,,,,,
,,,,,927536,1,2024-07-12_18h18.43.631,experiment,2024.1.5,Win32,60.60606061,6691931c2c63981b064e1f0c,6691ab9d317a1e0cd44ce37c,,,,,,,,,,,,,,,,,,,,,,,,,,,,,,,,,,,,,,,,,,,,,,,,,,,,,,,,,,,,1148.9017,1155.3857,0.200925954,0.189814801,1.0,0.0,0.0,0.4831,compass,0.0,6.0,6.0,21.0,1.0,SoundStimuli/GoodGollyMissMolly_LittleRichard_Original5S.wav,,,,,,,,,,,,,,,,,,,,,,,,,,,,,,,,,,,,,,,,,,,,,,,,,,,,
,,,,,927536,1,2024-07-12_18h18.43.631,experiment,2024.1.5,Win32,60.60606061,6691931c2c63981b064e1f0c,6691ab9d317a1e0cd44ce37c,,,,,,,,,,,,,,,,,,,,,,,,,,,,,,,,,,,,,,,,,,,,,,,,,,,,,,,,,,,,1155.4122,1161.851,0.215740797,0.284259245,1.0,0.0,0.0,0.4334,compass,0.0,7.0,7.0,26.0,1.0,SoundStimuli/LivinOnAPrayer_BonJovi_Original5S.wav,,,,,,,,,,,,,,,,,,,,,,,,,,,,,,,,,,,,,,,,,,,,,,,,,,,,
,,,,,927536,1,2024-07-12_18h18.43.631,experiment,2024.1.5,Win32,60.60606061,6691931c2c63981b064e1f0c,6691ab9d317a1e0cd44ce37c,,,,,,,,,,,,,,,,,,,,,,,,,,,,,,,,,,,,,,,,,,,,,,,,,,,,,,,,,,,,1161.8764,1168.7497,0.141666667,-0.162037065,1.0,0.0,0.0,0.8662,compass,0.0,8.0,8.0,34.0,1.0,SoundStimuli/AChangeIsGonnaCome_SamCooke_Original5S.wav,,,,,,,,,,,,,,,,,,,,,,,,,,,,,,,,,,,,,,,,,,,,,,,,,,,,
,,,,,927536,1,2024-07-12_18h18.43.631,experiment,2024.1.5,Win32,60.60606061,6691931c2c63981b064e1f0c,6691ab9d317a1e0cd44ce37c,,,,,,,,,,,,,,,,,,,,,,,,,,,,,,,,,,,,,,,,,,,,,,,,,,,,,,,,,,,,1168.7778,1176.0978,0.158333333,0.06851849,1.0,0.0,0.0,1.3163,compass,0.0,9.0,9.0,22.0,1.0,SoundStimuli/RockWithYou_MichaelJackson_Cover5S.wav,,,,,,,,,,,,,,,,,,,,,,,,,,,,,,,,,,,,,,,,,,,,,,,,,,,,
,,,,,927536,1,2024-07-12_18h18.43.631,experiment,2024.1.5,Win32,60.60606061,6691931c2c63981b064e1f0c,6691ab9d317a1e0cd44ce37c,,,,,,,,,,,,,,,,,,,,,,,,,,,,,,,,,,,,,,,,,,,,,,,,,,,,,,,,,,,,1176.1241,1182.563,0.182407464,-0.159259288,1.0,0.0,0.0,0.4331,compass,0.0,10.0,10.0,9.0,1.0,SoundStimuli/Despacito_LuisFonsiDaddyYankee_Original5S.wav,,,,,,,,,,,,,,,,,,,,,,,,,,,,,,,,,,,,,,,,,,,,,,,,,,,,
,,,,,927536,1,2024-07-12_18h18.43.631,experiment,2024.1.5,Win32,60.60606061,6691931c2c63981b064e1f0c,6691ab9d317a1e0cd44ce37c,,,,,,,,,,,,,,,,,,,,,,,,,,,,,,,,,,,,,,,,,,,,,,,,,,,,,,,,,,,,1182.5898,1189.895,0.147222222,-0.062037065,1.0,0.0,0.0,1.2988,compass,0.0,11.0,11.0,27.0,1.0,SoundStimuli/ShapeofYou_EdSheeran_Cover5S.wav,,,,,,,,,,,,,,,,,,,,,,,,,,,,,,,,,,,,,,,,,,,,,,,,,,,,
,,,,,927536,1,2024-07-12_18h18.43.631,experiment,2024.1.5,Win32,60.60606061,6691931c2c63981b064e1f0c,6691ab9d317a1e0cd44ce37c,,,,,,,,,,,,,,,,,,,,,,,,,,,,,,,,,,,,,,,,,,,,,,,,,,,,,,,,,,,,1189.9235,1199.543,-0.134259203,0.049074046,1.0,0.0,0.0,3.6161,compass,0.0,12.0,12.0,11.0,1.0,SoundStimuli/Superstition_StevieWonder_Original5S.wav,,,,,,,,,,,,,,,,,,,,,,,,,,,,,,,,,,,,,,,,,,,,,,,,,,,,
,,,,,927536,1,2024-07-12_18h18.43.631,experiment,2024.1.5,Win32,60.60606061,6691931c2c63981b064e1f0c,6691ab9d317a1e0cd44ce37c,,,,,,,,,,,,,,,,,,,,,,,,,,,,,,,,,,,,,,,,,,,,,,,,,,,,,,,,,,,,1199.5709,1205.8912,-0.133333333,0.117592578,1.0,0.0,0.0,0.3164,compass,0.0,13.0,13.0,16.0,1.0,SoundStimuli/BohemianRhapsody_Queen_Cover5S.wav,,,,,,,,,,,,,,,,,,,,,,,,,,,,,,,,,,,,,,,,,,,,,,,,,,,,
,,,,,927536,1,2024-07-12_18h18.43.631,experiment,2024.1.5,Win32,60.60606061,6691931c2c63981b064e1f0c,6691ab9d317a1e0cd44ce37c,,,,,,,,,,,,,,,,,,,,,,,,,,,,,,,,,,,,,,,,,,,,,,,,,,,,,,,,,,,,1205.9174,1212.4903,0.145370399,-0.094444444,1.0,0.0,0.0,0.5585,compass,0.0,14.0,14.0,7.0,1.0,SoundStimuli/NoOne_AliciaKeys_Original5S.wav,,,,,,,,,,,,,,,,,,,,,,,,,,,,,,,,,,,,,,,,,,,,,,,,,,,,
,,,,,927536,1,2024-07-12_18h18.43.631,experiment,2024.1.5,Win32,60.60606061,6691931c2c63981b064e1f0c,6691ab9d317a1e0cd44ce37c,,,,,,,,,,,,,,,,,,,,,,,,,,,,,,,,,,,,,,,,,,,,,,,,,,,,,,,,,,,,1212.5168,1221.0401,0.123148176,0.065740712,1.0,0.0,0.0,2.5173,compass,0.0,15.0,15.0,14.0,1.0,SoundStimuli/BlindingLights_TheWeeknd_Cover5S.wav,,,,,,,,,,,,,,,,,,,,,,,,,,,,,,,,,,,,,,,,,,,,,,,,,,,,
,,,,,927536,1,2024-07-12_18h18.43.631,experiment,2024.1.5,Win32,60.60606061,6691931c2c63981b064e1f0c,6691ab9d317a1e0cd44ce37c,,,,,,,,,,,,,,,,,,,,,,,,,,,,,,,,,,,,,,,,,,,,,,,,,,,,,,,,,,,,1221.0656,1231.9528,-0.175925869,0.058333333,1.0,0.0,0.0,4.8823,compass,0.0,16.0,16.0,3.0,1.0,SoundStimuli/NoScrubs_TLC_Cover5S.wav,,,,,,,,,,,,,,,,,,,,,,,,,,,,,,,,,,,,,,,,,,,,,,,,,,,,
,,,,,927536,1,2024-07-12_18h18.43.631,experiment,2024.1.5,Win32,60.60606061,6691931c2c63981b064e1f0c,6691ab9d317a1e0cd44ce37c,,,,,,,,,,,,,,,,,,,,,,,,,,,,,,,,,,,,,,,,,,,,,,,,,,,,,,,,,,,,1231.982,1238.4845,0.153703732,0.107407379,1.0,0.0,0.0,0.5,compass,0.0,17.0,17.0,30.0,1.0,SoundStimuli/PokerFace_LadyGaga_Cover5S.wav,,,,,,,,,,,,,,,,,,,,,,,,,,,,,,,,,,,,,,,,,,,,,,,,,,,,
,,,,,927536,1,2024-07-12_18h18.43.631,experiment,2024.1.5,Win32,60.60606061,6691931c2c63981b064e1f0c,6691ab9d317a1e0cd44ce37c,,,,,,,,,,,,,,,,,,,,,,,,,,,,,,,,,,,,,,,,,,,,,,,,,,,,,,,,,,,,1238.511,1246.3157,-0.077777778,-0.063888889,1.0,0.0,0.0,1.7933,compass,0.0,18.0,18.0,2.0,1.0,SoundStimuli/Mood_24kGoldnianndior_Original5S.wav,,,,,,,,,,,,,,,,,,,,,,,,,,,,,,,,,,,,,,,,,,,,,,,,,,,,
,,,,,927536,1,2024-07-12_18h18.43.631,experiment,2024.1.5,Win32,60.60606061,6691931c2c63981b064e1f0c,6691ab9d317a1e0cd44ce37c,,,,,,,,,,,,,,,,,,,,,,,,,,,,,,,,,,,,,,,,,,,,,,,,,,,,,,,,,,,,1246.3363,1252.8812,-0.096296268,-0.069444444,1.0,0.0,0.0,0.5256,compass,0.0,19.0,19.0,18.0,1.0,SoundStimuli/AnotherOneBitesTheDust_Queen_Cover5S.wav,,,,,,,,,,,,,,,,,,,,,,,,,,,,,,,,,,,,,,,,,,,,,,,,,,,,
,,,,,927536,1,2024-07-12_18h18.43.631,experiment,2024.1.5,Win32,60.60606061,6691931c2c63981b064e1f0c,6691ab9d317a1e0cd44ce37c,,,,,,,,,,,,,,,,,,,,,,,,,,,,,,,,,,,,,,,,,,,,,,,,,,,,,,,,,,,,1252.9078,1260.3963,0.176851908,-0.098148176,1.0,0.0,0.0,1.4833,compass,0.0,20.0,20.0,5.0,1.0,SoundStimuli/MyGirl_TheTemptations_Cover5S.wav,,,,,,,,,,,,,,,,,,,,,,,,,,,,,,,,,,,,,,,,,,,,,,,,,,,,
,,,,,927536,1,2024-07-12_18h18.43.631,experiment,2024.1.5,Win32,60.60606061,6691931c2c63981b064e1f0c,6691ab9d317a1e0cd44ce37c,,,,,,,,,,,,,,,,,,,,,,,,,,,,,,,,,,,,,,,,,,,,,,,,,,,,,,,,,,,,1260.4225,1267.2447,0.293518575,0.331481478,1.0,0.0,0.0,0.8165,compass,0.0,21.0,21.0,6.0,1.0,SoundStimuli/Levitating_DuaLipa_Original5S.wav,,,,,,,,,,,,,,,,,,,,,,,,,,,,,,,,,,,,,,,,,,,,,,,,,,,,
,,,,,927536,1,2024-07-12_18h18.43.631,experiment,2024.1.5,Win32,60.60606061,6691931c2c63981b064e1f0c,6691ab9d317a1e0cd44ce37c,,,,,,,,,,,,,,,,,,,,,,,,,,,,,,,,,,,,,,,,,,,,,,,,,,,,,,,,,,,,1267.2711,1275.6098,0.163888889,-0.082407422,1.0,0.0,0.0,2.333,compass,0.0,22.0,22.0,17.0,1.0,SoundStimuli/Fallin_AliciaKeys_Cover5S.wav,,,,,,,,,,,,,,,,,,,,,,,,,,,,,,,,,,,,,,,,,,,,,,,,,,,,
,,,,,927536,1,2024-07-12_18h18.43.631,experiment,2024.1.5,Win32,60.60606061,6691931c2c63981b064e1f0c,6691ab9d317a1e0cd44ce37c,,,,,,,,,,,,,,,,,,,,,,,,,,,,,,,,,,,,,,,,,,,,,,,,,,,,,,,,,,,,1275.6379,1283.6248,0.168518575,0.162962956,1.0,0.0,0.0,1.9831,compass,0.0,23.0,23.0,12.0,1.0,SoundStimuli/IWillAlwaysLoveYou_WhitneyHouston_Original5S.wav,,,,,,,,,,,,,,,,,,,,,,,,,,,,,,,,,,,,,,,,,,,,,,,,,,,,
,,,,,927536,1,2024-07-12_18h18.43.631,experiment,2024.1.5,Win32,60.60606061,6691931c2c63981b064e1f0c,6691ab9d317a1e0cd44ce37c,,,,,,,,,,,,,,,,,,,,,,,,,,,,,,,,,,,,,,,,,,,,,,,,,,,,,,,,,,,,1283.6538,1290.2564,0.151851908,-0.120370399,1.0,0.0,0.0,0.5997,compass,0.0,24.0,24.0,33.0,1.0,SoundStimuli/StandByMe_BenEKing_Original5S.wav,,,,,,,,,,,,,,,,,,,,,,,,,,,,,,,,,,,,,,,,,,,,,,,,,,,,
,,,,,927536,1,2024-07-12_18h18.43.631,experiment,2024.1.5,Win32,60.60606061,6691931c2c63981b064e1f0c,6691ab9d317a1e0cd44ce37c,,,,,,,,,,,,,,,,,,,,,,,,,,,,,,,,,,,,,,,,,,,,,,,,,,,,,,,,,,,,1290.2846,1297.3381,0.207407464,0.173148134,1.0,0.0,0.0,1.0495,compass,0.0,25.0,25.0,20.0,1.0,SoundStimuli/HeyYa_Outkast_Original5S.wav,,,,,,,,,,,,,,,,,,,,,,,,,,,,,,,,,,,,,,,,,,,,,,,,,,,,
,,,,,927536,1,2024-07-12_18h18.43.631,experiment,2024.1.5,Win32,60.60606061,6691931c2c63981b064e1f0c,6691ab9d317a1e0cd44ce37c,,,,,,,,,,,,,,,,,,,,,,,,,,,,,,,,,,,,,,,,,,,,,,,,,,,,,,,,,,,,1297.3654,1304.0703,-0.088888889,0.088888889,1.0,0.0,0.0,0.7003,compass,0.0,26.0,26.0,28.0,1.0,SoundStimuli/ComeAndGetYourLove_Redbone_Cover5S.wav,,,,,,,,,,,,,,,,,,,,,,,,,,,,,,,,,,,,,,,,,,,,,,,,,,,,
,,,,,927536,1,2024-07-12_18h18.43.631,experiment,2024.1.5,Win32,60.60606061,6691931c2c63981b064e1f0c,6691ab9d317a1e0cd44ce37c,,,,,,,,,,,,,,,,,,,,,,,,,,,,,,,,,,,,,,,,,,,,,,,,,,,,,,,,,,,,1304.0971,1311.0352,0.204629686,0.188888889,1.0,0.0,0.0,0.9324,compass,0.0,27.0,27.0,8.0,1.0,SoundStimuli/LikeAPrayer_Madonna_Cover5S.wav,,,,,,,,,,,,,,,,,,,,,,,,,,,,,,,,,,,,,,,,,,,,,,,,,,,,
,,,,,927536,1,2024-07-12_18h18.43.631,experiment,2024.1.5,Win32,60.60606061,6691931c2c63981b064e1f0c,6691ab9d317a1e0cd44ce37c,,,,,,,,,,,,,,,,,,,,,,,,,,,,,,,,,,,,,,,,,,,,,,,,,,,,,,,,,,,,1311.0637,1318.6166,-0.078703647,-0.082407422,1.0,0.0,0.0,1.5494,compass,0.0,28.0,28.0,13.0,1.0,SoundStimuli/GodOnlyKnows_TheBeachBoys_Original5S.wav,,,,,,,,,,,,,,,,,,,,,,,,,,,,,,,,,,,,,,,,,,,,,,,,,,,,
,,,,,927536,1,2024-07-12_18h18.43.631,experiment,2024.1.5,Win32,60.60606061,6691931c2c63981b064e1f0c,6691ab9d317a1e0cd44ce37c,,,,,,,,,,,,,,,,,,,,,,,,,,,,,,,,,,,,,,,,,,,,,,,,,,,,,,,,,,,,1318.6375,1325.3983,-0.051851824,0.108333333,1.0,0.0,0.0,0.75,compass,0.0,29.0,29.0,23.0,1.0,SoundStimuli/StrawberryFieldsForever_TheBeatles_Cover5S.wav,,,,,,,,,,,,,,,,,,,,,,,,,,,,,,,,,,,,,,,,,,,,,,,,,,,,
,,,,,927536,1,2024-07-12_18h18.43.631,experiment,2024.1.5,Win32,60.60606061,6691931c2c63981b064e1f0c,6691ab9d317a1e0cd44ce37c,,,,,,,,,,,,,,,,,,,,,,,,,,,,,,,,,,,,,,,,,,,,,,,,,,,,,,,,,,,,1325.4185,1333.8136,-0.021296268,-0.067592621,1.0,0.0,0.0,2.3743,compass,0.0,30.0,30.0,10.0,1.0,SoundStimuli/BadDay_DanielPowter_Original5S.wav,,,,,,,,,,,,,,,,,,,,,,,,,,,,,,,,,,,,,,,,,,,,,,,,,,,,
,,,,,927536,1,2024-07-12_18h18.43.631,experiment,2024.1.5,Win32,60.60606061,6691931c2c63981b064e1f0c,6691ab9d317a1e0cd44ce37c,,,,,,,,,,,,,,,,,,,,,,,,,,,,,,,,,,,,,,,,,,,,,,,,,,,,,,,,,,,,1333.8446,1340.3456,0.204629686,-0.107407422,1.0,0.0,0.0,0.4999,compass,0.0,31.0,31.0,31.0,1.0,SoundStimuli/TheBattleOfNewOrleans_JohnnyHorton_Original5S.wav,,,,,,,,,,,,,,,,,,,,,,,,,,,,,,,,,,,,,,,,,,,,,,,,,,,,
,,,,,927536,1,2024-07-12_18h18.43.631,experiment,2024.1.5,Win32,60.60606061,6691931c2c63981b064e1f0c,6691ab9d317a1e0cd44ce37c,,,,,,,,,,,,,,,,,,,,,,,,,,,,,,,,,,,,,,,,,,,,,,,,,,,,,,,,,,,,1340.3775,1346.911,0.204629686,-0.176851866,1.0,0.0,0.0,0.5166,compass,0.0,32.0,32.0,19.0,1.0,SoundStimuli/LetsGetItOn_MarvinGaye_Original5S.wav,,,,,,,,,,,,,,,,,,,,,,,,,,,,,,,,,,,,,,,,,,,,,,,,,,,,
,,,,,927536,1,2024-07-12_18h18.43.631,experiment,2024.1.5,Win32,60.60606061,6691931c2c63981b064e1f0c,6691ab9d317a1e0cd44ce37c,,,,,,,,,,,,,,,,,,,,,,,,,,,,,,,,,,,,,,,,,,,,,,,,,,,,,,,,,,,,1346.9376,1353.8257,0.224074131,0.072222222,1.0,0.0,0.0,0.883,compass,0.0,33.0,33.0,4.0,1.0,SoundStimuli/GetUrFreakOn_MissyElliot_Cover5S.wav,,,,,,,,,,,,,,,,,,,,,,,,,,,,,,,,,,,,,,,,,,,,,,,,,,,,
,,,,,927536,1,2024-07-12_18h18.43.631,experiment,2024.1.5,Win32,60.60606061,6691931c2c63981b064e1f0c,6691ab9d317a1e0cd44ce37c,,,,,,,,,,,,,,,,,,,,,,,,,,,,,,,,,,,,,,,,,,,,,,,,,,,,,,,,,,,,1353.8477,1360.275,0.313888889,0.341666667,1.0,0.0,0.0,0.4169,compass,0.0,34.0,34.0,15.0,1.0,SoundStimuli/TikTok_Kesha_Original5S.wav,,,,,,,,,,,,,,,,,,,,,,,,,,,,,,,,,,,,,,,,,,,,,,,,,,,,
,,,,,927536,1,2024-07-12_18h18.43.631,experiment,2024.1.5,Win32,60.60606061,6691931c2c63981b064e1f0c,6691ab9d317a1e0cd44ce37c,,,,,,,,,,,,,,,,,,,,,,,,,,,,,,,,,,,,,,,,,,,,,,,,,,,,,,,,,,,,,,,,,,,,,,,,,,,1360.2753,1360.2757,,,,1360.2757,1360.2758,,,,0.0,3.0,3.0,3.0,1.0,block_order/blockC.xlsx,,,,,,,,,,,,,,,,,,,,,,,,,,,,,,,,,,,,
,,,,,927536,1,2024-07-12_18h18.43.631,experiment,2024.1.5,Win32,60.60606061,6691931c2c63981b064e1f0c,6691ab9d317a1e0cd44ce37c,,,,,,,,,,,,,,,,,,,,,,,,,,,,,,,,,,,,,,,,,,,,,,,,,,,,,,,,,,,,,,,,,,,,,,,,,,,,,,,,,,,,,,,,,,,26.0,Item 5,I am a classically trained vocalist and flutist. I have played flute since I was 8 years old. I have been singing and performing since 7 years old and studying classically since 11. I have a degree in music performance. ,Item 4,"Spotify, radio",4.0,4.0,"Driving, chores, exercising, working",Sometimes,Never,Rarely,Rarely,Often,Never,Often,Often,Often,Often,Rarely,Always,Rarely,Always,Never,Never,I think most are listed.,Pop,Classical,Jazz,I think they have become more mature. I am looking for sound rather than lyrics. I find myself searching for music with great production or the wall of sound often achieved in classical music over lyrical meaning.,0.0,0.0,0.0,0.0,1.0,,
,,,,,927536,1,2024-07-12_18h18.43.631,experiment,2024.1.5,Win32,60.60606061,6691931c2c63981b064e1f0c,6691ab9d317a1e0cd44ce37c,,,,,,,,,,,,,,,,,,,,,,,,,,,,,,,,,,,,,,,,,,,,,,,,,,,,,,,,,,,,,,,,,,,,,,,,,,,,,,,,,,,,,,,,,,,,,,,,,,,,,,,,,,,,,,,,,,,,,,,,,,,,,1621.0684,1623.2012
