welcome.started,welcome.stopped,space_to_continue.keys,space_to_continue.rt,space_to_continue.duration,participant,session,date,expName,psychopyVersion,OS,frameRate,PROLIFIC_PID,STUDY_ID,SESSION_ID,consent.consent,consent.consent_recontact,consent_check.started,consent_check.stopped,calibration_ready.started,calibration_ready.stopped,cal_ready.keys,cal_ready.rt,cal_ready.duration,calibration.started,calibration.stopped,mouse.x,mouse.y,mouse.leftButton,mouse.midButton,mouse.rightButton,mouse.time,mouse.clicked_name,move_on.keys,move_on.rt,move_on.duration,instructions.started,instructions.stopped,next.keys,next.rt,next.duration,practice_trial.started,practice_trial.stopped,practice_slider.response,practice_slider.rt,ready.started,ready.stopped,key_resp.keys,key_resp.rt,key_resp.duration,play_sound.started,play_sound.stopped,trials.thisRepN,trials.thisTrialN,trials.thisN,trials.thisIndex,trials.ran,orig_or_cover,rating.started,rating.stopped,slider.response,slider.rt,songs.thisRepN,songs.thisTrialN,songs.thisN,songs.thisIndex,songs.ran,song_id,short_break.started,short_break.stopped,space_to_move_on.keys,space_to_move_on.rt,space_to_move_on.duration,blocks.thisRepN,blocks.thisTrialN,blocks.thisN,blocks.thisIndex,blocks.ran,block,survey.age,survey.musician,survey.music_making,survey.listen_time,survey.medium,survey.music_seeking,survey.music_choice,survey.activities,survey.question1.R&B,survey.question1.Ambient,survey.question1.Electronic (EDM),survey.question1.Country,survey.question1.Classical,survey.question1.Classic rock,survey.question1.Reggae,survey.question1.Latin,survey.question1.Disco,survey.question1.Hip hop,survey.question1.Folk/indie,survey.question1.Pop,survey.question1.Metal,survey.question1.Alternative rock,survey.question1.A cappella,survey.question1.Jazz,survey.other_genres,survey.genres_ranked.text1,survey.genres_ranked.text2,survey.genres_ranked.text3,survey.habit_change,survey.habits,experiment.thisRepN,experiment.thisTrialN,experiment.thisN,experiment.thisIndex,experiment.ran,goodbye.started,goodbye.stopped
0.0005,1.9834,space,1.966,0.003,001709,001,2024-06-17_10h38.40.092,experiment,2024.1.5,MacIntel,59.88023952,65e29490e2b12e6bfa6a34b8,667045947eb812cbdacbf325,6670495dc99f10f913bff3d7,,,,,,,,,,,,,,,,,,,,,,,,,,,,,,,,,,,,,,,,,,,,,,,,,,,,,,,,,,,,,,,,,,,,,,,,,,,,,,,,,,,,,,,,,,,,,,,,,,,,,
,,,,,001709,001,2024-06-17_10h38.40.092,experiment,2024.1.5,MacIntel,59.88023952,65e29490e2b12e6bfa6a34b8,667045947eb812cbdacbf325,6670495dc99f10f913bff3d7,yes,yes,,,,,,,,,,,,,,,,,,,,,,,,,,,,,,,,,,,,,,,,,,,,,,,,,,,,,,,,,,,,,,,,,,,,,,,,,,,,,,,,,,,,,,,,,,,,,,,,,,,
,,,,,001709,001,2024-06-17_10h38.40.092,experiment,2024.1.5,MacIntel,59.88023952,65e29490e2b12e6bfa6a34b8,667045947eb812cbdacbf325,6670495dc99f10f913bff3d7,,,70.3728,70.3729,,,,,,,,,,,,,,,,,,,,,,,,,,,,,,,,,,,,,,,,,,,,,,,,,,,,,,,,,,,,,,,,,,,,,,,,,,,,,,,,,,,,,,,,,,,,,,,,,
,,,,,001709,001,2024-06-17_10h38.40.092,experiment,2024.1.5,MacIntel,59.88023952,65e29490e2b12e6bfa6a34b8,667045947eb812cbdacbf325,6670495dc99f10f913bff3d7,,,,,70.3744,170.2622,space,99.8573,,170.2626,704.1292,"[0.07637143342391305,-0.001846976902173913,-0.008419667119565218,0.015803328804347826,0.005608865489130435]","[-0.050883152173913045,-0.42739045516304347,-0.44528277853260867,-0.40088315217391307,-0.4307871942934783]","[1,1,1,1,1]","[0,0,0,0,0]","[0,0,0,0,0]","[139.42730000019077,141.40590000009541,529.6578000001907,530.5741999998093,531.3243000001908]","[""play_button"",""play_button"",""play_button""]",right,523.847,,704.1306,757.7711,space,53.6014,,757.7713,775.3193,3.973836617,17.5317,775.3195,1044.7943,space,269.464,,1044.8176,1051.1586,0,0,0,0,1,SoundStimuli/EndlessLove_DianaRossLionelRichie_Original5S.wav,,,,,,,,,,,,,,,,,,,,,,,,,,,,,,,,,,,,,,,,,,,,,,,,,,,,,,,,,,
,,,,,001709,001,2024-06-17_10h38.40.092,experiment,2024.1.5,MacIntel,59.88023952,65e29490e2b12e6bfa6a34b8,667045947eb812cbdacbf325,6670495dc99f10f913bff3d7,,,,,,,,,,,,,,,,,,,,,,,,,,,,,,,,,,,,1051.16,1058.674,0,1,1,1,1,SoundStimuli/EndlessLove_DianaRossLionelRichie_Cover5S.wav,,,,,,,,,,,,,,,,,,,,,,,,,,,,,,,,,,,,,,,,,,,,,,,,,,,,,,,,,,
,,,,,001709,001,2024-06-17_10h38.40.092,experiment,2024.1.5,MacIntel,59.88023952,65e29490e2b12e6bfa6a34b8,667045947eb812cbdacbf325,6670495dc99f10f913bff3d7,,,,,,,,,,,,,,,,,,,,,,,,,,,,,,,,,,,,,,,,,,,,1058.6838,1060.5575,5.741329823,1.8657,0,0,0,3,1,song_indices/EndlessLove_DianaRossLionelRichie.csv,,,,,,,,,,,,,,,,,,,,,,,,,,,,,,,,,,,,,,,,,,,,,,,,
,,,,,001709,001,2024-06-17_10h38.40.092,experiment,2024.1.5,MacIntel,59.88023952,65e29490e2b12e6bfa6a34b8,667045947eb812cbdacbf325,6670495dc99f10f913bff3d7,,,,,,,,,,,,,,,,,,,,,,,,,,,,,,,,,,,,1060.5583,1069.4239,0,0,0,0,1,SoundStimuli/Perfect_EdSheeran_Original5S.wav,,,,,,,,,,,,,,,,,,,,,,,,,,,,,,,,,,,,,,,,,,,,,,,,,,,,,,,,,,
,,,,,001709,001,2024-06-17_10h38.40.092,experiment,2024.1.5,MacIntel,59.88023952,65e29490e2b12e6bfa6a34b8,667045947eb812cbdacbf325,6670495dc99f10f913bff3d7,,,,,,,,,,,,,,,,,,,,,,,,,,,,,,,,,,,,1069.4329,1077.6902,0,1,1,1,1,SoundStimuli/Perfect_EdSheeran_Cover5S.wav,,,,,,,,,,,,,,,,,,,,,,,,,,,,,,,,,,,,,,,,,,,,,,,,,,,,,,,,,,
,,,,,001709,001,2024-06-17_10h38.40.092,experiment,2024.1.5,MacIntel,59.88023952,65e29490e2b12e6bfa6a34b8,667045947eb812cbdacbf325,6670495dc99f10f913bff3d7,,,,,,,,,,,,,,,,,,,,,,,,,,,,,,,,,,,,,,,,,,,,1077.6903,1086.6232,4.963841712,8.9191,0,1,1,0,1,song_indices/Perfect_EdSheeran.csv,,,,,,,,,,,,,,,,,,,,,,,,,,,,,,,,,,,,,,,,,,,,,,,,
,,,,,001709,001,2024-06-17_10h38.40.092,experiment,2024.1.5,MacIntel,59.88023952,65e29490e2b12e6bfa6a34b8,667045947eb812cbdacbf325,6670495dc99f10f913bff3d7,,,,,,,,,,,,,,,,,,,,,,,,,,,,,,,,,,,,1086.624,1092.6734,0,0,0,0,1,SoundStimuli/AnotherOneBitesTheDust_Queen_Original5S.wav,,,,,,,,,,,,,,,,,,,,,,,,,,,,,,,,,,,,,,,,,,,,,,,,,,,,,,,,,,
,,,,,001709,001,2024-06-17_10h38.40.092,experiment,2024.1.5,MacIntel,59.88023952,65e29490e2b12e6bfa6a34b8,667045947eb812cbdacbf325,6670495dc99f10f913bff3d7,,,,,,,,,,,,,,,,,,,,,,,,,,,,,,,,,,,,1092.6859,1100.8054,0,1,1,1,1,SoundStimuli/AnotherOneBitesTheDust_Queen_Cover5S.wav,,,,,,,,,,,,,,,,,,,,,,,,,,,,,,,,,,,,,,,,,,,,,,,,,,,,,,,,,,
,,,,,001709,001,2024-06-17_10h38.40.092,experiment,2024.1.5,MacIntel,59.88023952,65e29490e2b12e6bfa6a34b8,667045947eb812cbdacbf325,6670495dc99f10f913bff3d7,,,,,,,,,,,,,,,,,,,,,,,,,,,,,,,,,,,,,,,,,,,,1100.8057,1114.9554,4.359816576,14.1353,0,2,2,9,1,song_indices/AnotherOneBitesTheDust_Queen.csv,,,,,,,,,,,,,,,,,,,,,,,,,,,,,,,,,,,,,,,,,,,,,,,,
,,,,,001709,001,2024-06-17_10h38.40.092,experiment,2024.1.5,MacIntel,59.88023952,65e29490e2b12e6bfa6a34b8,667045947eb812cbdacbf325,6670495dc99f10f913bff3d7,,,,,,,,,,,,,,,,,,,,,,,,,,,,,,,,,,,,1114.9563,1121.2555,0,0,0,0,1,SoundStimuli/Mood_24kGoldnianndior_Original5S.wav,,,,,,,,,,,,,,,,,,,,,,,,,,,,,,,,,,,,,,,,,,,,,,,,,,,,,,,,,,
,,,,,001709,001,2024-06-17_10h38.40.092,experiment,2024.1.5,MacIntel,59.88023952,65e29490e2b12e6bfa6a34b8,667045947eb812cbdacbf325,6670495dc99f10f913bff3d7,,,,,,,,,,,,,,,,,,,,,,,,,,,,,,,,,,,,1121.266,1129.5548,0,1,1,1,1,SoundStimuli/Mood_24kGoldnianndior_Cover5S.wav,,,,,,,,,,,,,,,,,,,,,,,,,,,,,,,,,,,,,,,,,,,,,,,,,,,,,,,,,,
,,,,,001709,001,2024-06-17_10h38.40.092,experiment,2024.1.5,MacIntel,59.88023952,65e29490e2b12e6bfa6a34b8,667045947eb812cbdacbf325,6670495dc99f10f913bff3d7,,,,,,,,,,,,,,,,,,,,,,,,,,,,,,,,,,,,,,,,,,,,1129.5549,1130.3381,3.060640285,0.7631,0,3,3,5,1,song_indices/Mood_24kGoldnianndior.csv,,,,,,,,,,,,,,,,,,,,,,,,,,,,,,,,,,,,,,,,,,,,,,,,
,,,,,001709,001,2024-06-17_10h38.40.092,experiment,2024.1.5,MacIntel,59.88023952,65e29490e2b12e6bfa6a34b8,667045947eb812cbdacbf325,6670495dc99f10f913bff3d7,,,,,,,,,,,,,,,,,,,,,,,,,,,,,,,,,,,,1130.3388,1136.6041,0,0,0,1,1,SoundStimuli/MackTheKnife_BobbyDarin_Cover5S.wav,,,,,,,,,,,,,,,,,,,,,,,,,,,,,,,,,,,,,,,,,,,,,,,,,,,,,,,,,,
,,,,,001709,001,2024-06-17_10h38.40.092,experiment,2024.1.5,MacIntel,59.88023952,65e29490e2b12e6bfa6a34b8,667045947eb812cbdacbf325,6670495dc99f10f913bff3d7,,,,,,,,,,,,,,,,,,,,,,,,,,,,,,,,,,,,1136.6135,1142.7548,0,1,1,0,1,SoundStimuli/MackTheKnife_BobbyDarin_Original5S.wav,,,,,,,,,,,,,,,,,,,,,,,,,,,,,,,,,,,,,,,,,,,,,,,,,,,,,,,,,,
,,,,,001709,001,2024-06-17_10h38.40.092,experiment,2024.1.5,MacIntel,59.88023952,65e29490e2b12e6bfa6a34b8,667045947eb812cbdacbf325,6670495dc99f10f913bff3d7,,,,,,,,,,,,,,,,,,,,,,,,,,,,,,,,,,,,,,,,,,,,1142.755,1144.0378,2.272936481,1.2766,0,4,4,21,1,song_indices/MackTheKnife_BobbyDarin.csv,,,,,,,,,,,,,,,,,,,,,,,,,,,,,,,,,,,,,,,,,,,,,,,,
,,,,,001709,001,2024-06-17_10h38.40.092,experiment,2024.1.5,MacIntel,59.88023952,65e29490e2b12e6bfa6a34b8,667045947eb812cbdacbf325,6670495dc99f10f913bff3d7,,,,,,,,,,,,,,,,,,,,,,,,,,,,,,,,,,,,1144.0389,1150.2922,0,0,0,0,1,SoundStimuli/GodOnlyKnows_TheBeachBoys_Original5S.wav,,,,,,,,,,,,,,,,,,,,,,,,,,,,,,,,,,,,,,,,,,,,,,,,,,,,,,,,,,
,,,,,001709,001,2024-06-17_10h38.40.092,experiment,2024.1.5,MacIntel,59.88023952,65e29490e2b12e6bfa6a34b8,667045947eb812cbdacbf325,6670495dc99f10f913bff3d7,,,,,,,,,,,,,,,,,,,,,,,,,,,,,,,,,,,,1150.3062,1157.1706,0,1,1,1,1,SoundStimuli/GodOnlyKnows_TheBeachBoys_Cover5S.wav,,,,,,,,,,,,,,,,,,,,,,,,,,,,,,,,,,,,,,,,,,,,,,,,,,,,,,,,,,
,,,,,001709,001,2024-06-17_10h38.40.092,experiment,2024.1.5,MacIntel,59.88023952,65e29490e2b12e6bfa6a34b8,667045947eb812cbdacbf325,6670495dc99f10f913bff3d7,,,,,,,,,,,,,,,,,,,,,,,,,,,,,,,,,,,,,,,,,,,,1157.1708,1158.6703,2.355171535,1.476,0,5,5,8,1,song_indices/GodOnlyKnows_TheBeachBoys.csv,,,,,,,,,,,,,,,,,,,,,,,,,,,,,,,,,,,,,,,,,,,,,,,,
,,,,,001709,001,2024-06-17_10h38.40.092,experiment,2024.1.5,MacIntel,59.88023952,65e29490e2b12e6bfa6a34b8,667045947eb812cbdacbf325,6670495dc99f10f913bff3d7,,,,,,,,,,,,,,,,,,,,,,,,,,,,,,,,,,,,1158.6709,1164.9867,0,0,0,0,1,SoundStimuli/BridgeOverTroubledWater_SimonAndGarfunkel_Original5S.wav,,,,,,,,,,,,,,,,,,,,,,,,,,,,,,,,,,,,,,,,,,,,,,,,,,,,,,,,,,
,,,,,001709,001,2024-06-17_10h38.40.092,experiment,2024.1.5,MacIntel,59.88023952,65e29490e2b12e6bfa6a34b8,667045947eb812cbdacbf325,6670495dc99f10f913bff3d7,,,,,,,,,,,,,,,,,,,,,,,,,,,,,,,,,,,,1164.9984,1171.6864,0,1,1,1,1,SoundStimuli/BridgeOverTroubledWater_SimonAndGarfunkel_Cover5S.wav,,,,,,,,,,,,,,,,,,,,,,,,,,,,,,,,,,,,,,,,,,,,,,,,,,,,,,,,,,
,,,,,001709,001,2024-06-17_10h38.40.092,experiment,2024.1.5,MacIntel,59.88023952,65e29490e2b12e6bfa6a34b8,667045947eb812cbdacbf325,6670495dc99f10f913bff3d7,,,,,,,,,,,,,,,,,,,,,,,,,,,,,,,,,,,,,,,,,,,,1171.6865,1173.2696,1.23580163,1.5725,0,6,6,1,1,song_indices/BridgeOverTroubledWater_SimonAndGarfunkel.csv,,,,,,,,,,,,,,,,,,,,,,,,,,,,,,,,,,,,,,,,,,,,,,,,
,,,,,001709,001,2024-06-17_10h38.40.092,experiment,2024.1.5,MacIntel,59.88023952,65e29490e2b12e6bfa6a34b8,667045947eb812cbdacbf325,6670495dc99f10f913bff3d7,,,,,,,,,,,,,,,,,,,,,,,,,,,,,,,,,,,,1173.2704,1180.6533,0,0,0,0,1,SoundStimuli/OldTownRoad_LilNasX_Original5S.wav,,,,,,,,,,,,,,,,,,,,,,,,,,,,,,,,,,,,,,,,,,,,,,,,,,,,,,,,,,
,,,,,001709,001,2024-06-17_10h38.40.092,experiment,2024.1.5,MacIntel,59.88023952,65e29490e2b12e6bfa6a34b8,667045947eb812cbdacbf325,6670495dc99f10f913bff3d7,,,,,,,,,,,,,,,,,,,,,,,,,,,,,,,,,,,,1180.6643,1187.1688,0,1,1,1,1,SoundStimuli/OldTownRoad_LilNasX_Cover5S.wav,,,,,,,,,,,,,,,,,,,,,,,,,,,,,,,,,,,,,,,,,,,,,,,,,,,,,,,,,,
,,,,,001709,001,2024-06-17_10h38.40.092,experiment,2024.1.5,MacIntel,59.88023952,65e29490e2b12e6bfa6a34b8,667045947eb812cbdacbf325,6670495dc99f10f913bff3d7,,,,,,,,,,,,,,,,,,,,,,,,,,,,,,,,,,,,,,,,,,,,1187.1689,1188.2191,5.365616508,1.0288,0,7,7,20,1,song_indices/OldTownRoad_LilNasX.csv,,,,,,,,,,,,,,,,,,,,,,,,,,,,,,,,,,,,,,,,,,,,,,,,
,,,,,001709,001,2024-06-17_10h38.40.092,experiment,2024.1.5,MacIntel,59.88023952,65e29490e2b12e6bfa6a34b8,667045947eb812cbdacbf325,6670495dc99f10f913bff3d7,,,,,,,,,,,,,,,,,,,,,,,,,,,,,,,,,,,,1188.22,1192.9352,0,0,0,1,1,SoundStimuli/AChangeIsGonnaCome_SamCooke_Cover5S.wav,,,,,,,,,,,,,,,,,,,,,,,,,,,,,,,,,,,,,,,,,,,,,,,,,,,,,,,,,,
,,,,,001709,001,2024-06-17_10h38.40.092,experiment,2024.1.5,MacIntel,59.88023952,65e29490e2b12e6bfa6a34b8,667045947eb812cbdacbf325,6670495dc99f10f913bff3d7,,,,,,,,,,,,,,,,,,,,,,,,,,,,,,,,,,,,1192.9457,1198.9854,0,1,1,0,1,SoundStimuli/AChangeIsGonnaCome_SamCooke_Original5S.wav,,,,,,,,,,,,,,,,,,,,,,,,,,,,,,,,,,,,,,,,,,,,,,,,,,,,,,,,,,
,,,,,001709,001,2024-06-17_10h38.40.092,experiment,2024.1.5,MacIntel,59.88023952,65e29490e2b12e6bfa6a34b8,667045947eb812cbdacbf325,6670495dc99f10f913bff3d7,,,,,,,,,,,,,,,,,,,,,,,,,,,,,,,,,,,,,,,,,,,,1198.9862,1210.4683,5.15335428,11.466,0,8,8,17,1,song_indices/AChangeIsGonnaCome_SamCooke.csv,,,,,,,,,,,,,,,,,,,,,,,,,,,,,,,,,,,,,,,,,,,,,,,,
,,,,,001709,001,2024-06-17_10h38.40.092,experiment,2024.1.5,MacIntel,59.88023952,65e29490e2b12e6bfa6a34b8,667045947eb812cbdacbf325,6670495dc99f10f913bff3d7,,,,,,,,,,,,,,,,,,,,,,,,,,,,,,,,,,,,1210.4694,1214.5516,0,0,0,1,1,SoundStimuli/BohemianRhapsody_Queen_Cover5S.wav,,,,,,,,,,,,,,,,,,,,,,,,,,,,,,,,,,,,,,,,,,,,,,,,,,,,,,,,,,
,,,,,001709,001,2024-06-17_10h38.40.092,experiment,2024.1.5,MacIntel,59.88023952,65e29490e2b12e6bfa6a34b8,667045947eb812cbdacbf325,6670495dc99f10f913bff3d7,,,,,,,,,,,,,,,,,,,,,,,,,,,,,,,,,,,,1214.5595,1220.5213,0,1,1,0,1,SoundStimuli/BohemianRhapsody_Queen_Original5S.wav,,,,,,,,,,,,,,,,,,,,,,,,,,,,,,,,,,,,,,,,,,,,,,,,,,,,,,,,,,
,,,,,001709,001,2024-06-17_10h38.40.092,experiment,2024.1.5,MacIntel,59.88023952,65e29490e2b12e6bfa6a34b8,667045947eb812cbdacbf325,6670495dc99f10f913bff3d7,,,,,,,,,,,,,,,,,,,,,,,,,,,,,,,,,,,,,,,,,,,,1220.5222,1251.6677,5.15335428,31.1209,0,9,9,18,1,song_indices/BohemianRhapsody_Queen.csv,,,,,,,,,,,,,,,,,,,,,,,,,,,,,,,,,,,,,,,,,,,,,,,,
,,,,,001709,001,2024-06-17_10h38.40.092,experiment,2024.1.5,MacIntel,59.88023952,65e29490e2b12e6bfa6a34b8,667045947eb812cbdacbf325,6670495dc99f10f913bff3d7,,,,,,,,,,,,,,,,,,,,,,,,,,,,,,,,,,,,1251.6708,1257.5166,0,0,0,1,1,SoundStimuli/StayinAlive_BeeGees_Cover5S.wav,,,,,,,,,,,,,,,,,,,,,,,,,,,,,,,,,,,,,,,,,,,,,,,,,,,,,,,,,,
,,,,,001709,001,2024-06-17_10h38.40.092,experiment,2024.1.5,MacIntel,59.88023952,65e29490e2b12e6bfa6a34b8,667045947eb812cbdacbf325,6670495dc99f10f913bff3d7,,,,,,,,,,,,,,,,,,,,,,,,,,,,,,,,,,,,1257.5258,1263.5494,0,1,1,0,1,SoundStimuli/StayinAlive_BeeGees_Original5S.wav,,,,,,,,,,,,,,,,,,,,,,,,,,,,,,,,,,,,,,,,,,,,,,,,,,,,,,,,,,
,,,,,001709,001,2024-06-17_10h38.40.092,experiment,2024.1.5,MacIntel,59.88023952,65e29490e2b12e6bfa6a34b8,667045947eb812cbdacbf325,6670495dc99f10f913bff3d7,,,,,,,,,,,,,,,,,,,,,,,,,,,,,,,,,,,,,,,,,,,,1263.5496,1350.496,4.171501359,86.925,0,10,10,2,1,song_indices/StayinAlive_BeeGees.csv,,,,,,,,,,,,,,,,,,,,,,,,,,,,,,,,,,,,,,,,,,,,,,,,
,,,,,001709,001,2024-06-17_10h38.40.092,experiment,2024.1.5,MacIntel,59.88023952,65e29490e2b12e6bfa6a34b8,667045947eb812cbdacbf325,6670495dc99f10f913bff3d7,,,,,,,,,,,,,,,,,,,,,,,,,,,,,,,,,,,,1350.4971,1356.4465,0,0,0,1,1,SoundStimuli/IllMakeLoveToYou_BoyzIIMen_Cover5S.wav,,,,,,,,,,,,,,,,,,,,,,,,,,,,,,,,,,,,,,,,,,,,,,,,,,,,,,,,,,
,,,,,001709,001,2024-06-17_10h38.40.092,experiment,2024.1.5,MacIntel,59.88023952,65e29490e2b12e6bfa6a34b8,667045947eb812cbdacbf325,6670495dc99f10f913bff3d7,,,,,,,,,,,,,,,,,,,,,,,,,,,,,,,,,,,,1356.4568,1362.5279,0,1,1,0,1,SoundStimuli/IllMakeLoveToYou_BoyzIIMen_Original5S.wav,,,,,,,,,,,,,,,,,,,,,,,,,,,,,,,,,,,,,,,,,,,,,,,,,,,,,,,,,,
,,,,,001709,001,2024-06-17_10h38.40.092,experiment,2024.1.5,MacIntel,59.88023952,65e29490e2b12e6bfa6a34b8,667045947eb812cbdacbf325,6670495dc99f10f913bff3d7,,,,,,,,,,,,,,,,,,,,,,,,,,,,,,,,,,,,,,,,,,,,1362.5281,1384.1448,4.084298573,21.5962,0,11,11,6,1,song_indices/IllMakeLoveToYou_BoyzIIMen.csv,,,,,,,,,,,,,,,,,,,,,,,,,,,,,,,,,,,,,,,,,,,,,,,,
,,,,,001709,001,2024-06-17_10h38.40.092,experiment,2024.1.5,MacIntel,59.88023952,65e29490e2b12e6bfa6a34b8,667045947eb812cbdacbf325,6670495dc99f10f913bff3d7,,,,,,,,,,,,,,,,,,,,,,,,,,,,,,,,,,,,1384.1459,1390.9784,0,0,0,1,1,SoundStimuli/IWannaDanceWithSomebody_WhitneyHouston_Cover5S.wav,,,,,,,,,,,,,,,,,,,,,,,,,,,,,,,,,,,,,,,,,,,,,,,,,,,,,,,,,,
,,,,,001709,001,2024-06-17_10h38.40.092,experiment,2024.1.5,MacIntel,59.88023952,65e29490e2b12e6bfa6a34b8,667045947eb812cbdacbf325,6670495dc99f10f913bff3d7,,,,,,,,,,,,,,,,,,,,,,,,,,,,,,,,,,,,1390.9887,1396.5766,0,1,1,0,1,SoundStimuli/IWannaDanceWithSomebody_WhitneyHouston_Original5S.wav,,,,,,,,,,,,,,,,,,,,,,,,,,,,,,,,,,,,,,,,,,,,,,,,,,,,,,,,,,
,,,,,001709,001,2024-06-17_10h38.40.092,experiment,2024.1.5,MacIntel,59.88023952,65e29490e2b12e6bfa6a34b8,667045947eb812cbdacbf325,6670495dc99f10f913bff3d7,,,,,,,,,,,,,,,,,,,,,,,,,,,,,,,,,,,,,,,,,,,,1396.5769,1416.7766,4.84678159,20.1786,0,12,12,13,1,song_indices/IWannaDanceWithSomebody_WhitneyHouston.csv,,,,,,,,,,,,,,,,,,,,,,,,,,,,,,,,,,,,,,,,,,,,,,,,
,,,,,001709,001,2024-06-17_10h38.40.092,experiment,2024.1.5,MacIntel,59.88023952,65e29490e2b12e6bfa6a34b8,667045947eb812cbdacbf325,6670495dc99f10f913bff3d7,,,,,,,,,,,,,,,,,,,,,,,,,,,,,,,,,,,,1416.7779,1423.2267,0,0,0,0,1,SoundStimuli/BadDay_DanielPowter_Original5S.wav,,,,,,,,,,,,,,,,,,,,,,,,,,,,,,,,,,,,,,,,,,,,,,,,,,,,,,,,,,
,,,,,001709,001,2024-06-17_10h38.40.092,experiment,2024.1.5,MacIntel,59.88023952,65e29490e2b12e6bfa6a34b8,667045947eb812cbdacbf325,6670495dc99f10f913bff3d7,,,,,,,,,,,,,,,,,,,,,,,,,,,,,,,,,,,,1423.2365,1430.7263,0,1,1,1,1,SoundStimuli/BadDay_DanielPowter_Cover5S.wav,,,,,,,,,,,,,,,,,,,,,,,,,,,,,,,,,,,,,,,,,,,,,,,,,,,,,,,,,,
,,,,,001709,001,2024-06-17_10h38.40.092,experiment,2024.1.5,MacIntel,59.88023952,65e29490e2b12e6bfa6a34b8,667045947eb812cbdacbf325,6670495dc99f10f913bff3d7,,,,,,,,,,,,,,,,,,,,,,,,,,,,,,,,,,,,,,,,,,,,1430.7266,1432.126,2.907302989,1.3842,0,13,13,22,1,song_indices/BadDay_DanielPowter.csv,,,,,,,,,,,,,,,,,,,,,,,,,,,,,,,,,,,,,,,,,,,,,,,,
,,,,,001709,001,2024-06-17_10h38.40.092,experiment,2024.1.5,MacIntel,59.88023952,65e29490e2b12e6bfa6a34b8,667045947eb812cbdacbf325,6670495dc99f10f913bff3d7,,,,,,,,,,,,,,,,,,,,,,,,,,,,,,,,,,,,1432.1268,1438.1761,0,0,0,1,1,SoundStimuli/IWantToHoldYourHand_TheBeatles_Cover5S.wav,,,,,,,,,,,,,,,,,,,,,,,,,,,,,,,,,,,,,,,,,,,,,,,,,,,,,,,,,,
,,,,,001709,001,2024-06-17_10h38.40.092,experiment,2024.1.5,MacIntel,59.88023952,65e29490e2b12e6bfa6a34b8,667045947eb812cbdacbf325,6670495dc99f10f913bff3d7,,,,,,,,,,,,,,,,,,,,,,,,,,,,,,,,,,,,1438.1874,1443.9754,0,1,1,0,1,SoundStimuli/IWantToHoldYourHand_TheBeatles_Original5S.wav,,,,,,,,,,,,,,,,,,,,,,,,,,,,,,,,,,,,,,,,,,,,,,,,,,,,,,,,,,
,,,,,001709,001,2024-06-17_10h38.40.092,experiment,2024.1.5,MacIntel,59.88023952,65e29490e2b12e6bfa6a34b8,667045947eb812cbdacbf325,6670495dc99f10f913bff3d7,,,,,,,,,,,,,,,,,,,,,,,,,,,,,,,,,,,,,,,,,,,,1443.9755,1447.793,2.285215693,3.7919,0,14,14,19,1,song_indices/IWantToHoldYourHand_TheBeatles.csv,,,,,,,,,,,,,,,,,,,,,,,,,,,,,,,,,,,,,,,,,,,,,,,,
,,,,,001709,001,2024-06-17_10h38.40.092,experiment,2024.1.5,MacIntel,59.88023952,65e29490e2b12e6bfa6a34b8,667045947eb812cbdacbf325,6670495dc99f10f913bff3d7,,,,,,,,,,,,,,,,,,,,,,,,,,,,,,,,,,,,1447.7938,1453.9422,0,0,0,0,1,SoundStimuli/LikeARollingStone_BobDylan_Original5S.wav,,,,,,,,,,,,,,,,,,,,,,,,,,,,,,,,,,,,,,,,,,,,,,,,,,,,,,,,,,
,,,,,001709,001,2024-06-17_10h38.40.092,experiment,2024.1.5,MacIntel,59.88023952,65e29490e2b12e6bfa6a34b8,667045947eb812cbdacbf325,6670495dc99f10f913bff3d7,,,,,,,,,,,,,,,,,,,,,,,,,,,,,,,,,,,,1453.9521,1458.3416,0,1,1,1,1,SoundStimuli/LikeARollingStone_BobDylan_Cover5S.wav,,,,,,,,,,,,,,,,,,,,,,,,,,,,,,,,,,,,,,,,,,,,,,,,,,,,,,,,,,
,,,,,001709,001,2024-06-17_10h38.40.092,experiment,2024.1.5,MacIntel,59.88023952,65e29490e2b12e6bfa6a34b8,667045947eb812cbdacbf325,6670495dc99f10f913bff3d7,,,,,,,,,,,,,,,,,,,,,,,,,,,,,,,,,,,,,,,,,,,,1458.3417,1471.5077,3.077199389,13.1551,0,15,15,12,1,song_indices/LikeARollingStone_BobDylan.csv,,,,,,,,,,,,,,,,,,,,,,,,,,,,,,,,,,,,,,,,,,,,,,,,
,,,,,001709,001,2024-06-17_10h38.40.092,experiment,2024.1.5,MacIntel,59.88023952,65e29490e2b12e6bfa6a34b8,667045947eb812cbdacbf325,6670495dc99f10f913bff3d7,,,,,,,,,,,,,,,,,,,,,,,,,,,,,,,,,,,,1471.5087,1477.7242,0,0,0,0,1,SoundStimuli/Smooth_SantanaRobThomas_Original5S.wav,,,,,,,,,,,,,,,,,,,,,,,,,,,,,,,,,,,,,,,,,,,,,,,,,,,,,,,,,,
,,,,,001709,001,2024-06-17_10h38.40.092,experiment,2024.1.5,MacIntel,59.88023952,65e29490e2b12e6bfa6a34b8,667045947eb812cbdacbf325,6670495dc99f10f913bff3d7,,,,,,,,,,,,,,,,,,,,,,,,,,,,,,,,,,,,1477.7336,1483.8572,0,1,1,1,1,SoundStimuli/Smooth_SantanaRobThomas_Cover5S.wav,,,,,,,,,,,,,,,,,,,,,,,,,,,,,,,,,,,,,,,,,,,,,,,,,,,,,,,,,,
,,,,,001709,001,2024-06-17_10h38.40.092,experiment,2024.1.5,MacIntel,59.88023952,65e29490e2b12e6bfa6a34b8,667045947eb812cbdacbf325,6670495dc99f10f913bff3d7,,,,,,,,,,,,,,,,,,,,,,,,,,,,,,,,,,,,,,,,,,,,1483.8574,1501.8066,3.077199389,17.9396,0,16,16,4,1,song_indices/Smooth_SantanaRobThomas.csv,,,,,,,,,,,,,,,,,,,,,,,,,,,,,,,,,,,,,,,,,,,,,,,,
,,,,,001709,001,2024-06-17_10h38.40.092,experiment,2024.1.5,MacIntel,59.88023952,65e29490e2b12e6bfa6a34b8,667045947eb812cbdacbf325,6670495dc99f10f913bff3d7,,,,,,,,,,,,,,,,,,,,,,,,,,,,,,,,,,,,1501.8076,1507.9399,0,0,0,0,1,SoundStimuli/StrawberryFieldsForever_TheBeatles_Original5S.wav,,,,,,,,,,,,,,,,,,,,,,,,,,,,,,,,,,,,,,,,,,,,,,,,,,,,,,,,,,
,,,,,001709,001,2024-06-17_10h38.40.092,experiment,2024.1.5,MacIntel,59.88023952,65e29490e2b12e6bfa6a34b8,667045947eb812cbdacbf325,6670495dc99f10f913bff3d7,,,,,,,,,,,,,,,,,,,,,,,,,,,,,,,,,,,,1507.9488,1514.9727,0,1,1,1,1,SoundStimuli/StrawberryFieldsForever_TheBeatles_Cover5S.wav,,,,,,,,,,,,,,,,,,,,,,,,,,,,,,,,,,,,,,,,,,,,,,,,,,,,,,,,,,
,,,,,001709,001,2024-06-17_10h38.40.092,experiment,2024.1.5,MacIntel,59.88023952,65e29490e2b12e6bfa6a34b8,667045947eb812cbdacbf325,6670495dc99f10f913bff3d7,,,,,,,,,,,,,,,,,,,,,,,,,,,,,,,,,,,,,,,,,,,,1514.9728,1554.5377,3.077199389,39.5455,0,17,17,14,1,song_indices/StrawberryFieldsForever_TheBeatles.csv,,,,,,,,,,,,,,,,,,,,,,,,,,,,,,,,,,,,,,,,,,,,,,,,
,,,,,001709,001,2024-06-17_10h38.40.092,experiment,2024.1.5,MacIntel,59.88023952,65e29490e2b12e6bfa6a34b8,667045947eb812cbdacbf325,6670495dc99f10f913bff3d7,,,,,,,,,,,,,,,,,,,,,,,,,,,,,,,,,,,,1554.5384,1560.9378,0,0,0,0,1,SoundStimuli/MyGirl_TheTemptations_Original5S.wav,,,,,,,,,,,,,,,,,,,,,,,,,,,,,,,,,,,,,,,,,,,,,,,,,,,,,,,,,,
,,,,,001709,001,2024-06-17_10h38.40.092,experiment,2024.1.5,MacIntel,59.88023952,65e29490e2b12e6bfa6a34b8,667045947eb812cbdacbf325,6670495dc99f10f913bff3d7,,,,,,,,,,,,,,,,,,,,,,,,,,,,,,,,,,,,1560.9454,1568.604,0,1,1,1,1,SoundStimuli/MyGirl_TheTemptations_Cover5S.wav,,,,,,,,,,,,,,,,,,,,,,,,,,,,,,,,,,,,,,,,,,,,,,,,,,,,,,,,,,
,,,,,001709,001,2024-06-17_10h38.40.092,experiment,2024.1.5,MacIntel,59.88023952,65e29490e2b12e6bfa6a34b8,667045947eb812cbdacbf325,6670495dc99f10f913bff3d7,,,,,,,,,,,,,,,,,,,,,,,,,,,,,,,,,,,,,,,,,,,,1568.6043,1571.637,2.037797215,3.0138,0,18,18,15,1,song_indices/MyGirl_TheTemptations.csv,,,,,,,,,,,,,,,,,,,,,,,,,,,,,,,,,,,,,,,,,,,,,,,,
,,,,,001709,001,2024-06-17_10h38.40.092,experiment,2024.1.5,MacIntel,59.88023952,65e29490e2b12e6bfa6a34b8,667045947eb812cbdacbf325,6670495dc99f10f913bff3d7,,,,,,,,,,,,,,,,,,,,,,,,,,,,,,,,,,,,1571.6383,1577.8554,0,0,0,1,1,SoundStimuli/LikeAPrayer_Madonna_Cover5S.wav,,,,,,,,,,,,,,,,,,,,,,,,,,,,,,,,,,,,,,,,,,,,,,,,,,,,,,,,,,
,,,,,001709,001,2024-06-17_10h38.40.092,experiment,2024.1.5,MacIntel,59.88023952,65e29490e2b12e6bfa6a34b8,667045947eb812cbdacbf325,6670495dc99f10f913bff3d7,,,,,,,,,,,,,,,,,,,,,,,,,,,,,,,,,,,,1577.8692,1584.0533,0,1,1,0,1,SoundStimuli/LikeAPrayer_Madonna_Original5S.wav,,,,,,,,,,,,,,,,,,,,,,,,,,,,,,,,,,,,,,,,,,,,,,,,,,,,,,,,,,
,,,,,001709,001,2024-06-17_10h38.40.092,experiment,2024.1.5,MacIntel,59.88023952,65e29490e2b12e6bfa6a34b8,667045947eb812cbdacbf325,6670495dc99f10f913bff3d7,,,,,,,,,,,,,,,,,,,,,,,,,,,,,,,,,,,,,,,,,,,,1584.0535,1591.4362,2.037797215,7.3612,0,19,19,7,1,song_indices/LikeAPrayer_Madonna.csv,,,,,,,,,,,,,,,,,,,,,,,,,,,,,,,,,,,,,,,,,,,,,,,,
,,,,,001709,001,2024-06-17_10h38.40.092,experiment,2024.1.5,MacIntel,59.88023952,65e29490e2b12e6bfa6a34b8,667045947eb812cbdacbf325,6670495dc99f10f913bff3d7,,,,,,,,,,,,,,,,,,,,,,,,,,,,,,,,,,,,1591.4371,1598.0028,0,0,0,0,1,SoundStimuli/Despacito_LuisFonsiDaddyYankee_Original5S.wav,,,,,,,,,,,,,,,,,,,,,,,,,,,,,,,,,,,,,,,,,,,,,,,,,,,,,,,,,,
,,,,,001709,001,2024-06-17_10h38.40.092,experiment,2024.1.5,MacIntel,59.88023952,65e29490e2b12e6bfa6a34b8,667045947eb812cbdacbf325,6670495dc99f10f913bff3d7,,,,,,,,,,,,,,,,,,,,,,,,,,,,,,,,,,,,1598.0083,1604.5857,0,1,1,1,1,SoundStimuli/Despacito_LuisFonsiDaddyYankee_Cover5S.wav,,,,,,,,,,,,,,,,,,,,,,,,,,,,,,,,,,,,,,,,,,,,,,,,,,,,,,,,,,
,,,,,001709,001,2024-06-17_10h38.40.092,experiment,2024.1.5,MacIntel,59.88023952,65e29490e2b12e6bfa6a34b8,667045947eb812cbdacbf325,6670495dc99f10f913bff3d7,,,,,,,,,,,,,,,,,,,,,,,,,,,,,,,,,,,,,,,,,,,,1604.5859,1606.2857,5.039580503,1.6877,0,20,20,11,1,song_indices/Despacito_LuisFonsiDaddyYankee.csv,,,,,,,,,,,,,,,,,,,,,,,,,,,,,,,,,,,,,,,,,,,,,,,,
,,,,,001709,001,2024-06-17_10h38.40.092,experiment,2024.1.5,MacIntel,59.88023952,65e29490e2b12e6bfa6a34b8,667045947eb812cbdacbf325,6670495dc99f10f913bff3d7,,,,,,,,,,,,,,,,,,,,,,,,,,,,,,,,,,,,1606.2865,1612.5355,0,0,0,0,1,SoundStimuli/LivinOnAPrayer_BonJovi_Original5S.wav,,,,,,,,,,,,,,,,,,,,,,,,,,,,,,,,,,,,,,,,,,,,,,,,,,,,,,,,,,
,,,,,001709,001,2024-06-17_10h38.40.092,experiment,2024.1.5,MacIntel,59.88023952,65e29490e2b12e6bfa6a34b8,667045947eb812cbdacbf325,6670495dc99f10f913bff3d7,,,,,,,,,,,,,,,,,,,,,,,,,,,,,,,,,,,,1612.5421,1620.2184,0,1,1,1,1,SoundStimuli/LivinOnAPrayer_BonJovi_Cover5S.wav,,,,,,,,,,,,,,,,,,,,,,,,,,,,,,,,,,,,,,,,,,,,,,,,,,,,,,,,,,
,,,,,001709,001,2024-06-17_10h38.40.092,experiment,2024.1.5,MacIntel,59.88023952,65e29490e2b12e6bfa6a34b8,667045947eb812cbdacbf325,6670495dc99f10f913bff3d7,,,,,,,,,,,,,,,,,,,,,,,,,,,,,,,,,,,,,,,,,,,,1620.2186,1640.601,4.134994905,20.3621,0,21,21,16,1,song_indices/LivinOnAPrayer_BonJovi.csv,,,,,,,,,,,,,,,,,,,,,,,,,,,,,,,,,,,,,,,,,,,,,,,,
,,,,,001709,001,2024-06-17_10h38.40.092,experiment,2024.1.5,MacIntel,59.88023952,65e29490e2b12e6bfa6a34b8,667045947eb812cbdacbf325,6670495dc99f10f913bff3d7,,,,,,,,,,,,,,,,,,,,,,,,,,,,,,,,,,,,1640.6017,1646.7008,0,0,0,0,1,SoundStimuli/HeatWaves_GlassAnimals_Original5S.wav,,,,,,,,,,,,,,,,,,,,,,,,,,,,,,,,,,,,,,,,,,,,,,,,,,,,,,,,,,
,,,,,001709,001,2024-06-17_10h38.40.092,experiment,2024.1.5,MacIntel,59.88023952,65e29490e2b12e6bfa6a34b8,667045947eb812cbdacbf325,6670495dc99f10f913bff3d7,,,,,,,,,,,,,,,,,,,,,,,,,,,,,,,,,,,,1646.7065,1655.3007,0,1,1,1,1,SoundStimuli/HeatWaves_GlassAnimals_Cover5S.wav,,,,,,,,,,,,,,,,,,,,,,,,,,,,,,,,,,,,,,,,,,,,,,,,,,,,,,,,,,
,,,,,001709,001,2024-06-17_10h38.40.092,experiment,2024.1.5,MacIntel,59.88023952,65e29490e2b12e6bfa6a34b8,667045947eb812cbdacbf325,6670495dc99f10f913bff3d7,,,,,,,,,,,,,,,,,,,,,,,,,,,,,,,,,,,,,,,,,,,,1655.3008,1657.9178,3.97467731,2.5983,0,22,22,10,1,song_indices/HeatWaves_GlassAnimals.csv,,,,,,,,,,,,,,,,,,,,,,,,,,,,,,,,,,,,,,,,,,,,,,,,
,,,,,001709,001,2024-06-17_10h38.40.092,experiment,2024.1.5,MacIntel,59.88023952,65e29490e2b12e6bfa6a34b8,667045947eb812cbdacbf325,6670495dc99f10f913bff3d7,,,,,,,,,,,,,,,,,,,,,,,,,,,,,,,,,,,,,,,,,,,,,,,,,,,,,,1657.9185,1757.1651,space,99.2274,,0,0,0,0,1,choose_song_b1.csv,,,,,,,,,,,,,,,,,,,,,,,,,,,,,,,,,,,,,
,,,,,001709,001,2024-06-17_10h38.40.092,experiment,2024.1.5,MacIntel,59.88023952,65e29490e2b12e6bfa6a34b8,667045947eb812cbdacbf325,6670495dc99f10f913bff3d7,,,,,,,,,,,,,,,,,,,,,,,,,,,,,,,,,,,,1757.1721,1763.6485,0,0,0,0,1,SoundStimuli/BlindingLights_TheWeeknd_Original5S.wav,,,,,,,,,,,,,,,,,,,,,,,,,,,,,,,,,,,,,,,,,,,,,,,,,,,,,,,,,,
,,,,,001709,001,2024-06-17_10h38.40.092,experiment,2024.1.5,MacIntel,59.88023952,65e29490e2b12e6bfa6a34b8,667045947eb812cbdacbf325,6670495dc99f10f913bff3d7,,,,,,,,,,,,,,,,,,,,,,,,,,,,,,,,,,,,1763.6599,1770.4459,0,1,1,1,1,SoundStimuli/BlindingLights_TheWeeknd_Cover5S.wav,,,,,,,,,,,,,,,,,,,,,,,,,,,,,,,,,,,,,,,,,,,,,,,,,,,,,,,,,,
,,,,,001709,001,2024-06-17_10h38.40.092,experiment,2024.1.5,MacIntel,59.88023952,65e29490e2b12e6bfa6a34b8,667045947eb812cbdacbf325,6670495dc99f10f913bff3d7,,,,,,,,,,,,,,,,,,,,,,,,,,,,,,,,,,,,,,,,,,,,1770.4459,1772.5789,5.09007303,2.1173,0,0,0,21,1,song_indices/BlindingLights_TheWeeknd.csv,,,,,,,,,,,,,,,,,,,,,,,,,,,,,,,,,,,,,,,,,,,,,,,,
,,,,,001709,001,2024-06-17_10h38.40.092,experiment,2024.1.5,MacIntel,59.88023952,65e29490e2b12e6bfa6a34b8,667045947eb812cbdacbf325,6670495dc99f10f913bff3d7,,,,,,,,,,,,,,,,,,,,,,,,,,,,,,,,,,,,1772.5796,1778.6958,0,0,0,1,1,SoundStimuli/TossinAndTurnin_BobbyLewis_Cover5S.wav,,,,,,,,,,,,,,,,,,,,,,,,,,,,,,,,,,,,,,,,,,,,,,,,,,,,,,,,,,
,,,,,001709,001,2024-06-17_10h38.40.092,experiment,2024.1.5,MacIntel,59.88023952,65e29490e2b12e6bfa6a34b8,667045947eb812cbdacbf325,6670495dc99f10f913bff3d7,,,,,,,,,,,,,,,,,,,,,,,,,,,,,,,,,,,,1778.7056,1784.7619,0,1,1,0,1,SoundStimuli/TossinAndTurnin_BobbyLewis_Original5S.wav,,,,,,,,,,,,,,,,,,,,,,,,,,,,,,,,,,,,,,,,,,,,,,,,,,,,,,,,,,
,,,,,001709,001,2024-06-17_10h38.40.092,experiment,2024.1.5,MacIntel,59.88023952,65e29490e2b12e6bfa6a34b8,667045947eb812cbdacbf325,6670495dc99f10f913bff3d7,,,,,,,,,,,,,,,,,,,,,,,,,,,,,,,,,,,,,,,,,,,,1784.7622,1786.4118,4.87821841,1.6337,0,1,1,13,1,song_indices/TossinAndTurnin_BobbyLewis.csv,,,,,,,,,,,,,,,,,,,,,,,,,,,,,,,,,,,,,,,,,,,,,,,,
,,,,,001709,001,2024-06-17_10h38.40.092,experiment,2024.1.5,MacIntel,59.88023952,65e29490e2b12e6bfa6a34b8,667045947eb812cbdacbf325,6670495dc99f10f913bff3d7,,,,,,,,,,,,,,,,,,,,,,,,,,,,,,,,,,,,1786.413,1791.9281,0,0,0,1,1,SoundStimuli/LeFreak_Chic_Cover5S.wav,,,,,,,,,,,,,,,,,,,,,,,,,,,,,,,,,,,,,,,,,,,,,,,,,,,,,,,,,,
,,,,,001709,001,2024-06-17_10h38.40.092,experiment,2024.1.5,MacIntel,59.88023952,65e29490e2b12e6bfa6a34b8,667045947eb812cbdacbf325,6670495dc99f10f913bff3d7,,,,,,,,,,,,,,,,,,,,,,,,,,,,,,,,,,,,1791.9386,1797.9616,0,1,1,0,1,SoundStimuli/LeFreak_Chic_Original5S.wav,,,,,,,,,,,,,,,,,,,,,,,,,,,,,,,,,,,,,,,,,,,,,,,,,,,,,,,,,,
,,,,,001709,001,2024-06-17_10h38.40.092,experiment,2024.1.5,MacIntel,59.88023952,65e29490e2b12e6bfa6a34b8,667045947eb812cbdacbf325,6670495dc99f10f913bff3d7,,,,,,,,,,,,,,,,,,,,,,,,,,,,,,,,,,,,,,,,,,,,1797.9619,1813.3108,3.319701087,15.3256,0,2,2,11,1,song_indices/LeFreak_Chic.csv,,,,,,,,,,,,,,,,,,,,,,,,,,,,,,,,,,,,,,,,,,,,,,,,
,,,,,001709,001,2024-06-17_10h38.40.092,experiment,2024.1.5,MacIntel,59.88023952,65e29490e2b12e6bfa6a34b8,667045947eb812cbdacbf325,6670495dc99f10f913bff3d7,,,,,,,,,,,,,,,,,,,,,,,,,,,,,,,,,,,,1813.3117,1819.244,0,0,0,0,1,SoundStimuli/Respect_ArethaFranklin_Original5S.wav,,,,,,,,,,,,,,,,,,,,,,,,,,,,,,,,,,,,,,,,,,,,,,,,,,,,,,,,,,
,,,,,001709,001,2024-06-17_10h38.40.092,experiment,2024.1.5,MacIntel,59.88023952,65e29490e2b12e6bfa6a34b8,667045947eb812cbdacbf325,6670495dc99f10f913bff3d7,,,,,,,,,,,,,,,,,,,,,,,,,,,,,,,,,,,,1819.2535,1825.3105,0,1,1,1,1,SoundStimuli/Respect_ArethaFranklin_Cover5S.wav,,,,,,,,,,,,,,,,,,,,,,,,,,,,,,,,,,,,,,,,,,,,,,,,,,,,,,,,,,
,,,,,001709,001,2024-06-17_10h38.40.092,experiment,2024.1.5,MacIntel,59.88023952,65e29490e2b12e6bfa6a34b8,667045947eb812cbdacbf325,6670495dc99f10f913bff3d7,,,,,,,,,,,,,,,,,,,,,,,,,,,,,,,,,,,,,,,,,,,,1825.3106,1826.9268,2.15055197,1.5967,0,3,3,0,1,song_indices/Respect_ArethaFranklin.csv,,,,,,,,,,,,,,,,,,,,,,,,,,,,,,,,,,,,,,,,,,,,,,,,
,,,,,001709,001,2024-06-17_10h38.40.092,experiment,2024.1.5,MacIntel,59.88023952,65e29490e2b12e6bfa6a34b8,667045947eb812cbdacbf325,6670495dc99f10f913bff3d7,,,,,,,,,,,,,,,,,,,,,,,,,,,,,,,,,,,,1826.9275,1833.9265,0,0,0,1,1,SoundStimuli/Dilemma_NellyKellyRowland_Cover5S.wav,,,,,,,,,,,,,,,,,,,,,,,,,,,,,,,,,,,,,,,,,,,,,,,,,,,,,,,,,,
,,,,,001709,001,2024-06-17_10h38.40.092,experiment,2024.1.5,MacIntel,59.88023952,65e29490e2b12e6bfa6a34b8,667045947eb812cbdacbf325,6670495dc99f10f913bff3d7,,,,,,,,,,,,,,,,,,,,,,,,,,,,,,,,,,,,1833.9369,1840.1263,0,1,1,0,1,SoundStimuli/Dilemma_NellyKellyRowland_Original5S.wav,,,,,,,,,,,,,,,,,,,,,,,,,,,,,,,,,,,,,,,,,,,,,,,,,,,,,,,,,,
,,,,,001709,001,2024-06-17_10h38.40.092,experiment,2024.1.5,MacIntel,59.88023952,65e29490e2b12e6bfa6a34b8,667045947eb812cbdacbf325,6670495dc99f10f913bff3d7,,,,,,,,,,,,,,,,,,,,,,,,,,,,,,,,,,,,,,,,,,,,1840.1266,1840.9263,2.845601223,0.7837,0,4,4,2,1,song_indices/Dilemma_NellyKellyRowland.csv,,,,,,,,,,,,,,,,,,,,,,,,,,,,,,,,,,,,,,,,,,,,,,,,
,,,,,001709,001,2024-06-17_10h38.40.092,experiment,2024.1.5,MacIntel,59.88023952,65e29490e2b12e6bfa6a34b8,667045947eb812cbdacbf325,6670495dc99f10f913bff3d7,,,,,,,,,,,,,,,,,,,,,,,,,,,,,,,,,,,,1840.9275,1847.0429,0,0,0,0,1,SoundStimuli/JoyToTheWorld_ThreeDogNight_Original5S.wav,,,,,,,,,,,,,,,,,,,,,,,,,,,,,,,,,,,,,,,,,,,,,,,,,,,,,,,,,,
,,,,,001709,001,2024-06-17_10h38.40.092,experiment,2024.1.5,MacIntel,59.88023952,65e29490e2b12e6bfa6a34b8,667045947eb812cbdacbf325,6670495dc99f10f913bff3d7,,,,,,,,,,,,,,,,,,,,,,,,,,,,,,,,,,,,1847.0508,1852.1758,0,1,1,1,1,SoundStimuli/JoyToTheWorld_ThreeDogNight_Cover5S.wav,,,,,,,,,,,,,,,,,,,,,,,,,,,,,,,,,,,,,,,,,,,,,,,,,,,,,,,,,,
,,,,,001709,001,2024-06-17_10h38.40.092,experiment,2024.1.5,MacIntel,59.88023952,65e29490e2b12e6bfa6a34b8,667045947eb812cbdacbf325,6670495dc99f10f913bff3d7,,,,,,,,,,,,,,,,,,,,,,,,,,,,,,,,,,,,,,,,,,,,1852.1759,1866.2253,2.153481658,14.0392,0,5,5,8,1,song_indices/JoyToTheWorld_ThreeDogNight.csv,,,,,,,,,,,,,,,,,,,,,,,,,,,,,,,,,,,,,,,,,,,,,,,,
,,,,,001709,001,2024-06-17_10h38.40.092,experiment,2024.1.5,MacIntel,59.88023952,65e29490e2b12e6bfa6a34b8,667045947eb812cbdacbf325,6670495dc99f10f913bff3d7,,,,,,,,,,,,,,,,,,,,,,,,,,,,,,,,,,,,1866.2261,1872.5257,0,0,0,0,1,SoundStimuli/LetsGetItOn_MarvinGaye_Original5S.wav,,,,,,,,,,,,,,,,,,,,,,,,,,,,,,,,,,,,,,,,,,,,,,,,,,,,,,,,,,
,,,,,001709,001,2024-06-17_10h38.40.092,experiment,2024.1.5,MacIntel,59.88023952,65e29490e2b12e6bfa6a34b8,667045947eb812cbdacbf325,6670495dc99f10f913bff3d7,,,,,,,,,,,,,,,,,,,,,,,,,,,,,,,,,,,,1872.5359,1879.1748,0,1,1,1,1,SoundStimuli/LetsGetItOn_MarvinGaye_Cover5S.wav,,,,,,,,,,,,,,,,,,,,,,,,,,,,,,,,,,,,,,,,,,,,,,,,,,,,,,,,,,
,,,,,001709,001,2024-06-17_10h38.40.092,experiment,2024.1.5,MacIntel,59.88023952,65e29490e2b12e6bfa6a34b8,667045947eb812cbdacbf325,6670495dc99f10f913bff3d7,,,,,,,,,,,,,,,,,,,,,,,,,,,,,,,,,,,,,,,,,,,,1879.1748,1907.7237,2.582999321,28.5421,0,6,6,20,1,song_indices/LetsGetItOn_MarvinGaye.csv,,,,,,,,,,,,,,,,,,,,,,,,,,,,,,,,,,,,,,,,,,,,,,,,
,,,,,001709,001,2024-06-17_10h38.40.092,experiment,2024.1.5,MacIntel,59.88023952,65e29490e2b12e6bfa6a34b8,667045947eb812cbdacbf325,6670495dc99f10f913bff3d7,,,,,,,,,,,,,,,,,,,,,,,,,,,,,,,,,,,,1907.7247,1915.0067,0,0,0,1,1,SoundStimuli/FlashdanceWhatAFeeling_IreneCara_Cover5S.wav,,,,,,,,,,,,,,,,,,,,,,,,,,,,,,,,,,,,,,,,,,,,,,,,,,,,,,,,,,
,,,,,001709,001,2024-06-17_10h38.40.092,experiment,2024.1.5,MacIntel,59.88023952,65e29490e2b12e6bfa6a34b8,667045947eb812cbdacbf325,6670495dc99f10f913bff3d7,,,,,,,,,,,,,,,,,,,,,,,,,,,,,,,,,,,,1915.0118,1921.4061,0,1,1,0,1,SoundStimuli/FlashdanceWhatAFeeling_IreneCara_Original5S.wav,,,,,,,,,,,,,,,,,,,,,,,,,,,,,,,,,,,,,,,,,,,,,,,,,,,,,,,,,,
,,,,,001709,001,2024-06-17_10h38.40.092,experiment,2024.1.5,MacIntel,59.88023952,65e29490e2b12e6bfa6a34b8,667045947eb812cbdacbf325,6670495dc99f10f913bff3d7,,,,,,,,,,,,,,,,,,,,,,,,,,,,,,,,,,,,,,,,,,,,1921.4063,1990.913,3.397208884,69.495,0,7,7,18,1,song_indices/FlashdanceWhatAFeeling_IreneCara.csv,,,,,,,,,,,,,,,,,,,,,,,,,,,,,,,,,,,,,,,,,,,,,,,,
,,,,,001709,001,2024-06-17_10h38.40.092,experiment,2024.1.5,MacIntel,59.88023952,65e29490e2b12e6bfa6a34b8,667045947eb812cbdacbf325,6670495dc99f10f913bff3d7,,,,,,,,,,,,,,,,,,,,,,,,,,,,,,,,,,,,1990.9141,1997.4297,0,0,0,0,1,SoundStimuli/Dreams_FleetwoodMac_Original5S.wav,,,,,,,,,,,,,,,,,,,,,,,,,,,,,,,,,,,,,,,,,,,,,,,,,,,,,,,,,,
,,,,,001709,001,2024-06-17_10h38.40.092,experiment,2024.1.5,MacIntel,59.88023952,65e29490e2b12e6bfa6a34b8,667045947eb812cbdacbf325,6670495dc99f10f913bff3d7,,,,,,,,,,,,,,,,,,,,,,,,,,,,,,,,,,,,1997.44,2005.2632,0,1,1,1,1,SoundStimuli/Dreams_FleetwoodMac_Cover5S.wav,,,,,,,,,,,,,,,,,,,,,,,,,,,,,,,,,,,,,,,,,,,,,,,,,,,,,,,,,,
,,,,,001709,001,2024-06-17_10h38.40.092,experiment,2024.1.5,MacIntel,59.88023952,65e29490e2b12e6bfa6a34b8,667045947eb812cbdacbf325,6670495dc99f10f913bff3d7,,,,,,,,,,,,,,,,,,,,,,,,,,,,,,,,,,,,,,,,,,,,2005.2633,2008.7456,3.103100615,3.463,0,8,8,1,1,song_indices/Dreams_FleetwoodMac.csv,,,,,,,,,,,,,,,,,,,,,,,,,,,,,,,,,,,,,,,,,,,,,,,,
,,,,,001709,001,2024-06-17_10h38.40.092,experiment,2024.1.5,MacIntel,59.88023952,65e29490e2b12e6bfa6a34b8,667045947eb812cbdacbf325,6670495dc99f10f913bff3d7,,,,,,,,,,,,,,,,,,,,,,,,,,,,,,,,,,,,2008.7463,2014.7789,0,0,0,0,1,SoundStimuli/HowDoILive_LeAnnRimes_Original5S.wav,,,,,,,,,,,,,,,,,,,,,,,,,,,,,,,,,,,,,,,,,,,,,,,,,,,,,,,,,,
,,,,,001709,001,2024-06-17_10h38.40.092,experiment,2024.1.5,MacIntel,59.88023952,65e29490e2b12e6bfa6a34b8,667045947eb812cbdacbf325,6670495dc99f10f913bff3d7,,,,,,,,,,,,,,,,,,,,,,,,,,,,,,,,,,,,2014.7882,2020.2617,0,1,1,1,1,SoundStimuli/HowDoILive_LeAnnRimes_Cover5S.wav,,,,,,,,,,,,,,,,,,,,,,,,,,,,,,,,,,,,,,,,,,,,,,,,,,,,,,,,,,
,,,,,001709,001,2024-06-17_10h38.40.092,experiment,2024.1.5,MacIntel,59.88023952,65e29490e2b12e6bfa6a34b8,667045947eb812cbdacbf325,6670495dc99f10f913bff3d7,,,,,,,,,,,,,,,,,,,,,,,,,,,,,,,,,,,,,,,,,,,,2020.2619,2050.0273,3.089904712,29.7495,0,9,9,17,1,song_indices/HowDoILive_LeAnnRimes.csv,,,,,,,,,,,,,,,,,,,,,,,,,,,,,,,,,,,,,,,,,,,,,,,,
,,,,,001709,001,2024-06-17_10h38.40.092,experiment,2024.1.5,MacIntel,59.88023952,65e29490e2b12e6bfa6a34b8,667045947eb812cbdacbf325,6670495dc99f10f913bff3d7,,,,,,,,,,,,,,,,,,,,,,,,,,,,,,,,,,,,2050.0281,2056.4781,0,0,0,1,1,SoundStimuli/YouLightUpMyLife_DebbyBoone_Cover5S.wav,,,,,,,,,,,,,,,,,,,,,,,,,,,,,,,,,,,,,,,,,,,,,,,,,,,,,,,,,,
,,,,,001709,001,2024-06-17_10h38.40.092,experiment,2024.1.5,MacIntel,59.88023952,65e29490e2b12e6bfa6a34b8,667045947eb812cbdacbf325,6670495dc99f10f913bff3d7,,,,,,,,,,,,,,,,,,,,,,,,,,,,,,,,,,,,2056.4844,2064.0384,0,1,1,0,1,SoundStimuli/YouLightUpMyLife_DebbyBoone_Original5S.wav,,,,,,,,,,,,,,,,,,,,,,,,,,,,,,,,,,,,,,,,,,,,,,,,,,,,,,,,,,
,,,,,001709,001,2024-06-17_10h38.40.092,experiment,2024.1.5,MacIntel,59.88023952,65e29490e2b12e6bfa6a34b8,667045947eb812cbdacbf325,6670495dc99f10f913bff3d7,,,,,,,,,,,,,,,,,,,,,,,,,,,,,,,,,,,,,,,,,,,,2064.0387,2065.0047,3.973692602,0.9462,0,10,10,4,1,song_indices/YouLightUpMyLife_DebbyBoone.csv,,,,,,,,,,,,,,,,,,,,,,,,,,,,,,,,,,,,,,,,,,,,,,,,
,,,,,001709,001,2024-06-17_10h38.40.092,experiment,2024.1.5,MacIntel,59.88023952,65e29490e2b12e6bfa6a34b8,667045947eb812cbdacbf325,6670495dc99f10f913bff3d7,,,,,,,,,,,,,,,,,,,,,,,,,,,,,,,,,,,,2065.0057,2068.9879,0,0,0,1,1,SoundStimuli/UnbreakMyHeart_ToniBraxton_Cover5S.wav,,,,,,,,,,,,,,,,,,,,,,,,,,,,,,,,,,,,,,,,,,,,,,,,,,,,,,,,,,
,,,,,001709,001,2024-06-17_10h38.40.092,experiment,2024.1.5,MacIntel,59.88023952,65e29490e2b12e6bfa6a34b8,667045947eb812cbdacbf325,6670495dc99f10f913bff3d7,,,,,,,,,,,,,,,,,,,,,,,,,,,,,,,,,,,,2068.9977,2075.0876,0,1,1,0,1,SoundStimuli/UnbreakMyHeart_ToniBraxton_Original5S.wav,,,,,,,,,,,,,,,,,,,,,,,,,,,,,,,,,,,,,,,,,,,,,,,,,,,,,,,,,,
,,,,,001709,001,2024-06-17_10h38.40.092,experiment,2024.1.5,MacIntel,59.88023952,65e29490e2b12e6bfa6a34b8,667045947eb812cbdacbf325,6670495dc99f10f913bff3d7,,,,,,,,,,,,,,,,,,,,,,,,,,,,,,,,,,,,,,,,,,,,2075.0877,2076.2209,4.228128752,1.1202,0,11,11,16,1,song_indices/UnbreakMyHeart_ToniBraxton.csv,,,,,,,,,,,,,,,,,,,,,,,,,,,,,,,,,,,,,,,,,,,,,,,,
,,,,,001709,001,2024-06-17_10h38.40.092,experiment,2024.1.5,MacIntel,59.88023952,65e29490e2b12e6bfa6a34b8,667045947eb812cbdacbf325,6670495dc99f10f913bff3d7,,,,,,,,,,,,,,,,,,,,,,,,,,,,,,,,,,,,2076.2214,2082.3207,0,0,0,0,1,SoundStimuli/ComeAndGetYourLove_Redbone_Original5S.wav,,,,,,,,,,,,,,,,,,,,,,,,,,,,,,,,,,,,,,,,,,,,,,,,,,,,,,,,,,
,,,,,001709,001,2024-06-17_10h38.40.092,experiment,2024.1.5,MacIntel,59.88023952,65e29490e2b12e6bfa6a34b8,667045947eb812cbdacbf325,6670495dc99f10f913bff3d7,,,,,,,,,,,,,,,,,,,,,,,,,,,,,,,,,,,,2082.3273,2089.3864,0,1,1,1,1,SoundStimuli/ComeAndGetYourLove_Redbone_Cover5S.wav,,,,,,,,,,,,,,,,,,,,,,,,,,,,,,,,,,,,,,,,,,,,,,,,,,,,,,,,,,
,,,,,001709,001,2024-06-17_10h38.40.092,experiment,2024.1.5,MacIntel,59.88023952,65e29490e2b12e6bfa6a34b8,667045947eb812cbdacbf325,6670495dc99f10f913bff3d7,,,,,,,,,,,,,,,,,,,,,,,,,,,,,,,,,,,,,,,,,,,,2089.3865,2090.4867,3.075667767,1.0907,0,12,12,22,1,song_indices/ComeAndGetYourLove_Redbone.csv,,,,,,,,,,,,,,,,,,,,,,,,,,,,,,,,,,,,,,,,,,,,,,,,
,,,,,001709,001,2024-06-17_10h38.40.092,experiment,2024.1.5,MacIntel,59.88023952,65e29490e2b12e6bfa6a34b8,667045947eb812cbdacbf325,6670495dc99f10f913bff3d7,,,,,,,,,,,,,,,,,,,,,,,,,,,,,,,,,,,,2090.4874,2096.3869,0,0,0,1,1,SoundStimuli/SaveYourTears_TheWeekndArianaGrande_Cover5S.wav,,,,,,,,,,,,,,,,,,,,,,,,,,,,,,,,,,,,,,,,,,,,,,,,,,,,,,,,,,
,,,,,001709,001,2024-06-17_10h38.40.092,experiment,2024.1.5,MacIntel,59.88023952,65e29490e2b12e6bfa6a34b8,667045947eb812cbdacbf325,6670495dc99f10f913bff3d7,,,,,,,,,,,,,,,,,,,,,,,,,,,,,,,,,,,,2096.3926,2102.5876,0,1,1,0,1,SoundStimuli/SaveYourTears_TheWeekndArianaGrande_Original5S.wav,,,,,,,,,,,,,,,,,,,,,,,,,,,,,,,,,,,,,,,,,,,,,,,,,,,,,,,,,,
,,,,,001709,001,2024-06-17_10h38.40.092,experiment,2024.1.5,MacIntel,59.88023952,65e29490e2b12e6bfa6a34b8,667045947eb812cbdacbf325,6670495dc99f10f913bff3d7,,,,,,,,,,,,,,,,,,,,,,,,,,,,,,,,,,,,,,,,,,,,2102.5883,2110.0191,5.130458433,7.4073,0,13,13,12,1,song_indices/SaveYourTears_TheWeekndArianaGrande.csv,,,,,,,,,,,,,,,,,,,,,,,,,,,,,,,,,,,,,,,,,,,,,,,,
,,,,,001709,001,2024-06-17_10h38.40.092,experiment,2024.1.5,MacIntel,59.88023952,65e29490e2b12e6bfa6a34b8,667045947eb812cbdacbf325,6670495dc99f10f913bff3d7,,,,,,,,,,,,,,,,,,,,,,,,,,,,,,,,,,,,2110.0202,2116.2364,0,0,0,0,1,SoundStimuli/TikTok_Kesha_Original5S.wav,,,,,,,,,,,,,,,,,,,,,,,,,,,,,,,,,,,,,,,,,,,,,,,,,,,,,,,,,,
,,,,,001709,001,2024-06-17_10h38.40.092,experiment,2024.1.5,MacIntel,59.88023952,65e29490e2b12e6bfa6a34b8,667045947eb812cbdacbf325,6670495dc99f10f913bff3d7,,,,,,,,,,,,,,,,,,,,,,,,,,,,,,,,,,,,2116.2452,2123.769,0,1,1,1,1,SoundStimuli/TikTok_Kesha_Cover5S.wav,,,,,,,,,,,,,,,,,,,,,,,,,,,,,,,,,,,,,,,,,,,,,,,,,,,,,,,,,,
,,,,,001709,001,2024-06-17_10h38.40.092,experiment,2024.1.5,MacIntel,59.88023952,65e29490e2b12e6bfa6a34b8,667045947eb812cbdacbf325,6670495dc99f10f913bff3d7,,,,,,,,,,,,,,,,,,,,,,,,,,,,,,,,,,,,,,,,,,,,2123.7691,2128.2689,3.071334784,4.4936,0,14,14,3,1,song_indices/TikTok_Kesha.csv,,,,,,,,,,,,,,,,,,,,,,,,,,,,,,,,,,,,,,,,,,,,,,,,
,,,,,001709,001,2024-06-17_10h38.40.092,experiment,2024.1.5,MacIntel,59.88023952,65e29490e2b12e6bfa6a34b8,667045947eb812cbdacbf325,6670495dc99f10f913bff3d7,,,,,,,,,,,,,,,,,,,,,,,,,,,,,,,,,,,,2128.2699,2135.702,0,0,0,0,1,SoundStimuli/Kiss_Prince_Original5S.wav,,,,,,,,,,,,,,,,,,,,,,,,,,,,,,,,,,,,,,,,,,,,,,,,,,,,,,,,,,
,,,,,001709,001,2024-06-17_10h38.40.092,experiment,2024.1.5,MacIntel,59.88023952,65e29490e2b12e6bfa6a34b8,667045947eb812cbdacbf325,6670495dc99f10f913bff3d7,,,,,,,,,,,,,,,,,,,,,,,,,,,,,,,,,,,,2135.7091,2141.9849,0,1,1,1,1,SoundStimuli/Kiss_Prince_Cover5S.wav,,,,,,,,,,,,,,,,,,,,,,,,,,,,,,,,,,,,,,,,,,,,,,,,,,,,,,,,,,
,,,,,001709,001,2024-06-17_10h38.40.092,experiment,2024.1.5,MacIntel,59.88023952,65e29490e2b12e6bfa6a34b8,667045947eb812cbdacbf325,6670495dc99f10f913bff3d7,,,,,,,,,,,,,,,,,,,,,,,,,,,,,,,,,,,,,,,,,,,,2141.9852,2170.3667,4.342587035,28.3659,0,15,15,14,1,song_indices/Kiss_Prince.csv,,,,,,,,,,,,,,,,,,,,,,,,,,,,,,,,,,,,,,,,,,,,,,,,
,,,,,001709,001,2024-06-17_10h38.40.092,experiment,2024.1.5,MacIntel,59.88023952,65e29490e2b12e6bfa6a34b8,667045947eb812cbdacbf325,6670495dc99f10f913bff3d7,,,,,,,,,,,,,,,,,,,,,,,,,,,,,,,,,,,,2170.3675,2177.1337,0,0,0,0,1,SoundStimuli/BlurredLines_RobinThicke_Original5S.wav,,,,,,,,,,,,,,,,,,,,,,,,,,,,,,,,,,,,,,,,,,,,,,,,,,,,,,,,,,
,,,,,001709,001,2024-06-17_10h38.40.092,experiment,2024.1.5,MacIntel,59.88023952,65e29490e2b12e6bfa6a34b8,667045947eb812cbdacbf325,6670495dc99f10f913bff3d7,,,,,,,,,,,,,,,,,,,,,,,,,,,,,,,,,,,,2177.1418,2184.2333,0,1,1,1,1,SoundStimuli/BlurredLines_RobinThicke_Cover5S.wav,,,,,,,,,,,,,,,,,,,,,,,,,,,,,,,,,,,,,,,,,,,,,,,,,,,,,,,,,,
,,,,,001709,001,2024-06-17_10h38.40.092,experiment,2024.1.5,MacIntel,59.88023952,65e29490e2b12e6bfa6a34b8,667045947eb812cbdacbf325,6670495dc99f10f913bff3d7,,,,,,,,,,,,,,,,,,,,,,,,,,,,,,,,,,,,,,,,,,,,2184.2336,2185.5335,2.720785189,1.289,0,16,16,9,1,song_indices/BlurredLines_RobinThicke.csv,,,,,,,,,,,,,,,,,,,,,,,,,,,,,,,,,,,,,,,,,,,,,,,,
,,,,,001709,001,2024-06-17_10h38.40.092,experiment,2024.1.5,MacIntel,59.88023952,65e29490e2b12e6bfa6a34b8,667045947eb812cbdacbf325,6670495dc99f10f913bff3d7,,,,,,,,,,,,,,,,,,,,,,,,,,,,,,,,,,,,2185.5342,2190.8334,0,0,0,1,1,SoundStimuli/Superstition_StevieWonder_Cover5S.wav,,,,,,,,,,,,,,,,,,,,,,,,,,,,,,,,,,,,,,,,,,,,,,,,,,,,,,,,,,
,,,,,001709,001,2024-06-17_10h38.40.092,experiment,2024.1.5,MacIntel,59.88023952,65e29490e2b12e6bfa6a34b8,667045947eb812cbdacbf325,6670495dc99f10f913bff3d7,,,,,,,,,,,,,,,,,,,,,,,,,,,,,,,,,,,,2190.8432,2196.9822,0,1,1,0,1,SoundStimuli/Superstition_StevieWonder_Original5S.wav,,,,,,,,,,,,,,,,,,,,,,,,,,,,,,,,,,,,,,,,,,,,,,,,,,,,,,,,,,
,,,,,001709,001,2024-06-17_10h38.40.092,experiment,2024.1.5,MacIntel,59.88023952,65e29490e2b12e6bfa6a34b8,667045947eb812cbdacbf325,6670495dc99f10f913bff3d7,,,,,,,,,,,,,,,,,,,,,,,,,,,,,,,,,,,,,,,,,,,,2196.9827,2275.113,5.088057098,78.1103,0,17,17,15,1,song_indices/Superstition_StevieWonder.csv,,,,,,,,,,,,,,,,,,,,,,,,,,,,,,,,,,,,,,,,,,,,,,,,
,,,,,001709,001,2024-06-17_10h38.40.092,experiment,2024.1.5,MacIntel,59.88023952,65e29490e2b12e6bfa6a34b8,667045947eb812cbdacbf325,6670495dc99f10f913bff3d7,,,,,,,,,,,,,,,,,,,,,,,,,,,,,,,,,,,,2275.1139,2280.8297,0,0,0,1,1,SoundStimuli/Levitating_DuaLipa_Cover5S.wav,,,,,,,,,,,,,,,,,,,,,,,,,,,,,,,,,,,,,,,,,,,,,,,,,,,,,,,,,,
,,,,,001709,001,2024-06-17_10h38.40.092,experiment,2024.1.5,MacIntel,59.88023952,65e29490e2b12e6bfa6a34b8,667045947eb812cbdacbf325,6670495dc99f10f913bff3d7,,,,,,,,,,,,,,,,,,,,,,,,,,,,,,,,,,,,2280.84,2286.846,0,1,1,0,1,SoundStimuli/Levitating_DuaLipa_Original5S.wav,,,,,,,,,,,,,,,,,,,,,,,,,,,,,,,,,,,,,,,,,,,,,,,,,,,,,,,,,,
,,,,,001709,001,2024-06-17_10h38.40.092,experiment,2024.1.5,MacIntel,59.88023952,65e29490e2b12e6bfa6a34b8,667045947eb812cbdacbf325,6670495dc99f10f913bff3d7,,,,,,,,,,,,,,,,,,,,,,,,,,,,,,,,,,,,,,,,,,,,2286.8466,2289.3792,4.239383253,2.5069,0,18,18,10,1,song_indices/Levitating_DuaLipa.csv,,,,,,,,,,,,,,,,,,,,,,,,,,,,,,,,,,,,,,,,,,,,,,,,
,,,,,001709,001,2024-06-17_10h38.40.092,experiment,2024.1.5,MacIntel,59.88023952,65e29490e2b12e6bfa6a34b8,667045947eb812cbdacbf325,6670495dc99f10f913bff3d7,,,,,,,,,,,,,,,,,,,,,,,,,,,,,,,,,,,,2289.3807,2296.3956,0,0,0,0,1,SoundStimuli/PokerFace_LadyGaga_Original5S.wav,,,,,,,,,,,,,,,,,,,,,,,,,,,,,,,,,,,,,,,,,,,,,,,,,,,,,,,,,,
,,,,,001709,001,2024-06-17_10h38.40.092,experiment,2024.1.5,MacIntel,59.88023952,65e29490e2b12e6bfa6a34b8,667045947eb812cbdacbf325,6670495dc99f10f913bff3d7,,,,,,,,,,,,,,,,,,,,,,,,,,,,,,,,,,,,2296.4056,2303.2453,0,1,1,1,1,SoundStimuli/PokerFace_LadyGaga_Cover5S.wav,,,,,,,,,,,,,,,,,,,,,,,,,,,,,,,,,,,,,,,,,,,,,,,,,,,,,,,,,,
,,,,,001709,001,2024-06-17_10h38.40.092,experiment,2024.1.5,MacIntel,59.88023952,65e29490e2b12e6bfa6a34b8,667045947eb812cbdacbf325,6670495dc99f10f913bff3d7,,,,,,,,,,,,,,,,,,,,,,,,,,,,,,,,,,,,,,,,,,,,2303.2462,2316.3614,3.097782863,13.102,0,19,19,23,1,song_indices/PokerFace_LadyGaga.csv,,,,,,,,,,,,,,,,,,,,,,,,,,,,,,,,,,,,,,,,,,,,,,,,
,,,,,001709,001,2024-06-17_10h38.40.092,experiment,2024.1.5,MacIntel,59.88023952,65e29490e2b12e6bfa6a34b8,667045947eb812cbdacbf325,6670495dc99f10f913bff3d7,,,,,,,,,,,,,,,,,,,,,,,,,,,,,,,,,,,,2316.3637,2323.5946,0,0,0,0,1,SoundStimuli/SomebodyThatIUsedtoKnow_Gotye_Original5S.wav,,,,,,,,,,,,,,,,,,,,,,,,,,,,,,,,,,,,,,,,,,,,,,,,,,,,,,,,,,
,,,,,001709,001,2024-06-17_10h38.40.092,experiment,2024.1.5,MacIntel,59.88023952,65e29490e2b12e6bfa6a34b8,667045947eb812cbdacbf325,6670495dc99f10f913bff3d7,,,,,,,,,,,,,,,,,,,,,,,,,,,,,,,,,,,,2323.6038,2330.3942,0,1,1,1,1,SoundStimuli/SomebodyThatIUsedtoKnow_Gotye_Cover5S.wav,,,,,,,,,,,,,,,,,,,,,,,,,,,,,,,,,,,,,,,,,,,,,,,,,,,,,,,,,,
,,,,,001709,001,2024-06-17_10h38.40.092,experiment,2024.1.5,MacIntel,59.88023952,65e29490e2b12e6bfa6a34b8,667045947eb812cbdacbf325,6670495dc99f10f913bff3d7,,,,,,,,,,,,,,,,,,,,,,,,,,,,,,,,,,,,,,,,,,,,2330.3944,2335.4605,2.977275285,5.0544,0,20,20,7,1,song_indices/SomebodyThatIUsedtoKnow_Gotye.csv,,,,,,,,,,,,,,,,,,,,,,,,,,,,,,,,,,,,,,,,,,,,,,,,
,,,,,001709,001,2024-06-17_10h38.40.092,experiment,2024.1.5,MacIntel,59.88023952,65e29490e2b12e6bfa6a34b8,667045947eb812cbdacbf325,6670495dc99f10f913bff3d7,,,,,,,,,,,,,,,,,,,,,,,,,,,,,,,,,,,,2335.4612,2341.3851,0,0,0,1,1,SoundStimuli/Irreplaceable_Beyonce_Cover5S.wav,,,,,,,,,,,,,,,,,,,,,,,,,,,,,,,,,,,,,,,,,,,,,,,,,,,,,,,,,,
,,,,,001709,001,2024-06-17_10h38.40.092,experiment,2024.1.5,MacIntel,59.88023952,65e29490e2b12e6bfa6a34b8,667045947eb812cbdacbf325,6670495dc99f10f913bff3d7,,,,,,,,,,,,,,,,,,,,,,,,,,,,,,,,,,,,2341.3943,2347.2773,0,1,1,0,1,SoundStimuli/Irreplaceable_Beyonce_Original5S.wav,,,,,,,,,,,,,,,,,,,,,,,,,,,,,,,,,,,,,,,,,,,,,,,,,,,,,,,,,,
,,,,,001709,001,2024-06-17_10h38.40.092,experiment,2024.1.5,MacIntel,59.88023952,65e29490e2b12e6bfa6a34b8,667045947eb812cbdacbf325,6670495dc99f10f913bff3d7,,,,,,,,,,,,,,,,,,,,,,,,,,,,,,,,,,,,,,,,,,,,2347.278,2362.7269,3.902029562,15.4375,0,21,21,19,1,song_indices/Irreplaceable_Beyonce.csv,,,,,,,,,,,,,,,,,,,,,,,,,,,,,,,,,,,,,,,,,,,,,,,,
,,,,,001709,001,2024-06-17_10h38.40.092,experiment,2024.1.5,MacIntel,59.88023952,65e29490e2b12e6bfa6a34b8,667045947eb812cbdacbf325,6670495dc99f10f913bff3d7,,,,,,,,,,,,,,,,,,,,,,,,,,,,,,,,,,,,2362.7278,2368.7429,0,0,0,1,1,SoundStimuli/TheSign_AceOfBase_Cover5S.wav,,,,,,,,,,,,,,,,,,,,,,,,,,,,,,,,,,,,,,,,,,,,,,,,,,,,,,,,,,
,,,,,001709,001,2024-06-17_10h38.40.092,experiment,2024.1.5,MacIntel,59.88023952,65e29490e2b12e6bfa6a34b8,667045947eb812cbdacbf325,6670495dc99f10f913bff3d7,,,,,,,,,,,,,,,,,,,,,,,,,,,,,,,,,,,,2368.7536,2374.909,0,1,1,0,1,SoundStimuli/TheSign_AceOfBase_Original5S.wav,,,,,,,,,,,,,,,,,,,,,,,,,,,,,,,,,,,,,,,,,,,,,,,,,,,,,,,,,,
,,,,,001709,001,2024-06-17_10h38.40.092,experiment,2024.1.5,MacIntel,59.88023952,65e29490e2b12e6bfa6a34b8,667045947eb812cbdacbf325,6670495dc99f10f913bff3d7,,,,,,,,,,,,,,,,,,,,,,,,,,,,,,,,,,,,,,,,,,,,2374.9093,2418.9906,3.19718825,44.0578,0,22,22,5,1,song_indices/TheSign_AceOfBase.csv,,,,,,,,,,,,,,,,,,,,,,,,,,,,,,,,,,,,,,,,,,,,,,,,
,,,,,001709,001,2024-06-17_10h38.40.092,experiment,2024.1.5,MacIntel,59.88023952,65e29490e2b12e6bfa6a34b8,667045947eb812cbdacbf325,6670495dc99f10f913bff3d7,,,,,,,,,,,,,,,,,,,,,,,,,,,,,,,,,,,,2418.9919,2425.0743,0,0,0,0,1,SoundStimuli/Weak_SWV_Original5S.wav,,,,,,,,,,,,,,,,,,,,,,,,,,,,,,,,,,,,,,,,,,,,,,,,,,,,,,,,,,
,,,,,001709,001,2024-06-17_10h38.40.092,experiment,2024.1.5,MacIntel,59.88023952,65e29490e2b12e6bfa6a34b8,667045947eb812cbdacbf325,6670495dc99f10f913bff3d7,,,,,,,,,,,,,,,,,,,,,,,,,,,,,,,,,,,,2425.0855,2431.5559,0,1,1,1,1,SoundStimuli/Weak_SWV_Cover5S.wav,,,,,,,,,,,,,,,,,,,,,,,,,,,,,,,,,,,,,,,,,,,,,,,,,,,,,,,,,,
,,,,,001709,001,2024-06-17_10h38.40.092,experiment,2024.1.5,MacIntel,59.88023952,65e29490e2b12e6bfa6a34b8,667045947eb812cbdacbf325,6670495dc99f10f913bff3d7,,,,,,,,,,,,,,,,,,,,,,,,,,,,,,,,,,,,,,,,,,,,2431.5562,2441.2063,3.17788678,9.6314,0,23,23,6,1,song_indices/Weak_SWV.csv,,,,,,,,,,,,,,,,,,,,,,,,,,,,,,,,,,,,,,,,,,,,,,,,
,,,,,001709,001,2024-06-17_10h38.40.092,experiment,2024.1.5,MacIntel,59.88023952,65e29490e2b12e6bfa6a34b8,667045947eb812cbdacbf325,6670495dc99f10f913bff3d7,,,,,,,,,,,,,,,,,,,,,,,,,,,,,,,,,,,,,,,,,,,,,,,,,,,,,,2441.2065,2478.5425,space,37.3285,,0,1,1,2,1,choose_song_b3.csv,,,,,,,,,,,,,,,,,,,,,,,,,,,,,,,,,,,,,
,,,,,001709,001,2024-06-17_10h38.40.092,experiment,2024.1.5,MacIntel,59.88023952,65e29490e2b12e6bfa6a34b8,667045947eb812cbdacbf325,6670495dc99f10f913bff3d7,,,,,,,,,,,,,,,,,,,,,,,,,,,,,,,,,,,,2478.5445,2484.9382,0,0,0,0,1,SoundStimuli/IWillAlwaysLoveYou_WhitneyHouston_Original5S.wav,,,,,,,,,,,,,,,,,,,,,,,,,,,,,,,,,,,,,,,,,,,,,,,,,,,,,,,,,,
,,,,,001709,001,2024-06-17_10h38.40.092,experiment,2024.1.5,MacIntel,59.88023952,65e29490e2b12e6bfa6a34b8,667045947eb812cbdacbf325,6670495dc99f10f913bff3d7,,,,,,,,,,,,,,,,,,,,,,,,,,,,,,,,,,,,2484.9485,2490.7878,0,1,1,1,1,SoundStimuli/IWillAlwaysLoveYou_WhitneyHouston_Cover5S.wav,,,,,,,,,,,,,,,,,,,,,,,,,,,,,,,,,,,,,,,,,,,,,,,,,,,,,,,,,,
,,,,,001709,001,2024-06-17_10h38.40.092,experiment,2024.1.5,MacIntel,59.88023952,65e29490e2b12e6bfa6a34b8,667045947eb812cbdacbf325,6670495dc99f10f913bff3d7,,,,,,,,,,,,,,,,,,,,,,,,,,,,,,,,,,,,,,,,,,,,2490.7881,2493.7049,6.912439976,2.8969,0,0,0,10,1,song_indices/IWillAlwaysLoveYou_WhitneyHouston.csv,,,,,,,,,,,,,,,,,,,,,,,,,,,,,,,,,,,,,,,,,,,,,,,,
,,,,,001709,001,2024-06-17_10h38.40.092,experiment,2024.1.5,MacIntel,59.88023952,65e29490e2b12e6bfa6a34b8,667045947eb812cbdacbf325,6670495dc99f10f913bff3d7,,,,,,,,,,,,,,,,,,,,,,,,,,,,,,,,,,,,2493.7057,2500.1373,0,0,0,1,1,SoundStimuli/Fallin_AliciaKeys_Cover5S.wav,,,,,,,,,,,,,,,,,,,,,,,,,,,,,,,,,,,,,,,,,,,,,,,,,,,,,,,,,,
,,,,,001709,001,2024-06-17_10h38.40.092,experiment,2024.1.5,MacIntel,59.88023952,65e29490e2b12e6bfa6a34b8,667045947eb812cbdacbf325,6670495dc99f10f913bff3d7,,,,,,,,,,,,,,,,,,,,,,,,,,,,,,,,,,,,2500.1487,2506.3206,0,1,1,0,1,SoundStimuli/Fallin_AliciaKeys_Original5S.wav,,,,,,,,,,,,,,,,,,,,,,,,,,,,,,,,,,,,,,,,,,,,,,,,,,,,,,,,,,
,,,,,001709,001,2024-06-17_10h38.40.092,experiment,2024.1.5,MacIntel,59.88023952,65e29490e2b12e6bfa6a34b8,667045947eb812cbdacbf325,6670495dc99f10f913bff3d7,,,,,,,,,,,,,,,,,,,,,,,,,,,,,,,,,,,,,,,,,,,,2506.3209,2507.7864,6.105323379,1.4558,0,1,1,12,1,song_indices/Fallin_AliciaKeys.csv,,,,,,,,,,,,,,,,,,,,,,,,,,,,,,,,,,,,,,,,,,,,,,,,
,,,,,001709,001,2024-06-17_10h38.40.092,experiment,2024.1.5,MacIntel,59.88023952,65e29490e2b12e6bfa6a34b8,667045947eb812cbdacbf325,6670495dc99f10f913bff3d7,,,,,,,,,,,,,,,,,,,,,,,,,,,,,,,,,,,,2507.7871,2513.5703,0,0,0,1,1,SoundStimuli/SmellsLikeTeenSpirit_Nirvana_Cover5S.wav,,,,,,,,,,,,,,,,,,,,,,,,,,,,,,,,,,,,,,,,,,,,,,,,,,,,,,,,,,
,,,,,001709,001,2024-06-17_10h38.40.092,experiment,2024.1.5,MacIntel,59.88023952,65e29490e2b12e6bfa6a34b8,667045947eb812cbdacbf325,6670495dc99f10f913bff3d7,,,,,,,,,,,,,,,,,,,,,,,,,,,,,,,,,,,,2513.5785,2519.7866,0,1,1,0,1,SoundStimuli/SmellsLikeTeenSpirit_Nirvana_Original5S.wav,,,,,,,,,,,,,,,,,,,,,,,,,,,,,,,,,,,,,,,,,,,,,,,,,,,,,,,,,,
,,,,,001709,001,2024-06-17_10h38.40.092,experiment,2024.1.5,MacIntel,59.88023952,65e29490e2b12e6bfa6a34b8,667045947eb812cbdacbf325,6670495dc99f10f913bff3d7,,,,,,,,,,,,,,,,,,,,,,,,,,,,,,,,,,,,,,,,,,,,2519.7868,2522.1698,5.235434799,2.3696,0,2,2,8,1,song_indices/SmellsLikeTeenSpirit_Nirvana.csv,,,,,,,,,,,,,,,,,,,,,,,,,,,,,,,,,,,,,,,,,,,,,,,,
,,,,,001709,001,2024-06-17_10h38.40.092,experiment,2024.1.5,MacIntel,59.88023952,65e29490e2b12e6bfa6a34b8,667045947eb812cbdacbf325,6670495dc99f10f913bff3d7,,,,,,,,,,,,,,,,,,,,,,,,,,,,,,,,,,,,2522.1706,2528.1032,0,0,0,0,1,SoundStimuli/StandByMe_BenEKing_Original5S.wav,,,,,,,,,,,,,,,,,,,,,,,,,,,,,,,,,,,,,,,,,,,,,,,,,,,,,,,,,,
,,,,,001709,001,2024-06-17_10h38.40.092,experiment,2024.1.5,MacIntel,59.88023952,65e29490e2b12e6bfa6a34b8,667045947eb812cbdacbf325,6670495dc99f10f913bff3d7,,,,,,,,,,,,,,,,,,,,,,,,,,,,,,,,,,,,2528.1105,2534.1361,0,1,1,1,1,SoundStimuli/StandByMe_BenEKing_Cover5S.wav,,,,,,,,,,,,,,,,,,,,,,,,,,,,,,,,,,,,,,,,,,,,,,,,,,,,,,,,,,
,,,,,001709,001,2024-06-17_10h38.40.092,experiment,2024.1.5,MacIntel,59.88023952,65e29490e2b12e6bfa6a34b8,667045947eb812cbdacbf325,6670495dc99f10f913bff3d7,,,,,,,,,,,,,,,,,,,,,,,,,,,,,,,,,,,,,,,,,,,,2534.1362,2641.2484,5.032459859,107.0924,0,3,3,1,1,song_indices/StandByMe_BenEKing.csv,,,,,,,,,,,,,,,,,,,,,,,,,,,,,,,,,,,,,,,,,,,,,,,,
,,,,,001709,001,2024-06-17_10h38.40.092,experiment,2024.1.5,MacIntel,59.88023952,65e29490e2b12e6bfa6a34b8,667045947eb812cbdacbf325,6670495dc99f10f913bff3d7,,,,,,,,,,,,,,,,,,,,,,,,,,,,,,,,,,,,2641.2493,2647.7984,0,0,0,0,1,SoundStimuli/CrazyInLove_BeyonceFtJayZ_Original5S.wav,,,,,,,,,,,,,,,,,,,,,,,,,,,,,,,,,,,,,,,,,,,,,,,,,,,,,,,,,,
,,,,,001709,001,2024-06-17_10h38.40.092,experiment,2024.1.5,MacIntel,59.88023952,65e29490e2b12e6bfa6a34b8,667045947eb812cbdacbf325,6670495dc99f10f913bff3d7,,,,,,,,,,,,,,,,,,,,,,,,,,,,,,,,,,,,2647.8085,2658.0469,0,1,1,1,1,SoundStimuli/CrazyInLove_BeyonceFtJayZ_Cover5S.wav,,,,,,,,,,,,,,,,,,,,,,,,,,,,,,,,,,,,,,,,,,,,,,,,,,,,,,,,,,
,,,,,001709,001,2024-06-17_10h38.40.092,experiment,2024.1.5,MacIntel,59.88023952,65e29490e2b12e6bfa6a34b8,667045947eb812cbdacbf325,6670495dc99f10f913bff3d7,,,,,,,,,,,,,,,,,,,,,,,,,,,,,,,,,,,,,,,,,,,,2658.0471,2730.8281,4.098983343,72.7572,0,4,4,3,1,song_indices/CrazyInLove_BeyonceFtJayZ.csv,,,,,,,,,,,,,,,,,,,,,,,,,,,,,,,,,,,,,,,,,,,,,,,,
,,,,,001709,001,2024-06-17_10h38.40.092,experiment,2024.1.5,MacIntel,59.88023952,65e29490e2b12e6bfa6a34b8,667045947eb812cbdacbf325,6670495dc99f10f913bff3d7,,,,,,,,,,,,,,,,,,,,,,,,,,,,,,,,,,,,2730.8292,2736.9105,0,0,0,0,1,SoundStimuli/GetUrFreakOn_MissyElliot_Original5S.wav,,,,,,,,,,,,,,,,,,,,,,,,,,,,,,,,,,,,,,,,,,,,,,,,,,,,,,,,,,
,,,,,001709,001,2024-06-17_10h38.40.092,experiment,2024.1.5,MacIntel,59.88023952,65e29490e2b12e6bfa6a34b8,667045947eb812cbdacbf325,6670495dc99f10f913bff3d7,,,,,,,,,,,,,,,,,,,,,,,,,,,,,,,,,,,,2736.9214,2743.4945,0,1,1,1,1,SoundStimuli/GetUrFreakOn_MissyElliot_Cover5S.wav,,,,,,,,,,,,,,,,,,,,,,,,,,,,,,,,,,,,,,,,,,,,,,,,,,,,,,,,,,
,,,,,001709,001,2024-06-17_10h38.40.092,experiment,2024.1.5,MacIntel,59.88023952,65e29490e2b12e6bfa6a34b8,667045947eb812cbdacbf325,6670495dc99f10f913bff3d7,,,,,,,,,,,,,,,,,,,,,,,,,,,,,,,,,,,,,,,,,,,,2743.4946,2746.2275,3.074204682,2.7203,0,5,5,18,1,song_indices/GetUrFreakOn_MissyElliot.csv,,,,,,,,,,,,,,,,,,,,,,,,,,,,,,,,,,,,,,,,,,,,,,,,
,,,,,001709,001,2024-06-17_10h38.40.092,experiment,2024.1.5,MacIntel,59.88023952,65e29490e2b12e6bfa6a34b8,667045947eb812cbdacbf325,6670495dc99f10f913bff3d7,,,,,,,,,,,,,,,,,,,,,,,,,,,,,,,,,,,,2746.228,2752.2107,0,0,0,0,1,SoundStimuli/IWalkTheLine_JohnnyCash_Original5S.wav,,,,,,,,,,,,,,,,,,,,,,,,,,,,,,,,,,,,,,,,,,,,,,,,,,,,,,,,,,
,,,,,001709,001,2024-06-17_10h38.40.092,experiment,2024.1.5,MacIntel,59.88023952,65e29490e2b12e6bfa6a34b8,667045947eb812cbdacbf325,6670495dc99f10f913bff3d7,,,,,,,,,,,,,,,,,,,,,,,,,,,,,,,,,,,,2752.2205,2759.3599,0,1,1,1,1,SoundStimuli/IWalkTheLine_JohnnyCash_Cover5S.wav,,,,,,,,,,,,,,,,,,,,,,,,,,,,,,,,,,,,,,,,,,,,,,,,,,,,,,,,,,
,,,,,001709,001,2024-06-17_10h38.40.092,experiment,2024.1.5,MacIntel,59.88023952,65e29490e2b12e6bfa6a34b8,667045947eb812cbdacbf325,6670495dc99f10f913bff3d7,,,,,,,,,,,,,,,,,,,,,,,,,,,,,,,,,,,,,,,,,,,,2759.3601,2782.1093,3.074204682,22.7352,0,6,6,17,1,song_indices/IWalkTheLine_JohnnyCash.csv,,,,,,,,,,,,,,,,,,,,,,,,,,,,,,,,,,,,,,,,,,,,,,,,
,,,,,001709,001,2024-06-17_10h38.40.092,experiment,2024.1.5,MacIntel,59.88023952,65e29490e2b12e6bfa6a34b8,667045947eb812cbdacbf325,6670495dc99f10f913bff3d7,,,,,,,,,,,,,,,,,,,,,,,,,,,,,,,,,,,,2782.11,2788.2084,0,0,0,0,1,SoundStimuli/GimmeShelter_RollingStones_Original5S.wav,,,,,,,,,,,,,,,,,,,,,,,,,,,,,,,,,,,,,,,,,,,,,,,,,,,,,,,,,,
,,,,,001709,001,2024-06-17_10h38.40.092,experiment,2024.1.5,MacIntel,59.88023952,65e29490e2b12e6bfa6a34b8,667045947eb812cbdacbf325,6670495dc99f10f913bff3d7,,,,,,,,,,,,,,,,,,,,,,,,,,,,,,,,,,,,2788.2184,2794.4255,0,1,1,1,1,SoundStimuli/GimmeShelter_RollingStones_Cover5S.wav,,,,,,,,,,,,,,,,,,,,,,,,,,,,,,,,,,,,,,,,,,,,,,,,,,,,,,,,,,
,,,,,001709,001,2024-06-17_10h38.40.092,experiment,2024.1.5,MacIntel,59.88023952,65e29490e2b12e6bfa6a34b8,667045947eb812cbdacbf325,6670495dc99f10f913bff3d7,,,,,,,,,,,,,,,,,,,,,,,,,,,,,,,,,,,,,,,,,,,,2794.4256,2797.3256,2.975080657,2.8777,0,7,7,20,1,song_indices/GimmeShelter_RollingStones.csv,,,,,,,,,,,,,,,,,,,,,,,,,,,,,,,,,,,,,,,,,,,,,,,,
,,,,,001709,001,2024-06-17_10h38.40.092,experiment,2024.1.5,MacIntel,59.88023952,65e29490e2b12e6bfa6a34b8,667045947eb812cbdacbf325,6670495dc99f10f913bff3d7,,,,,,,,,,,,,,,,,,,,,,,,,,,,,,,,,,,,2797.3266,2803.2247,0,0,0,0,1,SoundStimuli/EyeOfTheTiger_Survivor_Original5S.wav,,,,,,,,,,,,,,,,,,,,,,,,,,,,,,,,,,,,,,,,,,,,,,,,,,,,,,,,,,
,,,,,001709,001,2024-06-17_10h38.40.092,experiment,2024.1.5,MacIntel,59.88023952,65e29490e2b12e6bfa6a34b8,667045947eb812cbdacbf325,6670495dc99f10f913bff3d7,,,,,,,,,,,,,,,,,,,,,,,,,,,,,,,,,,,,2803.2338,2809.3583,0,1,1,1,1,SoundStimuli/EyeOfTheTiger_Survivor_Cover5S.wav,,,,,,,,,,,,,,,,,,,,,,,,,,,,,,,,,,,,,,,,,,,,,,,,,,,,,,,,,,
,,,,,001709,001,2024-06-17_10h38.40.092,experiment,2024.1.5,MacIntel,59.88023952,65e29490e2b12e6bfa6a34b8,667045947eb812cbdacbf325,6670495dc99f10f913bff3d7,,,,,,,,,,,,,,,,,,,,,,,,,,,,,,,,,,,,,,,,,,,,2809.3584,2875.4557,3.893194778,66.0796,0,8,8,11,1,song_indices/EyeOfTheTiger_Survivor.csv,,,,,,,,,,,,,,,,,,,,,,,,,,,,,,,,,,,,,,,,,,,,,,,,
,,,,,001709,001,2024-06-17_10h38.40.092,experiment,2024.1.5,MacIntel,59.88023952,65e29490e2b12e6bfa6a34b8,667045947eb812cbdacbf325,6670495dc99f10f913bff3d7,,,,,,,,,,,,,,,,,,,,,,,,,,,,,,,,,,,,2875.4565,2882.8218,0,0,0,0,1,SoundStimuli/Happy_PharellWilliams_Original5S.wav,,,,,,,,,,,,,,,,,,,,,,,,,,,,,,,,,,,,,,,,,,,,,,,,,,,,,,,,,,
,,,,,001709,001,2024-06-17_10h38.40.092,experiment,2024.1.5,MacIntel,59.88023952,65e29490e2b12e6bfa6a34b8,667045947eb812cbdacbf325,6670495dc99f10f913bff3d7,,,,,,,,,,,,,,,,,,,,,,,,,,,,,,,,,,,,2882.8324,2890.1889,0,1,1,1,1,SoundStimuli/Happy_PharellWilliams_Cover5S.wav,,,,,,,,,,,,,,,,,,,,,,,,,,,,,,,,,,,,,,,,,,,,,,,,,,,,,,,,,,
,,,,,001709,001,2024-06-17_10h38.40.092,experiment,2024.1.5,MacIntel,59.88023952,65e29490e2b12e6bfa6a34b8,667045947eb812cbdacbf325,6670495dc99f10f913bff3d7,,,,,,,,,,,,,,,,,,,,,,,,,,,,,,,,,,,,,,,,,,,,2890.1894,2930.87,3.015737545,40.6566,0,9,9,7,1,song_indices/Happy_PharellWilliams.csv,,,,,,,,,,,,,,,,,,,,,,,,,,,,,,,,,,,,,,,,,,,,,,,,
,,,,,001709,001,2024-06-17_10h38.40.092,experiment,2024.1.5,MacIntel,59.88023952,65e29490e2b12e6bfa6a34b8,667045947eb812cbdacbf325,6670495dc99f10f913bff3d7,,,,,,,,,,,,,,,,,,,,,,,,,,,,,,,,,,,,2930.8721,2936.936,0,0,0,1,1,SoundStimuli/RockWithYou_MichaelJackson_Cover5S.wav,,,,,,,,,,,,,,,,,,,,,,,,,,,,,,,,,,,,,,,,,,,,,,,,,,,,,,,,,,
,,,,,001709,001,2024-06-17_10h38.40.092,experiment,2024.1.5,MacIntel,59.88023952,65e29490e2b12e6bfa6a34b8,667045947eb812cbdacbf325,6670495dc99f10f913bff3d7,,,,,,,,,,,,,,,,,,,,,,,,,,,,,,,,,,,,2936.9474,2943.2687,0,1,1,0,1,SoundStimuli/RockWithYou_MichaelJackson_Original5S.wav,,,,,,,,,,,,,,,,,,,,,,,,,,,,,,,,,,,,,,,,,,,,,,,,,,,,,,,,,,
,,,,,001709,001,2024-06-17_10h38.40.092,experiment,2024.1.5,MacIntel,59.88023952,65e29490e2b12e6bfa6a34b8,667045947eb812cbdacbf325,6670495dc99f10f913bff3d7,,,,,,,,,,,,,,,,,,,,,,,,,,,,,,,,,,,,,,,,,,,,2943.2691,2946.5515,2.7530012,3.2717,0,10,10,16,1,song_indices/RockWithYou_MichaelJackson.csv,,,,,,,,,,,,,,,,,,,,,,,,,,,,,,,,,,,,,,,,,,,,,,,,
,,,,,001709,001,2024-06-17_10h38.40.092,experiment,2024.1.5,MacIntel,59.88023952,65e29490e2b12e6bfa6a34b8,667045947eb812cbdacbf325,6670495dc99f10f913bff3d7,,,,,,,,,,,,,,,,,,,,,,,,,,,,,,,,,,,,2946.5529,2952.8853,0,0,0,1,1,SoundStimuli/Stronger_KanyeWest_Cover5S.wav,,,,,,,,,,,,,,,,,,,,,,,,,,,,,,,,,,,,,,,,,,,,,,,,,,,,,,,,,,
,,,,,001709,001,2024-06-17_10h38.40.092,experiment,2024.1.5,MacIntel,59.88023952,65e29490e2b12e6bfa6a34b8,667045947eb812cbdacbf325,6670495dc99f10f913bff3d7,,,,,,,,,,,,,,,,,,,,,,,,,,,,,,,,,,,,2952.8959,2958.9513,0,1,1,0,1,SoundStimuli/Stronger_KanyeWest_Original5S.wav,,,,,,,,,,,,,,,,,,,,,,,,,,,,,,,,,,,,,,,,,,,,,,,,,,,,,,,,,,
,,,,,001709,001,2024-06-17_10h38.40.092,experiment,2024.1.5,MacIntel,59.88023952,65e29490e2b12e6bfa6a34b8,667045947eb812cbdacbf325,6670495dc99f10f913bff3d7,,,,,,,,,,,,,,,,,,,,,,,,,,,,,,,,,,,,,,,,,,,,2958.9519,2965.5674,2.90820078,6.5922,0,11,11,9,1,song_indices/Stronger_KanyeWest.csv,,,,,,,,,,,,,,,,,,,,,,,,,,,,,,,,,,,,,,,,,,,,,,,,
,,,,,001709,001,2024-06-17_10h38.40.092,experiment,2024.1.5,MacIntel,59.88023952,65e29490e2b12e6bfa6a34b8,667045947eb812cbdacbf325,6670495dc99f10f913bff3d7,,,,,,,,,,,,,,,,,,,,,,,,,,,,,,,,,,,,2965.569,2971.8669,0,0,0,0,1,SoundStimuli/HeyYa_Outkast_Original5S.wav,,,,,,,,,,,,,,,,,,,,,,,,,,,,,,,,,,,,,,,,,,,,,,,,,,,,,,,,,,
,,,,,001709,001,2024-06-17_10h38.40.092,experiment,2024.1.5,MacIntel,59.88023952,65e29490e2b12e6bfa6a34b8,667045947eb812cbdacbf325,6670495dc99f10f913bff3d7,,,,,,,,,,,,,,,,,,,,,,,,,,,,,,,,,,,,2971.8728,2980.7834,0,1,1,1,1,SoundStimuli/HeyYa_Outkast_Cover5S.wav,,,,,,,,,,,,,,,,,,,,,,,,,,,,,,,,,,,,,,,,,,,,,,,,,,,,,,,,,,
,,,,,001709,001,2024-06-17_10h38.40.092,experiment,2024.1.5,MacIntel,59.88023952,65e29490e2b12e6bfa6a34b8,667045947eb812cbdacbf325,6670495dc99f10f913bff3d7,,,,,,,,,,,,,,,,,,,,,,,,,,,,,,,,,,,,,,,,,,,,2980.7836,2985.0666,2.856064301,4.259,0,12,12,22,1,song_indices/HeyYa_Outkast.csv,,,,,,,,,,,,,,,,,,,,,,,,,,,,,,,,,,,,,,,,,,,,,,,,
,,,,,001709,001,2024-06-17_10h38.40.092,experiment,2024.1.5,MacIntel,59.88023952,65e29490e2b12e6bfa6a34b8,667045947eb812cbdacbf325,6670495dc99f10f913bff3d7,,,,,,,,,,,,,,,,,,,,,,,,,,,,,,,,,,,,2985.0678,2991.2837,0,0,0,0,1,SoundStimuli/TheBattleOfNewOrleans_JohnnyHorton_Original5S.wav,,,,,,,,,,,,,,,,,,,,,,,,,,,,,,,,,,,,,,,,,,,,,,,,,,,,,,,,,,
,,,,,001709,001,2024-06-17_10h38.40.092,experiment,2024.1.5,MacIntel,59.88023952,65e29490e2b12e6bfa6a34b8,667045947eb812cbdacbf325,6670495dc99f10f913bff3d7,,,,,,,,,,,,,,,,,,,,,,,,,,,,,,,,,,,,2991.2945,2999.2667,0,1,1,1,1,SoundStimuli/TheBattleOfNewOrleans_JohnnyHorton_Cover5S.wav,,,,,,,,,,,,,,,,,,,,,,,,,,,,,,,,,,,,,,,,,,,,,,,,,,,,,,,,,,
,,,,,001709,001,2024-06-17_10h38.40.092,experiment,2024.1.5,MacIntel,59.88023952,65e29490e2b12e6bfa6a34b8,667045947eb812cbdacbf325,6670495dc99f10f913bff3d7,,,,,,,,,,,,,,,,,,,,,,,,,,,,,,,,,,,,,,,,,,,,2999.2674,3005.6815,2.137970813,6.3979,0,13,13,4,1,song_indices/TheBattleOfNewOrleans_JohnnyHorton.csv,,,,,,,,,,,,,,,,,,,,,,,,,,,,,,,,,,,,,,,,,,,,,,,,
,,,,,001709,001,2024-06-17_10h38.40.092,experiment,2024.1.5,MacIntel,59.88023952,65e29490e2b12e6bfa6a34b8,667045947eb812cbdacbf325,6670495dc99f10f913bff3d7,,,,,,,,,,,,,,,,,,,,,,,,,,,,,,,,,,,,3005.6833,3013.416,0,0,0,0,1,SoundStimuli/NoOne_AliciaKeys_Original5S.wav,,,,,,,,,,,,,,,,,,,,,,,,,,,,,,,,,,,,,,,,,,,,,,,,,,,,,,,,,,
,,,,,001709,001,2024-06-17_10h38.40.092,experiment,2024.1.5,MacIntel,59.88023952,65e29490e2b12e6bfa6a34b8,667045947eb812cbdacbf325,6670495dc99f10f913bff3d7,,,,,,,,,,,,,,,,,,,,,,,,,,,,,,,,,,,,3013.4276,3019.6323,0,1,1,1,1,SoundStimuli/NoOne_AliciaKeys_Cover5S.wav,,,,,,,,,,,,,,,,,,,,,,,,,,,,,,,,,,,,,,,,,,,,,,,,,,,,,,,,,,
,,,,,001709,001,2024-06-17_10h38.40.092,experiment,2024.1.5,MacIntel,59.88023952,65e29490e2b12e6bfa6a34b8,667045947eb812cbdacbf325,6670495dc99f10f913bff3d7,,,,,,,,,,,,,,,,,,,,,,,,,,,,,,,,,,,,,,,,,,,,3019.6326,3032.5145,2.122355192,12.8593,0,14,14,19,1,song_indices/NoOne_AliciaKeys.csv,,,,,,,,,,,,,,,,,,,,,,,,,,,,,,,,,,,,,,,,,,,,,,,,
,,,,,001709,001,2024-06-17_10h38.40.092,experiment,2024.1.5,MacIntel,59.88023952,65e29490e2b12e6bfa6a34b8,667045947eb812cbdacbf325,6670495dc99f10f913bff3d7,,,,,,,,,,,,,,,,,,,,,,,,,,,,,,,,,,,,3032.5152,3038.9813,0,0,0,0,1,SoundStimuli/ShapeofYou_EdSheeran_Original5S.wav,,,,,,,,,,,,,,,,,,,,,,,,,,,,,,,,,,,,,,,,,,,,,,,,,,,,,,,,,,
,,,,,001709,001,2024-06-17_10h38.40.092,experiment,2024.1.5,MacIntel,59.88023952,65e29490e2b12e6bfa6a34b8,667045947eb812cbdacbf325,6670495dc99f10f913bff3d7,,,,,,,,,,,,,,,,,,,,,,,,,,,,,,,,,,,,3038.9899,3045.2974,0,1,1,1,1,SoundStimuli/ShapeofYou_EdSheeran_Cover5S.wav,,,,,,,,,,,,,,,,,,,,,,,,,,,,,,,,,,,,,,,,,,,,,,,,,,,,,,,,,,
,,,,,001709,001,2024-06-17_10h38.40.092,experiment,2024.1.5,MacIntel,59.88023952,65e29490e2b12e6bfa6a34b8,667045947eb812cbdacbf325,6670495dc99f10f913bff3d7,,,,,,,,,,,,,,,,,,,,,,,,,,,,,,,,,,,,,,,,,,,,3045.2979,3094.8957,3.079691252,49.5865,0,15,15,21,1,song_indices/ShapeofYou_EdSheeran.csv,,,,,,,,,,,,,,,,,,,,,,,,,,,,,,,,,,,,,,,,,,,,,,,,
,,,,,001709,001,2024-06-17_10h38.40.092,experiment,2024.1.5,MacIntel,59.88023952,65e29490e2b12e6bfa6a34b8,667045947eb812cbdacbf325,6670495dc99f10f913bff3d7,,,,,,,,,,,,,,,,,,,,,,,,,,,,,,,,,,,,3094.8968,3101.0953,0,0,0,0,1,SoundStimuli/NoScrubs_TLC_Original5S.wav,,,,,,,,,,,,,,,,,,,,,,,,,,,,,,,,,,,,,,,,,,,,,,,,,,,,,,,,,,
,,,,,001709,001,2024-06-17_10h38.40.092,experiment,2024.1.5,MacIntel,59.88023952,65e29490e2b12e6bfa6a34b8,667045947eb812cbdacbf325,6670495dc99f10f913bff3d7,,,,,,,,,,,,,,,,,,,,,,,,,,,,,,,,,,,,3101.1019,3107.2289,0,1,1,1,1,SoundStimuli/NoScrubs_TLC_Cover5S.wav,,,,,,,,,,,,,,,,,,,,,,,,,,,,,,,,,,,,,,,,,,,,,,,,,,,,,,,,,,
,,,,,001709,001,2024-06-17_10h38.40.092,experiment,2024.1.5,MacIntel,59.88023952,65e29490e2b12e6bfa6a34b8,667045947eb812cbdacbf325,6670495dc99f10f913bff3d7,,,,,,,,,,,,,,,,,,,,,,,,,,,,,,,,,,,,,,,,,,,,3107.2293,3112.6614,4.894310849,5.42,0,16,16,14,1,song_indices/NoScrubs_TLC.csv,,,,,,,,,,,,,,,,,,,,,,,,,,,,,,,,,,,,,,,,,,,,,,,,
,,,,,001709,001,2024-06-17_10h38.40.092,experiment,2024.1.5,MacIntel,59.88023952,65e29490e2b12e6bfa6a34b8,667045947eb812cbdacbf325,6670495dc99f10f913bff3d7,,,,,,,,,,,,,,,,,,,,,,,,,,,,,,,,,,,,3112.6629,3119.4109,0,0,0,0,1,SoundStimuli/PartyRockAnthem_LMFAO_Original5S.wav,,,,,,,,,,,,,,,,,,,,,,,,,,,,,,,,,,,,,,,,,,,,,,,,,,,,,,,,,,
,,,,,001709,001,2024-06-17_10h38.40.092,experiment,2024.1.5,MacIntel,59.88023952,65e29490e2b12e6bfa6a34b8,667045947eb812cbdacbf325,6670495dc99f10f913bff3d7,,,,,,,,,,,,,,,,,,,,,,,,,,,,,,,,,,,,3119.4218,3126.1941,0,1,1,1,1,SoundStimuli/PartyRockAnthem_LMFAO_Cover5S.wav,,,,,,,,,,,,,,,,,,,,,,,,,,,,,,,,,,,,,,,,,,,,,,,,,,,,,,,,,,
,,,,,001709,001,2024-06-17_10h38.40.092,experiment,2024.1.5,MacIntel,59.88023952,65e29490e2b12e6bfa6a34b8,667045947eb812cbdacbf325,6670495dc99f10f913bff3d7,,,,,,,,,,,,,,,,,,,,,,,,,,,,,,,,,,,,,,,,,,,,3126.1952,3132.1111,4.789447029,5.9103,0,17,17,2,1,song_indices/PartyRockAnthem_LMFAO.csv,,,,,,,,,,,,,,,,,,,,,,,,,,,,,,,,,,,,,,,,,,,,,,,,
,,,,,001709,001,2024-06-17_10h38.40.092,experiment,2024.1.5,MacIntel,59.88023952,65e29490e2b12e6bfa6a34b8,667045947eb812cbdacbf325,6670495dc99f10f913bff3d7,,,,,,,,,,,,,,,,,,,,,,,,,,,,,,,,,,,,3132.1117,3138.4774,0,0,0,1,1,SoundStimuli/GoodGollyMissMolly_LittleRichard_Cover5S.wav,,,,,,,,,,,,,,,,,,,,,,,,,,,,,,,,,,,,,,,,,,,,,,,,,,,,,,,,,,
,,,,,001709,001,2024-06-17_10h38.40.092,experiment,2024.1.5,MacIntel,59.88023952,65e29490e2b12e6bfa6a34b8,667045947eb812cbdacbf325,6670495dc99f10f913bff3d7,,,,,,,,,,,,,,,,,,,,,,,,,,,,,,,,,,,,3138.4884,3144.5441,0,1,1,0,1,SoundStimuli/GoodGollyMissMolly_LittleRichard_Original5S.wav,,,,,,,,,,,,,,,,,,,,,,,,,,,,,,,,,,,,,,,,,,,,,,,,,,,,,,,,,,
,,,,,001709,001,2024-06-17_10h38.40.092,experiment,2024.1.5,MacIntel,59.88023952,65e29490e2b12e6bfa6a34b8,667045947eb812cbdacbf325,6670495dc99f10f913bff3d7,,,,,,,,,,,,,,,,,,,,,,,,,,,,,,,,,,,,,,,,,,,,3144.5447,3182.0753,3.012895783,37.5117,0,18,18,0,1,song_indices/GoodGollyMissMolly_LittleRichard.csv,,,,,,,,,,,,,,,,,,,,,,,,,,,,,,,,,,,,,,,,,,,,,,,,
,,,,,001709,001,2024-06-17_10h38.40.092,experiment,2024.1.5,MacIntel,59.88023952,65e29490e2b12e6bfa6a34b8,667045947eb812cbdacbf325,6670495dc99f10f913bff3d7,,,,,,,,,,,,,,,,,,,,,,,,,,,,,,,,,,,,3182.0764,3188.3428,0,0,0,0,1,SoundStimuli/ItsAllInTheGame_TommyEdwards_Original5S.wav,,,,,,,,,,,,,,,,,,,,,,,,,,,,,,,,,,,,,,,,,,,,,,,,,,,,,,,,,,
,,,,,001709,001,2024-06-17_10h38.40.092,experiment,2024.1.5,MacIntel,59.88023952,65e29490e2b12e6bfa6a34b8,667045947eb812cbdacbf325,6670495dc99f10f913bff3d7,,,,,,,,,,,,,,,,,,,,,,,,,,,,,,,,,,,,3188.354,3194.5752,0,1,1,1,1,SoundStimuli/ItsAllInTheGame_TommyEdwards_Cover5S.wav,,,,,,,,,,,,,,,,,,,,,,,,,,,,,,,,,,,,,,,,,,,,,,,,,,,,,,,,,,
,,,,,001709,001,2024-06-17_10h38.40.092,experiment,2024.1.5,MacIntel,59.88023952,65e29490e2b12e6bfa6a34b8,667045947eb812cbdacbf325,6670495dc99f10f913bff3d7,,,,,,,,,,,,,,,,,,,,,,,,,,,,,,,,,,,,,,,,,,,,3194.5756,3211.2742,3.077834259,16.6778,0,19,19,13,1,song_indices/ItsAllInTheGame_TommyEdwards.csv,,,,,,,,,,,,,,,,,,,,,,,,,,,,,,,,,,,,,,,,,,,,,,,,
,,,,,001709,001,2024-06-17_10h38.40.092,experiment,2024.1.5,MacIntel,59.88023952,65e29490e2b12e6bfa6a34b8,667045947eb812cbdacbf325,6670495dc99f10f913bff3d7,,,,,,,,,,,,,,,,,,,,,,,,,,,,,,,,,,,,3211.2752,3217.4911,0,0,0,0,1,SoundStimuli/BetteDavisEyes_KimCarnes_Original5S.wav,,,,,,,,,,,,,,,,,,,,,,,,,,,,,,,,,,,,,,,,,,,,,,,,,,,,,,,,,,
,,,,,001709,001,2024-06-17_10h38.40.092,experiment,2024.1.5,MacIntel,59.88023952,65e29490e2b12e6bfa6a34b8,667045947eb812cbdacbf325,6670495dc99f10f913bff3d7,,,,,,,,,,,,,,,,,,,,,,,,,,,,,,,,,,,,3217.5013,3223.1898,0,1,1,1,1,SoundStimuli/BetteDavisEyes_KimCarnes_Cover5S.wav,,,,,,,,,,,,,,,,,,,,,,,,,,,,,,,,,,,,,,,,,,,,,,,,,,,,,,,,,,
,,,,,001709,001,2024-06-17_10h38.40.092,experiment,2024.1.5,MacIntel,59.88023952,65e29490e2b12e6bfa6a34b8,667045947eb812cbdacbf325,6670495dc99f10f913bff3d7,,,,,,,,,,,,,,,,,,,,,,,,,,,,,,,,,,,,,,,,,,,,3223.1902,3228.2396,4.916397809,5.0296,0,20,20,5,1,song_indices/BetteDavisEyes_KimCarnes.csv,,,,,,,,,,,,,,,,,,,,,,,,,,,,,,,,,,,,,,,,,,,,,,,,
,,,,,001709,001,2024-06-17_10h38.40.092,experiment,2024.1.5,MacIntel,59.88023952,65e29490e2b12e6bfa6a34b8,667045947eb812cbdacbf325,6670495dc99f10f913bff3d7,,,,,,,,,,,,,,,,,,,,,,,,,,,,,,,,,,,,3228.2411,3235.4738,0,0,0,0,1,SoundStimuli/UptownFunk_MarkRonson_Original5S.wav,,,,,,,,,,,,,,,,,,,,,,,,,,,,,,,,,,,,,,,,,,,,,,,,,,,,,,,,,,
,,,,,001709,001,2024-06-17_10h38.40.092,experiment,2024.1.5,MacIntel,59.88023952,65e29490e2b12e6bfa6a34b8,667045947eb812cbdacbf325,6670495dc99f10f913bff3d7,,,,,,,,,,,,,,,,,,,,,,,,,,,,,,,,,,,,3235.4847,3242.5063,0,1,1,1,1,SoundStimuli/UptownFunk_MarkRonson_Cover5S.wav,,,,,,,,,,,,,,,,,,,,,,,,,,,,,,,,,,,,,,,,,,,,,,,,,,,,,,,,,,
,,,,,001709,001,2024-06-17_10h38.40.092,experiment,2024.1.5,MacIntel,59.88023952,65e29490e2b12e6bfa6a34b8,667045947eb812cbdacbf325,6670495dc99f10f913bff3d7,,,,,,,,,,,,,,,,,,,,,,,,,,,,,,,,,,,,,,,,,,,,3242.5063,3244.1886,6.956501351,1.6687,0,21,21,15,1,song_indices/UptownFunk_MarkRonson.csv,,,,,,,,,,,,,,,,,,,,,,,,,,,,,,,,,,,,,,,,,,,,,,,,
,,,,,001709,001,2024-06-17_10h38.40.092,experiment,2024.1.5,MacIntel,59.88023952,65e29490e2b12e6bfa6a34b8,667045947eb812cbdacbf325,6670495dc99f10f913bff3d7,,,,,,,,,,,,,,,,,,,,,,,,,,,,,,,,,,,,3244.1949,3250.1403,0,0,0,1,1,SoundStimuli/TheBoyIsMine_BrandyMonica_Cover5S.wav,,,,,,,,,,,,,,,,,,,,,,,,,,,,,,,,,,,,,,,,,,,,,,,,,,,,,,,,,,
,,,,,001709,001,2024-06-17_10h38.40.092,experiment,2024.1.5,MacIntel,59.88023952,65e29490e2b12e6bfa6a34b8,667045947eb812cbdacbf325,6670495dc99f10f913bff3d7,,,,,,,,,,,,,,,,,,,,,,,,,,,,,,,,,,,,3250.151,3256.3559,0,1,1,0,1,SoundStimuli/TheBoyIsMine_BrandyMonica_Original5S.wav,,,,,,,,,,,,,,,,,,,,,,,,,,,,,,,,,,,,,,,,,,,,,,,,,,,,,,,,,,
,,,,,001709,001,2024-06-17_10h38.40.092,experiment,2024.1.5,MacIntel,59.88023952,65e29490e2b12e6bfa6a34b8,667045947eb812cbdacbf325,6670495dc99f10f913bff3d7,,,,,,,,,,,,,,,,,,,,,,,,,,,,,,,,,,,,,,,,,,,,3256.3562,3316.9199,4.886095063,60.5428,0,22,22,6,1,song_indices/TheBoyIsMine_BrandyMonica.csv,,,,,,,,,,,,,,,,,,,,,,,,,,,,,,,,,,,,,,,,,,,,,,,,
,,,,,001709,001,2024-06-17_10h38.40.092,experiment,2024.1.5,MacIntel,59.88023952,65e29490e2b12e6bfa6a34b8,667045947eb812cbdacbf325,6670495dc99f10f913bff3d7,,,,,,,,,,,,,,,,,,,,,,,,,,,,,,,,,,,,,,,,,,,,,,,,,,,,,,3316.9202,3316.9203,,,,0,2,2,1,1,choose_song_b2.csv,,,,,,,,,,,,,,,,,,,,,,,,,,,,,,,,,,,,,
,,,,,001709,001,2024-06-17_10h38.40.092,experiment,2024.1.5,MacIntel,59.88023952,65e29490e2b12e6bfa6a34b8,667045947eb812cbdacbf325,6670495dc99f10f913bff3d7,,,,,,,,,,,,,,,,,,,,,,,,,,,,,,,,,,,,,,,,,,,,,,,,,,,,,,,,,,,,,,,,,28,Item 2,I do not have much involvement in musical performance aside from mandatory music classes in elementary school that including attempting the piano and the recorder. ,Item 4,"The radio, Apple music, youtube, soundcloud ",4,5,"Most activities I have music playing in the background - while i'm working, commuting, cleaning",Always,Rarely,Never,Rarely,Never,Never,Often,Rarely,Rarely,Always,Never,Sometimes,Never,Never,Never,Rarely,"Soca, Dancehall, Afrobeats, Rap",R&B,Hip Hop,Soca,I think I am more intentional with what I listen to now versus when I was younger. ,N/A,0,0,0,0,1,,
,,,,,001709,001,2024-06-17_10h38.40.092,experiment,2024.1.5,MacIntel,59.88023952,65e29490e2b12e6bfa6a34b8,667045947eb812cbdacbf325,6670495dc99f10f913bff3d7,,,,,,,,,,,,,,,,,,,,,,,,,,,,,,,,,,,,,,,,,,,,,,,,,,,,,,,,,,,,,,,,,,,,,,,,,,,,,,,,,,,,,,,,,,,,,,,,,,,,3626.5715,3628.8604
