welcome.started,welcome.stopped,space_to_continue.keys,space_to_continue.rt,space_to_continue.duration,participant,session,date,expName,psychopyVersion,OS,frameRate,PROLIFIC_PID,STUDY_ID,SESSION_ID,consent.consent,consent.consent_recontact,consent_check.started,consent_check.stopped,calibration_ready.started,calibration_ready.stopped,cal_ready.keys,cal_ready.rt,cal_ready.duration,calibration.started,calibration.stopped,mouse.x,mouse.y,mouse.leftButton,mouse.midButton,mouse.rightButton,mouse.time,mouse.clicked_name,move_on.keys,move_on.rt,move_on.duration,instructions.started,instructions.stopped,next.keys,next.rt,next.duration,practice_trial.started,practice_trial.stopped,practice_slider.response,practice_slider.rt,ready.started,ready.stopped,key_resp.keys,key_resp.rt,key_resp.duration,play_sound.started,play_sound.stopped,trials.thisRepN,trials.thisTrialN,trials.thisN,trials.thisIndex,trials.ran,orig_or_cover,rating.started,rating.stopped,slider.response,slider.rt,songs.thisRepN,songs.thisTrialN,songs.thisN,songs.thisIndex,songs.ran,song_id,short_break.started,short_break.stopped,space_to_move_on.keys,space_to_move_on.rt,space_to_move_on.duration,blocks.thisRepN,blocks.thisTrialN,blocks.thisN,blocks.thisIndex,blocks.ran,block,survey.age,survey.musician,survey.music_making,survey.listen_time,survey.medium,survey.music_seeking,survey.music_choice,survey.activities,survey.question1.Metal,survey.question1.Reggae,survey.question1.Disco,survey.question1.Country,survey.question1.Hip hop,survey.question1.A cappella,survey.question1.Folk/indie,survey.question1.Pop,survey.question1.Jazz,survey.question1.Ambient,survey.question1.R&B,survey.question1.Classic rock,survey.question1.Electronic (EDM),survey.question1.Alternative rock,survey.question1.Latin,survey.question1.Classical,survey.other_genres,survey.genres_ranked.text1,survey.genres_ranked.text2,survey.genres_ranked.text3,survey.habit_change,survey.habits,experiment.thisRepN,experiment.thisTrialN,experiment.thisN,experiment.thisIndex,experiment.ran,goodbye.started,goodbye.stopped
0.0002,26.7033,space,26.6856,,019700,001,2024-06-17_07h55.28.614,experiment,2024.1.5,Win32,59.88023952,661f16434d4a84871e91d6db,667045947eb812cbdacbf325,66704e21e0fa5ca3ce84d2c0,,,,,,,,,,,,,,,,,,,,,,,,,,,,,,,,,,,,,,,,,,,,,,,,,,,,,,,,,,,,,,,,,,,,,,,,,,,,,,,,,,,,,,,,,,,,,,,,,,,,,
,,,,,019700,001,2024-06-17_07h55.28.614,experiment,2024.1.5,Win32,59.88023952,661f16434d4a84871e91d6db,667045947eb812cbdacbf325,66704e21e0fa5ca3ce84d2c0,yes,yes,,,,,,,,,,,,,,,,,,,,,,,,,,,,,,,,,,,,,,,,,,,,,,,,,,,,,,,,,,,,,,,,,,,,,,,,,,,,,,,,,,,,,,,,,,,,,,,,,,,
,,,,,019700,001,2024-06-17_07h55.28.614,experiment,2024.1.5,Win32,59.88023952,661f16434d4a84871e91d6db,667045947eb812cbdacbf325,66704e21e0fa5ca3ce84d2c0,,,51.3035,51.3037,,,,,,,,,,,,,,,,,,,,,,,,,,,,,,,,,,,,,,,,,,,,,,,,,,,,,,,,,,,,,,,,,,,,,,,,,,,,,,,,,,,,,,,,,,,,,,,,,
,,,,,019700,001,2024-06-17_07h55.28.614,experiment,2024.1.5,Win32,59.88023952,661f16434d4a84871e91d6db,667045947eb812cbdacbf325,66704e21e0fa5ca3ce84d2c0,,,,,51.3054,61.0285,space,9.6903,,61.0286,149.6832,"[-0.048148119891131366,-0.026851865980360243,0.00740743566442419,0.00740743566442419,-0.1499999717429832,0.7425925643355759,0.447222250479239,0.13611115349663627,0.5833333333333334,0.7768519366229022,0.8435185750325521,-0.017592606721100985]","[-0.4009259541829427,-0.42685183772334345,-0.4185185609040437,-0.4185185609040437,-0.34537039862738717,-0.4379629912199797,-0.3388888747603805,-0.4175925784640842,-0.4444444444444444,-0.44166670905219185,-0.48055556968406393,-0.42592592592592593]","[1,1,1,0,1,0,1,1,1,1,1,1]","[0,0,0,0,0,0,0,0,0,0,0,0]","[0,0,0,1,0,1,0,0,0,0,0,0]","[8.260499999999993,32.1527000002861,32.9435,33.4555,37.6515,73.02820000028609,74.23690000009537,79.05249999999998,80.33580000019072,80.9605,81.66840000009537,82.68609999990463]","[""play_button"",""play_button"",""play_button""]",right,78.6236,,149.6837,166.4972,space,16.7848,,166.4974,185.999,6.983333164,19.4938,185.9992,190.7919,space,4.7718,,190.8139,196.8892,0,0,0,0,1,SoundStimuli/YouLightUpMyLife_DebbyBoone_Original5S.wav,,,,,,,,,,,,,,,,,,,,,,,,,,,,,,,,,,,,,,,,,,,,,,,,,,,,,,,,,,
,,,,,019700,001,2024-06-17_07h55.28.614,experiment,2024.1.5,Win32,59.88023952,661f16434d4a84871e91d6db,667045947eb812cbdacbf325,66704e21e0fa5ca3ce84d2c0,,,,,,,,,,,,,,,,,,,,,,,,,,,,,,,,,,,,196.8967,203.338,0,1,1,1,1,SoundStimuli/YouLightUpMyLife_DebbyBoone_Cover5S.wav,,,,,,,,,,,,,,,,,,,,,,,,,,,,,,,,,,,,,,,,,,,,,,,,,,,,,,,,,,
,,,,,019700,001,2024-06-17_07h55.28.614,experiment,2024.1.5,Win32,59.88023952,661f16434d4a84871e91d6db,667045947eb812cbdacbf325,66704e21e0fa5ca3ce84d2c0,,,,,,,,,,,,,,,,,,,,,,,,,,,,,,,,,,,,,,,,,,,,203.3457,204.7548,6.983333164,1.4082,0,0,0,4,1,song_indices/YouLightUpMyLife_DebbyBoone.csv,,,,,,,,,,,,,,,,,,,,,,,,,,,,,,,,,,,,,,,,,,,,,,,,
,,,,,019700,001,2024-06-17_07h55.28.614,experiment,2024.1.5,Win32,59.88023952,661f16434d4a84871e91d6db,667045947eb812cbdacbf325,66704e21e0fa5ca3ce84d2c0,,,,,,,,,,,,,,,,,,,,,,,,,,,,,,,,,,,,204.7568,211.0367,0,0,0,1,1,SoundStimuli/Kiss_Prince_Cover5S.wav,,,,,,,,,,,,,,,,,,,,,,,,,,,,,,,,,,,,,,,,,,,,,,,,,,,,,,,,,,
,,,,,019700,001,2024-06-17_07h55.28.614,experiment,2024.1.5,Win32,59.88023952,661f16434d4a84871e91d6db,667045947eb812cbdacbf325,66704e21e0fa5ca3ce84d2c0,,,,,,,,,,,,,,,,,,,,,,,,,,,,,,,,,,,,211.0441,218.4688,0,1,1,0,1,SoundStimuli/Kiss_Prince_Original5S.wav,,,,,,,,,,,,,,,,,,,,,,,,,,,,,,,,,,,,,,,,,,,,,,,,,,,,,,,,,,
,,,,,019700,001,2024-06-17_07h55.28.614,experiment,2024.1.5,Win32,59.88023952,661f16434d4a84871e91d6db,667045947eb812cbdacbf325,66704e21e0fa5ca3ce84d2c0,,,,,,,,,,,,,,,,,,,,,,,,,,,,,,,,,,,,,,,,,,,,218.469,221.3132,1.011111153,2.8317,0,1,1,14,1,song_indices/Kiss_Prince.csv,,,,,,,,,,,,,,,,,,,,,,,,,,,,,,,,,,,,,,,,,,,,,,,,
,,,,,019700,001,2024-06-17_07h55.28.614,experiment,2024.1.5,Win32,59.88023952,661f16434d4a84871e91d6db,667045947eb812cbdacbf325,66704e21e0fa5ca3ce84d2c0,,,,,,,,,,,,,,,,,,,,,,,,,,,,,,,,,,,,221.3141,225.2921,0,0,0,1,1,SoundStimuli/UnbreakMyHeart_ToniBraxton_Cover5S.wav,,,,,,,,,,,,,,,,,,,,,,,,,,,,,,,,,,,,,,,,,,,,,,,,,,,,,,,,,,
,,,,,019700,001,2024-06-17_07h55.28.614,experiment,2024.1.5,Win32,59.88023952,661f16434d4a84871e91d6db,667045947eb812cbdacbf325,66704e21e0fa5ca3ce84d2c0,,,,,,,,,,,,,,,,,,,,,,,,,,,,,,,,,,,,225.298,231.4081,0,1,1,0,1,SoundStimuli/UnbreakMyHeart_ToniBraxton_Original5S.wav,,,,,,,,,,,,,,,,,,,,,,,,,,,,,,,,,,,,,,,,,,,,,,,,,,,,,,,,,,
,,,,,019700,001,2024-06-17_07h55.28.614,experiment,2024.1.5,Win32,59.88023952,661f16434d4a84871e91d6db,667045947eb812cbdacbf325,66704e21e0fa5ca3ce84d2c0,,,,,,,,,,,,,,,,,,,,,,,,,,,,,,,,,,,,,,,,,,,,231.4083,234.7242,4.033333249,3.3092,0,2,2,16,1,song_indices/UnbreakMyHeart_ToniBraxton.csv,,,,,,,,,,,,,,,,,,,,,,,,,,,,,,,,,,,,,,,,,,,,,,,,
,,,,,019700,001,2024-06-17_07h55.28.614,experiment,2024.1.5,Win32,59.88023952,661f16434d4a84871e91d6db,667045947eb812cbdacbf325,66704e21e0fa5ca3ce84d2c0,,,,,,,,,,,,,,,,,,,,,,,,,,,,,,,,,,,,234.7251,241.752,0,0,0,0,1,SoundStimuli/PokerFace_LadyGaga_Original5S.wav,,,,,,,,,,,,,,,,,,,,,,,,,,,,,,,,,,,,,,,,,,,,,,,,,,,,,,,,,,
,,,,,019700,001,2024-06-17_07h55.28.614,experiment,2024.1.5,Win32,59.88023952,661f16434d4a84871e91d6db,667045947eb812cbdacbf325,66704e21e0fa5ca3ce84d2c0,,,,,,,,,,,,,,,,,,,,,,,,,,,,,,,,,,,,241.7582,248.6047,0,1,1,1,1,SoundStimuli/PokerFace_LadyGaga_Cover5S.wav,,,,,,,,,,,,,,,,,,,,,,,,,,,,,,,,,,,,,,,,,,,,,,,,,,,,,,,,,,
,,,,,019700,001,2024-06-17_07h55.28.614,experiment,2024.1.5,Win32,59.88023952,661f16434d4a84871e91d6db,667045947eb812cbdacbf325,66704e21e0fa5ca3ce84d2c0,,,,,,,,,,,,,,,,,,,,,,,,,,,,,,,,,,,,,,,,,,,,248.6048,251.6644,4.95555581,3.0523,0,3,3,23,1,song_indices/PokerFace_LadyGaga.csv,,,,,,,,,,,,,,,,,,,,,,,,,,,,,,,,,,,,,,,,,,,,,,,,
,,,,,019700,001,2024-06-17_07h55.28.614,experiment,2024.1.5,Win32,59.88023952,661f16434d4a84871e91d6db,667045947eb812cbdacbf325,66704e21e0fa5ca3ce84d2c0,,,,,,,,,,,,,,,,,,,,,,,,,,,,,,,,,,,,251.6664,257.7865,0,0,0,0,1,SoundStimuli/ComeAndGetYourLove_Redbone_Original5S.wav,,,,,,,,,,,,,,,,,,,,,,,,,,,,,,,,,,,,,,,,,,,,,,,,,,,,,,,,,,
,,,,,019700,001,2024-06-17_07h55.28.614,experiment,2024.1.5,Win32,59.88023952,661f16434d4a84871e91d6db,667045947eb812cbdacbf325,66704e21e0fa5ca3ce84d2c0,,,,,,,,,,,,,,,,,,,,,,,,,,,,,,,,,,,,257.7928,264.8448,0,1,1,1,1,SoundStimuli/ComeAndGetYourLove_Redbone_Cover5S.wav,,,,,,,,,,,,,,,,,,,,,,,,,,,,,,,,,,,,,,,,,,,,,,,,,,,,,,,,,,
,,,,,019700,001,2024-06-17_07h55.28.614,experiment,2024.1.5,Win32,59.88023952,661f16434d4a84871e91d6db,667045947eb812cbdacbf325,66704e21e0fa5ca3ce84d2c0,,,,,,,,,,,,,,,,,,,,,,,,,,,,,,,,,,,,,,,,,,,,264.8456,272.0018,4.933333503,7.1487,0,4,4,22,1,song_indices/ComeAndGetYourLove_Redbone.csv,,,,,,,,,,,,,,,,,,,,,,,,,,,,,,,,,,,,,,,,,,,,,,,,
,,,,,019700,001,2024-06-17_07h55.28.614,experiment,2024.1.5,Win32,59.88023952,661f16434d4a84871e91d6db,667045947eb812cbdacbf325,66704e21e0fa5ca3ce84d2c0,,,,,,,,,,,,,,,,,,,,,,,,,,,,,,,,,,,,272.0025,278.1669,0,0,0,0,1,SoundStimuli/TheSign_AceOfBase_Original5S.wav,,,,,,,,,,,,,,,,,,,,,,,,,,,,,,,,,,,,,,,,,,,,,,,,,,,,,,,,,,
,,,,,019700,001,2024-06-17_07h55.28.614,experiment,2024.1.5,Win32,59.88023952,661f16434d4a84871e91d6db,667045947eb812cbdacbf325,66704e21e0fa5ca3ce84d2c0,,,,,,,,,,,,,,,,,,,,,,,,,,,,,,,,,,,,278.1741,284.1833,0,1,1,1,1,SoundStimuli/TheSign_AceOfBase_Cover5S.wav,,,,,,,,,,,,,,,,,,,,,,,,,,,,,,,,,,,,,,,,,,,,,,,,,,,,,,,,,,
,,,,,019700,001,2024-06-17_07h55.28.614,experiment,2024.1.5,Win32,59.88023952,661f16434d4a84871e91d6db,667045947eb812cbdacbf325,66704e21e0fa5ca3ce84d2c0,,,,,,,,,,,,,,,,,,,,,,,,,,,,,,,,,,,,,,,,,,,,284.1835,285.6749,4.933333503,1.4764,0,5,5,5,1,song_indices/TheSign_AceOfBase.csv,,,,,,,,,,,,,,,,,,,,,,,,,,,,,,,,,,,,,,,,,,,,,,,,
,,,,,019700,001,2024-06-17_07h55.28.614,experiment,2024.1.5,Win32,59.88023952,661f16434d4a84871e91d6db,667045947eb812cbdacbf325,66704e21e0fa5ca3ce84d2c0,,,,,,,,,,,,,,,,,,,,,,,,,,,,,,,,,,,,285.6782,291.8982,0,0,0,0,1,SoundStimuli/TikTok_Kesha_Original5S.wav,,,,,,,,,,,,,,,,,,,,,,,,,,,,,,,,,,,,,,,,,,,,,,,,,,,,,,,,,,
,,,,,019700,001,2024-06-17_07h55.28.614,experiment,2024.1.5,Win32,59.88023952,661f16434d4a84871e91d6db,667045947eb812cbdacbf325,66704e21e0fa5ca3ce84d2c0,,,,,,,,,,,,,,,,,,,,,,,,,,,,,,,,,,,,291.9106,299.4388,0,1,1,1,1,SoundStimuli/TikTok_Kesha_Cover5S.wav,,,,,,,,,,,,,,,,,,,,,,,,,,,,,,,,,,,,,,,,,,,,,,,,,,,,,,,,,,
,,,,,019700,001,2024-06-17_07h55.28.614,experiment,2024.1.5,Win32,59.88023952,661f16434d4a84871e91d6db,667045947eb812cbdacbf325,66704e21e0fa5ca3ce84d2c0,,,,,,,,,,,,,,,,,,,,,,,,,,,,,,,,,,,,,,,,,,,,299.4394,301.7261,3.050000085,2.277,0,6,6,3,1,song_indices/TikTok_Kesha.csv,,,,,,,,,,,,,,,,,,,,,,,,,,,,,,,,,,,,,,,,,,,,,,,,
,,,,,019700,001,2024-06-17_07h55.28.614,experiment,2024.1.5,Win32,59.88023952,661f16434d4a84871e91d6db,667045947eb812cbdacbf325,66704e21e0fa5ca3ce84d2c0,,,,,,,,,,,,,,,,,,,,,,,,,,,,,,,,,,,,301.7268,307.6542,0,0,0,0,1,SoundStimuli/Respect_ArethaFranklin_Original5S.wav,,,,,,,,,,,,,,,,,,,,,,,,,,,,,,,,,,,,,,,,,,,,,,,,,,,,,,,,,,
,,,,,019700,001,2024-06-17_07h55.28.614,experiment,2024.1.5,Win32,59.88023952,661f16434d4a84871e91d6db,667045947eb812cbdacbf325,66704e21e0fa5ca3ce84d2c0,,,,,,,,,,,,,,,,,,,,,,,,,,,,,,,,,,,,307.6607,313.7198,0,1,1,1,1,SoundStimuli/Respect_ArethaFranklin_Cover5S.wav,,,,,,,,,,,,,,,,,,,,,,,,,,,,,,,,,,,,,,,,,,,,,,,,,,,,,,,,,,
,,,,,019700,001,2024-06-17_07h55.28.614,experiment,2024.1.5,Win32,59.88023952,661f16434d4a84871e91d6db,667045947eb812cbdacbf325,66704e21e0fa5ca3ce84d2c0,,,,,,,,,,,,,,,,,,,,,,,,,,,,,,,,,,,,,,,,,,,,313.7198,316.7774,3.050000085,3.0504,0,7,7,0,1,song_indices/Respect_ArethaFranklin.csv,,,,,,,,,,,,,,,,,,,,,,,,,,,,,,,,,,,,,,,,,,,,,,,,
,,,,,019700,001,2024-06-17_07h55.28.614,experiment,2024.1.5,Win32,59.88023952,661f16434d4a84871e91d6db,667045947eb812cbdacbf325,66704e21e0fa5ca3ce84d2c0,,,,,,,,,,,,,,,,,,,,,,,,,,,,,,,,,,,,316.7779,322.6597,0,0,0,1,1,SoundStimuli/SaveYourTears_TheWeekndArianaGrande_Cover5S.wav,,,,,,,,,,,,,,,,,,,,,,,,,,,,,,,,,,,,,,,,,,,,,,,,,,,,,,,,,,
,,,,,019700,001,2024-06-17_07h55.28.614,experiment,2024.1.5,Win32,59.88023952,661f16434d4a84871e91d6db,667045947eb812cbdacbf325,66704e21e0fa5ca3ce84d2c0,,,,,,,,,,,,,,,,,,,,,,,,,,,,,,,,,,,,322.6651,328.8589,0,1,1,0,1,SoundStimuli/SaveYourTears_TheWeekndArianaGrande_Original5S.wav,,,,,,,,,,,,,,,,,,,,,,,,,,,,,,,,,,,,,,,,,,,,,,,,,,,,,,,,,,
,,,,,019700,001,2024-06-17_07h55.28.614,experiment,2024.1.5,Win32,59.88023952,661f16434d4a84871e91d6db,667045947eb812cbdacbf325,66704e21e0fa5ca3ce84d2c0,,,,,,,,,,,,,,,,,,,,,,,,,,,,,,,,,,,,,,,,,,,,328.8592,333.7751,3.949999915,4.9092,0,8,8,12,1,song_indices/SaveYourTears_TheWeekndArianaGrande.csv,,,,,,,,,,,,,,,,,,,,,,,,,,,,,,,,,,,,,,,,,,,,,,,,
,,,,,019700,001,2024-06-17_07h55.28.614,experiment,2024.1.5,Win32,59.88023952,661f16434d4a84871e91d6db,667045947eb812cbdacbf325,66704e21e0fa5ca3ce84d2c0,,,,,,,,,,,,,,,,,,,,,,,,,,,,,,,,,,,,333.7757,339.8063,0,0,0,0,1,SoundStimuli/LeFreak_Chic_Original5S.wav,,,,,,,,,,,,,,,,,,,,,,,,,,,,,,,,,,,,,,,,,,,,,,,,,,,,,,,,,,
,,,,,019700,001,2024-06-17_07h55.28.614,experiment,2024.1.5,Win32,59.88023952,661f16434d4a84871e91d6db,667045947eb812cbdacbf325,66704e21e0fa5ca3ce84d2c0,,,,,,,,,,,,,,,,,,,,,,,,,,,,,,,,,,,,339.8192,345.3359,0,1,1,1,1,SoundStimuli/LeFreak_Chic_Cover5S.wav,,,,,,,,,,,,,,,,,,,,,,,,,,,,,,,,,,,,,,,,,,,,,,,,,,,,,,,,,,
,,,,,019700,001,2024-06-17_07h55.28.614,experiment,2024.1.5,Win32,59.88023952,661f16434d4a84871e91d6db,667045947eb812cbdacbf325,66704e21e0fa5ca3ce84d2c0,,,,,,,,,,,,,,,,,,,,,,,,,,,,,,,,,,,,,,,,,,,,345.3361,352.0881,2.966666751,6.7403,0,9,9,11,1,song_indices/LeFreak_Chic.csv,,,,,,,,,,,,,,,,,,,,,,,,,,,,,,,,,,,,,,,,,,,,,,,,
,,,,,019700,001,2024-06-17_07h55.28.614,experiment,2024.1.5,Win32,59.88023952,661f16434d4a84871e91d6db,667045947eb812cbdacbf325,66704e21e0fa5ca3ce84d2c0,,,,,,,,,,,,,,,,,,,,,,,,,,,,,,,,,,,,352.0889,358.7296,0,0,0,1,1,SoundStimuli/LetsGetItOn_MarvinGaye_Cover5S.wav,,,,,,,,,,,,,,,,,,,,,,,,,,,,,,,,,,,,,,,,,,,,,,,,,,,,,,,,,,
,,,,,019700,001,2024-06-17_07h55.28.614,experiment,2024.1.5,Win32,59.88023952,661f16434d4a84871e91d6db,667045947eb812cbdacbf325,66704e21e0fa5ca3ce84d2c0,,,,,,,,,,,,,,,,,,,,,,,,,,,,,,,,,,,,358.7368,365.0356,0,1,1,0,1,SoundStimuli/LetsGetItOn_MarvinGaye_Original5S.wav,,,,,,,,,,,,,,,,,,,,,,,,,,,,,,,,,,,,,,,,,,,,,,,,,,,,,,,,,,
,,,,,019700,001,2024-06-17_07h55.28.614,experiment,2024.1.5,Win32,59.88023952,661f16434d4a84871e91d6db,667045947eb812cbdacbf325,66704e21e0fa5ca3ce84d2c0,,,,,,,,,,,,,,,,,,,,,,,,,,,,,,,,,,,,,,,,,,,,365.0358,367.5942,3.95555581,2.5499,0,10,10,20,1,song_indices/LetsGetItOn_MarvinGaye.csv,,,,,,,,,,,,,,,,,,,,,,,,,,,,,,,,,,,,,,,,,,,,,,,,
,,,,,019700,001,2024-06-17_07h55.28.614,experiment,2024.1.5,Win32,59.88023952,661f16434d4a84871e91d6db,667045947eb812cbdacbf325,66704e21e0fa5ca3ce84d2c0,,,,,,,,,,,,,,,,,,,,,,,,,,,,,,,,,,,,367.596,373.6105,0,0,0,0,1,SoundStimuli/Levitating_DuaLipa_Original5S.wav,,,,,,,,,,,,,,,,,,,,,,,,,,,,,,,,,,,,,,,,,,,,,,,,,,,,,,,,,,
,,,,,019700,001,2024-06-17_07h55.28.614,experiment,2024.1.5,Win32,59.88023952,661f16434d4a84871e91d6db,667045947eb812cbdacbf325,66704e21e0fa5ca3ce84d2c0,,,,,,,,,,,,,,,,,,,,,,,,,,,,,,,,,,,,373.6215,379.3257,0,1,1,1,1,SoundStimuli/Levitating_DuaLipa_Cover5S.wav,,,,,,,,,,,,,,,,,,,,,,,,,,,,,,,,,,,,,,,,,,,,,,,,,,,,,,,,,,
,,,,,019700,001,2024-06-17_07h55.28.614,experiment,2024.1.5,Win32,59.88023952,661f16434d4a84871e91d6db,667045947eb812cbdacbf325,66704e21e0fa5ca3ce84d2c0,,,,,,,,,,,,,,,,,,,,,,,,,,,,,,,,,,,,,,,,,,,,379.3265,381.127,2.75,1.7859,0,11,11,10,1,song_indices/Levitating_DuaLipa.csv,,,,,,,,,,,,,,,,,,,,,,,,,,,,,,,,,,,,,,,,,,,,,,,,
,,,,,019700,001,2024-06-17_07h55.28.614,experiment,2024.1.5,Win32,59.88023952,661f16434d4a84871e91d6db,667045947eb812cbdacbf325,66704e21e0fa5ca3ce84d2c0,,,,,,,,,,,,,,,,,,,,,,,,,,,,,,,,,,,,381.129,387.6153,0,0,0,1,1,SoundStimuli/Weak_SWV_Cover5S.wav,,,,,,,,,,,,,,,,,,,,,,,,,,,,,,,,,,,,,,,,,,,,,,,,,,,,,,,,,,
,,,,,019700,001,2024-06-17_07h55.28.614,experiment,2024.1.5,Win32,59.88023952,661f16434d4a84871e91d6db,667045947eb812cbdacbf325,66704e21e0fa5ca3ce84d2c0,,,,,,,,,,,,,,,,,,,,,,,,,,,,,,,,,,,,387.6288,393.7153,0,1,1,0,1,SoundStimuli/Weak_SWV_Original5S.wav,,,,,,,,,,,,,,,,,,,,,,,,,,,,,,,,,,,,,,,,,,,,,,,,,,,,,,,,,,
,,,,,019700,001,2024-06-17_07h55.28.614,experiment,2024.1.5,Win32,59.88023952,661f16434d4a84871e91d6db,667045947eb812cbdacbf325,66704e21e0fa5ca3ce84d2c0,,,,,,,,,,,,,,,,,,,,,,,,,,,,,,,,,,,,,,,,,,,,393.7155,399.6225,2.988889058,5.8913,0,12,12,6,1,song_indices/Weak_SWV.csv,,,,,,,,,,,,,,,,,,,,,,,,,,,,,,,,,,,,,,,,,,,,,,,,
,,,,,019700,001,2024-06-17_07h55.28.614,experiment,2024.1.5,Win32,59.88023952,661f16434d4a84871e91d6db,667045947eb812cbdacbf325,66704e21e0fa5ca3ce84d2c0,,,,,,,,,,,,,,,,,,,,,,,,,,,,,,,,,,,,399.6246,405.7473,0,0,0,0,1,SoundStimuli/JoyToTheWorld_ThreeDogNight_Original5S.wav,,,,,,,,,,,,,,,,,,,,,,,,,,,,,,,,,,,,,,,,,,,,,,,,,,,,,,,,,,
,,,,,019700,001,2024-06-17_07h55.28.614,experiment,2024.1.5,Win32,59.88023952,661f16434d4a84871e91d6db,667045947eb812cbdacbf325,66704e21e0fa5ca3ce84d2c0,,,,,,,,,,,,,,,,,,,,,,,,,,,,,,,,,,,,405.7598,410.8872,0,1,1,1,1,SoundStimuli/JoyToTheWorld_ThreeDogNight_Cover5S.wav,,,,,,,,,,,,,,,,,,,,,,,,,,,,,,,,,,,,,,,,,,,,,,,,,,,,,,,,,,
,,,,,019700,001,2024-06-17_07h55.28.614,experiment,2024.1.5,Win32,59.88023952,661f16434d4a84871e91d6db,667045947eb812cbdacbf325,66704e21e0fa5ca3ce84d2c0,,,,,,,,,,,,,,,,,,,,,,,,,,,,,,,,,,,,,,,,,,,,410.8872,413.0374,4.877777947,2.1376,0,13,13,8,1,song_indices/JoyToTheWorld_ThreeDogNight.csv,,,,,,,,,,,,,,,,,,,,,,,,,,,,,,,,,,,,,,,,,,,,,,,,
,,,,,019700,001,2024-06-17_07h55.28.614,experiment,2024.1.5,Win32,59.88023952,661f16434d4a84871e91d6db,667045947eb812cbdacbf325,66704e21e0fa5ca3ce84d2c0,,,,,,,,,,,,,,,,,,,,,,,,,,,,,,,,,,,,413.0399,419.8363,0,0,0,1,1,SoundStimuli/SomebodyThatIUsedtoKnow_Gotye_Cover5S.wav,,,,,,,,,,,,,,,,,,,,,,,,,,,,,,,,,,,,,,,,,,,,,,,,,,,,,,,,,,
,,,,,019700,001,2024-06-17_07h55.28.614,experiment,2024.1.5,Win32,59.88023952,661f16434d4a84871e91d6db,667045947eb812cbdacbf325,66704e21e0fa5ca3ce84d2c0,,,,,,,,,,,,,,,,,,,,,,,,,,,,,,,,,,,,419.8443,427.0678,0,1,1,0,1,SoundStimuli/SomebodyThatIUsedtoKnow_Gotye_Original5S.wav,,,,,,,,,,,,,,,,,,,,,,,,,,,,,,,,,,,,,,,,,,,,,,,,,,,,,,,,,,
,,,,,019700,001,2024-06-17_07h55.28.614,experiment,2024.1.5,Win32,59.88023952,661f16434d4a84871e91d6db,667045947eb812cbdacbf325,66704e21e0fa5ca3ce84d2c0,,,,,,,,,,,,,,,,,,,,,,,,,,,,,,,,,,,,,,,,,,,,427.0682,428.401,4.877777947,1.3232,0,14,14,7,1,song_indices/SomebodyThatIUsedtoKnow_Gotye.csv,,,,,,,,,,,,,,,,,,,,,,,,,,,,,,,,,,,,,,,,,,,,,,,,
,,,,,019700,001,2024-06-17_07h55.28.614,experiment,2024.1.5,Win32,59.88023952,661f16434d4a84871e91d6db,667045947eb812cbdacbf325,66704e21e0fa5ca3ce84d2c0,,,,,,,,,,,,,,,,,,,,,,,,,,,,,,,,,,,,428.4042,435.2003,0,0,0,1,1,SoundStimuli/BlindingLights_TheWeeknd_Cover5S.wav,,,,,,,,,,,,,,,,,,,,,,,,,,,,,,,,,,,,,,,,,,,,,,,,,,,,,,,,,,
,,,,,019700,001,2024-06-17_07h55.28.614,experiment,2024.1.5,Win32,59.88023952,661f16434d4a84871e91d6db,667045947eb812cbdacbf325,66704e21e0fa5ca3ce84d2c0,,,,,,,,,,,,,,,,,,,,,,,,,,,,,,,,,,,,435.2085,441.6988,0,1,1,0,1,SoundStimuli/BlindingLights_TheWeeknd_Original5S.wav,,,,,,,,,,,,,,,,,,,,,,,,,,,,,,,,,,,,,,,,,,,,,,,,,,,,,,,,,,
,,,,,019700,001,2024-06-17_07h55.28.614,experiment,2024.1.5,Win32,59.88023952,661f16434d4a84871e91d6db,667045947eb812cbdacbf325,66704e21e0fa5ca3ce84d2c0,,,,,,,,,,,,,,,,,,,,,,,,,,,,,,,,,,,,,,,,,,,,441.6992,442.6993,6.027777778,0.9846,0,15,15,21,1,song_indices/BlindingLights_TheWeeknd.csv,,,,,,,,,,,,,,,,,,,,,,,,,,,,,,,,,,,,,,,,,,,,,,,,
,,,,,019700,001,2024-06-17_07h55.28.614,experiment,2024.1.5,Win32,59.88023952,661f16434d4a84871e91d6db,667045947eb812cbdacbf325,66704e21e0fa5ca3ce84d2c0,,,,,,,,,,,,,,,,,,,,,,,,,,,,,,,,,,,,442.7021,448.0183,0,0,0,1,1,SoundStimuli/Superstition_StevieWonder_Cover5S.wav,,,,,,,,,,,,,,,,,,,,,,,,,,,,,,,,,,,,,,,,,,,,,,,,,,,,,,,,,,
,,,,,019700,001,2024-06-17_07h55.28.614,experiment,2024.1.5,Win32,59.88023952,661f16434d4a84871e91d6db,667045947eb812cbdacbf325,66704e21e0fa5ca3ce84d2c0,,,,,,,,,,,,,,,,,,,,,,,,,,,,,,,,,,,,448.0241,454.1637,0,1,1,0,1,SoundStimuli/Superstition_StevieWonder_Original5S.wav,,,,,,,,,,,,,,,,,,,,,,,,,,,,,,,,,,,,,,,,,,,,,,,,,,,,,,,,,,
,,,,,019700,001,2024-06-17_07h55.28.614,experiment,2024.1.5,Win32,59.88023952,661f16434d4a84871e91d6db,667045947eb812cbdacbf325,66704e21e0fa5ca3ce84d2c0,,,,,,,,,,,,,,,,,,,,,,,,,,,,,,,,,,,,,,,,,,,,454.1642,456.1556,2.544444614,1.9849,0,16,16,15,1,song_indices/Superstition_StevieWonder.csv,,,,,,,,,,,,,,,,,,,,,,,,,,,,,,,,,,,,,,,,,,,,,,,,
,,,,,019700,001,2024-06-17_07h55.28.614,experiment,2024.1.5,Win32,59.88023952,661f16434d4a84871e91d6db,667045947eb812cbdacbf325,66704e21e0fa5ca3ce84d2c0,,,,,,,,,,,,,,,,,,,,,,,,,,,,,,,,,,,,456.1561,463.2491,0,0,0,1,1,SoundStimuli/BlurredLines_RobinThicke_Cover5S.wav,,,,,,,,,,,,,,,,,,,,,,,,,,,,,,,,,,,,,,,,,,,,,,,,,,,,,,,,,,
,,,,,019700,001,2024-06-17_07h55.28.614,experiment,2024.1.5,Win32,59.88023952,661f16434d4a84871e91d6db,667045947eb812cbdacbf325,66704e21e0fa5ca3ce84d2c0,,,,,,,,,,,,,,,,,,,,,,,,,,,,,,,,,,,,463.2553,470.0112,0,1,1,0,1,SoundStimuli/BlurredLines_RobinThicke_Original5S.wav,,,,,,,,,,,,,,,,,,,,,,,,,,,,,,,,,,,,,,,,,,,,,,,,,,,,,,,,,,
,,,,,019700,001,2024-06-17_07h55.28.614,experiment,2024.1.5,Win32,59.88023952,661f16434d4a84871e91d6db,667045947eb812cbdacbf325,66704e21e0fa5ca3ce84d2c0,,,,,,,,,,,,,,,,,,,,,,,,,,,,,,,,,,,,,,,,,,,,470.012,472.0106,3.983333588,1.9884,0,17,17,9,1,song_indices/BlurredLines_RobinThicke.csv,,,,,,,,,,,,,,,,,,,,,,,,,,,,,,,,,,,,,,,,,,,,,,,,
,,,,,019700,001,2024-06-17_07h55.28.614,experiment,2024.1.5,Win32,59.88023952,661f16434d4a84871e91d6db,667045947eb812cbdacbf325,66704e21e0fa5ca3ce84d2c0,,,,,,,,,,,,,,,,,,,,,,,,,,,,,,,,,,,,472.0128,479.01,0,0,0,1,1,SoundStimuli/Dilemma_NellyKellyRowland_Cover5S.wav,,,,,,,,,,,,,,,,,,,,,,,,,,,,,,,,,,,,,,,,,,,,,,,,,,,,,,,,,,
,,,,,019700,001,2024-06-17_07h55.28.614,experiment,2024.1.5,Win32,59.88023952,661f16434d4a84871e91d6db,667045947eb812cbdacbf325,66704e21e0fa5ca3ce84d2c0,,,,,,,,,,,,,,,,,,,,,,,,,,,,,,,,,,,,479.0179,485.2089,0,1,1,0,1,SoundStimuli/Dilemma_NellyKellyRowland_Original5S.wav,,,,,,,,,,,,,,,,,,,,,,,,,,,,,,,,,,,,,,,,,,,,,,,,,,,,,,,,,,
,,,,,019700,001,2024-06-17_07h55.28.614,experiment,2024.1.5,Win32,59.88023952,661f16434d4a84871e91d6db,667045947eb812cbdacbf325,66704e21e0fa5ca3ce84d2c0,,,,,,,,,,,,,,,,,,,,,,,,,,,,,,,,,,,,,,,,,,,,485.2094,489.5576,2.183333291,4.3369,0,18,18,2,1,song_indices/Dilemma_NellyKellyRowland.csv,,,,,,,,,,,,,,,,,,,,,,,,,,,,,,,,,,,,,,,,,,,,,,,,
,,,,,019700,001,2024-06-17_07h55.28.614,experiment,2024.1.5,Win32,59.88023952,661f16434d4a84871e91d6db,667045947eb812cbdacbf325,66704e21e0fa5ca3ce84d2c0,,,,,,,,,,,,,,,,,,,,,,,,,,,,,,,,,,,,489.5608,495.6743,0,0,0,1,1,SoundStimuli/TossinAndTurnin_BobbyLewis_Cover5S.wav,,,,,,,,,,,,,,,,,,,,,,,,,,,,,,,,,,,,,,,,,,,,,,,,,,,,,,,,,,
,,,,,019700,001,2024-06-17_07h55.28.614,experiment,2024.1.5,Win32,59.88023952,661f16434d4a84871e91d6db,667045947eb812cbdacbf325,66704e21e0fa5ca3ce84d2c0,,,,,,,,,,,,,,,,,,,,,,,,,,,,,,,,,,,,495.6816,501.7399,0,1,1,0,1,SoundStimuli/TossinAndTurnin_BobbyLewis_Original5S.wav,,,,,,,,,,,,,,,,,,,,,,,,,,,,,,,,,,,,,,,,,,,,,,,,,,,,,,,,,,
,,,,,019700,001,2024-06-17_07h55.28.614,experiment,2024.1.5,Win32,59.88023952,661f16434d4a84871e91d6db,667045947eb812cbdacbf325,66704e21e0fa5ca3ce84d2c0,,,,,,,,,,,,,,,,,,,,,,,,,,,,,,,,,,,,,,,,,,,,501.7405,504.822,4.061111026,3.0721,0,19,19,13,1,song_indices/TossinAndTurnin_BobbyLewis.csv,,,,,,,,,,,,,,,,,,,,,,,,,,,,,,,,,,,,,,,,,,,,,,,,
,,,,,019700,001,2024-06-17_07h55.28.614,experiment,2024.1.5,Win32,59.88023952,661f16434d4a84871e91d6db,667045947eb812cbdacbf325,66704e21e0fa5ca3ce84d2c0,,,,,,,,,,,,,,,,,,,,,,,,,,,,,,,,,,,,504.8242,512.1045,0,0,0,1,1,SoundStimuli/FlashdanceWhatAFeeling_IreneCara_Cover5S.wav,,,,,,,,,,,,,,,,,,,,,,,,,,,,,,,,,,,,,,,,,,,,,,,,,,,,,,,,,,
,,,,,019700,001,2024-06-17_07h55.28.614,experiment,2024.1.5,Win32,59.88023952,661f16434d4a84871e91d6db,667045947eb812cbdacbf325,66704e21e0fa5ca3ce84d2c0,,,,,,,,,,,,,,,,,,,,,,,,,,,,,,,,,,,,512.1121,518.511,0,1,1,0,1,SoundStimuli/FlashdanceWhatAFeeling_IreneCara_Original5S.wav,,,,,,,,,,,,,,,,,,,,,,,,,,,,,,,,,,,,,,,,,,,,,,,,,,,,,,,,,,
,,,,,019700,001,2024-06-17_07h55.28.614,experiment,2024.1.5,Win32,59.88023952,661f16434d4a84871e91d6db,667045947eb812cbdacbf325,66704e21e0fa5ca3ce84d2c0,,,,,,,,,,,,,,,,,,,,,,,,,,,,,,,,,,,,,,,,,,,,518.5112,519.7201,6.927777608,1.1984,0,20,20,18,1,song_indices/FlashdanceWhatAFeeling_IreneCara.csv,,,,,,,,,,,,,,,,,,,,,,,,,,,,,,,,,,,,,,,,,,,,,,,,
,,,,,019700,001,2024-06-17_07h55.28.614,experiment,2024.1.5,Win32,59.88023952,661f16434d4a84871e91d6db,667045947eb812cbdacbf325,66704e21e0fa5ca3ce84d2c0,,,,,,,,,,,,,,,,,,,,,,,,,,,,,,,,,,,,519.7226,525.202,0,0,0,1,1,SoundStimuli/HowDoILive_LeAnnRimes_Cover5S.wav,,,,,,,,,,,,,,,,,,,,,,,,,,,,,,,,,,,,,,,,,,,,,,,,,,,,,,,,,,
,,,,,019700,001,2024-06-17_07h55.28.614,experiment,2024.1.5,Win32,59.88023952,661f16434d4a84871e91d6db,667045947eb812cbdacbf325,66704e21e0fa5ca3ce84d2c0,,,,,,,,,,,,,,,,,,,,,,,,,,,,,,,,,,,,525.2107,531.235,0,1,1,0,1,SoundStimuli/HowDoILive_LeAnnRimes_Original5S.wav,,,,,,,,,,,,,,,,,,,,,,,,,,,,,,,,,,,,,,,,,,,,,,,,,,,,,,,,,,
,,,,,019700,001,2024-06-17_07h55.28.614,experiment,2024.1.5,Win32,59.88023952,661f16434d4a84871e91d6db,667045947eb812cbdacbf325,66704e21e0fa5ca3ce84d2c0,,,,,,,,,,,,,,,,,,,,,,,,,,,,,,,,,,,,,,,,,,,,531.2354,532.4347,6.25,1.1863,0,21,21,17,1,song_indices/HowDoILive_LeAnnRimes.csv,,,,,,,,,,,,,,,,,,,,,,,,,,,,,,,,,,,,,,,,,,,,,,,,
,,,,,019700,001,2024-06-17_07h55.28.614,experiment,2024.1.5,Win32,59.88023952,661f16434d4a84871e91d6db,667045947eb812cbdacbf325,66704e21e0fa5ca3ce84d2c0,,,,,,,,,,,,,,,,,,,,,,,,,,,,,,,,,,,,532.4372,538.3172,0,0,0,0,1,SoundStimuli/Irreplaceable_Beyonce_Original5S.wav,,,,,,,,,,,,,,,,,,,,,,,,,,,,,,,,,,,,,,,,,,,,,,,,,,,,,,,,,,
,,,,,019700,001,2024-06-17_07h55.28.614,experiment,2024.1.5,Win32,59.88023952,661f16434d4a84871e91d6db,667045947eb812cbdacbf325,66704e21e0fa5ca3ce84d2c0,,,,,,,,,,,,,,,,,,,,,,,,,,,,,,,,,,,,538.3236,544.233,0,1,1,1,1,SoundStimuli/Irreplaceable_Beyonce_Cover5S.wav,,,,,,,,,,,,,,,,,,,,,,,,,,,,,,,,,,,,,,,,,,,,,,,,,,,,,,,,,,
,,,,,019700,001,2024-06-17_07h55.28.614,experiment,2024.1.5,Win32,59.88023952,661f16434d4a84871e91d6db,667045947eb812cbdacbf325,66704e21e0fa5ca3ce84d2c0,,,,,,,,,,,,,,,,,,,,,,,,,,,,,,,,,,,,,,,,,,,,544.2333,547.0653,3.083333333,2.8173,0,22,22,19,1,song_indices/Irreplaceable_Beyonce.csv,,,,,,,,,,,,,,,,,,,,,,,,,,,,,,,,,,,,,,,,,,,,,,,,
,,,,,019700,001,2024-06-17_07h55.28.614,experiment,2024.1.5,Win32,59.88023952,661f16434d4a84871e91d6db,667045947eb812cbdacbf325,66704e21e0fa5ca3ce84d2c0,,,,,,,,,,,,,,,,,,,,,,,,,,,,,,,,,,,,547.0685,554.9135,0,0,0,1,1,SoundStimuli/Dreams_FleetwoodMac_Cover5S.wav,,,,,,,,,,,,,,,,,,,,,,,,,,,,,,,,,,,,,,,,,,,,,,,,,,,,,,,,,,
,,,,,019700,001,2024-06-17_07h55.28.614,experiment,2024.1.5,Win32,59.88023952,661f16434d4a84871e91d6db,667045947eb812cbdacbf325,66704e21e0fa5ca3ce84d2c0,,,,,,,,,,,,,,,,,,,,,,,,,,,,,,,,,,,,554.9217,561.4299,0,1,1,0,1,SoundStimuli/Dreams_FleetwoodMac_Original5S.wav,,,,,,,,,,,,,,,,,,,,,,,,,,,,,,,,,,,,,,,,,,,,,,,,,,,,,,,,,,
,,,,,019700,001,2024-06-17_07h55.28.614,experiment,2024.1.5,Win32,59.88023952,661f16434d4a84871e91d6db,667045947eb812cbdacbf325,66704e21e0fa5ca3ce84d2c0,,,,,,,,,,,,,,,,,,,,,,,,,,,,,,,,,,,,,,,,,,,,561.4302,565.6956,3.766666836,4.2553,0,23,23,1,1,song_indices/Dreams_FleetwoodMac.csv,,,,,,,,,,,,,,,,,,,,,,,,,,,,,,,,,,,,,,,,,,,,,,,,
,,,,,019700,001,2024-06-17_07h55.28.614,experiment,2024.1.5,Win32,59.88023952,661f16434d4a84871e91d6db,667045947eb812cbdacbf325,66704e21e0fa5ca3ce84d2c0,,,,,,,,,,,,,,,,,,,,,,,,,,,,,,,,,,,,,,,,,,,,,,,,,,,,,,565.6972,570.2353,space,4.5054,,0,0,0,2,1,choose_song_b3.csv,,,,,,,,,,,,,,,,,,,,,,,,,,,,,,,,,,,,,
,,,,,019700,001,2024-06-17_07h55.28.614,experiment,2024.1.5,Win32,59.88023952,661f16434d4a84871e91d6db,667045947eb812cbdacbf325,66704e21e0fa5ca3ce84d2c0,,,,,,,,,,,,,,,,,,,,,,,,,,,,,,,,,,,,570.2365,576.5771,0,0,0,0,1,SoundStimuli/EndlessLove_DianaRossLionelRichie_Original5S.wav,,,,,,,,,,,,,,,,,,,,,,,,,,,,,,,,,,,,,,,,,,,,,,,,,,,,,,,,,,
,,,,,019700,001,2024-06-17_07h55.28.614,experiment,2024.1.5,Win32,59.88023952,661f16434d4a84871e91d6db,667045947eb812cbdacbf325,66704e21e0fa5ca3ce84d2c0,,,,,,,,,,,,,,,,,,,,,,,,,,,,,,,,,,,,576.5853,584.0932,0,1,1,1,1,SoundStimuli/EndlessLove_DianaRossLionelRichie_Cover5S.wav,,,,,,,,,,,,,,,,,,,,,,,,,,,,,,,,,,,,,,,,,,,,,,,,,,,,,,,,,,
,,,,,019700,001,2024-06-17_07h55.28.614,experiment,2024.1.5,Win32,59.88023952,661f16434d4a84871e91d6db,667045947eb812cbdacbf325,66704e21e0fa5ca3ce84d2c0,,,,,,,,,,,,,,,,,,,,,,,,,,,,,,,,,,,,,,,,,,,,584.0936,585.7597,5.183333503,1.6578,0,0,0,3,1,song_indices/EndlessLove_DianaRossLionelRichie.csv,,,,,,,,,,,,,,,,,,,,,,,,,,,,,,,,,,,,,,,,,,,,,,,,
,,,,,019700,001,2024-06-17_07h55.28.614,experiment,2024.1.5,Win32,59.88023952,661f16434d4a84871e91d6db,667045947eb812cbdacbf325,66704e21e0fa5ca3ce84d2c0,,,,,,,,,,,,,,,,,,,,,,,,,,,,,,,,,,,,585.7617,591.7246,0,0,0,0,1,SoundStimuli/BohemianRhapsody_Queen_Original5S.wav,,,,,,,,,,,,,,,,,,,,,,,,,,,,,,,,,,,,,,,,,,,,,,,,,,,,,,,,,,
,,,,,019700,001,2024-06-17_07h55.28.614,experiment,2024.1.5,Win32,59.88023952,661f16434d4a84871e91d6db,667045947eb812cbdacbf325,66704e21e0fa5ca3ce84d2c0,,,,,,,,,,,,,,,,,,,,,,,,,,,,,,,,,,,,591.7326,595.8076,0,1,1,1,1,SoundStimuli/BohemianRhapsody_Queen_Cover5S.wav,,,,,,,,,,,,,,,,,,,,,,,,,,,,,,,,,,,,,,,,,,,,,,,,,,,,,,,,,,
,,,,,019700,001,2024-06-17_07h55.28.614,experiment,2024.1.5,Win32,59.88023952,661f16434d4a84871e91d6db,667045947eb812cbdacbf325,66704e21e0fa5ca3ce84d2c0,,,,,,,,,,,,,,,,,,,,,,,,,,,,,,,,,,,,,,,,,,,,595.8081,599.9062,3.816666921,4.084,0,1,1,18,1,song_indices/BohemianRhapsody_Queen.csv,,,,,,,,,,,,,,,,,,,,,,,,,,,,,,,,,,,,,,,,,,,,,,,,
,,,,,019700,001,2024-06-17_07h55.28.614,experiment,2024.1.5,Win32,59.88023952,661f16434d4a84871e91d6db,667045947eb812cbdacbf325,66704e21e0fa5ca3ce84d2c0,,,,,,,,,,,,,,,,,,,,,,,,,,,,,,,,,,,,599.9085,605.9632,0,0,0,1,1,SoundStimuli/IWantToHoldYourHand_TheBeatles_Cover5S.wav,,,,,,,,,,,,,,,,,,,,,,,,,,,,,,,,,,,,,,,,,,,,,,,,,,,,,,,,,,
,,,,,019700,001,2024-06-17_07h55.28.614,experiment,2024.1.5,Win32,59.88023952,661f16434d4a84871e91d6db,667045947eb812cbdacbf325,66704e21e0fa5ca3ce84d2c0,,,,,,,,,,,,,,,,,,,,,,,,,,,,,,,,,,,,605.9691,611.7545,0,1,1,0,1,SoundStimuli/IWantToHoldYourHand_TheBeatles_Original5S.wav,,,,,,,,,,,,,,,,,,,,,,,,,,,,,,,,,,,,,,,,,,,,,,,,,,,,,,,,,,
,,,,,019700,001,2024-06-17_07h55.28.614,experiment,2024.1.5,Win32,59.88023952,661f16434d4a84871e91d6db,667045947eb812cbdacbf325,66704e21e0fa5ca3ce84d2c0,,,,,,,,,,,,,,,,,,,,,,,,,,,,,,,,,,,,,,,,,,,,611.7548,614.0048,3,2.2358,0,2,2,19,1,song_indices/IWantToHoldYourHand_TheBeatles.csv,,,,,,,,,,,,,,,,,,,,,,,,,,,,,,,,,,,,,,,,,,,,,,,,
,,,,,019700,001,2024-06-17_07h55.28.614,experiment,2024.1.5,Win32,59.88023952,661f16434d4a84871e91d6db,667045947eb812cbdacbf325,66704e21e0fa5ca3ce84d2c0,,,,,,,,,,,,,,,,,,,,,,,,,,,,,,,,,,,,614.0077,618.7206,0,0,0,1,1,SoundStimuli/AChangeIsGonnaCome_SamCooke_Cover5S.wav,,,,,,,,,,,,,,,,,,,,,,,,,,,,,,,,,,,,,,,,,,,,,,,,,,,,,,,,,,
,,,,,019700,001,2024-06-17_07h55.28.614,experiment,2024.1.5,Win32,59.88023952,661f16434d4a84871e91d6db,667045947eb812cbdacbf325,66704e21e0fa5ca3ce84d2c0,,,,,,,,,,,,,,,,,,,,,,,,,,,,,,,,,,,,618.7275,624.7698,0,1,1,0,1,SoundStimuli/AChangeIsGonnaCome_SamCooke_Original5S.wav,,,,,,,,,,,,,,,,,,,,,,,,,,,,,,,,,,,,,,,,,,,,,,,,,,,,,,,,,,
,,,,,019700,001,2024-06-17_07h55.28.614,experiment,2024.1.5,Win32,59.88023952,661f16434d4a84871e91d6db,667045947eb812cbdacbf325,66704e21e0fa5ca3ce84d2c0,,,,,,,,,,,,,,,,,,,,,,,,,,,,,,,,,,,,,,,,,,,,624.7704,626.127,4.60000017,1.3501,0,3,3,17,1,song_indices/AChangeIsGonnaCome_SamCooke.csv,,,,,,,,,,,,,,,,,,,,,,,,,,,,,,,,,,,,,,,,,,,,,,,,
,,,,,019700,001,2024-06-17_07h55.28.614,experiment,2024.1.5,Win32,59.88023952,661f16434d4a84871e91d6db,667045947eb812cbdacbf325,66704e21e0fa5ca3ce84d2c0,,,,,,,,,,,,,,,,,,,,,,,,,,,,,,,,,,,,626.1277,632.3181,0,0,0,0,1,SoundStimuli/LikeAPrayer_Madonna_Original5S.wav,,,,,,,,,,,,,,,,,,,,,,,,,,,,,,,,,,,,,,,,,,,,,,,,,,,,,,,,,,
,,,,,019700,001,2024-06-17_07h55.28.614,experiment,2024.1.5,Win32,59.88023952,661f16434d4a84871e91d6db,667045947eb812cbdacbf325,66704e21e0fa5ca3ce84d2c0,,,,,,,,,,,,,,,,,,,,,,,,,,,,,,,,,,,,632.3256,638.5334,0,1,1,1,1,SoundStimuli/LikeAPrayer_Madonna_Cover5S.wav,,,,,,,,,,,,,,,,,,,,,,,,,,,,,,,,,,,,,,,,,,,,,,,,,,,,,,,,,,
,,,,,019700,001,2024-06-17_07h55.28.614,experiment,2024.1.5,Win32,59.88023952,661f16434d4a84871e91d6db,667045947eb812cbdacbf325,66704e21e0fa5ca3ce84d2c0,,,,,,,,,,,,,,,,,,,,,,,,,,,,,,,,,,,,,,,,,,,,638.5337,640.2345,4.60000017,1.6852,0,4,4,7,1,song_indices/LikeAPrayer_Madonna.csv,,,,,,,,,,,,,,,,,,,,,,,,,,,,,,,,,,,,,,,,,,,,,,,,
,,,,,019700,001,2024-06-17_07h55.28.614,experiment,2024.1.5,Win32,59.88023952,661f16434d4a84871e91d6db,667045947eb812cbdacbf325,66704e21e0fa5ca3ce84d2c0,,,,,,,,,,,,,,,,,,,,,,,,,,,,,,,,,,,,640.2364,647.0995,0,0,0,1,1,SoundStimuli/GodOnlyKnows_TheBeachBoys_Cover5S.wav,,,,,,,,,,,,,,,,,,,,,,,,,,,,,,,,,,,,,,,,,,,,,,,,,,,,,,,,,,
,,,,,019700,001,2024-06-17_07h55.28.614,experiment,2024.1.5,Win32,59.88023952,661f16434d4a84871e91d6db,667045947eb812cbdacbf325,66704e21e0fa5ca3ce84d2c0,,,,,,,,,,,,,,,,,,,,,,,,,,,,,,,,,,,,647.1062,653.3321,0,1,1,0,1,SoundStimuli/GodOnlyKnows_TheBeachBoys_Original5S.wav,,,,,,,,,,,,,,,,,,,,,,,,,,,,,,,,,,,,,,,,,,,,,,,,,,,,,,,,,,
,,,,,019700,001,2024-06-17_07h55.28.614,experiment,2024.1.5,Win32,59.88023952,661f16434d4a84871e91d6db,667045947eb812cbdacbf325,66704e21e0fa5ca3ce84d2c0,,,,,,,,,,,,,,,,,,,,,,,,,,,,,,,,,,,,,,,,,,,,653.3329,656.564,3.788889143,3.2208,0,5,5,8,1,song_indices/GodOnlyKnows_TheBeachBoys.csv,,,,,,,,,,,,,,,,,,,,,,,,,,,,,,,,,,,,,,,,,,,,,,,,
,,,,,019700,001,2024-06-17_07h55.28.614,experiment,2024.1.5,Win32,59.88023952,661f16434d4a84871e91d6db,667045947eb812cbdacbf325,66704e21e0fa5ca3ce84d2c0,,,,,,,,,,,,,,,,,,,,,,,,,,,,,,,,,,,,656.5667,663.4134,0,0,0,1,1,SoundStimuli/IWannaDanceWithSomebody_WhitneyHouston_Cover5S.wav,,,,,,,,,,,,,,,,,,,,,,,,,,,,,,,,,,,,,,,,,,,,,,,,,,,,,,,,,,
,,,,,019700,001,2024-06-17_07h55.28.614,experiment,2024.1.5,Win32,59.88023952,661f16434d4a84871e91d6db,667045947eb812cbdacbf325,66704e21e0fa5ca3ce84d2c0,,,,,,,,,,,,,,,,,,,,,,,,,,,,,,,,,,,,663.4227,669.0364,0,1,1,0,1,SoundStimuli/IWannaDanceWithSomebody_WhitneyHouston_Original5S.wav,,,,,,,,,,,,,,,,,,,,,,,,,,,,,,,,,,,,,,,,,,,,,,,,,,,,,,,,,,
,,,,,019700,001,2024-06-17_07h55.28.614,experiment,2024.1.5,Win32,59.88023952,661f16434d4a84871e91d6db,667045947eb812cbdacbf325,66704e21e0fa5ca3ce84d2c0,,,,,,,,,,,,,,,,,,,,,,,,,,,,,,,,,,,,,,,,,,,,669.0365,671.6111,1.966666751,2.5662,0,6,6,13,1,song_indices/IWannaDanceWithSomebody_WhitneyHouston.csv,,,,,,,,,,,,,,,,,,,,,,,,,,,,,,,,,,,,,,,,,,,,,,,,
,,,,,019700,001,2024-06-17_07h55.28.614,experiment,2024.1.5,Win32,59.88023952,661f16434d4a84871e91d6db,667045947eb812cbdacbf325,66704e21e0fa5ca3ce84d2c0,,,,,,,,,,,,,,,,,,,,,,,,,,,,,,,,,,,,671.6139,677.4683,0,0,0,1,1,SoundStimuli/StayinAlive_BeeGees_Cover5S.wav,,,,,,,,,,,,,,,,,,,,,,,,,,,,,,,,,,,,,,,,,,,,,,,,,,,,,,,,,,
,,,,,019700,001,2024-06-17_07h55.28.614,experiment,2024.1.5,Win32,59.88023952,661f16434d4a84871e91d6db,667045947eb812cbdacbf325,66704e21e0fa5ca3ce84d2c0,,,,,,,,,,,,,,,,,,,,,,,,,,,,,,,,,,,,677.4756,683.4999,0,1,1,0,1,SoundStimuli/StayinAlive_BeeGees_Original5S.wav,,,,,,,,,,,,,,,,,,,,,,,,,,,,,,,,,,,,,,,,,,,,,,,,,,,,,,,,,,
,,,,,019700,001,2024-06-17_07h55.28.614,experiment,2024.1.5,Win32,59.88023952,661f16434d4a84871e91d6db,667045947eb812cbdacbf325,66704e21e0fa5ca3ce84d2c0,,,,,,,,,,,,,,,,,,,,,,,,,,,,,,,,,,,,,,,,,,,,683.5001,690.3247,4.405555725,6.8066,0,7,7,2,1,song_indices/StayinAlive_BeeGees.csv,,,,,,,,,,,,,,,,,,,,,,,,,,,,,,,,,,,,,,,,,,,,,,,,
,,,,,019700,001,2024-06-17_07h55.28.614,experiment,2024.1.5,Win32,59.88023952,661f16434d4a84871e91d6db,667045947eb812cbdacbf325,66704e21e0fa5ca3ce84d2c0,,,,,,,,,,,,,,,,,,,,,,,,,,,,,,,,,,,,690.3262,696.3738,0,0,0,0,1,SoundStimuli/AnotherOneBitesTheDust_Queen_Original5S.wav,,,,,,,,,,,,,,,,,,,,,,,,,,,,,,,,,,,,,,,,,,,,,,,,,,,,,,,,,,
,,,,,019700,001,2024-06-17_07h55.28.614,experiment,2024.1.5,Win32,59.88023952,661f16434d4a84871e91d6db,667045947eb812cbdacbf325,66704e21e0fa5ca3ce84d2c0,,,,,,,,,,,,,,,,,,,,,,,,,,,,,,,,,,,,696.3833,704.5063,0,1,1,1,1,SoundStimuli/AnotherOneBitesTheDust_Queen_Cover5S.wav,,,,,,,,,,,,,,,,,,,,,,,,,,,,,,,,,,,,,,,,,,,,,,,,,,,,,,,,,,
,,,,,019700,001,2024-06-17_07h55.28.614,experiment,2024.1.5,Win32,59.88023952,661f16434d4a84871e91d6db,667045947eb812cbdacbf325,66704e21e0fa5ca3ce84d2c0,,,,,,,,,,,,,,,,,,,,,,,,,,,,,,,,,,,,,,,,,,,,704.5071,707.9227,4.344444699,3.4066,0,8,8,9,1,song_indices/AnotherOneBitesTheDust_Queen.csv,,,,,,,,,,,,,,,,,,,,,,,,,,,,,,,,,,,,,,,,,,,,,,,,
,,,,,019700,001,2024-06-17_07h55.28.614,experiment,2024.1.5,Win32,59.88023952,661f16434d4a84871e91d6db,667045947eb812cbdacbf325,66704e21e0fa5ca3ce84d2c0,,,,,,,,,,,,,,,,,,,,,,,,,,,,,,,,,,,,707.9253,714.3209,0,0,0,0,1,SoundStimuli/MyGirl_TheTemptations_Original5S.wav,,,,,,,,,,,,,,,,,,,,,,,,,,,,,,,,,,,,,,,,,,,,,,,,,,,,,,,,,,
,,,,,019700,001,2024-06-17_07h55.28.614,experiment,2024.1.5,Win32,59.88023952,661f16434d4a84871e91d6db,667045947eb812cbdacbf325,66704e21e0fa5ca3ce84d2c0,,,,,,,,,,,,,,,,,,,,,,,,,,,,,,,,,,,,714.3296,721.9867,0,1,1,1,1,SoundStimuli/MyGirl_TheTemptations_Cover5S.wav,,,,,,,,,,,,,,,,,,,,,,,,,,,,,,,,,,,,,,,,,,,,,,,,,,,,,,,,,,
,,,,,019700,001,2024-06-17_07h55.28.614,experiment,2024.1.5,Win32,59.88023952,661f16434d4a84871e91d6db,667045947eb812cbdacbf325,66704e21e0fa5ca3ce84d2c0,,,,,,,,,,,,,,,,,,,,,,,,,,,,,,,,,,,,,,,,,,,,721.9874,724.8539,3.550000085,2.8459,0,9,9,15,1,song_indices/MyGirl_TheTemptations.csv,,,,,,,,,,,,,,,,,,,,,,,,,,,,,,,,,,,,,,,,,,,,,,,,
,,,,,019700,001,2024-06-17_07h55.28.614,experiment,2024.1.5,Win32,59.88023952,661f16434d4a84871e91d6db,667045947eb812cbdacbf325,66704e21e0fa5ca3ce84d2c0,,,,,,,,,,,,,,,,,,,,,,,,,,,,,,,,,,,,724.8555,731.4356,0,0,0,1,1,SoundStimuli/Despacito_LuisFonsiDaddyYankee_Cover5S.wav,,,,,,,,,,,,,,,,,,,,,,,,,,,,,,,,,,,,,,,,,,,,,,,,,,,,,,,,,,
,,,,,019700,001,2024-06-17_07h55.28.614,experiment,2024.1.5,Win32,59.88023952,661f16434d4a84871e91d6db,667045947eb812cbdacbf325,66704e21e0fa5ca3ce84d2c0,,,,,,,,,,,,,,,,,,,,,,,,,,,,,,,,,,,,731.4422,738.0071,0,1,1,0,1,SoundStimuli/Despacito_LuisFonsiDaddyYankee_Original5S.wav,,,,,,,,,,,,,,,,,,,,,,,,,,,,,,,,,,,,,,,,,,,,,,,,,,,,,,,,,,
,,,,,019700,001,2024-06-17_07h55.28.614,experiment,2024.1.5,Win32,59.88023952,661f16434d4a84871e91d6db,667045947eb812cbdacbf325,66704e21e0fa5ca3ce84d2c0,,,,,,,,,,,,,,,,,,,,,,,,,,,,,,,,,,,,,,,,,,,,738.0072,739.3838,3.550000085,1.3674,0,10,10,11,1,song_indices/Despacito_LuisFonsiDaddyYankee.csv,,,,,,,,,,,,,,,,,,,,,,,,,,,,,,,,,,,,,,,,,,,,,,,,
,,,,,019700,001,2024-06-17_07h55.28.614,experiment,2024.1.5,Win32,59.88023952,661f16434d4a84871e91d6db,667045947eb812cbdacbf325,66704e21e0fa5ca3ce84d2c0,,,,,,,,,,,,,,,,,,,,,,,,,,,,,,,,,,,,739.3866,745.6062,0,0,0,0,1,SoundStimuli/Smooth_SantanaRobThomas_Original5S.wav,,,,,,,,,,,,,,,,,,,,,,,,,,,,,,,,,,,,,,,,,,,,,,,,,,,,,,,,,,
,,,,,019700,001,2024-06-17_07h55.28.614,experiment,2024.1.5,Win32,59.88023952,661f16434d4a84871e91d6db,667045947eb812cbdacbf325,66704e21e0fa5ca3ce84d2c0,,,,,,,,,,,,,,,,,,,,,,,,,,,,,,,,,,,,745.612,751.7489,0,1,1,1,1,SoundStimuli/Smooth_SantanaRobThomas_Cover5S.wav,,,,,,,,,,,,,,,,,,,,,,,,,,,,,,,,,,,,,,,,,,,,,,,,,,,,,,,,,,
,,,,,019700,001,2024-06-17_07h55.28.614,experiment,2024.1.5,Win32,59.88023952,661f16434d4a84871e91d6db,667045947eb812cbdacbf325,66704e21e0fa5ca3ce84d2c0,,,,,,,,,,,,,,,,,,,,,,,,,,,,,,,,,,,,,,,,,,,,751.7496,753.6189,5.14444436,1.8618,0,11,11,4,1,song_indices/Smooth_SantanaRobThomas.csv,,,,,,,,,,,,,,,,,,,,,,,,,,,,,,,,,,,,,,,,,,,,,,,,
,,,,,019700,001,2024-06-17_07h55.28.614,experiment,2024.1.5,Win32,59.88023952,661f16434d4a84871e91d6db,667045947eb812cbdacbf325,66704e21e0fa5ca3ce84d2c0,,,,,,,,,,,,,,,,,,,,,,,,,,,,,,,,,,,,753.6195,759.5712,0,0,0,1,1,SoundStimuli/IllMakeLoveToYou_BoyzIIMen_Cover5S.wav,,,,,,,,,,,,,,,,,,,,,,,,,,,,,,,,,,,,,,,,,,,,,,,,,,,,,,,,,,
,,,,,019700,001,2024-06-17_07h55.28.614,experiment,2024.1.5,Win32,59.88023952,661f16434d4a84871e91d6db,667045947eb812cbdacbf325,66704e21e0fa5ca3ce84d2c0,,,,,,,,,,,,,,,,,,,,,,,,,,,,,,,,,,,,759.577,765.646,0,1,1,0,1,SoundStimuli/IllMakeLoveToYou_BoyzIIMen_Original5S.wav,,,,,,,,,,,,,,,,,,,,,,,,,,,,,,,,,,,,,,,,,,,,,,,,,,,,,,,,,,
,,,,,019700,001,2024-06-17_07h55.28.614,experiment,2024.1.5,Win32,59.88023952,661f16434d4a84871e91d6db,667045947eb812cbdacbf325,66704e21e0fa5ca3ce84d2c0,,,,,,,,,,,,,,,,,,,,,,,,,,,,,,,,,,,,,,,,,,,,765.6465,767.3955,5.027777778,1.7394,0,12,12,6,1,song_indices/IllMakeLoveToYou_BoyzIIMen.csv,,,,,,,,,,,,,,,,,,,,,,,,,,,,,,,,,,,,,,,,,,,,,,,,
,,,,,019700,001,2024-06-17_07h55.28.614,experiment,2024.1.5,Win32,59.88023952,661f16434d4a84871e91d6db,667045947eb812cbdacbf325,66704e21e0fa5ca3ce84d2c0,,,,,,,,,,,,,,,,,,,,,,,,,,,,,,,,,,,,767.3981,776.2613,0,0,0,0,1,SoundStimuli/Perfect_EdSheeran_Original5S.wav,,,,,,,,,,,,,,,,,,,,,,,,,,,,,,,,,,,,,,,,,,,,,,,,,,,,,,,,,,
,,,,,019700,001,2024-06-17_07h55.28.614,experiment,2024.1.5,Win32,59.88023952,661f16434d4a84871e91d6db,667045947eb812cbdacbf325,66704e21e0fa5ca3ce84d2c0,,,,,,,,,,,,,,,,,,,,,,,,,,,,,,,,,,,,776.269,784.5266,0,1,1,1,1,SoundStimuli/Perfect_EdSheeran_Cover5S.wav,,,,,,,,,,,,,,,,,,,,,,,,,,,,,,,,,,,,,,,,,,,,,,,,,,,,,,,,,,
,,,,,019700,001,2024-06-17_07h55.28.614,experiment,2024.1.5,Win32,59.88023952,661f16434d4a84871e91d6db,667045947eb812cbdacbf325,66704e21e0fa5ca3ce84d2c0,,,,,,,,,,,,,,,,,,,,,,,,,,,,,,,,,,,,,,,,,,,,784.5272,786.3595,6.116667006,1.8215,0,13,13,0,1,song_indices/Perfect_EdSheeran.csv,,,,,,,,,,,,,,,,,,,,,,,,,,,,,,,,,,,,,,,,,,,,,,,,
,,,,,019700,001,2024-06-17_07h55.28.614,experiment,2024.1.5,Win32,59.88023952,661f16434d4a84871e91d6db,667045947eb812cbdacbf325,66704e21e0fa5ca3ce84d2c0,,,,,,,,,,,,,,,,,,,,,,,,,,,,,,,,,,,,786.3621,792.6083,0,0,0,0,1,SoundStimuli/LivinOnAPrayer_BonJovi_Original5S.wav,,,,,,,,,,,,,,,,,,,,,,,,,,,,,,,,,,,,,,,,,,,,,,,,,,,,,,,,,,
,,,,,019700,001,2024-06-17_07h55.28.614,experiment,2024.1.5,Win32,59.88023952,661f16434d4a84871e91d6db,667045947eb812cbdacbf325,66704e21e0fa5ca3ce84d2c0,,,,,,,,,,,,,,,,,,,,,,,,,,,,,,,,,,,,792.6157,800.2902,0,1,1,1,1,SoundStimuli/LivinOnAPrayer_BonJovi_Cover5S.wav,,,,,,,,,,,,,,,,,,,,,,,,,,,,,,,,,,,,,,,,,,,,,,,,,,,,,,,,,,
,,,,,019700,001,2024-06-17_07h55.28.614,experiment,2024.1.5,Win32,59.88023952,661f16434d4a84871e91d6db,667045947eb812cbdacbf325,66704e21e0fa5ca3ce84d2c0,,,,,,,,,,,,,,,,,,,,,,,,,,,,,,,,,,,,,,,,,,,,800.2907,802.4738,3.294444614,2.1722,0,14,14,16,1,song_indices/LivinOnAPrayer_BonJovi.csv,,,,,,,,,,,,,,,,,,,,,,,,,,,,,,,,,,,,,,,,,,,,,,,,
,,,,,019700,001,2024-06-17_07h55.28.614,experiment,2024.1.5,Win32,59.88023952,661f16434d4a84871e91d6db,667045947eb812cbdacbf325,66704e21e0fa5ca3ce84d2c0,,,,,,,,,,,,,,,,,,,,,,,,,,,,,,,,,,,,802.4763,808.9898,0,0,0,1,1,SoundStimuli/OldTownRoad_LilNasX_Cover5S.wav,,,,,,,,,,,,,,,,,,,,,,,,,,,,,,,,,,,,,,,,,,,,,,,,,,,,,,,,,,
,,,,,019700,001,2024-06-17_07h55.28.614,experiment,2024.1.5,Win32,59.88023952,661f16434d4a84871e91d6db,667045947eb812cbdacbf325,66704e21e0fa5ca3ce84d2c0,,,,,,,,,,,,,,,,,,,,,,,,,,,,,,,,,,,,808.9963,816.3718,0,1,1,0,1,SoundStimuli/OldTownRoad_LilNasX_Original5S.wav,,,,,,,,,,,,,,,,,,,,,,,,,,,,,,,,,,,,,,,,,,,,,,,,,,,,,,,,,,
,,,,,019700,001,2024-06-17_07h55.28.614,experiment,2024.1.5,Win32,59.88023952,661f16434d4a84871e91d6db,667045947eb812cbdacbf325,66704e21e0fa5ca3ce84d2c0,,,,,,,,,,,,,,,,,,,,,,,,,,,,,,,,,,,,,,,,,,,,816.3724,820.7211,4.916666667,4.3368,0,15,15,20,1,song_indices/OldTownRoad_LilNasX.csv,,,,,,,,,,,,,,,,,,,,,,,,,,,,,,,,,,,,,,,,,,,,,,,,
,,,,,019700,001,2024-06-17_07h55.28.614,experiment,2024.1.5,Win32,59.88023952,661f16434d4a84871e91d6db,667045947eb812cbdacbf325,66704e21e0fa5ca3ce84d2c0,,,,,,,,,,,,,,,,,,,,,,,,,,,,,,,,,,,,820.7234,829.0187,0,0,0,1,1,SoundStimuli/Mood_24kGoldnianndior_Cover5S.wav,,,,,,,,,,,,,,,,,,,,,,,,,,,,,,,,,,,,,,,,,,,,,,,,,,,,,,,,,,
,,,,,019700,001,2024-06-17_07h55.28.614,experiment,2024.1.5,Win32,59.88023952,661f16434d4a84871e91d6db,667045947eb812cbdacbf325,66704e21e0fa5ca3ce84d2c0,,,,,,,,,,,,,,,,,,,,,,,,,,,,,,,,,,,,829.0266,835.3176,0,1,1,0,1,SoundStimuli/Mood_24kGoldnianndior_Original5S.wav,,,,,,,,,,,,,,,,,,,,,,,,,,,,,,,,,,,,,,,,,,,,,,,,,,,,,,,,,,
,,,,,019700,001,2024-06-17_07h55.28.614,experiment,2024.1.5,Win32,59.88023952,661f16434d4a84871e91d6db,667045947eb812cbdacbf325,66704e21e0fa5ca3ce84d2c0,,,,,,,,,,,,,,,,,,,,,,,,,,,,,,,,,,,,,,,,,,,,835.3177,837.1013,5.699999915,1.7683,0,16,16,5,1,song_indices/Mood_24kGoldnianndior.csv,,,,,,,,,,,,,,,,,,,,,,,,,,,,,,,,,,,,,,,,,,,,,,,,
,,,,,019700,001,2024-06-17_07h55.28.614,experiment,2024.1.5,Win32,59.88023952,661f16434d4a84871e91d6db,667045947eb812cbdacbf325,66704e21e0fa5ca3ce84d2c0,,,,,,,,,,,,,,,,,,,,,,,,,,,,,,,,,,,,837.1042,841.5003,0,0,0,1,1,SoundStimuli/LikeARollingStone_BobDylan_Cover5S.wav,,,,,,,,,,,,,,,,,,,,,,,,,,,,,,,,,,,,,,,,,,,,,,,,,,,,,,,,,,
,,,,,019700,001,2024-06-17_07h55.28.614,experiment,2024.1.5,Win32,59.88023952,661f16434d4a84871e91d6db,667045947eb812cbdacbf325,66704e21e0fa5ca3ce84d2c0,,,,,,,,,,,,,,,,,,,,,,,,,,,,,,,,,,,,841.5075,847.6494,0,1,1,0,1,SoundStimuli/LikeARollingStone_BobDylan_Original5S.wav,,,,,,,,,,,,,,,,,,,,,,,,,,,,,,,,,,,,,,,,,,,,,,,,,,,,,,,,,,
,,,,,019700,001,2024-06-17_07h55.28.614,experiment,2024.1.5,Win32,59.88023952,661f16434d4a84871e91d6db,667045947eb812cbdacbf325,66704e21e0fa5ca3ce84d2c0,,,,,,,,,,,,,,,,,,,,,,,,,,,,,,,,,,,,,,,,,,,,847.6501,850.8156,3.883333418,3.1536,0,17,17,12,1,song_indices/LikeARollingStone_BobDylan.csv,,,,,,,,,,,,,,,,,,,,,,,,,,,,,,,,,,,,,,,,,,,,,,,,
,,,,,019700,001,2024-06-17_07h55.28.614,experiment,2024.1.5,Win32,59.88023952,661f16434d4a84871e91d6db,667045947eb812cbdacbf325,66704e21e0fa5ca3ce84d2c0,,,,,,,,,,,,,,,,,,,,,,,,,,,,,,,,,,,,850.8184,859.4138,0,0,0,1,1,SoundStimuli/HeatWaves_GlassAnimals_Cover5S.wav,,,,,,,,,,,,,,,,,,,,,,,,,,,,,,,,,,,,,,,,,,,,,,,,,,,,,,,,,,
,,,,,019700,001,2024-06-17_07h55.28.614,experiment,2024.1.5,Win32,59.88023952,661f16434d4a84871e91d6db,667045947eb812cbdacbf325,66704e21e0fa5ca3ce84d2c0,,,,,,,,,,,,,,,,,,,,,,,,,,,,,,,,,,,,859.4217,865.53,0,1,1,0,1,SoundStimuli/HeatWaves_GlassAnimals_Original5S.wav,,,,,,,,,,,,,,,,,,,,,,,,,,,,,,,,,,,,,,,,,,,,,,,,,,,,,,,,,,
,,,,,019700,001,2024-06-17_07h55.28.614,experiment,2024.1.5,Win32,59.88023952,661f16434d4a84871e91d6db,667045947eb812cbdacbf325,66704e21e0fa5ca3ce84d2c0,,,,,,,,,,,,,,,,,,,,,,,,,,,,,,,,,,,,,,,,,,,,865.5304,867.7463,5.150000254,2.2046,0,18,18,10,1,song_indices/HeatWaves_GlassAnimals.csv,,,,,,,,,,,,,,,,,,,,,,,,,,,,,,,,,,,,,,,,,,,,,,,,
,,,,,019700,001,2024-06-17_07h55.28.614,experiment,2024.1.5,Win32,59.88023952,661f16434d4a84871e91d6db,667045947eb812cbdacbf325,66704e21e0fa5ca3ce84d2c0,,,,,,,,,,,,,,,,,,,,,,,,,,,,,,,,,,,,867.7492,874.0619,0,0,0,0,1,SoundStimuli/BridgeOverTroubledWater_SimonAndGarfunkel_Original5S.wav,,,,,,,,,,,,,,,,,,,,,,,,,,,,,,,,,,,,,,,,,,,,,,,,,,,,,,,,,,
,,,,,019700,001,2024-06-17_07h55.28.614,experiment,2024.1.5,Win32,59.88023952,661f16434d4a84871e91d6db,667045947eb812cbdacbf325,66704e21e0fa5ca3ce84d2c0,,,,,,,,,,,,,,,,,,,,,,,,,,,,,,,,,,,,874.0684,880.7677,0,1,1,1,1,SoundStimuli/BridgeOverTroubledWater_SimonAndGarfunkel_Cover5S.wav,,,,,,,,,,,,,,,,,,,,,,,,,,,,,,,,,,,,,,,,,,,,,,,,,,,,,,,,,,
,,,,,019700,001,2024-06-17_07h55.28.614,experiment,2024.1.5,Win32,59.88023952,661f16434d4a84871e91d6db,667045947eb812cbdacbf325,66704e21e0fa5ca3ce84d2c0,,,,,,,,,,,,,,,,,,,,,,,,,,,,,,,,,,,,,,,,,,,,880.7677,886.2174,5.150000254,5.4436,0,19,19,1,1,song_indices/BridgeOverTroubledWater_SimonAndGarfunkel.csv,,,,,,,,,,,,,,,,,,,,,,,,,,,,,,,,,,,,,,,,,,,,,,,,
,,,,,019700,001,2024-06-17_07h55.28.614,experiment,2024.1.5,Win32,59.88023952,661f16434d4a84871e91d6db,667045947eb812cbdacbf325,66704e21e0fa5ca3ce84d2c0,,,,,,,,,,,,,,,,,,,,,,,,,,,,,,,,,,,,886.2179,893.7091,0,0,0,1,1,SoundStimuli/BadDay_DanielPowter_Cover5S.wav,,,,,,,,,,,,,,,,,,,,,,,,,,,,,,,,,,,,,,,,,,,,,,,,,,,,,,,,,,
,,,,,019700,001,2024-06-17_07h55.28.614,experiment,2024.1.5,Win32,59.88023952,661f16434d4a84871e91d6db,667045947eb812cbdacbf325,66704e21e0fa5ca3ce84d2c0,,,,,,,,,,,,,,,,,,,,,,,,,,,,,,,,,,,,893.7164,900.1572,0,1,1,0,1,SoundStimuli/BadDay_DanielPowter_Original5S.wav,,,,,,,,,,,,,,,,,,,,,,,,,,,,,,,,,,,,,,,,,,,,,,,,,,,,,,,,,,
,,,,,019700,001,2024-06-17_07h55.28.614,experiment,2024.1.5,Win32,59.88023952,661f16434d4a84871e91d6db,667045947eb812cbdacbf325,66704e21e0fa5ca3ce84d2c0,,,,,,,,,,,,,,,,,,,,,,,,,,,,,,,,,,,,,,,,,,,,900.1577,902.707,5.150000254,2.5406,0,20,20,22,1,song_indices/BadDay_DanielPowter.csv,,,,,,,,,,,,,,,,,,,,,,,,,,,,,,,,,,,,,,,,,,,,,,,,
,,,,,019700,001,2024-06-17_07h55.28.614,experiment,2024.1.5,Win32,59.88023952,661f16434d4a84871e91d6db,667045947eb812cbdacbf325,66704e21e0fa5ca3ce84d2c0,,,,,,,,,,,,,,,,,,,,,,,,,,,,,,,,,,,,902.7091,908.8397,0,0,0,0,1,SoundStimuli/StrawberryFieldsForever_TheBeatles_Original5S.wav,,,,,,,,,,,,,,,,,,,,,,,,,,,,,,,,,,,,,,,,,,,,,,,,,,,,,,,,,,
,,,,,019700,001,2024-06-17_07h55.28.614,experiment,2024.1.5,Win32,59.88023952,661f16434d4a84871e91d6db,667045947eb812cbdacbf325,66704e21e0fa5ca3ce84d2c0,,,,,,,,,,,,,,,,,,,,,,,,,,,,,,,,,,,,908.8466,915.8721,0,1,1,1,1,SoundStimuli/StrawberryFieldsForever_TheBeatles_Cover5S.wav,,,,,,,,,,,,,,,,,,,,,,,,,,,,,,,,,,,,,,,,,,,,,,,,,,,,,,,,,,
,,,,,019700,001,2024-06-17_07h55.28.614,experiment,2024.1.5,Win32,59.88023952,661f16434d4a84871e91d6db,667045947eb812cbdacbf325,66704e21e0fa5ca3ce84d2c0,,,,,,,,,,,,,,,,,,,,,,,,,,,,,,,,,,,,,,,,,,,,915.8727,916.7379,1.950000127,0.8502,0,21,21,14,1,song_indices/StrawberryFieldsForever_TheBeatles.csv,,,,,,,,,,,,,,,,,,,,,,,,,,,,,,,,,,,,,,,,,,,,,,,,
,,,,,019700,001,2024-06-17_07h55.28.614,experiment,2024.1.5,Win32,59.88023952,661f16434d4a84871e91d6db,667045947eb812cbdacbf325,66704e21e0fa5ca3ce84d2c0,,,,,,,,,,,,,,,,,,,,,,,,,,,,,,,,,,,,916.7414,923.0042,0,0,0,1,1,SoundStimuli/MackTheKnife_BobbyDarin_Cover5S.wav,,,,,,,,,,,,,,,,,,,,,,,,,,,,,,,,,,,,,,,,,,,,,,,,,,,,,,,,,,
,,,,,019700,001,2024-06-17_07h55.28.614,experiment,2024.1.5,Win32,59.88023952,661f16434d4a84871e91d6db,667045947eb812cbdacbf325,66704e21e0fa5ca3ce84d2c0,,,,,,,,,,,,,,,,,,,,,,,,,,,,,,,,,,,,923.0119,929.1544,0,1,1,0,1,SoundStimuli/MackTheKnife_BobbyDarin_Original5S.wav,,,,,,,,,,,,,,,,,,,,,,,,,,,,,,,,,,,,,,,,,,,,,,,,,,,,,,,,,,
,,,,,019700,001,2024-06-17_07h55.28.614,experiment,2024.1.5,Win32,59.88023952,661f16434d4a84871e91d6db,667045947eb812cbdacbf325,66704e21e0fa5ca3ce84d2c0,,,,,,,,,,,,,,,,,,,,,,,,,,,,,,,,,,,,,,,,,,,,929.1549,931.6363,1.25,2.4705,0,22,22,21,1,song_indices/MackTheKnife_BobbyDarin.csv,,,,,,,,,,,,,,,,,,,,,,,,,,,,,,,,,,,,,,,,,,,,,,,,
,,,,,019700,001,2024-06-17_07h55.28.614,experiment,2024.1.5,Win32,59.88023952,661f16434d4a84871e91d6db,667045947eb812cbdacbf325,66704e21e0fa5ca3ce84d2c0,,,,,,,,,,,,,,,,,,,,,,,,,,,,,,,,,,,,,,,,,,,,,,,,,,,,,,931.6366,935.1024,space,3.4413,,0,1,1,0,1,choose_song_b1.csv,,,,,,,,,,,,,,,,,,,,,,,,,,,,,,,,,,,,,
,,,,,019700,001,2024-06-17_07h55.28.614,experiment,2024.1.5,Win32,59.88023952,661f16434d4a84871e91d6db,667045947eb812cbdacbf325,66704e21e0fa5ca3ce84d2c0,,,,,,,,,,,,,,,,,,,,,,,,,,,,,,,,,,,,935.1104,941.3675,0,0,0,0,1,SoundStimuli/ItsAllInTheGame_TommyEdwards_Original5S.wav,,,,,,,,,,,,,,,,,,,,,,,,,,,,,,,,,,,,,,,,,,,,,,,,,,,,,,,,,,
,,,,,019700,001,2024-06-17_07h55.28.614,experiment,2024.1.5,Win32,59.88023952,661f16434d4a84871e91d6db,667045947eb812cbdacbf325,66704e21e0fa5ca3ce84d2c0,,,,,,,,,,,,,,,,,,,,,,,,,,,,,,,,,,,,941.3749,947.6168,0,1,1,1,1,SoundStimuli/ItsAllInTheGame_TommyEdwards_Cover5S.wav,,,,,,,,,,,,,,,,,,,,,,,,,,,,,,,,,,,,,,,,,,,,,,,,,,,,,,,,,,
,,,,,019700,001,2024-06-17_07h55.28.614,experiment,2024.1.5,Win32,59.88023952,661f16434d4a84871e91d6db,667045947eb812cbdacbf325,66704e21e0fa5ca3ce84d2c0,,,,,,,,,,,,,,,,,,,,,,,,,,,,,,,,,,,,,,,,,,,,947.6172,951.7327,1.438888974,4.1045,0,0,0,13,1,song_indices/ItsAllInTheGame_TommyEdwards.csv,,,,,,,,,,,,,,,,,,,,,,,,,,,,,,,,,,,,,,,,,,,,,,,,
,,,,,019700,001,2024-06-17_07h55.28.614,experiment,2024.1.5,Win32,59.88023952,661f16434d4a84871e91d6db,667045947eb812cbdacbf325,66704e21e0fa5ca3ce84d2c0,,,,,,,,,,,,,,,,,,,,,,,,,,,,,,,,,,,,951.7352,961.9813,0,0,0,1,1,SoundStimuli/CrazyInLove_BeyonceFtJayZ_Cover5S.wav,,,,,,,,,,,,,,,,,,,,,,,,,,,,,,,,,,,,,,,,,,,,,,,,,,,,,,,,,,
,,,,,019700,001,2024-06-17_07h55.28.614,experiment,2024.1.5,Win32,59.88023952,661f16434d4a84871e91d6db,667045947eb812cbdacbf325,66704e21e0fa5ca3ce84d2c0,,,,,,,,,,,,,,,,,,,,,,,,,,,,,,,,,,,,961.9887,968.5301,0,1,1,0,1,SoundStimuli/CrazyInLove_BeyonceFtJayZ_Original5S.wav,,,,,,,,,,,,,,,,,,,,,,,,,,,,,,,,,,,,,,,,,,,,,,,,,,,,,,,,,,
,,,,,019700,001,2024-06-17_07h55.28.614,experiment,2024.1.5,Win32,59.88023952,661f16434d4a84871e91d6db,667045947eb812cbdacbf325,66704e21e0fa5ca3ce84d2c0,,,,,,,,,,,,,,,,,,,,,,,,,,,,,,,,,,,,,,,,,,,,968.5306,972.2123,1.961111069,3.6675,0,1,1,3,1,song_indices/CrazyInLove_BeyonceFtJayZ.csv,,,,,,,,,,,,,,,,,,,,,,,,,,,,,,,,,,,,,,,,,,,,,,,,
,,,,,019700,001,2024-06-17_07h55.28.614,experiment,2024.1.5,Win32,59.88023952,661f16434d4a84871e91d6db,667045947eb812cbdacbf325,66704e21e0fa5ca3ce84d2c0,,,,,,,,,,,,,,,,,,,,,,,,,,,,,,,,,,,,972.2153,978.9953,0,0,0,1,1,SoundStimuli/PartyRockAnthem_LMFAO_Cover5S.wav,,,,,,,,,,,,,,,,,,,,,,,,,,,,,,,,,,,,,,,,,,,,,,,,,,,,,,,,,,
,,,,,019700,001,2024-06-17_07h55.28.614,experiment,2024.1.5,Win32,59.88023952,661f16434d4a84871e91d6db,667045947eb812cbdacbf325,66704e21e0fa5ca3ce84d2c0,,,,,,,,,,,,,,,,,,,,,,,,,,,,,,,,,,,,979.0087,985.7436,0,1,1,0,1,SoundStimuli/PartyRockAnthem_LMFAO_Original5S.wav,,,,,,,,,,,,,,,,,,,,,,,,,,,,,,,,,,,,,,,,,,,,,,,,,,,,,,,,,,
,,,,,019700,001,2024-06-17_07h55.28.614,experiment,2024.1.5,Win32,59.88023952,661f16434d4a84871e91d6db,667045947eb812cbdacbf325,66704e21e0fa5ca3ce84d2c0,,,,,,,,,,,,,,,,,,,,,,,,,,,,,,,,,,,,,,,,,,,,985.7442,992.2754,2.522222307,6.522,0,2,2,2,1,song_indices/PartyRockAnthem_LMFAO.csv,,,,,,,,,,,,,,,,,,,,,,,,,,,,,,,,,,,,,,,,,,,,,,,,
,,,,,019700,001,2024-06-17_07h55.28.614,experiment,2024.1.5,Win32,59.88023952,661f16434d4a84871e91d6db,667045947eb812cbdacbf325,66704e21e0fa5ca3ce84d2c0,,,,,,,,,,,,,,,,,,,,,,,,,,,,,,,,,,,,992.2776,998.3449,0,0,0,1,1,SoundStimuli/RockWithYou_MichaelJackson_Cover5S.wav,,,,,,,,,,,,,,,,,,,,,,,,,,,,,,,,,,,,,,,,,,,,,,,,,,,,,,,,,,
,,,,,019700,001,2024-06-17_07h55.28.614,experiment,2024.1.5,Win32,59.88023952,661f16434d4a84871e91d6db,667045947eb812cbdacbf325,66704e21e0fa5ca3ce84d2c0,,,,,,,,,,,,,,,,,,,,,,,,,,,,,,,,,,,,998.3512,1004.6743,0,1,1,0,1,SoundStimuli/RockWithYou_MichaelJackson_Original5S.wav,,,,,,,,,,,,,,,,,,,,,,,,,,,,,,,,,,,,,,,,,,,,,,,,,,,,,,,,,,
,,,,,019700,001,2024-06-17_07h55.28.614,experiment,2024.1.5,Win32,59.88023952,661f16434d4a84871e91d6db,667045947eb812cbdacbf325,66704e21e0fa5ca3ce84d2c0,,,,,,,,,,,,,,,,,,,,,,,,,,,,,,,,,,,,,,,,,,,,1004.6748,1007.2395,4.872222477,2.557,0,3,3,16,1,song_indices/RockWithYou_MichaelJackson.csv,,,,,,,,,,,,,,,,,,,,,,,,,,,,,,,,,,,,,,,,,,,,,,,,
,,,,,019700,001,2024-06-17_07h55.28.614,experiment,2024.1.5,Win32,59.88023952,661f16434d4a84871e91d6db,667045947eb812cbdacbf325,66704e21e0fa5ca3ce84d2c0,,,,,,,,,,,,,,,,,,,,,,,,,,,,,,,,,,,,1007.2415,1014.6116,0,0,0,0,1,SoundStimuli/Happy_PharellWilliams_Original5S.wav,,,,,,,,,,,,,,,,,,,,,,,,,,,,,,,,,,,,,,,,,,,,,,,,,,,,,,,,,,
,,,,,019700,001,2024-06-17_07h55.28.614,experiment,2024.1.5,Win32,59.88023952,661f16434d4a84871e91d6db,667045947eb812cbdacbf325,66704e21e0fa5ca3ce84d2c0,,,,,,,,,,,,,,,,,,,,,,,,,,,,,,,,,,,,1014.6181,1021.9713,0,1,1,1,1,SoundStimuli/Happy_PharellWilliams_Cover5S.wav,,,,,,,,,,,,,,,,,,,,,,,,,,,,,,,,,,,,,,,,,,,,,,,,,,,,,,,,,,
,,,,,019700,001,2024-06-17_07h55.28.614,experiment,2024.1.5,Win32,59.88023952,661f16434d4a84871e91d6db,667045947eb812cbdacbf325,66704e21e0fa5ca3ce84d2c0,,,,,,,,,,,,,,,,,,,,,,,,,,,,,,,,,,,,,,,,,,,,1021.9717,1023.4374,4.872222477,1.4566,0,4,4,7,1,song_indices/Happy_PharellWilliams.csv,,,,,,,,,,,,,,,,,,,,,,,,,,,,,,,,,,,,,,,,,,,,,,,,
,,,,,019700,001,2024-06-17_07h55.28.614,experiment,2024.1.5,Win32,59.88023952,661f16434d4a84871e91d6db,667045947eb812cbdacbf325,66704e21e0fa5ca3ce84d2c0,,,,,,,,,,,,,,,,,,,,,,,,,,,,,,,,,,,,1023.4396,1029.4698,0,0,0,1,1,SoundStimuli/StandByMe_BenEKing_Cover5S.wav,,,,,,,,,,,,,,,,,,,,,,,,,,,,,,,,,,,,,,,,,,,,,,,,,,,,,,,,,,
,,,,,019700,001,2024-06-17_07h55.28.614,experiment,2024.1.5,Win32,59.88023952,661f16434d4a84871e91d6db,667045947eb812cbdacbf325,66704e21e0fa5ca3ce84d2c0,,,,,,,,,,,,,,,,,,,,,,,,,,,,,,,,,,,,1029.4766,1035.4017,0,1,1,0,1,SoundStimuli/StandByMe_BenEKing_Original5S.wav,,,,,,,,,,,,,,,,,,,,,,,,,,,,,,,,,,,,,,,,,,,,,,,,,,,,,,,,,,
,,,,,019700,001,2024-06-17_07h55.28.614,experiment,2024.1.5,Win32,59.88023952,661f16434d4a84871e91d6db,667045947eb812cbdacbf325,66704e21e0fa5ca3ce84d2c0,,,,,,,,,,,,,,,,,,,,,,,,,,,,,,,,,,,,,,,,,,,,1035.4022,1037.8347,5.533333249,2.4218,0,5,5,1,1,song_indices/StandByMe_BenEKing.csv,,,,,,,,,,,,,,,,,,,,,,,,,,,,,,,,,,,,,,,,,,,,,,,,
,,,,,019700,001,2024-06-17_07h55.28.614,experiment,2024.1.5,Win32,59.88023952,661f16434d4a84871e91d6db,667045947eb812cbdacbf325,66704e21e0fa5ca3ce84d2c0,,,,,,,,,,,,,,,,,,,,,,,,,,,,,,,,,,,,1037.8374,1043.9337,0,0,0,0,1,SoundStimuli/GimmeShelter_RollingStones_Original5S.wav,,,,,,,,,,,,,,,,,,,,,,,,,,,,,,,,,,,,,,,,,,,,,,,,,,,,,,,,,,
,,,,,019700,001,2024-06-17_07h55.28.614,experiment,2024.1.5,Win32,59.88023952,661f16434d4a84871e91d6db,667045947eb812cbdacbf325,66704e21e0fa5ca3ce84d2c0,,,,,,,,,,,,,,,,,,,,,,,,,,,,,,,,,,,,1043.9408,1050.1492,0,1,1,1,1,SoundStimuli/GimmeShelter_RollingStones_Cover5S.wav,,,,,,,,,,,,,,,,,,,,,,,,,,,,,,,,,,,,,,,,,,,,,,,,,,,,,,,,,,
,,,,,019700,001,2024-06-17_07h55.28.614,experiment,2024.1.5,Win32,59.88023952,661f16434d4a84871e91d6db,667045947eb812cbdacbf325,66704e21e0fa5ca3ce84d2c0,,,,,,,,,,,,,,,,,,,,,,,,,,,,,,,,,,,,,,,,,,,,1050.1494,1052.283,4.588888804,2.1178,0,6,6,20,1,song_indices/GimmeShelter_RollingStones.csv,,,,,,,,,,,,,,,,,,,,,,,,,,,,,,,,,,,,,,,,,,,,,,,,
,,,,,019700,001,2024-06-17_07h55.28.614,experiment,2024.1.5,Win32,59.88023952,661f16434d4a84871e91d6db,667045947eb812cbdacbf325,66704e21e0fa5ca3ce84d2c0,,,,,,,,,,,,,,,,,,,,,,,,,,,,,,,,,,,,1052.2853,1058.4985,0,0,0,0,1,SoundStimuli/TheBoyIsMine_BrandyMonica_Original5S.wav,,,,,,,,,,,,,,,,,,,,,,,,,,,,,,,,,,,,,,,,,,,,,,,,,,,,,,,,,,
,,,,,019700,001,2024-06-17_07h55.28.614,experiment,2024.1.5,Win32,59.88023952,661f16434d4a84871e91d6db,667045947eb812cbdacbf325,66704e21e0fa5ca3ce84d2c0,,,,,,,,,,,,,,,,,,,,,,,,,,,,,,,,,,,,1058.5055,1064.4478,0,1,1,1,1,SoundStimuli/TheBoyIsMine_BrandyMonica_Cover5S.wav,,,,,,,,,,,,,,,,,,,,,,,,,,,,,,,,,,,,,,,,,,,,,,,,,,,,,,,,,,
,,,,,019700,001,2024-06-17_07h55.28.614,experiment,2024.1.5,Win32,59.88023952,661f16434d4a84871e91d6db,667045947eb812cbdacbf325,66704e21e0fa5ca3ce84d2c0,,,,,,,,,,,,,,,,,,,,,,,,,,,,,,,,,,,,,,,,,,,,1064.4483,1066.2813,6.888888889,1.8222,0,7,7,6,1,song_indices/TheBoyIsMine_BrandyMonica.csv,,,,,,,,,,,,,,,,,,,,,,,,,,,,,,,,,,,,,,,,,,,,,,,,
,,,,,019700,001,2024-06-17_07h55.28.614,experiment,2024.1.5,Win32,59.88023952,661f16434d4a84871e91d6db,667045947eb812cbdacbf325,66704e21e0fa5ca3ce84d2c0,,,,,,,,,,,,,,,,,,,,,,,,,,,,,,,,,,,,1066.2833,1072.3629,0,0,0,0,1,SoundStimuli/GetUrFreakOn_MissyElliot_Original5S.wav,,,,,,,,,,,,,,,,,,,,,,,,,,,,,,,,,,,,,,,,,,,,,,,,,,,,,,,,,,
,,,,,019700,001,2024-06-17_07h55.28.614,experiment,2024.1.5,Win32,59.88023952,661f16434d4a84871e91d6db,667045947eb812cbdacbf325,66704e21e0fa5ca3ce84d2c0,,,,,,,,,,,,,,,,,,,,,,,,,,,,,,,,,,,,1072.3695,1078.9447,0,1,1,1,1,SoundStimuli/GetUrFreakOn_MissyElliot_Cover5S.wav,,,,,,,,,,,,,,,,,,,,,,,,,,,,,,,,,,,,,,,,,,,,,,,,,,,,,,,,,,
,,,,,019700,001,2024-06-17_07h55.28.614,experiment,2024.1.5,Win32,59.88023952,661f16434d4a84871e91d6db,667045947eb812cbdacbf325,66704e21e0fa5ca3ce84d2c0,,,,,,,,,,,,,,,,,,,,,,,,,,,,,,,,,,,,,,,,,,,,1078.9454,1081.5624,5.716666751,2.6086,0,8,8,18,1,song_indices/GetUrFreakOn_MissyElliot.csv,,,,,,,,,,,,,,,,,,,,,,,,,,,,,,,,,,,,,,,,,,,,,,,,
,,,,,019700,001,2024-06-17_07h55.28.614,experiment,2024.1.5,Win32,59.88023952,661f16434d4a84871e91d6db,667045947eb812cbdacbf325,66704e21e0fa5ca3ce84d2c0,,,,,,,,,,,,,,,,,,,,,,,,,,,,,,,,,,,,1081.5637,1090.4758,0,0,0,1,1,SoundStimuli/HeyYa_Outkast_Cover5S.wav,,,,,,,,,,,,,,,,,,,,,,,,,,,,,,,,,,,,,,,,,,,,,,,,,,,,,,,,,,
,,,,,019700,001,2024-06-17_07h55.28.614,experiment,2024.1.5,Win32,59.88023952,661f16434d4a84871e91d6db,667045947eb812cbdacbf325,66704e21e0fa5ca3ce84d2c0,,,,,,,,,,,,,,,,,,,,,,,,,,,,,,,,,,,,1090.4831,1096.7819,0,1,1,0,1,SoundStimuli/HeyYa_Outkast_Original5S.wav,,,,,,,,,,,,,,,,,,,,,,,,,,,,,,,,,,,,,,,,,,,,,,,,,,,,,,,,,,
,,,,,019700,001,2024-06-17_07h55.28.614,experiment,2024.1.5,Win32,59.88023952,661f16434d4a84871e91d6db,667045947eb812cbdacbf325,66704e21e0fa5ca3ce84d2c0,,,,,,,,,,,,,,,,,,,,,,,,,,,,,,,,,,,,,,,,,,,,1096.7821,1100.0412,4.483333588,3.2486,0,9,9,22,1,song_indices/HeyYa_Outkast.csv,,,,,,,,,,,,,,,,,,,,,,,,,,,,,,,,,,,,,,,,,,,,,,,,
,,,,,019700,001,2024-06-17_07h55.28.614,experiment,2024.1.5,Win32,59.88023952,661f16434d4a84871e91d6db,667045947eb812cbdacbf325,66704e21e0fa5ca3ce84d2c0,,,,,,,,,,,,,,,,,,,,,,,,,,,,,,,,,,,,1100.0438,1106.5072,0,0,0,0,1,SoundStimuli/ShapeofYou_EdSheeran_Original5S.wav,,,,,,,,,,,,,,,,,,,,,,,,,,,,,,,,,,,,,,,,,,,,,,,,,,,,,,,,,,
,,,,,019700,001,2024-06-17_07h55.28.614,experiment,2024.1.5,Win32,59.88023952,661f16434d4a84871e91d6db,667045947eb812cbdacbf325,66704e21e0fa5ca3ce84d2c0,,,,,,,,,,,,,,,,,,,,,,,,,,,,,,,,,,,,1106.5146,1112.8298,0,1,1,1,1,SoundStimuli/ShapeofYou_EdSheeran_Cover5S.wav,,,,,,,,,,,,,,,,,,,,,,,,,,,,,,,,,,,,,,,,,,,,,,,,,,,,,,,,,,
,,,,,019700,001,2024-06-17_07h55.28.614,experiment,2024.1.5,Win32,59.88023952,661f16434d4a84871e91d6db,667045947eb812cbdacbf325,66704e21e0fa5ca3ce84d2c0,,,,,,,,,,,,,,,,,,,,,,,,,,,,,,,,,,,,,,,,,,,,1112.8299,1115.9555,4.966666751,3.1158,0,10,10,21,1,song_indices/ShapeofYou_EdSheeran.csv,,,,,,,,,,,,,,,,,,,,,,,,,,,,,,,,,,,,,,,,,,,,,,,,
,,,,,019700,001,2024-06-17_07h55.28.614,experiment,2024.1.5,Win32,59.88023952,661f16434d4a84871e91d6db,667045947eb812cbdacbf325,66704e21e0fa5ca3ce84d2c0,,,,,,,,,,,,,,,,,,,,,,,,,,,,,,,,,,,,1115.9579,1121.8586,0,0,0,0,1,SoundStimuli/EyeOfTheTiger_Survivor_Original5S.wav,,,,,,,,,,,,,,,,,,,,,,,,,,,,,,,,,,,,,,,,,,,,,,,,,,,,,,,,,,
,,,,,019700,001,2024-06-17_07h55.28.614,experiment,2024.1.5,Win32,59.88023952,661f16434d4a84871e91d6db,667045947eb812cbdacbf325,66704e21e0fa5ca3ce84d2c0,,,,,,,,,,,,,,,,,,,,,,,,,,,,,,,,,,,,1121.8655,1127.9879,0,1,1,1,1,SoundStimuli/EyeOfTheTiger_Survivor_Cover5S.wav,,,,,,,,,,,,,,,,,,,,,,,,,,,,,,,,,,,,,,,,,,,,,,,,,,,,,,,,,,
,,,,,019700,001,2024-06-17_07h55.28.614,experiment,2024.1.5,Win32,59.88023952,661f16434d4a84871e91d6db,667045947eb812cbdacbf325,66704e21e0fa5ca3ce84d2c0,,,,,,,,,,,,,,,,,,,,,,,,,,,,,,,,,,,,,,,,,,,,1127.9887,1131.1193,4.966666751,3.1167,0,11,11,11,1,song_indices/EyeOfTheTiger_Survivor.csv,,,,,,,,,,,,,,,,,,,,,,,,,,,,,,,,,,,,,,,,,,,,,,,,
,,,,,019700,001,2024-06-17_07h55.28.614,experiment,2024.1.5,Win32,59.88023952,661f16434d4a84871e91d6db,667045947eb812cbdacbf325,66704e21e0fa5ca3ce84d2c0,,,,,,,,,,,,,,,,,,,,,,,,,,,,,,,,,,,,1131.1225,1137.3356,0,0,0,0,1,SoundStimuli/TheBattleOfNewOrleans_JohnnyHorton_Original5S.wav,,,,,,,,,,,,,,,,,,,,,,,,,,,,,,,,,,,,,,,,,,,,,,,,,,,,,,,,,,
,,,,,019700,001,2024-06-17_07h55.28.614,experiment,2024.1.5,Win32,59.88023952,661f16434d4a84871e91d6db,667045947eb812cbdacbf325,66704e21e0fa5ca3ce84d2c0,,,,,,,,,,,,,,,,,,,,,,,,,,,,,,,,,,,,1137.343,1145.3177,0,1,1,1,1,SoundStimuli/TheBattleOfNewOrleans_JohnnyHorton_Cover5S.wav,,,,,,,,,,,,,,,,,,,,,,,,,,,,,,,,,,,,,,,,,,,,,,,,,,,,,,,,,,
,,,,,019700,001,2024-06-17_07h55.28.614,experiment,2024.1.5,Win32,59.88023952,661f16434d4a84871e91d6db,667045947eb812cbdacbf325,66704e21e0fa5ca3ce84d2c0,,,,,,,,,,,,,,,,,,,,,,,,,,,,,,,,,,,,,,,,,,,,1145.3181,1150.2999,4.150000254,4.966,0,12,12,4,1,song_indices/TheBattleOfNewOrleans_JohnnyHorton.csv,,,,,,,,,,,,,,,,,,,,,,,,,,,,,,,,,,,,,,,,,,,,,,,,
,,,,,019700,001,2024-06-17_07h55.28.614,experiment,2024.1.5,Win32,59.88023952,661f16434d4a84871e91d6db,667045947eb812cbdacbf325,66704e21e0fa5ca3ce84d2c0,,,,,,,,,,,,,,,,,,,,,,,,,,,,,,,,,,,,1150.3027,1156.665,0,0,0,1,1,SoundStimuli/GoodGollyMissMolly_LittleRichard_Cover5S.wav,,,,,,,,,,,,,,,,,,,,,,,,,,,,,,,,,,,,,,,,,,,,,,,,,,,,,,,,,,
,,,,,019700,001,2024-06-17_07h55.28.614,experiment,2024.1.5,Win32,59.88023952,661f16434d4a84871e91d6db,667045947eb812cbdacbf325,66704e21e0fa5ca3ce84d2c0,,,,,,,,,,,,,,,,,,,,,,,,,,,,,,,,,,,,1156.6724,1162.7319,0,1,1,0,1,SoundStimuli/GoodGollyMissMolly_LittleRichard_Original5S.wav,,,,,,,,,,,,,,,,,,,,,,,,,,,,,,,,,,,,,,,,,,,,,,,,,,,,,,,,,,
,,,,,019700,001,2024-06-17_07h55.28.614,experiment,2024.1.5,Win32,59.88023952,661f16434d4a84871e91d6db,667045947eb812cbdacbf325,66704e21e0fa5ca3ce84d2c0,,,,,,,,,,,,,,,,,,,,,,,,,,,,,,,,,,,,,,,,,,,,1162.7323,1167.2641,4.333333333,4.5247,0,13,13,0,1,song_indices/GoodGollyMissMolly_LittleRichard.csv,,,,,,,,,,,,,,,,,,,,,,,,,,,,,,,,,,,,,,,,,,,,,,,,
,,,,,019700,001,2024-06-17_07h55.28.614,experiment,2024.1.5,Win32,59.88023952,661f16434d4a84871e91d6db,667045947eb812cbdacbf325,66704e21e0fa5ca3ce84d2c0,,,,,,,,,,,,,,,,,,,,,,,,,,,,,,,,,,,,1167.2666,1174.4128,0,0,0,1,1,SoundStimuli/IWalkTheLine_JohnnyCash_Cover5S.wav,,,,,,,,,,,,,,,,,,,,,,,,,,,,,,,,,,,,,,,,,,,,,,,,,,,,,,,,,,
,,,,,019700,001,2024-06-17_07h55.28.614,experiment,2024.1.5,Win32,59.88023952,661f16434d4a84871e91d6db,667045947eb812cbdacbf325,66704e21e0fa5ca3ce84d2c0,,,,,,,,,,,,,,,,,,,,,,,,,,,,,,,,,,,,1174.4233,1180.3954,0,1,1,0,1,SoundStimuli/IWalkTheLine_JohnnyCash_Original5S.wav,,,,,,,,,,,,,,,,,,,,,,,,,,,,,,,,,,,,,,,,,,,,,,,,,,,,,,,,,,
,,,,,019700,001,2024-06-17_07h55.28.614,experiment,2024.1.5,Win32,59.88023952,661f16434d4a84871e91d6db,667045947eb812cbdacbf325,66704e21e0fa5ca3ce84d2c0,,,,,,,,,,,,,,,,,,,,,,,,,,,,,,,,,,,,,,,,,,,,1180.3958,1181.828,1.833333333,1.4154,0,14,14,17,1,song_indices/IWalkTheLine_JohnnyCash.csv,,,,,,,,,,,,,,,,,,,,,,,,,,,,,,,,,,,,,,,,,,,,,,,,
,,,,,019700,001,2024-06-17_07h55.28.614,experiment,2024.1.5,Win32,59.88023952,661f16434d4a84871e91d6db,667045947eb812cbdacbf325,66704e21e0fa5ca3ce84d2c0,,,,,,,,,,,,,,,,,,,,,,,,,,,,,,,,,,,,1181.8302,1189.0632,0,0,0,0,1,SoundStimuli/UptownFunk_MarkRonson_Original5S.wav,,,,,,,,,,,,,,,,,,,,,,,,,,,,,,,,,,,,,,,,,,,,,,,,,,,,,,,,,,
,,,,,019700,001,2024-06-17_07h55.28.614,experiment,2024.1.5,Win32,59.88023952,661f16434d4a84871e91d6db,667045947eb812cbdacbf325,66704e21e0fa5ca3ce84d2c0,,,,,,,,,,,,,,,,,,,,,,,,,,,,,,,,,,,,1189.0693,1196.0994,0,1,1,1,1,SoundStimuli/UptownFunk_MarkRonson_Cover5S.wav,,,,,,,,,,,,,,,,,,,,,,,,,,,,,,,,,,,,,,,,,,,,,,,,,,,,,,,,,,
,,,,,019700,001,2024-06-17_07h55.28.614,experiment,2024.1.5,Win32,59.88023952,661f16434d4a84871e91d6db,667045947eb812cbdacbf325,66704e21e0fa5ca3ce84d2c0,,,,,,,,,,,,,,,,,,,,,,,,,,,,,,,,,,,,,,,,,,,,1196.0996,1198.5261,6.972222222,2.4166,0,15,15,15,1,song_indices/UptownFunk_MarkRonson.csv,,,,,,,,,,,,,,,,,,,,,,,,,,,,,,,,,,,,,,,,,,,,,,,,
,,,,,019700,001,2024-06-17_07h55.28.614,experiment,2024.1.5,Win32,59.88023952,661f16434d4a84871e91d6db,667045947eb812cbdacbf325,66704e21e0fa5ca3ce84d2c0,,,,,,,,,,,,,,,,,,,,,,,,,,,,,,,,,,,,1198.5285,1204.7411,0,0,0,0,1,SoundStimuli/SmellsLikeTeenSpirit_Nirvana_Original5S.wav,,,,,,,,,,,,,,,,,,,,,,,,,,,,,,,,,,,,,,,,,,,,,,,,,,,,,,,,,,
,,,,,019700,001,2024-06-17_07h55.28.614,experiment,2024.1.5,Win32,59.88023952,661f16434d4a84871e91d6db,667045947eb812cbdacbf325,66704e21e0fa5ca3ce84d2c0,,,,,,,,,,,,,,,,,,,,,,,,,,,,,,,,,,,,1204.7487,1210.5233,0,1,1,1,1,SoundStimuli/SmellsLikeTeenSpirit_Nirvana_Cover5S.wav,,,,,,,,,,,,,,,,,,,,,,,,,,,,,,,,,,,,,,,,,,,,,,,,,,,,,,,,,,
,,,,,019700,001,2024-06-17_07h55.28.614,experiment,2024.1.5,Win32,59.88023952,661f16434d4a84871e91d6db,667045947eb812cbdacbf325,66704e21e0fa5ca3ce84d2c0,,,,,,,,,,,,,,,,,,,,,,,,,,,,,,,,,,,,,,,,,,,,1210.5237,1212.6403,6.133333842,2.1041,0,16,16,8,1,song_indices/SmellsLikeTeenSpirit_Nirvana.csv,,,,,,,,,,,,,,,,,,,,,,,,,,,,,,,,,,,,,,,,,,,,,,,,
,,,,,019700,001,2024-06-17_07h55.28.614,experiment,2024.1.5,Win32,59.88023952,661f16434d4a84871e91d6db,667045947eb812cbdacbf325,66704e21e0fa5ca3ce84d2c0,,,,,,,,,,,,,,,,,,,,,,,,,,,,,,,,,,,,1212.6427,1218.705,0,0,0,0,1,SoundStimuli/Stronger_KanyeWest_Original5S.wav,,,,,,,,,,,,,,,,,,,,,,,,,,,,,,,,,,,,,,,,,,,,,,,,,,,,,,,,,,
,,,,,019700,001,2024-06-17_07h55.28.614,experiment,2024.1.5,Win32,59.88023952,661f16434d4a84871e91d6db,667045947eb812cbdacbf325,66704e21e0fa5ca3ce84d2c0,,,,,,,,,,,,,,,,,,,,,,,,,,,,,,,,,,,,1218.7153,1225.0382,0,1,1,1,1,SoundStimuli/Stronger_KanyeWest_Cover5S.wav,,,,,,,,,,,,,,,,,,,,,,,,,,,,,,,,,,,,,,,,,,,,,,,,,,,,,,,,,,
,,,,,019700,001,2024-06-17_07h55.28.614,experiment,2024.1.5,Win32,59.88023952,661f16434d4a84871e91d6db,667045947eb812cbdacbf325,66704e21e0fa5ca3ce84d2c0,,,,,,,,,,,,,,,,,,,,,,,,,,,,,,,,,,,,,,,,,,,,1225.0389,1230.0698,4.422222137,5.0095,0,17,17,9,1,song_indices/Stronger_KanyeWest.csv,,,,,,,,,,,,,,,,,,,,,,,,,,,,,,,,,,,,,,,,,,,,,,,,
,,,,,019700,001,2024-06-17_07h55.28.614,experiment,2024.1.5,Win32,59.88023952,661f16434d4a84871e91d6db,667045947eb812cbdacbf325,66704e21e0fa5ca3ce84d2c0,,,,,,,,,,,,,,,,,,,,,,,,,,,,,,,,,,,,1230.0719,1236.4696,0,0,0,0,1,SoundStimuli/IWillAlwaysLoveYou_WhitneyHouston_Original5S.wav,,,,,,,,,,,,,,,,,,,,,,,,,,,,,,,,,,,,,,,,,,,,,,,,,,,,,,,,,,
,,,,,019700,001,2024-06-17_07h55.28.614,experiment,2024.1.5,Win32,59.88023952,661f16434d4a84871e91d6db,667045947eb812cbdacbf325,66704e21e0fa5ca3ce84d2c0,,,,,,,,,,,,,,,,,,,,,,,,,,,,,,,,,,,,1236.4836,1242.3183,0,1,1,1,1,SoundStimuli/IWillAlwaysLoveYou_WhitneyHouston_Cover5S.wav,,,,,,,,,,,,,,,,,,,,,,,,,,,,,,,,,,,,,,,,,,,,,,,,,,,,,,,,,,
,,,,,019700,001,2024-06-17_07h55.28.614,experiment,2024.1.5,Win32,59.88023952,661f16434d4a84871e91d6db,667045947eb812cbdacbf325,66704e21e0fa5ca3ce84d2c0,,,,,,,,,,,,,,,,,,,,,,,,,,,,,,,,,,,,,,,,,,,,1242.3188,1248.0172,4.422222137,5.6887,0,18,18,10,1,song_indices/IWillAlwaysLoveYou_WhitneyHouston.csv,,,,,,,,,,,,,,,,,,,,,,,,,,,,,,,,,,,,,,,,,,,,,,,,
,,,,,019700,001,2024-06-17_07h55.28.614,experiment,2024.1.5,Win32,59.88023952,661f16434d4a84871e91d6db,667045947eb812cbdacbf325,66704e21e0fa5ca3ce84d2c0,,,,,,,,,,,,,,,,,,,,,,,,,,,,,,,,,,,,1248.0204,1255.756,0,0,0,0,1,SoundStimuli/NoOne_AliciaKeys_Original5S.wav,,,,,,,,,,,,,,,,,,,,,,,,,,,,,,,,,,,,,,,,,,,,,,,,,,,,,,,,,,
,,,,,019700,001,2024-06-17_07h55.28.614,experiment,2024.1.5,Win32,59.88023952,661f16434d4a84871e91d6db,667045947eb812cbdacbf325,66704e21e0fa5ca3ce84d2c0,,,,,,,,,,,,,,,,,,,,,,,,,,,,,,,,,,,,1255.7774,1261.9981,0,1,1,1,1,SoundStimuli/NoOne_AliciaKeys_Cover5S.wav,,,,,,,,,,,,,,,,,,,,,,,,,,,,,,,,,,,,,,,,,,,,,,,,,,,,,,,,,,
,,,,,019700,001,2024-06-17_07h55.28.614,experiment,2024.1.5,Win32,59.88023952,661f16434d4a84871e91d6db,667045947eb812cbdacbf325,66704e21e0fa5ca3ce84d2c0,,,,,,,,,,,,,,,,,,,,,,,,,,,,,,,,,,,,,,,,,,,,1261.9982,1266.1311,3.511111365,4.1195,0,19,19,19,1,song_indices/NoOne_AliciaKeys.csv,,,,,,,,,,,,,,,,,,,,,,,,,,,,,,,,,,,,,,,,,,,,,,,,
,,,,,019700,001,2024-06-17_07h55.28.614,experiment,2024.1.5,Win32,59.88023952,661f16434d4a84871e91d6db,667045947eb812cbdacbf325,66704e21e0fa5ca3ce84d2c0,,,,,,,,,,,,,,,,,,,,,,,,,,,,,,,,,,,,1266.1342,1271.8307,0,0,0,1,1,SoundStimuli/BetteDavisEyes_KimCarnes_Cover5S.wav,,,,,,,,,,,,,,,,,,,,,,,,,,,,,,,,,,,,,,,,,,,,,,,,,,,,,,,,,,
,,,,,019700,001,2024-06-17_07h55.28.614,experiment,2024.1.5,Win32,59.88023952,661f16434d4a84871e91d6db,667045947eb812cbdacbf325,66704e21e0fa5ca3ce84d2c0,,,,,,,,,,,,,,,,,,,,,,,,,,,,,,,,,,,,1271.8379,1278.0455,0,1,1,0,1,SoundStimuli/BetteDavisEyes_KimCarnes_Original5S.wav,,,,,,,,,,,,,,,,,,,,,,,,,,,,,,,,,,,,,,,,,,,,,,,,,,,,,,,,,,
,,,,,019700,001,2024-06-17_07h55.28.614,experiment,2024.1.5,Win32,59.88023952,661f16434d4a84871e91d6db,667045947eb812cbdacbf325,66704e21e0fa5ca3ce84d2c0,,,,,,,,,,,,,,,,,,,,,,,,,,,,,,,,,,,,,,,,,,,,1278.0468,1285.0446,3.949999915,6.9813,0,20,20,5,1,song_indices/BetteDavisEyes_KimCarnes.csv,,,,,,,,,,,,,,,,,,,,,,,,,,,,,,,,,,,,,,,,,,,,,,,,
,,,,,019700,001,2024-06-17_07h55.28.614,experiment,2024.1.5,Win32,59.88023952,661f16434d4a84871e91d6db,667045947eb812cbdacbf325,66704e21e0fa5ca3ce84d2c0,,,,,,,,,,,,,,,,,,,,,,,,,,,,,,,,,,,,1285.0475,1291.1772,0,0,0,1,1,SoundStimuli/NoScrubs_TLC_Cover5S.wav,,,,,,,,,,,,,,,,,,,,,,,,,,,,,,,,,,,,,,,,,,,,,,,,,,,,,,,,,,
,,,,,019700,001,2024-06-17_07h55.28.614,experiment,2024.1.5,Win32,59.88023952,661f16434d4a84871e91d6db,667045947eb812cbdacbf325,66704e21e0fa5ca3ce84d2c0,,,,,,,,,,,,,,,,,,,,,,,,,,,,,,,,,,,,1291.1894,1297.3757,0,1,1,0,1,SoundStimuli/NoScrubs_TLC_Original5S.wav,,,,,,,,,,,,,,,,,,,,,,,,,,,,,,,,,,,,,,,,,,,,,,,,,,,,,,,,,,
,,,,,019700,001,2024-06-17_07h55.28.614,experiment,2024.1.5,Win32,59.88023952,661f16434d4a84871e91d6db,667045947eb812cbdacbf325,66704e21e0fa5ca3ce84d2c0,,,,,,,,,,,,,,,,,,,,,,,,,,,,,,,,,,,,,,,,,,,,1297.3767,1299.4257,5.266666836,2.0338,0,21,21,14,1,song_indices/NoScrubs_TLC.csv,,,,,,,,,,,,,,,,,,,,,,,,,,,,,,,,,,,,,,,,,,,,,,,,
,,,,,019700,001,2024-06-17_07h55.28.614,experiment,2024.1.5,Win32,59.88023952,661f16434d4a84871e91d6db,667045947eb812cbdacbf325,66704e21e0fa5ca3ce84d2c0,,,,,,,,,,,,,,,,,,,,,,,,,,,,,,,,,,,,1299.4282,1305.6153,0,0,0,0,1,SoundStimuli/Fallin_AliciaKeys_Original5S.wav,,,,,,,,,,,,,,,,,,,,,,,,,,,,,,,,,,,,,,,,,,,,,,,,,,,,,,,,,,
,,,,,019700,001,2024-06-17_07h55.28.614,experiment,2024.1.5,Win32,59.88023952,661f16434d4a84871e91d6db,667045947eb812cbdacbf325,66704e21e0fa5ca3ce84d2c0,,,,,,,,,,,,,,,,,,,,,,,,,,,,,,,,,,,,1305.6215,1312.041,0,1,1,1,1,SoundStimuli/Fallin_AliciaKeys_Cover5S.wav,,,,,,,,,,,,,,,,,,,,,,,,,,,,,,,,,,,,,,,,,,,,,,,,,,,,,,,,,,
,,,,,019700,001,2024-06-17_07h55.28.614,experiment,2024.1.5,Win32,59.88023952,661f16434d4a84871e91d6db,667045947eb812cbdacbf325,66704e21e0fa5ca3ce84d2c0,,,,,,,,,,,,,,,,,,,,,,,,,,,,,,,,,,,,,,,,,,,,1312.0417,1314.1899,4.883333418,2.1231,0,22,22,12,1,song_indices/Fallin_AliciaKeys.csv,,,,,,,,,,,,,,,,,,,,,,,,,,,,,,,,,,,,,,,,,,,,,,,,
,,,,,019700,001,2024-06-17_07h55.28.614,experiment,2024.1.5,Win32,59.88023952,661f16434d4a84871e91d6db,667045947eb812cbdacbf325,66704e21e0fa5ca3ce84d2c0,,,,,,,,,,,,,,,,,,,,,,,,,,,,,,,,,,,,,,,,,,,,,,,,,,,,,,1314.1904,1314.1907,,,,0,2,2,1,1,choose_song_b2.csv,,,,,,,,,,,,,,,,,,,,,,,,,,,,,,,,,,,,,
,,,,,019700,001,2024-06-17_07h55.28.614,experiment,2024.1.5,Win32,59.88023952,661f16434d4a84871e91d6db,667045947eb812cbdacbf325,66704e21e0fa5ca3ce84d2c0,,,,,,,,,,,,,,,,,,,,,,,,,,,,,,,,,,,,,,,,,,,,,,,,,,,,,,,,,,,,,,,,,31,Item 2,"During grade school, i played trumpet and my dad has played guitar his entire life",Item 4,Google play Music,4,5,"Driving, exercising, hanging out with friends, working",Never,Rarely,Never,Always,Always,Never,Never,Sometimes,Rarely,Rarely,Never,Often,Sometimes,Sometimes,Rarely,Rarely,Reggaeton,Country,Hip Hop,Classic Rock,A little but not much,I am pretty open to music aside from screamo type.,0,0,0,0,1,,
,,,,,019700,001,2024-06-17_07h55.28.614,experiment,2024.1.5,Win32,59.88023952,661f16434d4a84871e91d6db,667045947eb812cbdacbf325,66704e21e0fa5ca3ce84d2c0,,,,,,,,,,,,,,,,,,,,,,,,,,,,,,,,,,,,,,,,,,,,,,,,,,,,,,,,,,,,,,,,,,,,,,,,,,,,,,,,,,,,,,,,,,,,,,,,,,,,1509.015,1511.2743
