welcome.started,welcome.stopped,space_to_continue.keys,space_to_continue.rt,space_to_continue.duration,participant,session,date,expName,psychopyVersion,OS,frameRate,PROLIFIC_PID,STUDY_ID,SESSION_ID,consent.consent,consent.consent_recontact,consent_check.started,consent_check.stopped,calibration_ready.started,calibration_ready.stopped,cal_ready.keys,cal_ready.rt,cal_ready.duration,calibration.started,calibration.stopped,mouse.x,mouse.y,mouse.leftButton,mouse.midButton,mouse.rightButton,mouse.time,mouse.clicked_name,move_on.keys,move_on.rt,move_on.duration,instructions.started,instructions.stopped,next.keys,next.rt,next.duration,practice_trial.started,practice_trial.stopped,practice_slider.response,practice_slider.rt,ready.started,ready.stopped,key_resp.keys,key_resp.rt,key_resp.duration,play_sound.started,play_sound.stopped,trials.thisRepN,trials.thisTrialN,trials.thisN,trials.thisIndex,trials.ran,orig_or_cover,rating.started,rating.stopped,slider.response,slider.rt,songs.thisRepN,songs.thisTrialN,songs.thisN,songs.thisIndex,songs.ran,song_id,short_break.started,short_break.stopped,space_to_move_on.keys,space_to_move_on.rt,space_to_move_on.duration,blocks.thisRepN,blocks.thisTrialN,blocks.thisN,blocks.thisIndex,blocks.ran,block,survey.age,survey.musician,survey.music_making,survey.listen_time,survey.medium,survey.music_seeking,survey.music_choice,survey.activities,survey.question1.Classical,survey.question1.Jazz,survey.question1.Folk/indie,survey.question1.A cappella,survey.question1.Disco,survey.question1.Reggae,survey.question1.R&B,survey.question1.Ambient,survey.question1.Metal,survey.question1.Pop,survey.question1.Classic rock,survey.question1.Electronic (EDM),survey.question1.Hip hop,survey.question1.Alternative rock,survey.question1.Country,survey.question1.Latin,survey.other_genres,survey.genres_ranked.text1,survey.genres_ranked.text2,survey.genres_ranked.text3,survey.habit_change,survey.habits,experiment.thisRepN,experiment.thisTrialN,experiment.thisN,experiment.thisIndex,experiment.ran,goodbye.started,goodbye.stopped
0.0002,1.1683,space,1.1507,,065515,001,2024-06-17_10h50.09.465,experiment,2024.1.5,Win32,59.88023952,5f2bf7aa253520000bfc83b6,667045947eb812cbdacbf325,66704c9421e6cab958ad926a,,,,,,,,,,,,,,,,,,,,,,,,,,,,,,,,,,,,,,,,,,,,,,,,,,,,,,,,,,,,,,,,,,,,,,,,,,,,,,,,,,,,,,,,,,,,,,,,,,,,,
,,,,,065515,001,2024-06-17_10h50.09.465,experiment,2024.1.5,Win32,59.88023952,5f2bf7aa253520000bfc83b6,667045947eb812cbdacbf325,66704c9421e6cab958ad926a,yes,yes,,,,,,,,,,,,,,,,,,,,,,,,,,,,,,,,,,,,,,,,,,,,,,,,,,,,,,,,,,,,,,,,,,,,,,,,,,,,,,,,,,,,,,,,,,,,,,,,,,,
,,,,,065515,001,2024-06-17_10h50.09.465,experiment,2024.1.5,Win32,59.88023952,5f2bf7aa253520000bfc83b6,667045947eb812cbdacbf325,66704c9421e6cab958ad926a,,,12.7015,12.7016,,,,,,,,,,,,,,,,,,,,,,,,,,,,,,,,,,,,,,,,,,,,,,,,,,,,,,,,,,,,,,,,,,,,,,,,,,,,,,,,,,,,,,,,,,,,,,,,,
,,,,,065515,001,2024-06-17_10h50.09.465,experiment,2024.1.5,Win32,59.88023952,5f2bf7aa253520000bfc83b6,667045947eb812cbdacbf325,66704c9421e6cab958ad926a,,,,,12.7028,14.1015,space,1.3845,,14.1016,30.7056,[0.009259259259259259],[-0.4361111111111111],[1],[0],[0],[5.234300000000744],"[""play_button""]",right,6.5804,,30.7111,36.3416,space,5.6151,,36.3417,52.2583,6.005555556,15.9104,52.2585,53.6521,space,1.3677,,53.6671,59.9621,0,0,0,0,1,SoundStimuli/LetsGetItOn_MarvinGaye_Original5S.wav,,,,,,,,,,,,,,,,,,,,,,,,,,,,,,,,,,,,,,,,,,,,,,,,,,,,,,,,,,
,,,,,065515,001,2024-06-17_10h50.09.465,experiment,2024.1.5,Win32,59.88023952,5f2bf7aa253520000bfc83b6,667045947eb812cbdacbf325,66704c9421e6cab958ad926a,,,,,,,,,,,,,,,,,,,,,,,,,,,,,,,,,,,,59.9623,66.6072,0,1,1,1,1,SoundStimuli/LetsGetItOn_MarvinGaye_Cover5S.wav,,,,,,,,,,,,,,,,,,,,,,,,,,,,,,,,,,,,,,,,,,,,,,,,,,,,,,,,,,
,,,,,065515,001,2024-06-17_10h50.09.465,experiment,2024.1.5,Win32,59.88023952,5f2bf7aa253520000bfc83b6,667045947eb812cbdacbf325,66704c9421e6cab958ad926a,,,,,,,,,,,,,,,,,,,,,,,,,,,,,,,,,,,,,,,,,,,,66.614,69.2019,1.027777778,2.5774,0,0,0,20,1,song_indices/LetsGetItOn_MarvinGaye.csv,,,,,,,,,,,,,,,,,,,,,,,,,,,,,,,,,,,,,,,,,,,,,,,,
,,,,,065515,001,2024-06-17_10h50.09.465,experiment,2024.1.5,Win32,59.88023952,5f2bf7aa253520000bfc83b6,667045947eb812cbdacbf325,66704c9421e6cab958ad926a,,,,,,,,,,,,,,,,,,,,,,,,,,,,,,,,,,,,69.2046,75.3577,0,0,0,0,1,SoundStimuli/TheSign_AceOfBase_Original5S.wav,,,,,,,,,,,,,,,,,,,,,,,,,,,,,,,,,,,,,,,,,,,,,,,,,,,,,,,,,,
,,,,,065515,001,2024-06-17_10h50.09.465,experiment,2024.1.5,Win32,59.88023952,5f2bf7aa253520000bfc83b6,667045947eb812cbdacbf325,66704c9421e6cab958ad926a,,,,,,,,,,,,,,,,,,,,,,,,,,,,,,,,,,,,75.3626,81.3738,0,1,1,1,1,SoundStimuli/TheSign_AceOfBase_Cover5S.wav,,,,,,,,,,,,,,,,,,,,,,,,,,,,,,,,,,,,,,,,,,,,,,,,,,,,,,,,,,
,,,,,065515,001,2024-06-17_10h50.09.465,experiment,2024.1.5,Win32,59.88023952,5f2bf7aa253520000bfc83b6,667045947eb812cbdacbf325,66704c9421e6cab958ad926a,,,,,,,,,,,,,,,,,,,,,,,,,,,,,,,,,,,,,,,,,,,,81.3738,82.5894,6.933333333,1.2098,0,1,1,5,1,song_indices/TheSign_AceOfBase.csv,,,,,,,,,,,,,,,,,,,,,,,,,,,,,,,,,,,,,,,,,,,,,,,,
,,,,,065515,001,2024-06-17_10h50.09.465,experiment,2024.1.5,Win32,59.88023952,5f2bf7aa253520000bfc83b6,667045947eb812cbdacbf325,66704c9421e6cab958ad926a,,,,,,,,,,,,,,,,,,,,,,,,,,,,,,,,,,,,82.5899,88.7067,0,0,0,0,1,SoundStimuli/JoyToTheWorld_ThreeDogNight_Original5S.wav,,,,,,,,,,,,,,,,,,,,,,,,,,,,,,,,,,,,,,,,,,,,,,,,,,,,,,,,,,
,,,,,065515,001,2024-06-17_10h50.09.465,experiment,2024.1.5,Win32,59.88023952,5f2bf7aa253520000bfc83b6,667045947eb812cbdacbf325,66704c9421e6cab958ad926a,,,,,,,,,,,,,,,,,,,,,,,,,,,,,,,,,,,,88.7119,93.8402,0,1,1,1,1,SoundStimuli/JoyToTheWorld_ThreeDogNight_Cover5S.wav,,,,,,,,,,,,,,,,,,,,,,,,,,,,,,,,,,,,,,,,,,,,,,,,,,,,,,,,,,
,,,,,065515,001,2024-06-17_10h50.09.465,experiment,2024.1.5,Win32,59.88023952,5f2bf7aa253520000bfc83b6,667045947eb812cbdacbf325,66704c9421e6cab958ad926a,,,,,,,,,,,,,,,,,,,,,,,,,,,,,,,,,,,,,,,,,,,,93.8404,95.7916,3.177777778,1.9452,0,2,2,8,1,song_indices/JoyToTheWorld_ThreeDogNight.csv,,,,,,,,,,,,,,,,,,,,,,,,,,,,,,,,,,,,,,,,,,,,,,,,
,,,,,065515,001,2024-06-17_10h50.09.465,experiment,2024.1.5,Win32,59.88023952,5f2bf7aa253520000bfc83b6,667045947eb812cbdacbf325,66704c9421e6cab958ad926a,,,,,,,,,,,,,,,,,,,,,,,,,,,,,,,,,,,,95.7922,101.7909,0,0,0,0,1,SoundStimuli/Levitating_DuaLipa_Original5S.wav,,,,,,,,,,,,,,,,,,,,,,,,,,,,,,,,,,,,,,,,,,,,,,,,,,,,,,,,,,
,,,,,065515,001,2024-06-17_10h50.09.465,experiment,2024.1.5,Win32,59.88023952,5f2bf7aa253520000bfc83b6,667045947eb812cbdacbf325,66704c9421e6cab958ad926a,,,,,,,,,,,,,,,,,,,,,,,,,,,,,,,,,,,,101.7969,107.5068,0,1,1,1,1,SoundStimuli/Levitating_DuaLipa_Cover5S.wav,,,,,,,,,,,,,,,,,,,,,,,,,,,,,,,,,,,,,,,,,,,,,,,,,,,,,,,,,,
,,,,,065515,001,2024-06-17_10h50.09.465,experiment,2024.1.5,Win32,59.88023952,5f2bf7aa253520000bfc83b6,667045947eb812cbdacbf325,66704c9421e6cab958ad926a,,,,,,,,,,,,,,,,,,,,,,,,,,,,,,,,,,,,,,,,,,,,107.507,108.6346,1.938888889,1.1156,0,3,3,10,1,song_indices/Levitating_DuaLipa.csv,,,,,,,,,,,,,,,,,,,,,,,,,,,,,,,,,,,,,,,,,,,,,,,,
,,,,,065515,001,2024-06-17_10h50.09.465,experiment,2024.1.5,Win32,59.88023952,5f2bf7aa253520000bfc83b6,667045947eb812cbdacbf325,66704c9421e6cab958ad926a,,,,,,,,,,,,,,,,,,,,,,,,,,,,,,,,,,,,108.6368,113.9408,0,0,0,1,1,SoundStimuli/Superstition_StevieWonder_Cover5S.wav,,,,,,,,,,,,,,,,,,,,,,,,,,,,,,,,,,,,,,,,,,,,,,,,,,,,,,,,,,
,,,,,065515,001,2024-06-17_10h50.09.465,experiment,2024.1.5,Win32,59.88023952,5f2bf7aa253520000bfc83b6,667045947eb812cbdacbf325,66704c9421e6cab958ad926a,,,,,,,,,,,,,,,,,,,,,,,,,,,,,,,,,,,,113.9464,120.0679,0,1,1,0,1,SoundStimuli/Superstition_StevieWonder_Original5S.wav,,,,,,,,,,,,,,,,,,,,,,,,,,,,,,,,,,,,,,,,,,,,,,,,,,,,,,,,,,
,,,,,065515,001,2024-06-17_10h50.09.465,experiment,2024.1.5,Win32,59.88023952,5f2bf7aa253520000bfc83b6,667045947eb812cbdacbf325,66704c9421e6cab958ad926a,,,,,,,,,,,,,,,,,,,,,,,,,,,,,,,,,,,,,,,,,,,,120.0682,123.0679,1.022222222,2.9924,0,4,4,15,1,song_indices/Superstition_StevieWonder.csv,,,,,,,,,,,,,,,,,,,,,,,,,,,,,,,,,,,,,,,,,,,,,,,,
,,,,,065515,001,2024-06-17_10h50.09.465,experiment,2024.1.5,Win32,59.88023952,5f2bf7aa253520000bfc83b6,667045947eb812cbdacbf325,66704c9421e6cab958ad926a,,,,,,,,,,,,,,,,,,,,,,,,,,,,,,,,,,,,123.0701,129.1898,0,0,0,1,1,SoundStimuli/TossinAndTurnin_BobbyLewis_Cover5S.wav,,,,,,,,,,,,,,,,,,,,,,,,,,,,,,,,,,,,,,,,,,,,,,,,,,,,,,,,,,
,,,,,065515,001,2024-06-17_10h50.09.465,experiment,2024.1.5,Win32,59.88023952,5f2bf7aa253520000bfc83b6,667045947eb812cbdacbf325,66704c9421e6cab958ad926a,,,,,,,,,,,,,,,,,,,,,,,,,,,,,,,,,,,,129.1952,135.2512,0,1,1,0,1,SoundStimuli/TossinAndTurnin_BobbyLewis_Original5S.wav,,,,,,,,,,,,,,,,,,,,,,,,,,,,,,,,,,,,,,,,,,,,,,,,,,,,,,,,,,
,,,,,065515,001,2024-06-17_10h50.09.465,experiment,2024.1.5,Win32,59.88023952,5f2bf7aa253520000bfc83b6,667045947eb812cbdacbf325,66704c9421e6cab958ad926a,,,,,,,,,,,,,,,,,,,,,,,,,,,,,,,,,,,,,,,,,,,,135.2517,137.3013,3.055555556,2.0339,0,5,5,13,1,song_indices/TossinAndTurnin_BobbyLewis.csv,,,,,,,,,,,,,,,,,,,,,,,,,,,,,,,,,,,,,,,,,,,,,,,,
,,,,,065515,001,2024-06-17_10h50.09.465,experiment,2024.1.5,Win32,59.88023952,5f2bf7aa253520000bfc83b6,667045947eb812cbdacbf325,66704c9421e6cab958ad926a,,,,,,,,,,,,,,,,,,,,,,,,,,,,,,,,,,,,137.3031,143.3848,0,0,0,0,1,SoundStimuli/YouLightUpMyLife_DebbyBoone_Original5S.wav,,,,,,,,,,,,,,,,,,,,,,,,,,,,,,,,,,,,,,,,,,,,,,,,,,,,,,,,,,
,,,,,065515,001,2024-06-17_10h50.09.465,experiment,2024.1.5,Win32,59.88023952,5f2bf7aa253520000bfc83b6,667045947eb812cbdacbf325,66704c9421e6cab958ad926a,,,,,,,,,,,,,,,,,,,,,,,,,,,,,,,,,,,,143.3912,149.8407,0,1,1,1,1,SoundStimuli/YouLightUpMyLife_DebbyBoone_Cover5S.wav,,,,,,,,,,,,,,,,,,,,,,,,,,,,,,,,,,,,,,,,,,,,,,,,,,,,,,,,,,
,,,,,065515,001,2024-06-17_10h50.09.465,experiment,2024.1.5,Win32,59.88023952,5f2bf7aa253520000bfc83b6,667045947eb812cbdacbf325,66704c9421e6cab958ad926a,,,,,,,,,,,,,,,,,,,,,,,,,,,,,,,,,,,,,,,,,,,,149.8409,151.1846,6.961111111,1.3329,0,6,6,4,1,song_indices/YouLightUpMyLife_DebbyBoone.csv,,,,,,,,,,,,,,,,,,,,,,,,,,,,,,,,,,,,,,,,,,,,,,,,
,,,,,065515,001,2024-06-17_10h50.09.465,experiment,2024.1.5,Win32,59.88023952,5f2bf7aa253520000bfc83b6,667045947eb812cbdacbf325,66704c9421e6cab958ad926a,,,,,,,,,,,,,,,,,,,,,,,,,,,,,,,,,,,,151.1866,157.3912,0,0,0,0,1,SoundStimuli/SaveYourTears_TheWeekndArianaGrande_Original5S.wav,,,,,,,,,,,,,,,,,,,,,,,,,,,,,,,,,,,,,,,,,,,,,,,,,,,,,,,,,,
,,,,,065515,001,2024-06-17_10h50.09.465,experiment,2024.1.5,Win32,59.88023952,5f2bf7aa253520000bfc83b6,667045947eb812cbdacbf325,66704c9421e6cab958ad926a,,,,,,,,,,,,,,,,,,,,,,,,,,,,,,,,,,,,157.3962,163.2846,0,1,1,1,1,SoundStimuli/SaveYourTears_TheWeekndArianaGrande_Cover5S.wav,,,,,,,,,,,,,,,,,,,,,,,,,,,,,,,,,,,,,,,,,,,,,,,,,,,,,,,,,,
,,,,,065515,001,2024-06-17_10h50.09.465,experiment,2024.1.5,Win32,59.88023952,5f2bf7aa253520000bfc83b6,667045947eb812cbdacbf325,66704c9421e6cab958ad926a,,,,,,,,,,,,,,,,,,,,,,,,,,,,,,,,,,,,,,,,,,,,163.2847,167.8388,1.116666667,4.547,0,7,7,12,1,song_indices/SaveYourTears_TheWeekndArianaGrande.csv,,,,,,,,,,,,,,,,,,,,,,,,,,,,,,,,,,,,,,,,,,,,,,,,
,,,,,065515,001,2024-06-17_10h50.09.465,experiment,2024.1.5,Win32,59.88023952,5f2bf7aa253520000bfc83b6,667045947eb812cbdacbf325,66704c9421e6cab958ad926a,,,,,,,,,,,,,,,,,,,,,,,,,,,,,,,,,,,,167.8393,175.2546,0,0,0,0,1,SoundStimuli/Kiss_Prince_Original5S.wav,,,,,,,,,,,,,,,,,,,,,,,,,,,,,,,,,,,,,,,,,,,,,,,,,,,,,,,,,,
,,,,,065515,001,2024-06-17_10h50.09.465,experiment,2024.1.5,Win32,59.88023952,5f2bf7aa253520000bfc83b6,667045947eb812cbdacbf325,66704c9421e6cab958ad926a,,,,,,,,,,,,,,,,,,,,,,,,,,,,,,,,,,,,175.2608,181.5346,0,1,1,1,1,SoundStimuli/Kiss_Prince_Cover5S.wav,,,,,,,,,,,,,,,,,,,,,,,,,,,,,,,,,,,,,,,,,,,,,,,,,,,,,,,,,,
,,,,,065515,001,2024-06-17_10h50.09.465,experiment,2024.1.5,Win32,59.88023952,5f2bf7aa253520000bfc83b6,667045947eb812cbdacbf325,66704c9421e6cab958ad926a,,,,,,,,,,,,,,,,,,,,,,,,,,,,,,,,,,,,,,,,,,,,181.5352,183.2382,1.011111111,1.6952,0,8,8,14,1,song_indices/Kiss_Prince.csv,,,,,,,,,,,,,,,,,,,,,,,,,,,,,,,,,,,,,,,,,,,,,,,,
,,,,,065515,001,2024-06-17_10h50.09.465,experiment,2024.1.5,Win32,59.88023952,5f2bf7aa253520000bfc83b6,667045947eb812cbdacbf325,66704c9421e6cab958ad926a,,,,,,,,,,,,,,,,,,,,,,,,,,,,,,,,,,,,183.2385,189.7235,0,0,0,1,1,SoundStimuli/Weak_SWV_Cover5S.wav,,,,,,,,,,,,,,,,,,,,,,,,,,,,,,,,,,,,,,,,,,,,,,,,,,,,,,,,,,
,,,,,065515,001,2024-06-17_10h50.09.465,experiment,2024.1.5,Win32,59.88023952,5f2bf7aa253520000bfc83b6,667045947eb812cbdacbf325,66704c9421e6cab958ad926a,,,,,,,,,,,,,,,,,,,,,,,,,,,,,,,,,,,,189.7288,195.8013,0,1,1,0,1,SoundStimuli/Weak_SWV_Original5S.wav,,,,,,,,,,,,,,,,,,,,,,,,,,,,,,,,,,,,,,,,,,,,,,,,,,,,,,,,,,
,,,,,065515,001,2024-06-17_10h50.09.465,experiment,2024.1.5,Win32,59.88023952,5f2bf7aa253520000bfc83b6,667045947eb812cbdacbf325,66704c9421e6cab958ad926a,,,,,,,,,,,,,,,,,,,,,,,,,,,,,,,,,,,,,,,,,,,,195.802,197.1411,1.005555556,1.3313,0,9,9,6,1,song_indices/Weak_SWV.csv,,,,,,,,,,,,,,,,,,,,,,,,,,,,,,,,,,,,,,,,,,,,,,,,
,,,,,065515,001,2024-06-17_10h50.09.465,experiment,2024.1.5,Win32,59.88023952,5f2bf7aa253520000bfc83b6,667045947eb812cbdacbf325,66704c9421e6cab958ad926a,,,,,,,,,,,,,,,,,,,,,,,,,,,,,,,,,,,,197.1417,203.9899,0,0,0,1,1,SoundStimuli/PokerFace_LadyGaga_Cover5S.wav,,,,,,,,,,,,,,,,,,,,,,,,,,,,,,,,,,,,,,,,,,,,,,,,,,,,,,,,,,
,,,,,065515,001,2024-06-17_10h50.09.465,experiment,2024.1.5,Win32,59.88023952,5f2bf7aa253520000bfc83b6,667045947eb812cbdacbf325,66704c9421e6cab958ad926a,,,,,,,,,,,,,,,,,,,,,,,,,,,,,,,,,,,,203.9952,211.0012,0,1,1,0,1,SoundStimuli/PokerFace_LadyGaga_Original5S.wav,,,,,,,,,,,,,,,,,,,,,,,,,,,,,,,,,,,,,,,,,,,,,,,,,,,,,,,,,,
,,,,,065515,001,2024-06-17_10h50.09.465,experiment,2024.1.5,Win32,59.88023952,5f2bf7aa253520000bfc83b6,667045947eb812cbdacbf325,66704c9421e6cab958ad926a,,,,,,,,,,,,,,,,,,,,,,,,,,,,,,,,,,,,,,,,,,,,211.0015,216.2344,6.988888889,5.2209,0,10,10,23,1,song_indices/PokerFace_LadyGaga.csv,,,,,,,,,,,,,,,,,,,,,,,,,,,,,,,,,,,,,,,,,,,,,,,,
,,,,,065515,001,2024-06-17_10h50.09.465,experiment,2024.1.5,Win32,59.88023952,5f2bf7aa253520000bfc83b6,667045947eb812cbdacbf325,66704c9421e6cab958ad926a,,,,,,,,,,,,,,,,,,,,,,,,,,,,,,,,,,,,216.2364,223.0379,0,0,0,1,1,SoundStimuli/BlindingLights_TheWeeknd_Cover5S.wav,,,,,,,,,,,,,,,,,,,,,,,,,,,,,,,,,,,,,,,,,,,,,,,,,,,,,,,,,,
,,,,,065515,001,2024-06-17_10h50.09.465,experiment,2024.1.5,Win32,59.88023952,5f2bf7aa253520000bfc83b6,667045947eb812cbdacbf325,66704c9421e6cab958ad926a,,,,,,,,,,,,,,,,,,,,,,,,,,,,,,,,,,,,223.0435,229.5383,0,1,1,0,1,SoundStimuli/BlindingLights_TheWeeknd_Original5S.wav,,,,,,,,,,,,,,,,,,,,,,,,,,,,,,,,,,,,,,,,,,,,,,,,,,,,,,,,,,
,,,,,065515,001,2024-06-17_10h50.09.465,experiment,2024.1.5,Win32,59.88023952,5f2bf7aa253520000bfc83b6,667045947eb812cbdacbf325,66704c9421e6cab958ad926a,,,,,,,,,,,,,,,,,,,,,,,,,,,,,,,,,,,,,,,,,,,,229.5384,233.2522,5.916666667,3.7077,0,11,11,21,1,song_indices/BlindingLights_TheWeeknd.csv,,,,,,,,,,,,,,,,,,,,,,,,,,,,,,,,,,,,,,,,,,,,,,,,
,,,,,065515,001,2024-06-17_10h50.09.465,experiment,2024.1.5,Win32,59.88023952,5f2bf7aa253520000bfc83b6,667045947eb812cbdacbf325,66704c9421e6cab958ad926a,,,,,,,,,,,,,,,,,,,,,,,,,,,,,,,,,,,,233.2541,239.3512,0,0,0,0,1,SoundStimuli/UnbreakMyHeart_ToniBraxton_Original5S.wav,,,,,,,,,,,,,,,,,,,,,,,,,,,,,,,,,,,,,,,,,,,,,,,,,,,,,,,,,,
,,,,,065515,001,2024-06-17_10h50.09.465,experiment,2024.1.5,Win32,59.88023952,5f2bf7aa253520000bfc83b6,667045947eb812cbdacbf325,66704c9421e6cab958ad926a,,,,,,,,,,,,,,,,,,,,,,,,,,,,,,,,,,,,239.3577,243.3406,0,1,1,1,1,SoundStimuli/UnbreakMyHeart_ToniBraxton_Cover5S.wav,,,,,,,,,,,,,,,,,,,,,,,,,,,,,,,,,,,,,,,,,,,,,,,,,,,,,,,,,,
,,,,,065515,001,2024-06-17_10h50.09.465,experiment,2024.1.5,Win32,59.88023952,5f2bf7aa253520000bfc83b6,667045947eb812cbdacbf325,66704c9421e6cab958ad926a,,,,,,,,,,,,,,,,,,,,,,,,,,,,,,,,,,,,,,,,,,,,243.3407,257.1747,1.961111111,13.8289,0,12,12,16,1,song_indices/UnbreakMyHeart_ToniBraxton.csv,,,,,,,,,,,,,,,,,,,,,,,,,,,,,,,,,,,,,,,,,,,,,,,,
,,,,,065515,001,2024-06-17_10h50.09.465,experiment,2024.1.5,Win32,59.88023952,5f2bf7aa253520000bfc83b6,667045947eb812cbdacbf325,66704c9421e6cab958ad926a,,,,,,,,,,,,,,,,,,,,,,,,,,,,,,,,,,,,257.1751,263.2566,0,0,0,1,1,SoundStimuli/Respect_ArethaFranklin_Cover5S.wav,,,,,,,,,,,,,,,,,,,,,,,,,,,,,,,,,,,,,,,,,,,,,,,,,,,,,,,,,,
,,,,,065515,001,2024-06-17_10h50.09.465,experiment,2024.1.5,Win32,59.88023952,5f2bf7aa253520000bfc83b6,667045947eb812cbdacbf325,66704c9421e6cab958ad926a,,,,,,,,,,,,,,,,,,,,,,,,,,,,,,,,,,,,263.2619,269.1906,0,1,1,0,1,SoundStimuli/Respect_ArethaFranklin_Original5S.wav,,,,,,,,,,,,,,,,,,,,,,,,,,,,,,,,,,,,,,,,,,,,,,,,,,,,,,,,,,
,,,,,065515,001,2024-06-17_10h50.09.465,experiment,2024.1.5,Win32,59.88023952,5f2bf7aa253520000bfc83b6,667045947eb812cbdacbf325,66704c9421e6cab958ad926a,,,,,,,,,,,,,,,,,,,,,,,,,,,,,,,,,,,,,,,,,,,,269.1907,270.3242,3.066666667,1.1273,0,13,13,0,1,song_indices/Respect_ArethaFranklin.csv,,,,,,,,,,,,,,,,,,,,,,,,,,,,,,,,,,,,,,,,,,,,,,,,
,,,,,065515,001,2024-06-17_10h50.09.465,experiment,2024.1.5,Win32,59.88023952,5f2bf7aa253520000bfc83b6,667045947eb812cbdacbf325,66704c9421e6cab958ad926a,,,,,,,,,,,,,,,,,,,,,,,,,,,,,,,,,,,,270.3247,276.541,0,0,0,0,1,SoundStimuli/TikTok_Kesha_Original5S.wav,,,,,,,,,,,,,,,,,,,,,,,,,,,,,,,,,,,,,,,,,,,,,,,,,,,,,,,,,,
,,,,,065515,001,2024-06-17_10h50.09.465,experiment,2024.1.5,Win32,59.88023952,5f2bf7aa253520000bfc83b6,667045947eb812cbdacbf325,66704c9421e6cab958ad926a,,,,,,,,,,,,,,,,,,,,,,,,,,,,,,,,,,,,276.5458,284.0904,0,1,1,1,1,SoundStimuli/TikTok_Kesha_Cover5S.wav,,,,,,,,,,,,,,,,,,,,,,,,,,,,,,,,,,,,,,,,,,,,,,,,,,,,,,,,,,
,,,,,065515,001,2024-06-17_10h50.09.465,experiment,2024.1.5,Win32,59.88023952,5f2bf7aa253520000bfc83b6,667045947eb812cbdacbf325,66704c9421e6cab958ad926a,,,,,,,,,,,,,,,,,,,,,,,,,,,,,,,,,,,,,,,,,,,,284.0906,285.0677,5.138888889,0.963,0,14,14,3,1,song_indices/TikTok_Kesha.csv,,,,,,,,,,,,,,,,,,,,,,,,,,,,,,,,,,,,,,,,,,,,,,,,
,,,,,065515,001,2024-06-17_10h50.09.465,experiment,2024.1.5,Win32,59.88023952,5f2bf7aa253520000bfc83b6,667045947eb812cbdacbf325,66704c9421e6cab958ad926a,,,,,,,,,,,,,,,,,,,,,,,,,,,,,,,,,,,,285.0703,290.9909,0,0,0,1,1,SoundStimuli/Irreplaceable_Beyonce_Cover5S.wav,,,,,,,,,,,,,,,,,,,,,,,,,,,,,,,,,,,,,,,,,,,,,,,,,,,,,,,,,,
,,,,,065515,001,2024-06-17_10h50.09.465,experiment,2024.1.5,Win32,59.88023952,5f2bf7aa253520000bfc83b6,667045947eb812cbdacbf325,66704c9421e6cab958ad926a,,,,,,,,,,,,,,,,,,,,,,,,,,,,,,,,,,,,290.9959,296.8677,0,1,1,0,1,SoundStimuli/Irreplaceable_Beyonce_Original5S.wav,,,,,,,,,,,,,,,,,,,,,,,,,,,,,,,,,,,,,,,,,,,,,,,,,,,,,,,,,,
,,,,,065515,001,2024-06-17_10h50.09.465,experiment,2024.1.5,Win32,59.88023952,5f2bf7aa253520000bfc83b6,667045947eb812cbdacbf325,66704c9421e6cab958ad926a,,,,,,,,,,,,,,,,,,,,,,,,,,,,,,,,,,,,,,,,,,,,296.8681,298.2184,5.966666667,1.333,0,15,15,19,1,song_indices/Irreplaceable_Beyonce.csv,,,,,,,,,,,,,,,,,,,,,,,,,,,,,,,,,,,,,,,,,,,,,,,,
,,,,,065515,001,2024-06-17_10h50.09.465,experiment,2024.1.5,Win32,59.88023952,5f2bf7aa253520000bfc83b6,667045947eb812cbdacbf325,66704c9421e6cab958ad926a,,,,,,,,,,,,,,,,,,,,,,,,,,,,,,,,,,,,298.2211,303.6902,0,0,0,1,1,SoundStimuli/HowDoILive_LeAnnRimes_Cover5S.wav,,,,,,,,,,,,,,,,,,,,,,,,,,,,,,,,,,,,,,,,,,,,,,,,,,,,,,,,,,
,,,,,065515,001,2024-06-17_10h50.09.465,experiment,2024.1.5,Win32,59.88023952,5f2bf7aa253520000bfc83b6,667045947eb812cbdacbf325,66704c9421e6cab958ad926a,,,,,,,,,,,,,,,,,,,,,,,,,,,,,,,,,,,,303.6958,309.7177,0,1,1,0,1,SoundStimuli/HowDoILive_LeAnnRimes_Original5S.wav,,,,,,,,,,,,,,,,,,,,,,,,,,,,,,,,,,,,,,,,,,,,,,,,,,,,,,,,,,
,,,,,065515,001,2024-06-17_10h50.09.465,experiment,2024.1.5,Win32,59.88023952,5f2bf7aa253520000bfc83b6,667045947eb812cbdacbf325,66704c9421e6cab958ad926a,,,,,,,,,,,,,,,,,,,,,,,,,,,,,,,,,,,,,,,,,,,,309.7178,310.3511,5.966666667,0.6175,0,16,16,17,1,song_indices/HowDoILive_LeAnnRimes.csv,,,,,,,,,,,,,,,,,,,,,,,,,,,,,,,,,,,,,,,,,,,,,,,,
,,,,,065515,001,2024-06-17_10h50.09.465,experiment,2024.1.5,Win32,59.88023952,5f2bf7aa253520000bfc83b6,667045947eb812cbdacbf325,66704c9421e6cab958ad926a,,,,,,,,,,,,,,,,,,,,,,,,,,,,,,,,,,,,310.3532,316.3736,0,0,0,0,1,SoundStimuli/LeFreak_Chic_Original5S.wav,,,,,,,,,,,,,,,,,,,,,,,,,,,,,,,,,,,,,,,,,,,,,,,,,,,,,,,,,,
,,,,,065515,001,2024-06-17_10h50.09.465,experiment,2024.1.5,Win32,59.88023952,5f2bf7aa253520000bfc83b6,667045947eb812cbdacbf325,66704c9421e6cab958ad926a,,,,,,,,,,,,,,,,,,,,,,,,,,,,,,,,,,,,316.379,321.9011,0,1,1,1,1,SoundStimuli/LeFreak_Chic_Cover5S.wav,,,,,,,,,,,,,,,,,,,,,,,,,,,,,,,,,,,,,,,,,,,,,,,,,,,,,,,,,,
,,,,,065515,001,2024-06-17_10h50.09.465,experiment,2024.1.5,Win32,59.88023952,5f2bf7aa253520000bfc83b6,667045947eb812cbdacbf325,66704c9421e6cab958ad926a,,,,,,,,,,,,,,,,,,,,,,,,,,,,,,,,,,,,,,,,,,,,321.9013,347.0741,6.038888889,25.1659,0,17,17,11,1,song_indices/LeFreak_Chic.csv,,,,,,,,,,,,,,,,,,,,,,,,,,,,,,,,,,,,,,,,,,,,,,,,
,,,,,065515,001,2024-06-17_10h50.09.465,experiment,2024.1.5,Win32,59.88023952,5f2bf7aa253520000bfc83b6,667045947eb812cbdacbf325,66704c9421e6cab958ad926a,,,,,,,,,,,,,,,,,,,,,,,,,,,,,,,,,,,,347.0746,354.1401,0,0,0,1,1,SoundStimuli/ComeAndGetYourLove_Redbone_Cover5S.wav,,,,,,,,,,,,,,,,,,,,,,,,,,,,,,,,,,,,,,,,,,,,,,,,,,,,,,,,,,
,,,,,065515,001,2024-06-17_10h50.09.465,experiment,2024.1.5,Win32,59.88023952,5f2bf7aa253520000bfc83b6,667045947eb812cbdacbf325,66704c9421e6cab958ad926a,,,,,,,,,,,,,,,,,,,,,,,,,,,,,,,,,,,,354.1452,360.251,0,1,1,0,1,SoundStimuli/ComeAndGetYourLove_Redbone_Original5S.wav,,,,,,,,,,,,,,,,,,,,,,,,,,,,,,,,,,,,,,,,,,,,,,,,,,,,,,,,,,
,,,,,065515,001,2024-06-17_10h50.09.465,experiment,2024.1.5,Win32,59.88023952,5f2bf7aa253520000bfc83b6,667045947eb812cbdacbf325,66704c9421e6cab958ad926a,,,,,,,,,,,,,,,,,,,,,,,,,,,,,,,,,,,,,,,,,,,,360.2511,365.7176,5.883333333,5.4497,0,18,18,22,1,song_indices/ComeAndGetYourLove_Redbone.csv,,,,,,,,,,,,,,,,,,,,,,,,,,,,,,,,,,,,,,,,,,,,,,,,
,,,,,065515,001,2024-06-17_10h50.09.465,experiment,2024.1.5,Win32,59.88023952,5f2bf7aa253520000bfc83b6,667045947eb812cbdacbf325,66704c9421e6cab958ad926a,,,,,,,,,,,,,,,,,,,,,,,,,,,,,,,,,,,,365.7197,372.4677,0,0,0,0,1,SoundStimuli/BlurredLines_RobinThicke_Original5S.wav,,,,,,,,,,,,,,,,,,,,,,,,,,,,,,,,,,,,,,,,,,,,,,,,,,,,,,,,,,
,,,,,065515,001,2024-06-17_10h50.09.465,experiment,2024.1.5,Win32,59.88023952,5f2bf7aa253520000bfc83b6,667045947eb812cbdacbf325,66704c9421e6cab958ad926a,,,,,,,,,,,,,,,,,,,,,,,,,,,,,,,,,,,,372.4743,379.5731,0,1,1,1,1,SoundStimuli/BlurredLines_RobinThicke_Cover5S.wav,,,,,,,,,,,,,,,,,,,,,,,,,,,,,,,,,,,,,,,,,,,,,,,,,,,,,,,,,,
,,,,,065515,001,2024-06-17_10h50.09.465,experiment,2024.1.5,Win32,59.88023952,5f2bf7aa253520000bfc83b6,667045947eb812cbdacbf325,66704c9421e6cab958ad926a,,,,,,,,,,,,,,,,,,,,,,,,,,,,,,,,,,,,,,,,,,,,379.5732,381.2177,4.022222222,1.6337,0,19,19,9,1,song_indices/BlurredLines_RobinThicke.csv,,,,,,,,,,,,,,,,,,,,,,,,,,,,,,,,,,,,,,,,,,,,,,,,
,,,,,065515,001,2024-06-17_10h50.09.465,experiment,2024.1.5,Win32,59.88023952,5f2bf7aa253520000bfc83b6,667045947eb812cbdacbf325,66704c9421e6cab958ad926a,,,,,,,,,,,,,,,,,,,,,,,,,,,,,,,,,,,,381.2203,389.051,0,0,0,1,1,SoundStimuli/Dreams_FleetwoodMac_Cover5S.wav,,,,,,,,,,,,,,,,,,,,,,,,,,,,,,,,,,,,,,,,,,,,,,,,,,,,,,,,,,
,,,,,065515,001,2024-06-17_10h50.09.465,experiment,2024.1.5,Win32,59.88023952,5f2bf7aa253520000bfc83b6,667045947eb812cbdacbf325,66704c9421e6cab958ad926a,,,,,,,,,,,,,,,,,,,,,,,,,,,,,,,,,,,,389.0574,395.568,0,1,1,0,1,SoundStimuli/Dreams_FleetwoodMac_Original5S.wav,,,,,,,,,,,,,,,,,,,,,,,,,,,,,,,,,,,,,,,,,,,,,,,,,,,,,,,,,,
,,,,,065515,001,2024-06-17_10h50.09.465,experiment,2024.1.5,Win32,59.88023952,5f2bf7aa253520000bfc83b6,667045947eb812cbdacbf325,66704c9421e6cab958ad926a,,,,,,,,,,,,,,,,,,,,,,,,,,,,,,,,,,,,,,,,,,,,395.5684,398.7742,1.994444444,3.1984,0,20,20,1,1,song_indices/Dreams_FleetwoodMac.csv,,,,,,,,,,,,,,,,,,,,,,,,,,,,,,,,,,,,,,,,,,,,,,,,
,,,,,065515,001,2024-06-17_10h50.09.465,experiment,2024.1.5,Win32,59.88023952,5f2bf7aa253520000bfc83b6,667045947eb812cbdacbf325,66704c9421e6cab958ad926a,,,,,,,,,,,,,,,,,,,,,,,,,,,,,,,,,,,,398.7748,406.0576,0,0,0,1,1,SoundStimuli/FlashdanceWhatAFeeling_IreneCara_Cover5S.wav,,,,,,,,,,,,,,,,,,,,,,,,,,,,,,,,,,,,,,,,,,,,,,,,,,,,,,,,,,
,,,,,065515,001,2024-06-17_10h50.09.465,experiment,2024.1.5,Win32,59.88023952,5f2bf7aa253520000bfc83b6,667045947eb812cbdacbf325,66704c9421e6cab958ad926a,,,,,,,,,,,,,,,,,,,,,,,,,,,,,,,,,,,,406.0641,412.4571,0,1,1,0,1,SoundStimuli/FlashdanceWhatAFeeling_IreneCara_Original5S.wav,,,,,,,,,,,,,,,,,,,,,,,,,,,,,,,,,,,,,,,,,,,,,,,,,,,,,,,,,,
,,,,,065515,001,2024-06-17_10h50.09.465,experiment,2024.1.5,Win32,59.88023952,5f2bf7aa253520000bfc83b6,667045947eb812cbdacbf325,66704c9421e6cab958ad926a,,,,,,,,,,,,,,,,,,,,,,,,,,,,,,,,,,,,,,,,,,,,412.4572,414.8569,6.116666667,2.3942,0,21,21,18,1,song_indices/FlashdanceWhatAFeeling_IreneCara.csv,,,,,,,,,,,,,,,,,,,,,,,,,,,,,,,,,,,,,,,,,,,,,,,,
,,,,,065515,001,2024-06-17_10h50.09.465,experiment,2024.1.5,Win32,59.88023952,5f2bf7aa253520000bfc83b6,667045947eb812cbdacbf325,66704c9421e6cab958ad926a,,,,,,,,,,,,,,,,,,,,,,,,,,,,,,,,,,,,414.8574,421.6567,0,0,0,1,1,SoundStimuli/SomebodyThatIUsedtoKnow_Gotye_Cover5S.wav,,,,,,,,,,,,,,,,,,,,,,,,,,,,,,,,,,,,,,,,,,,,,,,,,,,,,,,,,,
,,,,,065515,001,2024-06-17_10h50.09.465,experiment,2024.1.5,Win32,59.88023952,5f2bf7aa253520000bfc83b6,667045947eb812cbdacbf325,66704c9421e6cab958ad926a,,,,,,,,,,,,,,,,,,,,,,,,,,,,,,,,,,,,421.6623,428.8898,0,1,1,0,1,SoundStimuli/SomebodyThatIUsedtoKnow_Gotye_Original5S.wav,,,,,,,,,,,,,,,,,,,,,,,,,,,,,,,,,,,,,,,,,,,,,,,,,,,,,,,,,,
,,,,,065515,001,2024-06-17_10h50.09.465,experiment,2024.1.5,Win32,59.88023952,5f2bf7aa253520000bfc83b6,667045947eb812cbdacbf325,66704c9421e6cab958ad926a,,,,,,,,,,,,,,,,,,,,,,,,,,,,,,,,,,,,,,,,,,,,428.8899,430.5342,5.866666667,1.63,0,22,22,7,1,song_indices/SomebodyThatIUsedtoKnow_Gotye.csv,,,,,,,,,,,,,,,,,,,,,,,,,,,,,,,,,,,,,,,,,,,,,,,,
,,,,,065515,001,2024-06-17_10h50.09.465,experiment,2024.1.5,Win32,59.88023952,5f2bf7aa253520000bfc83b6,667045947eb812cbdacbf325,66704c9421e6cab958ad926a,,,,,,,,,,,,,,,,,,,,,,,,,,,,,,,,,,,,430.5362,437.5175,0,0,0,1,1,SoundStimuli/Dilemma_NellyKellyRowland_Cover5S.wav,,,,,,,,,,,,,,,,,,,,,,,,,,,,,,,,,,,,,,,,,,,,,,,,,,,,,,,,,,
,,,,,065515,001,2024-06-17_10h50.09.465,experiment,2024.1.5,Win32,59.88023952,5f2bf7aa253520000bfc83b6,667045947eb812cbdacbf325,66704c9421e6cab958ad926a,,,,,,,,,,,,,,,,,,,,,,,,,,,,,,,,,,,,437.5246,443.7232,0,1,1,0,1,SoundStimuli/Dilemma_NellyKellyRowland_Original5S.wav,,,,,,,,,,,,,,,,,,,,,,,,,,,,,,,,,,,,,,,,,,,,,,,,,,,,,,,,,,
,,,,,065515,001,2024-06-17_10h50.09.465,experiment,2024.1.5,Win32,59.88023952,5f2bf7aa253520000bfc83b6,667045947eb812cbdacbf325,66704c9421e6cab958ad926a,,,,,,,,,,,,,,,,,,,,,,,,,,,,,,,,,,,,,,,,,,,,443.7235,445.4842,1.011111111,1.7476,0,23,23,2,1,song_indices/Dilemma_NellyKellyRowland.csv,,,,,,,,,,,,,,,,,,,,,,,,,,,,,,,,,,,,,,,,,,,,,,,,
,,,,,065515,001,2024-06-17_10h50.09.465,experiment,2024.1.5,Win32,59.88023952,5f2bf7aa253520000bfc83b6,667045947eb812cbdacbf325,66704c9421e6cab958ad926a,,,,,,,,,,,,,,,,,,,,,,,,,,,,,,,,,,,,,,,,,,,,,,,,,,,,,,445.4854,450.612,space,5.1054,,0,0,0,2,1,choose_song_b3.csv,,,,,,,,,,,,,,,,,,,,,,,,,,,,,,,,,,,,,
,,,,,065515,001,2024-06-17_10h50.09.465,experiment,2024.1.5,Win32,59.88023952,5f2bf7aa253520000bfc83b6,667045947eb812cbdacbf325,66704c9421e6cab958ad926a,,,,,,,,,,,,,,,,,,,,,,,,,,,,,,,,,,,,450.6129,456.8564,0,0,0,1,1,SoundStimuli/ItsAllInTheGame_TommyEdwards_Cover5S.wav,,,,,,,,,,,,,,,,,,,,,,,,,,,,,,,,,,,,,,,,,,,,,,,,,,,,,,,,,,
,,,,,065515,001,2024-06-17_10h50.09.465,experiment,2024.1.5,Win32,59.88023952,5f2bf7aa253520000bfc83b6,667045947eb812cbdacbf325,66704c9421e6cab958ad926a,,,,,,,,,,,,,,,,,,,,,,,,,,,,,,,,,,,,456.8617,463.1212,0,1,1,0,1,SoundStimuli/ItsAllInTheGame_TommyEdwards_Original5S.wav,,,,,,,,,,,,,,,,,,,,,,,,,,,,,,,,,,,,,,,,,,,,,,,,,,,,,,,,,,
,,,,,065515,001,2024-06-17_10h50.09.465,experiment,2024.1.5,Win32,59.88023952,5f2bf7aa253520000bfc83b6,667045947eb812cbdacbf325,66704c9421e6cab958ad926a,,,,,,,,,,,,,,,,,,,,,,,,,,,,,,,,,,,,,,,,,,,,463.1213,464.9889,4.977777778,1.8622,0,0,0,13,1,song_indices/ItsAllInTheGame_TommyEdwards.csv,,,,,,,,,,,,,,,,,,,,,,,,,,,,,,,,,,,,,,,,,,,,,,,,
,,,,,065515,001,2024-06-17_10h50.09.465,experiment,2024.1.5,Win32,59.88023952,5f2bf7aa253520000bfc83b6,667045947eb812cbdacbf325,66704c9421e6cab958ad926a,,,,,,,,,,,,,,,,,,,,,,,,,,,,,,,,,,,,464.9895,471.0674,0,0,0,0,1,SoundStimuli/GetUrFreakOn_MissyElliot_Original5S.wav,,,,,,,,,,,,,,,,,,,,,,,,,,,,,,,,,,,,,,,,,,,,,,,,,,,,,,,,,,
,,,,,065515,001,2024-06-17_10h50.09.465,experiment,2024.1.5,Win32,59.88023952,5f2bf7aa253520000bfc83b6,667045947eb812cbdacbf325,66704c9421e6cab958ad926a,,,,,,,,,,,,,,,,,,,,,,,,,,,,,,,,,,,,471.0741,477.6565,0,1,1,1,1,SoundStimuli/GetUrFreakOn_MissyElliot_Cover5S.wav,,,,,,,,,,,,,,,,,,,,,,,,,,,,,,,,,,,,,,,,,,,,,,,,,,,,,,,,,,
,,,,,065515,001,2024-06-17_10h50.09.465,experiment,2024.1.5,Win32,59.88023952,5f2bf7aa253520000bfc83b6,667045947eb812cbdacbf325,66704c9421e6cab958ad926a,,,,,,,,,,,,,,,,,,,,,,,,,,,,,,,,,,,,,,,,,,,,477.6567,478.8235,2.7,1.1608,0,1,1,18,1,song_indices/GetUrFreakOn_MissyElliot.csv,,,,,,,,,,,,,,,,,,,,,,,,,,,,,,,,,,,,,,,,,,,,,,,,
,,,,,065515,001,2024-06-17_10h50.09.465,experiment,2024.1.5,Win32,59.88023952,5f2bf7aa253520000bfc83b6,667045947eb812cbdacbf325,66704c9421e6cab958ad926a,,,,,,,,,,,,,,,,,,,,,,,,,,,,,,,,,,,,478.8241,484.8899,0,0,0,1,1,SoundStimuli/RockWithYou_MichaelJackson_Cover5S.wav,,,,,,,,,,,,,,,,,,,,,,,,,,,,,,,,,,,,,,,,,,,,,,,,,,,,,,,,,,
,,,,,065515,001,2024-06-17_10h50.09.465,experiment,2024.1.5,Win32,59.88023952,5f2bf7aa253520000bfc83b6,667045947eb812cbdacbf325,66704c9421e6cab958ad926a,,,,,,,,,,,,,,,,,,,,,,,,,,,,,,,,,,,,484.8953,491.2175,0,1,1,0,1,SoundStimuli/RockWithYou_MichaelJackson_Original5S.wav,,,,,,,,,,,,,,,,,,,,,,,,,,,,,,,,,,,,,,,,,,,,,,,,,,,,,,,,,,
,,,,,065515,001,2024-06-17_10h50.09.465,experiment,2024.1.5,Win32,59.88023952,5f2bf7aa253520000bfc83b6,667045947eb812cbdacbf325,66704c9421e6cab958ad926a,,,,,,,,,,,,,,,,,,,,,,,,,,,,,,,,,,,,,,,,,,,,491.2176,492.3551,1.211111111,1.1308,0,2,2,16,1,song_indices/RockWithYou_MichaelJackson.csv,,,,,,,,,,,,,,,,,,,,,,,,,,,,,,,,,,,,,,,,,,,,,,,,
,,,,,065515,001,2024-06-17_10h50.09.465,experiment,2024.1.5,Win32,59.88023952,5f2bf7aa253520000bfc83b6,667045947eb812cbdacbf325,66704c9421e6cab958ad926a,,,,,,,,,,,,,,,,,,,,,,,,,,,,,,,,,,,,492.3554,501.2674,0,0,0,1,1,SoundStimuli/HeyYa_Outkast_Cover5S.wav,,,,,,,,,,,,,,,,,,,,,,,,,,,,,,,,,,,,,,,,,,,,,,,,,,,,,,,,,,
,,,,,065515,001,2024-06-17_10h50.09.465,experiment,2024.1.5,Win32,59.88023952,5f2bf7aa253520000bfc83b6,667045947eb812cbdacbf325,66704c9421e6cab958ad926a,,,,,,,,,,,,,,,,,,,,,,,,,,,,,,,,,,,,501.2743,507.5729,0,1,1,0,1,SoundStimuli/HeyYa_Outkast_Original5S.wav,,,,,,,,,,,,,,,,,,,,,,,,,,,,,,,,,,,,,,,,,,,,,,,,,,,,,,,,,,
,,,,,065515,001,2024-06-17_10h50.09.465,experiment,2024.1.5,Win32,59.88023952,5f2bf7aa253520000bfc83b6,667045947eb812cbdacbf325,66704c9421e6cab958ad926a,,,,,,,,,,,,,,,,,,,,,,,,,,,,,,,,,,,,,,,,,,,,507.5731,512.2567,2.322222222,4.6777,0,3,3,22,1,song_indices/HeyYa_Outkast.csv,,,,,,,,,,,,,,,,,,,,,,,,,,,,,,,,,,,,,,,,,,,,,,,,
,,,,,065515,001,2024-06-17_10h50.09.465,experiment,2024.1.5,Win32,59.88023952,5f2bf7aa253520000bfc83b6,667045947eb812cbdacbf325,66704c9421e6cab958ad926a,,,,,,,,,,,,,,,,,,,,,,,,,,,,,,,,,,,,512.2572,519.0175,0,0,0,0,1,SoundStimuli/PartyRockAnthem_LMFAO_Original5S.wav,,,,,,,,,,,,,,,,,,,,,,,,,,,,,,,,,,,,,,,,,,,,,,,,,,,,,,,,,,
,,,,,065515,001,2024-06-17_10h50.09.465,experiment,2024.1.5,Win32,59.88023952,5f2bf7aa253520000bfc83b6,667045947eb812cbdacbf325,66704c9421e6cab958ad926a,,,,,,,,,,,,,,,,,,,,,,,,,,,,,,,,,,,,519.0243,525.8068,0,1,1,1,1,SoundStimuli/PartyRockAnthem_LMFAO_Cover5S.wav,,,,,,,,,,,,,,,,,,,,,,,,,,,,,,,,,,,,,,,,,,,,,,,,,,,,,,,,,,
,,,,,065515,001,2024-06-17_10h50.09.465,experiment,2024.1.5,Win32,59.88023952,5f2bf7aa253520000bfc83b6,667045947eb812cbdacbf325,66704c9421e6cab958ad926a,,,,,,,,,,,,,,,,,,,,,,,,,,,,,,,,,,,,,,,,,,,,525.8069,527.3841,3.883333333,1.5658,0,4,4,2,1,song_indices/PartyRockAnthem_LMFAO.csv,,,,,,,,,,,,,,,,,,,,,,,,,,,,,,,,,,,,,,,,,,,,,,,,
,,,,,065515,001,2024-06-17_10h50.09.465,experiment,2024.1.5,Win32,59.88023952,5f2bf7aa253520000bfc83b6,667045947eb812cbdacbf325,66704c9421e6cab958ad926a,,,,,,,,,,,,,,,,,,,,,,,,,,,,,,,,,,,,527.3864,533.5063,0,0,0,1,1,SoundStimuli/EyeOfTheTiger_Survivor_Cover5S.wav,,,,,,,,,,,,,,,,,,,,,,,,,,,,,,,,,,,,,,,,,,,,,,,,,,,,,,,,,,
,,,,,065515,001,2024-06-17_10h50.09.465,experiment,2024.1.5,Win32,59.88023952,5f2bf7aa253520000bfc83b6,667045947eb812cbdacbf325,66704c9421e6cab958ad926a,,,,,,,,,,,,,,,,,,,,,,,,,,,,,,,,,,,,533.5114,539.4041,0,1,1,0,1,SoundStimuli/EyeOfTheTiger_Survivor_Original5S.wav,,,,,,,,,,,,,,,,,,,,,,,,,,,,,,,,,,,,,,,,,,,,,,,,,,,,,,,,,,
,,,,,065515,001,2024-06-17_10h50.09.465,experiment,2024.1.5,Win32,59.88023952,5f2bf7aa253520000bfc83b6,667045947eb812cbdacbf325,66704c9421e6cab958ad926a,,,,,,,,,,,,,,,,,,,,,,,,,,,,,,,,,,,,,,,,,,,,539.4043,541.8045,6.816666667,2.395,0,5,5,11,1,song_indices/EyeOfTheTiger_Survivor.csv,,,,,,,,,,,,,,,,,,,,,,,,,,,,,,,,,,,,,,,,,,,,,,,,
,,,,,065515,001,2024-06-17_10h50.09.465,experiment,2024.1.5,Win32,59.88023952,5f2bf7aa253520000bfc83b6,667045947eb812cbdacbf325,66704c9421e6cab958ad926a,,,,,,,,,,,,,,,,,,,,,,,,,,,,,,,,,,,,541.8049,547.8234,0,0,0,1,1,SoundStimuli/StandByMe_BenEKing_Cover5S.wav,,,,,,,,,,,,,,,,,,,,,,,,,,,,,,,,,,,,,,,,,,,,,,,,,,,,,,,,,,
,,,,,065515,001,2024-06-17_10h50.09.465,experiment,2024.1.5,Win32,59.88023952,5f2bf7aa253520000bfc83b6,667045947eb812cbdacbf325,66704c9421e6cab958ad926a,,,,,,,,,,,,,,,,,,,,,,,,,,,,,,,,,,,,547.8285,553.7507,0,1,1,0,1,SoundStimuli/StandByMe_BenEKing_Original5S.wav,,,,,,,,,,,,,,,,,,,,,,,,,,,,,,,,,,,,,,,,,,,,,,,,,,,,,,,,,,
,,,,,065515,001,2024-06-17_10h50.09.465,experiment,2024.1.5,Win32,59.88023952,5f2bf7aa253520000bfc83b6,667045947eb812cbdacbf325,66704c9421e6cab958ad926a,,,,,,,,,,,,,,,,,,,,,,,,,,,,,,,,,,,,,,,,,,,,553.7508,556.1011,3.061111111,2.3369,0,6,6,1,1,song_indices/StandByMe_BenEKing.csv,,,,,,,,,,,,,,,,,,,,,,,,,,,,,,,,,,,,,,,,,,,,,,,,
,,,,,065515,001,2024-06-17_10h50.09.465,experiment,2024.1.5,Win32,59.88023952,5f2bf7aa253520000bfc83b6,667045947eb812cbdacbf325,66704c9421e6cab958ad926a,,,,,,,,,,,,,,,,,,,,,,,,,,,,,,,,,,,,556.1037,562.484,0,0,0,0,1,SoundStimuli/IWillAlwaysLoveYou_WhitneyHouston_Original5S.wav,,,,,,,,,,,,,,,,,,,,,,,,,,,,,,,,,,,,,,,,,,,,,,,,,,,,,,,,,,
,,,,,065515,001,2024-06-17_10h50.09.465,experiment,2024.1.5,Win32,59.88023952,5f2bf7aa253520000bfc83b6,667045947eb812cbdacbf325,66704c9421e6cab958ad926a,,,,,,,,,,,,,,,,,,,,,,,,,,,,,,,,,,,,562.4909,568.3507,0,1,1,1,1,SoundStimuli/IWillAlwaysLoveYou_WhitneyHouston_Cover5S.wav,,,,,,,,,,,,,,,,,,,,,,,,,,,,,,,,,,,,,,,,,,,,,,,,,,,,,,,,,,
,,,,,065515,001,2024-06-17_10h50.09.465,experiment,2024.1.5,Win32,59.88023952,5f2bf7aa253520000bfc83b6,667045947eb812cbdacbf325,66704c9421e6cab958ad926a,,,,,,,,,,,,,,,,,,,,,,,,,,,,,,,,,,,,,,,,,,,,568.3509,571.1174,6.938888889,2.7573,0,7,7,10,1,song_indices/IWillAlwaysLoveYou_WhitneyHouston.csv,,,,,,,,,,,,,,,,,,,,,,,,,,,,,,,,,,,,,,,,,,,,,,,,
,,,,,065515,001,2024-06-17_10h50.09.465,experiment,2024.1.5,Win32,59.88023952,5f2bf7aa253520000bfc83b6,667045947eb812cbdacbf325,66704c9421e6cab958ad926a,,,,,,,,,,,,,,,,,,,,,,,,,,,,,,,,,,,,571.1189,578.3564,0,0,0,0,1,SoundStimuli/UptownFunk_MarkRonson_Original5S.wav,,,,,,,,,,,,,,,,,,,,,,,,,,,,,,,,,,,,,,,,,,,,,,,,,,,,,,,,,,
,,,,,065515,001,2024-06-17_10h50.09.465,experiment,2024.1.5,Win32,59.88023952,5f2bf7aa253520000bfc83b6,667045947eb812cbdacbf325,66704c9421e6cab958ad926a,,,,,,,,,,,,,,,,,,,,,,,,,,,,,,,,,,,,578.3619,585.384,0,1,1,1,1,SoundStimuli/UptownFunk_MarkRonson_Cover5S.wav,,,,,,,,,,,,,,,,,,,,,,,,,,,,,,,,,,,,,,,,,,,,,,,,,,,,,,,,,,
,,,,,065515,001,2024-06-17_10h50.09.465,experiment,2024.1.5,Win32,59.88023952,5f2bf7aa253520000bfc83b6,667045947eb812cbdacbf325,66704c9421e6cab958ad926a,,,,,,,,,,,,,,,,,,,,,,,,,,,,,,,,,,,,,,,,,,,,585.3841,586.258,6.922222222,0.8658,0,8,8,15,1,song_indices/UptownFunk_MarkRonson.csv,,,,,,,,,,,,,,,,,,,,,,,,,,,,,,,,,,,,,,,,,,,,,,,,
,,,,,065515,001,2024-06-17_10h50.09.465,experiment,2024.1.5,Win32,59.88023952,5f2bf7aa253520000bfc83b6,667045947eb812cbdacbf325,66704c9421e6cab958ad926a,,,,,,,,,,,,,,,,,,,,,,,,,,,,,,,,,,,,586.2586,592.473,0,0,0,1,1,SoundStimuli/GimmeShelter_RollingStones_Cover5S.wav,,,,,,,,,,,,,,,,,,,,,,,,,,,,,,,,,,,,,,,,,,,,,,,,,,,,,,,,,,
,,,,,065515,001,2024-06-17_10h50.09.465,experiment,2024.1.5,Win32,59.88023952,5f2bf7aa253520000bfc83b6,667045947eb812cbdacbf325,66704c9421e6cab958ad926a,,,,,,,,,,,,,,,,,,,,,,,,,,,,,,,,,,,,592.478,598.5727,0,1,1,0,1,SoundStimuli/GimmeShelter_RollingStones_Original5S.wav,,,,,,,,,,,,,,,,,,,,,,,,,,,,,,,,,,,,,,,,,,,,,,,,,,,,,,,,,,
,,,,,065515,001,2024-06-17_10h50.09.465,experiment,2024.1.5,Win32,59.88023952,5f2bf7aa253520000bfc83b6,667045947eb812cbdacbf325,66704c9421e6cab958ad926a,,,,,,,,,,,,,,,,,,,,,,,,,,,,,,,,,,,,,,,,,,,,598.5729,600.0569,3.227777778,1.4786,0,9,9,20,1,song_indices/GimmeShelter_RollingStones.csv,,,,,,,,,,,,,,,,,,,,,,,,,,,,,,,,,,,,,,,,,,,,,,,,
,,,,,065515,001,2024-06-17_10h50.09.465,experiment,2024.1.5,Win32,59.88023952,5f2bf7aa253520000bfc83b6,667045947eb812cbdacbf325,66704c9421e6cab958ad926a,,,,,,,,,,,,,,,,,,,,,,,,,,,,,,,,,,,,600.0575,606.006,0,0,0,1,1,SoundStimuli/TheBoyIsMine_BrandyMonica_Cover5S.wav,,,,,,,,,,,,,,,,,,,,,,,,,,,,,,,,,,,,,,,,,,,,,,,,,,,,,,,,,,
,,,,,065515,001,2024-06-17_10h50.09.465,experiment,2024.1.5,Win32,59.88023952,5f2bf7aa253520000bfc83b6,667045947eb812cbdacbf325,66704c9421e6cab958ad926a,,,,,,,,,,,,,,,,,,,,,,,,,,,,,,,,,,,,606.0115,612.2235,0,1,1,0,1,SoundStimuli/TheBoyIsMine_BrandyMonica_Original5S.wav,,,,,,,,,,,,,,,,,,,,,,,,,,,,,,,,,,,,,,,,,,,,,,,,,,,,,,,,,,
,,,,,065515,001,2024-06-17_10h50.09.465,experiment,2024.1.5,Win32,59.88023952,5f2bf7aa253520000bfc83b6,667045947eb812cbdacbf325,66704c9421e6cab958ad926a,,,,,,,,,,,,,,,,,,,,,,,,,,,,,,,,,,,,,,,,,,,,612.2237,613.1403,5.05,0.9108,0,10,10,6,1,song_indices/TheBoyIsMine_BrandyMonica.csv,,,,,,,,,,,,,,,,,,,,,,,,,,,,,,,,,,,,,,,,,,,,,,,,
,,,,,065515,001,2024-06-17_10h50.09.465,experiment,2024.1.5,Win32,59.88023952,5f2bf7aa253520000bfc83b6,667045947eb812cbdacbf325,66704c9421e6cab958ad926a,,,,,,,,,,,,,,,,,,,,,,,,,,,,,,,,,,,,613.1408,619.5732,0,0,0,1,1,SoundStimuli/Fallin_AliciaKeys_Cover5S.wav,,,,,,,,,,,,,,,,,,,,,,,,,,,,,,,,,,,,,,,,,,,,,,,,,,,,,,,,,,
,,,,,065515,001,2024-06-17_10h50.09.465,experiment,2024.1.5,Win32,59.88023952,5f2bf7aa253520000bfc83b6,667045947eb812cbdacbf325,66704c9421e6cab958ad926a,,,,,,,,,,,,,,,,,,,,,,,,,,,,,,,,,,,,619.5784,625.7519,0,1,1,0,1,SoundStimuli/Fallin_AliciaKeys_Original5S.wav,,,,,,,,,,,,,,,,,,,,,,,,,,,,,,,,,,,,,,,,,,,,,,,,,,,,,,,,,,
,,,,,065515,001,2024-06-17_10h50.09.465,experiment,2024.1.5,Win32,59.88023952,5f2bf7aa253520000bfc83b6,667045947eb812cbdacbf325,66704c9421e6cab958ad926a,,,,,,,,,,,,,,,,,,,,,,,,,,,,,,,,,,,,,,,,,,,,625.7524,627.0732,2.922222222,1.3144,0,11,11,12,1,song_indices/Fallin_AliciaKeys.csv,,,,,,,,,,,,,,,,,,,,,,,,,,,,,,,,,,,,,,,,,,,,,,,,
,,,,,065515,001,2024-06-17_10h50.09.465,experiment,2024.1.5,Win32,59.88023952,5f2bf7aa253520000bfc83b6,667045947eb812cbdacbf325,66704c9421e6cab958ad926a,,,,,,,,,,,,,,,,,,,,,,,,,,,,,,,,,,,,627.0737,634.2173,0,0,0,1,1,SoundStimuli/IWalkTheLine_JohnnyCash_Cover5S.wav,,,,,,,,,,,,,,,,,,,,,,,,,,,,,,,,,,,,,,,,,,,,,,,,,,,,,,,,,,
,,,,,065515,001,2024-06-17_10h50.09.465,experiment,2024.1.5,Win32,59.88023952,5f2bf7aa253520000bfc83b6,667045947eb812cbdacbf325,66704c9421e6cab958ad926a,,,,,,,,,,,,,,,,,,,,,,,,,,,,,,,,,,,,634.2239,640.2006,0,1,1,0,1,SoundStimuli/IWalkTheLine_JohnnyCash_Original5S.wav,,,,,,,,,,,,,,,,,,,,,,,,,,,,,,,,,,,,,,,,,,,,,,,,,,,,,,,,,,
,,,,,065515,001,2024-06-17_10h50.09.465,experiment,2024.1.5,Win32,59.88023952,5f2bf7aa253520000bfc83b6,667045947eb812cbdacbf325,66704c9421e6cab958ad926a,,,,,,,,,,,,,,,,,,,,,,,,,,,,,,,,,,,,,,,,,,,,640.2007,695.234,1.916666667,55.0187,0,12,12,17,1,song_indices/IWalkTheLine_JohnnyCash.csv,,,,,,,,,,,,,,,,,,,,,,,,,,,,,,,,,,,,,,,,,,,,,,,,
,,,,,065515,001,2024-06-17_10h50.09.465,experiment,2024.1.5,Win32,59.88023952,5f2bf7aa253520000bfc83b6,667045947eb812cbdacbf325,66704c9421e6cab958ad926a,,,,,,,,,,,,,,,,,,,,,,,,,,,,,,,,,,,,695.2366,711.1514,0,0,0,0,1,SoundStimuli/NoOne_AliciaKeys_Original5S.wav,,,,,,,,,,,,,,,,,,,,,,,,,,,,,,,,,,,,,,,,,,,,,,,,,,,,,,,,,,
,,,,,065515,001,2024-06-17_10h50.09.465,experiment,2024.1.5,Win32,59.88023952,5f2bf7aa253520000bfc83b6,667045947eb812cbdacbf325,66704c9421e6cab958ad926a,,,,,,,,,,,,,,,,,,,,,,,,,,,,,,,,,,,,711.1604,719.3196,0,1,1,1,1,SoundStimuli/NoOne_AliciaKeys_Cover5S.wav,,,,,,,,,,,,,,,,,,,,,,,,,,,,,,,,,,,,,,,,,,,,,,,,,,,,,,,,,,
,,,,,065515,001,2024-06-17_10h50.09.465,experiment,2024.1.5,Win32,59.88023952,5f2bf7aa253520000bfc83b6,667045947eb812cbdacbf325,66704c9421e6cab958ad926a,,,,,,,,,,,,,,,,,,,,,,,,,,,,,,,,,,,,,,,,,,,,719.3198,719.8682,3.993413831,0.537,0,13,13,19,1,song_indices/NoOne_AliciaKeys.csv,,,,,,,,,,,,,,,,,,,,,,,,,,,,,,,,,,,,,,,,,,,,,,,,
,,,,,065515,001,2024-06-17_10h50.09.465,experiment,2024.1.5,Win32,59.88023952,5f2bf7aa253520000bfc83b6,667045947eb812cbdacbf325,66704c9421e6cab958ad926a,,,,,,,,,,,,,,,,,,,,,,,,,,,,,,,,,,,,719.8692,732.9507,0,0,0,1,1,SoundStimuli/CrazyInLove_BeyonceFtJayZ_Cover5S.wav,,,,,,,,,,,,,,,,,,,,,,,,,,,,,,,,,,,,,,,,,,,,,,,,,,,,,,,,,,
,,,,,065515,001,2024-06-17_10h50.09.465,experiment,2024.1.5,Win32,59.88023952,5f2bf7aa253520000bfc83b6,667045947eb812cbdacbf325,66704c9421e6cab958ad926a,,,,,,,,,,,,,,,,,,,,,,,,,,,,,,,,,,,,732.9573,771.3506,0,1,1,0,1,SoundStimuli/CrazyInLove_BeyonceFtJayZ_Original5S.wav,,,,,,,,,,,,,,,,,,,,,,,,,,,,,,,,,,,,,,,,,,,,,,,,,,,,,,,,,,
,,,,,065515,001,2024-06-17_10h50.09.465,experiment,2024.1.5,Win32,59.88023952,5f2bf7aa253520000bfc83b6,667045947eb812cbdacbf325,66704c9421e6cab958ad926a,,,,,,,,,,,,,,,,,,,,,,,,,,,,,,,,,,,,,,,,,,,,771.351,772.7672,3.940724479,1.4042,0,14,14,3,1,song_indices/CrazyInLove_BeyonceFtJayZ.csv,,,,,,,,,,,,,,,,,,,,,,,,,,,,,,,,,,,,,,,,,,,,,,,,
,,,,,065515,001,2024-06-17_10h50.09.465,experiment,2024.1.5,Win32,59.88023952,5f2bf7aa253520000bfc83b6,667045947eb812cbdacbf325,66704c9421e6cab958ad926a,,,,,,,,,,,,,,,,,,,,,,,,,,,,,,,,,,,,772.7679,795.1503,0,0,0,1,1,SoundStimuli/TheBattleOfNewOrleans_JohnnyHorton_Cover5S.wav,,,,,,,,,,,,,,,,,,,,,,,,,,,,,,,,,,,,,,,,,,,,,,,,,,,,,,,,,,
,,,,,065515,001,2024-06-17_10h50.09.465,experiment,2024.1.5,Win32,59.88023952,5f2bf7aa253520000bfc83b6,667045947eb812cbdacbf325,66704c9421e6cab958ad926a,,,,,,,,,,,,,,,,,,,,,,,,,,,,,,,,,,,,795.1558,801.3671,0,1,1,0,1,SoundStimuli/TheBattleOfNewOrleans_JohnnyHorton_Original5S.wav,,,,,,,,,,,,,,,,,,,,,,,,,,,,,,,,,,,,,,,,,,,,,,,,,,,,,,,,,,
,,,,,065515,001,2024-06-17_10h50.09.465,experiment,2024.1.5,Win32,59.88023952,5f2bf7aa253520000bfc83b6,667045947eb812cbdacbf325,66704c9421e6cab958ad926a,,,,,,,,,,,,,,,,,,,,,,,,,,,,,,,,,,,,,,,,,,,,801.3671,803.6006,1.115257958,2.2163,0,15,15,4,1,song_indices/TheBattleOfNewOrleans_JohnnyHorton.csv,,,,,,,,,,,,,,,,,,,,,,,,,,,,,,,,,,,,,,,,,,,,,,,,
,,,,,065515,001,2024-06-17_10h50.09.465,experiment,2024.1.5,Win32,59.88023952,5f2bf7aa253520000bfc83b6,667045947eb812cbdacbf325,66704c9421e6cab958ad926a,,,,,,,,,,,,,,,,,,,,,,,,,,,,,,,,,,,,803.6011,813.5527,0,0,0,1,1,SoundStimuli/Happy_PharellWilliams_Cover5S.wav,,,,,,,,,,,,,,,,,,,,,,,,,,,,,,,,,,,,,,,,,,,,,,,,,,,,,,,,,,
,,,,,065515,001,2024-06-17_10h50.09.465,experiment,2024.1.5,Win32,59.88023952,5f2bf7aa253520000bfc83b6,667045947eb812cbdacbf325,66704c9421e6cab958ad926a,,,,,,,,,,,,,,,,,,,,,,,,,,,,,,,,,,,,813.561,820.9172,0,1,1,0,1,SoundStimuli/Happy_PharellWilliams_Original5S.wav,,,,,,,,,,,,,,,,,,,,,,,,,,,,,,,,,,,,,,,,,,,,,,,,,,,,,,,,,,
,,,,,065515,001,2024-06-17_10h50.09.465,experiment,2024.1.5,Win32,59.88023952,5f2bf7aa253520000bfc83b6,667045947eb812cbdacbf325,66704c9421e6cab958ad926a,,,,,,,,,,,,,,,,,,,,,,,,,,,,,,,,,,,,,,,,,,,,820.9174,825.8172,4.013172338,4.8864,0,16,16,7,1,song_indices/Happy_PharellWilliams.csv,,,,,,,,,,,,,,,,,,,,,,,,,,,,,,,,,,,,,,,,,,,,,,,,
,,,,,065515,001,2024-06-17_10h50.09.465,experiment,2024.1.5,Win32,59.88023952,5f2bf7aa253520000bfc83b6,667045947eb812cbdacbf325,66704c9421e6cab958ad926a,,,,,,,,,,,,,,,,,,,,,,,,,,,,,,,,,,,,825.8177,831.8839,0,0,0,0,1,SoundStimuli/GoodGollyMissMolly_LittleRichard_Original5S.wav,,,,,,,,,,,,,,,,,,,,,,,,,,,,,,,,,,,,,,,,,,,,,,,,,,,,,,,,,,
,,,,,065515,001,2024-06-17_10h50.09.465,experiment,2024.1.5,Win32,59.88023952,5f2bf7aa253520000bfc83b6,667045947eb812cbdacbf325,66704c9421e6cab958ad926a,,,,,,,,,,,,,,,,,,,,,,,,,,,,,,,,,,,,831.8895,839.8012,0,1,1,1,1,SoundStimuli/GoodGollyMissMolly_LittleRichard_Cover5S.wav,,,,,,,,,,,,,,,,,,,,,,,,,,,,,,,,,,,,,,,,,,,,,,,,,,,,,,,,,,
,,,,,065515,001,2024-06-17_10h50.09.465,experiment,2024.1.5,Win32,59.88023952,5f2bf7aa253520000bfc83b6,667045947eb812cbdacbf325,66704c9421e6cab958ad926a,,,,,,,,,,,,,,,,,,,,,,,,,,,,,,,,,,,,,,,,,,,,839.8015,840.667,1.991218441,0.8552,0,17,17,0,1,song_indices/GoodGollyMissMolly_LittleRichard.csv,,,,,,,,,,,,,,,,,,,,,,,,,,,,,,,,,,,,,,,,,,,,,,,,
,,,,,065515,001,2024-06-17_10h50.09.465,experiment,2024.1.5,Win32,59.88023952,5f2bf7aa253520000bfc83b6,667045947eb812cbdacbf325,66704c9421e6cab958ad926a,,,,,,,,,,,,,,,,,,,,,,,,,,,,,,,,,,,,840.6678,848.853,0,0,0,0,1,SoundStimuli/SmellsLikeTeenSpirit_Nirvana_Original5S.wav,,,,,,,,,,,,,,,,,,,,,,,,,,,,,,,,,,,,,,,,,,,,,,,,,,,,,,,,,,
,,,,,065515,001,2024-06-17_10h50.09.465,experiment,2024.1.5,Win32,59.88023952,5f2bf7aa253520000bfc83b6,667045947eb812cbdacbf325,66704c9421e6cab958ad926a,,,,,,,,,,,,,,,,,,,,,,,,,,,,,,,,,,,,848.8606,878.4616,0,1,1,1,1,SoundStimuli/SmellsLikeTeenSpirit_Nirvana_Cover5S.wav,,,,,,,,,,,,,,,,,,,,,,,,,,,,,,,,,,,,,,,,,,,,,,,,,,,,,,,,,,
,,,,,065515,001,2024-06-17_10h50.09.465,experiment,2024.1.5,Win32,59.88023952,5f2bf7aa253520000bfc83b6,667045947eb812cbdacbf325,66704c9421e6cab958ad926a,,,,,,,,,,,,,,,,,,,,,,,,,,,,,,,,,,,,,,,,,,,,878.4619,880.217,6.976948408,1.7382,0,18,18,8,1,song_indices/SmellsLikeTeenSpirit_Nirvana.csv,,,,,,,,,,,,,,,,,,,,,,,,,,,,,,,,,,,,,,,,,,,,,,,,
,,,,,065515,001,2024-06-17_10h50.09.465,experiment,2024.1.5,Win32,59.88023952,5f2bf7aa253520000bfc83b6,667045947eb812cbdacbf325,66704c9421e6cab958ad926a,,,,,,,,,,,,,,,,,,,,,,,,,,,,,,,,,,,,880.2177,886.6747,0,0,0,0,1,SoundStimuli/Stronger_KanyeWest_Original5S.wav,,,,,,,,,,,,,,,,,,,,,,,,,,,,,,,,,,,,,,,,,,,,,,,,,,,,,,,,,,
,,,,,065515,001,2024-06-17_10h50.09.465,experiment,2024.1.5,Win32,59.88023952,5f2bf7aa253520000bfc83b6,667045947eb812cbdacbf325,66704c9421e6cab958ad926a,,,,,,,,,,,,,,,,,,,,,,,,,,,,,,,,,,,,886.6818,906.1346,0,1,1,1,1,SoundStimuli/Stronger_KanyeWest_Cover5S.wav,,,,,,,,,,,,,,,,,,,,,,,,,,,,,,,,,,,,,,,,,,,,,,,,,,,,,,,,,,
,,,,,065515,001,2024-06-17_10h50.09.465,experiment,2024.1.5,Win32,59.88023952,5f2bf7aa253520000bfc83b6,667045947eb812cbdacbf325,66704c9421e6cab958ad926a,,,,,,,,,,,,,,,,,,,,,,,,,,,,,,,,,,,,,,,,,,,,906.1349,908.2003,3.117453348,2.0457,0,19,19,9,1,song_indices/Stronger_KanyeWest.csv,,,,,,,,,,,,,,,,,,,,,,,,,,,,,,,,,,,,,,,,,,,,,,,,
,,,,,065515,001,2024-06-17_10h50.09.465,experiment,2024.1.5,Win32,59.88023952,5f2bf7aa253520000bfc83b6,667045947eb812cbdacbf325,66704c9421e6cab958ad926a,,,,,,,,,,,,,,,,,,,,,,,,,,,,,,,,,,,,908.2009,913.9003,0,0,0,1,1,SoundStimuli/BetteDavisEyes_KimCarnes_Cover5S.wav,,,,,,,,,,,,,,,,,,,,,,,,,,,,,,,,,,,,,,,,,,,,,,,,,,,,,,,,,,
,,,,,065515,001,2024-06-17_10h50.09.465,experiment,2024.1.5,Win32,59.88023952,5f2bf7aa253520000bfc83b6,667045947eb812cbdacbf325,66704c9421e6cab958ad926a,,,,,,,,,,,,,,,,,,,,,,,,,,,,,,,,,,,,913.9067,920.117,0,1,1,0,1,SoundStimuli/BetteDavisEyes_KimCarnes_Original5S.wav,,,,,,,,,,,,,,,,,,,,,,,,,,,,,,,,,,,,,,,,,,,,,,,,,,,,,,,,,,
,,,,,065515,001,2024-06-17_10h50.09.465,experiment,2024.1.5,Win32,59.88023952,5f2bf7aa253520000bfc83b6,667045947eb812cbdacbf325,66704c9421e6cab958ad926a,,,,,,,,,,,,,,,,,,,,,,,,,,,,,,,,,,,,,,,,,,,,920.1173,923.0338,6.976948408,2.9092,0,20,20,5,1,song_indices/BetteDavisEyes_KimCarnes.csv,,,,,,,,,,,,,,,,,,,,,,,,,,,,,,,,,,,,,,,,,,,,,,,,
,,,,,065515,001,2024-06-17_10h50.09.465,experiment,2024.1.5,Win32,59.88023952,5f2bf7aa253520000bfc83b6,667045947eb812cbdacbf325,66704c9421e6cab958ad926a,,,,,,,,,,,,,,,,,,,,,,,,,,,,,,,,,,,,923.0343,936.5338,0,0,0,0,1,SoundStimuli/NoScrubs_TLC_Original5S.wav,,,,,,,,,,,,,,,,,,,,,,,,,,,,,,,,,,,,,,,,,,,,,,,,,,,,,,,,,,
,,,,,065515,001,2024-06-17_10h50.09.465,experiment,2024.1.5,Win32,59.88023952,5f2bf7aa253520000bfc83b6,667045947eb812cbdacbf325,66704c9421e6cab958ad926a,,,,,,,,,,,,,,,,,,,,,,,,,,,,,,,,,,,,936.5401,942.6669,0,1,1,1,1,SoundStimuli/NoScrubs_TLC_Cover5S.wav,,,,,,,,,,,,,,,,,,,,,,,,,,,,,,,,,,,,,,,,,,,,,,,,,,,,,,,,,,
,,,,,065515,001,2024-06-17_10h50.09.465,experiment,2024.1.5,Win32,59.88023952,5f2bf7aa253520000bfc83b6,667045947eb812cbdacbf325,66704c9421e6cab958ad926a,,,,,,,,,,,,,,,,,,,,,,,,,,,,,,,,,,,,,,,,,,,,942.667,944.0005,6.96377607,1.3156,0,21,21,14,1,song_indices/NoScrubs_TLC.csv,,,,,,,,,,,,,,,,,,,,,,,,,,,,,,,,,,,,,,,,,,,,,,,,
,,,,,065515,001,2024-06-17_10h50.09.465,experiment,2024.1.5,Win32,59.88023952,5f2bf7aa253520000bfc83b6,667045947eb812cbdacbf325,66704c9421e6cab958ad926a,,,,,,,,,,,,,,,,,,,,,,,,,,,,,,,,,,,,944.0011,950.317,0,0,0,1,1,SoundStimuli/ShapeofYou_EdSheeran_Cover5S.wav,,,,,,,,,,,,,,,,,,,,,,,,,,,,,,,,,,,,,,,,,,,,,,,,,,,,,,,,,,
,,,,,065515,001,2024-06-17_10h50.09.465,experiment,2024.1.5,Win32,59.88023952,5f2bf7aa253520000bfc83b6,667045947eb812cbdacbf325,66704c9421e6cab958ad926a,,,,,,,,,,,,,,,,,,,,,,,,,,,,,,,,,,,,950.3229,956.7836,0,1,1,0,1,SoundStimuli/ShapeofYou_EdSheeran_Original5S.wav,,,,,,,,,,,,,,,,,,,,,,,,,,,,,,,,,,,,,,,,,,,,,,,,,,,,,,,,,,
,,,,,065515,001,2024-06-17_10h50.09.465,experiment,2024.1.5,Win32,59.88023952,5f2bf7aa253520000bfc83b6,667045947eb812cbdacbf325,66704c9421e6cab958ad926a,,,,,,,,,,,,,,,,,,,,,,,,,,,,,,,,,,,,,,,,,,,,956.7837,981.3169,6.074643249,24.5234,0,22,22,21,1,song_indices/ShapeofYou_EdSheeran.csv,,,,,,,,,,,,,,,,,,,,,,,,,,,,,,,,,,,,,,,,,,,,,,,,
,,,,,065515,001,2024-06-17_10h50.09.465,experiment,2024.1.5,Win32,59.88023952,5f2bf7aa253520000bfc83b6,667045947eb812cbdacbf325,66704c9421e6cab958ad926a,,,,,,,,,,,,,,,,,,,,,,,,,,,,,,,,,,,,,,,,,,,,,,,,,,,,,,981.317,983.1007,space,1.7676,,0,1,1,1,1,choose_song_b2.csv,,,,,,,,,,,,,,,,,,,,,,,,,,,,,,,,,,,,,
,,,,,065515,001,2024-06-17_10h50.09.465,experiment,2024.1.5,Win32,59.88023952,5f2bf7aa253520000bfc83b6,667045947eb812cbdacbf325,66704c9421e6cab958ad926a,,,,,,,,,,,,,,,,,,,,,,,,,,,,,,,,,,,,983.1026,989.1335,0,0,0,0,1,SoundStimuli/StayinAlive_BeeGees_Original5S.wav,,,,,,,,,,,,,,,,,,,,,,,,,,,,,,,,,,,,,,,,,,,,,,,,,,,,,,,,,,
,,,,,065515,001,2024-06-17_10h50.09.465,experiment,2024.1.5,Win32,59.88023952,5f2bf7aa253520000bfc83b6,667045947eb812cbdacbf325,66704c9421e6cab958ad926a,,,,,,,,,,,,,,,,,,,,,,,,,,,,,,,,,,,,989.1394,994.9835,0,1,1,1,1,SoundStimuli/StayinAlive_BeeGees_Cover5S.wav,,,,,,,,,,,,,,,,,,,,,,,,,,,,,,,,,,,,,,,,,,,,,,,,,,,,,,,,,,
,,,,,065515,001,2024-06-17_10h50.09.465,experiment,2024.1.5,Win32,59.88023952,5f2bf7aa253520000bfc83b6,667045947eb812cbdacbf325,66704c9421e6cab958ad926a,,,,,,,,,,,,,,,,,,,,,,,,,,,,,,,,,,,,,,,,,,,,994.9836,997.3669,6.041712404,2.3718,0,0,0,2,1,song_indices/StayinAlive_BeeGees.csv,,,,,,,,,,,,,,,,,,,,,,,,,,,,,,,,,,,,,,,,,,,,,,,,
,,,,,065515,001,2024-06-17_10h50.09.465,experiment,2024.1.5,Win32,59.88023952,5f2bf7aa253520000bfc83b6,667045947eb812cbdacbf325,66704c9421e6cab958ad926a,,,,,,,,,,,,,,,,,,,,,,,,,,,,,,,,,,,,997.3674,1003.5172,0,0,0,0,1,SoundStimuli/LikeARollingStone_BobDylan_Original5S.wav,,,,,,,,,,,,,,,,,,,,,,,,,,,,,,,,,,,,,,,,,,,,,,,,,,,,,,,,,,
,,,,,065515,001,2024-06-17_10h50.09.465,experiment,2024.1.5,Win32,59.88023952,5f2bf7aa253520000bfc83b6,667045947eb812cbdacbf325,66704c9421e6cab958ad926a,,,,,,,,,,,,,,,,,,,,,,,,,,,,,,,,,,,,1003.5227,1007.9169,0,1,1,1,1,SoundStimuli/LikeARollingStone_BobDylan_Cover5S.wav,,,,,,,,,,,,,,,,,,,,,,,,,,,,,,,,,,,,,,,,,,,,,,,,,,,,,,,,,,
,,,,,065515,001,2024-06-17_10h50.09.465,experiment,2024.1.5,Win32,59.88023952,5f2bf7aa253520000bfc83b6,667045947eb812cbdacbf325,66704c9421e6cab958ad926a,,,,,,,,,,,,,,,,,,,,,,,,,,,,,,,,,,,,,,,,,,,,1007.917,1010.3668,5.975850714,2.433,0,1,1,12,1,song_indices/LikeARollingStone_BobDylan.csv,,,,,,,,,,,,,,,,,,,,,,,,,,,,,,,,,,,,,,,,,,,,,,,,
,,,,,065515,001,2024-06-17_10h50.09.465,experiment,2024.1.5,Win32,59.88023952,5f2bf7aa253520000bfc83b6,667045947eb812cbdacbf325,66704c9421e6cab958ad926a,,,,,,,,,,,,,,,,,,,,,,,,,,,,,,,,,,,,1010.368,1016.4169,0,0,0,0,1,SoundStimuli/AnotherOneBitesTheDust_Queen_Original5S.wav,,,,,,,,,,,,,,,,,,,,,,,,,,,,,,,,,,,,,,,,,,,,,,,,,,,,,,,,,,
,,,,,065515,001,2024-06-17_10h50.09.465,experiment,2024.1.5,Win32,59.88023952,5f2bf7aa253520000bfc83b6,667045947eb812cbdacbf325,66704c9421e6cab958ad926a,,,,,,,,,,,,,,,,,,,,,,,,,,,,,,,,,,,,1016.4228,1024.5501,0,1,1,1,1,SoundStimuli/AnotherOneBitesTheDust_Queen_Cover5S.wav,,,,,,,,,,,,,,,,,,,,,,,,,,,,,,,,,,,,,,,,,,,,,,,,,,,,,,,,,,
,,,,,065515,001,2024-06-17_10h50.09.465,experiment,2024.1.5,Win32,59.88023952,5f2bf7aa253520000bfc83b6,667045947eb812cbdacbf325,66704c9421e6cab958ad926a,,,,,,,,,,,,,,,,,,,,,,,,,,,,,,,,,,,,,,,,,,,,1024.5503,1026.7001,3.960482986,2.1331,0,2,2,9,1,song_indices/AnotherOneBitesTheDust_Queen.csv,,,,,,,,,,,,,,,,,,,,,,,,,,,,,,,,,,,,,,,,,,,,,,,,
,,,,,065515,001,2024-06-17_10h50.09.465,experiment,2024.1.5,Win32,59.88023952,5f2bf7aa253520000bfc83b6,667045947eb812cbdacbf325,66704c9421e6cab958ad926a,,,,,,,,,,,,,,,,,,,,,,,,,,,,,,,,,,,,1026.7008,1033.5502,0,0,0,1,1,SoundStimuli/GodOnlyKnows_TheBeachBoys_Cover5S.wav,,,,,,,,,,,,,,,,,,,,,,,,,,,,,,,,,,,,,,,,,,,,,,,,,,,,,,,,,,
,,,,,065515,001,2024-06-17_10h50.09.465,experiment,2024.1.5,Win32,59.88023952,5f2bf7aa253520000bfc83b6,667045947eb812cbdacbf325,66704c9421e6cab958ad926a,,,,,,,,,,,,,,,,,,,,,,,,,,,,,,,,,,,,1033.5566,1039.8001,0,1,1,0,1,SoundStimuli/GodOnlyKnows_TheBeachBoys_Original5S.wav,,,,,,,,,,,,,,,,,,,,,,,,,,,,,,,,,,,,,,,,,,,,,,,,,,,,,,,,,,
,,,,,065515,001,2024-06-17_10h50.09.465,experiment,2024.1.5,Win32,59.88023952,5f2bf7aa253520000bfc83b6,667045947eb812cbdacbf325,66704c9421e6cab958ad926a,,,,,,,,,,,,,,,,,,,,,,,,,,,,,,,,,,,,,,,,,,,,1039.8002,1041.7834,5.501646542,1.9666,0,3,3,8,1,song_indices/GodOnlyKnows_TheBeachBoys.csv,,,,,,,,,,,,,,,,,,,,,,,,,,,,,,,,,,,,,,,,,,,,,,,,
,,,,,065515,001,2024-06-17_10h50.09.465,experiment,2024.1.5,Win32,59.88023952,5f2bf7aa253520000bfc83b6,667045947eb812cbdacbf325,66704c9421e6cab958ad926a,,,,,,,,,,,,,,,,,,,,,,,,,,,,,,,,,,,,1041.7842,1049.45,0,0,0,1,1,SoundStimuli/MyGirl_TheTemptations_Cover5S.wav,,,,,,,,,,,,,,,,,,,,,,,,,,,,,,,,,,,,,,,,,,,,,,,,,,,,,,,,,,
,,,,,065515,001,2024-06-17_10h50.09.465,experiment,2024.1.5,Win32,59.88023952,5f2bf7aa253520000bfc83b6,667045947eb812cbdacbf325,66704c9421e6cab958ad926a,,,,,,,,,,,,,,,,,,,,,,,,,,,,,,,,,,,,1049.4559,1055.85,0,1,1,0,1,SoundStimuli/MyGirl_TheTemptations_Original5S.wav,,,,,,,,,,,,,,,,,,,,,,,,,,,,,,,,,,,,,,,,,,,,,,,,,,,,,,,,,,
,,,,,065515,001,2024-06-17_10h50.09.465,experiment,2024.1.5,Win32,59.88023952,5f2bf7aa253520000bfc83b6,667045947eb812cbdacbf325,66704c9421e6cab958ad926a,,,,,,,,,,,,,,,,,,,,,,,,,,,,,,,,,,,,,,,,,,,,1055.8502,1056.8166,5.277716795,0.9532,0,4,4,15,1,song_indices/MyGirl_TheTemptations.csv,,,,,,,,,,,,,,,,,,,,,,,,,,,,,,,,,,,,,,,,,,,,,,,,
,,,,,065515,001,2024-06-17_10h50.09.465,experiment,2024.1.5,Win32,59.88023952,5f2bf7aa253520000bfc83b6,667045947eb812cbdacbf325,66704c9421e6cab958ad926a,,,,,,,,,,,,,,,,,,,,,,,,,,,,,,,,,,,,1056.8171,1060.9001,0,0,0,1,1,SoundStimuli/BohemianRhapsody_Queen_Cover5S.wav,,,,,,,,,,,,,,,,,,,,,,,,,,,,,,,,,,,,,,,,,,,,,,,,,,,,,,,,,,
,,,,,065515,001,2024-06-17_10h50.09.465,experiment,2024.1.5,Win32,59.88023952,5f2bf7aa253520000bfc83b6,667045947eb812cbdacbf325,66704c9421e6cab958ad926a,,,,,,,,,,,,,,,,,,,,,,,,,,,,,,,,,,,,1060.9054,1066.8669,0,1,1,0,1,SoundStimuli/BohemianRhapsody_Queen_Original5S.wav,,,,,,,,,,,,,,,,,,,,,,,,,,,,,,,,,,,,,,,,,,,,,,,,,,,,,,,,,,
,,,,,065515,001,2024-06-17_10h50.09.465,experiment,2024.1.5,Win32,59.88023952,5f2bf7aa253520000bfc83b6,667045947eb812cbdacbf325,66704c9421e6cab958ad926a,,,,,,,,,,,,,,,,,,,,,,,,,,,,,,,,,,,,,,,,,,,,1066.867,1068.15,4.96816685,1.2724,0,5,5,18,1,song_indices/BohemianRhapsody_Queen.csv,,,,,,,,,,,,,,,,,,,,,,,,,,,,,,,,,,,,,,,,,,,,,,,,
,,,,,065515,001,2024-06-17_10h50.09.465,experiment,2024.1.5,Win32,59.88023952,5f2bf7aa253520000bfc83b6,667045947eb812cbdacbf325,66704c9421e6cab958ad926a,,,,,,,,,,,,,,,,,,,,,,,,,,,,,,,,,,,,1068.1505,1076.75,0,0,0,1,1,SoundStimuli/HeatWaves_GlassAnimals_Cover5S.wav,,,,,,,,,,,,,,,,,,,,,,,,,,,,,,,,,,,,,,,,,,,,,,,,,,,,,,,,,,
,,,,,065515,001,2024-06-17_10h50.09.465,experiment,2024.1.5,Win32,59.88023952,5f2bf7aa253520000bfc83b6,667045947eb812cbdacbf325,66704c9421e6cab958ad926a,,,,,,,,,,,,,,,,,,,,,,,,,,,,,,,,,,,,1076.7561,1082.8501,0,1,1,0,1,SoundStimuli/HeatWaves_GlassAnimals_Original5S.wav,,,,,,,,,,,,,,,,,,,,,,,,,,,,,,,,,,,,,,,,,,,,,,,,,,,,,,,,,,
,,,,,065515,001,2024-06-17_10h50.09.465,experiment,2024.1.5,Win32,59.88023952,5f2bf7aa253520000bfc83b6,667045947eb812cbdacbf325,66704c9421e6cab958ad926a,,,,,,,,,,,,,,,,,,,,,,,,,,,,,,,,,,,,,,,,,,,,1082.8502,1087.2667,5.86388584,4.4017,0,6,6,10,1,song_indices/HeatWaves_GlassAnimals.csv,,,,,,,,,,,,,,,,,,,,,,,,,,,,,,,,,,,,,,,,,,,,,,,,
,,,,,065515,001,2024-06-17_10h50.09.465,experiment,2024.1.5,Win32,59.88023952,5f2bf7aa253520000bfc83b6,667045947eb812cbdacbf325,66704c9421e6cab958ad926a,,,,,,,,,,,,,,,,,,,,,,,,,,,,,,,,,,,,1087.2673,1096.1334,0,0,0,0,1,SoundStimuli/Perfect_EdSheeran_Original5S.wav,,,,,,,,,,,,,,,,,,,,,,,,,,,,,,,,,,,,,,,,,,,,,,,,,,,,,,,,,,
,,,,,065515,001,2024-06-17_10h50.09.465,experiment,2024.1.5,Win32,59.88023952,5f2bf7aa253520000bfc83b6,667045947eb812cbdacbf325,66704c9421e6cab958ad926a,,,,,,,,,,,,,,,,,,,,,,,,,,,,,,,,,,,,1096.1397,1104.4,0,1,1,1,1,SoundStimuli/Perfect_EdSheeran_Cover5S.wav,,,,,,,,,,,,,,,,,,,,,,,,,,,,,,,,,,,,,,,,,,,,,,,,,,,,,,,,,,
,,,,,065515,001,2024-06-17_10h50.09.465,experiment,2024.1.5,Win32,59.88023952,5f2bf7aa253520000bfc83b6,667045947eb812cbdacbf325,66704c9421e6cab958ad926a,,,,,,,,,,,,,,,,,,,,,,,,,,,,,,,,,,,,,,,,,,,,1104.4,1106.7833,6.911086718,2.3661,0,7,7,0,1,song_indices/Perfect_EdSheeran.csv,,,,,,,,,,,,,,,,,,,,,,,,,,,,,,,,,,,,,,,,,,,,,,,,
,,,,,065515,001,2024-06-17_10h50.09.465,experiment,2024.1.5,Win32,59.88023952,5f2bf7aa253520000bfc83b6,667045947eb812cbdacbf325,66704c9421e6cab958ad926a,,,,,,,,,,,,,,,,,,,,,,,,,,,,,,,,,,,,1106.784,1112.5836,0,0,0,0,1,SoundStimuli/IWantToHoldYourHand_TheBeatles_Original5S.wav,,,,,,,,,,,,,,,,,,,,,,,,,,,,,,,,,,,,,,,,,,,,,,,,,,,,,,,,,,
,,,,,065515,001,2024-06-17_10h50.09.465,experiment,2024.1.5,Win32,59.88023952,5f2bf7aa253520000bfc83b6,667045947eb812cbdacbf325,66704c9421e6cab958ad926a,,,,,,,,,,,,,,,,,,,,,,,,,,,,,,,,,,,,1112.5886,1118.6334,0,1,1,1,1,SoundStimuli/IWantToHoldYourHand_TheBeatles_Cover5S.wav,,,,,,,,,,,,,,,,,,,,,,,,,,,,,,,,,,,,,,,,,,,,,,,,,,,,,,,,,,
,,,,,065515,001,2024-06-17_10h50.09.465,experiment,2024.1.5,Win32,59.88023952,5f2bf7aa253520000bfc83b6,667045947eb812cbdacbf325,66704c9421e6cab958ad926a,,,,,,,,,,,,,,,,,,,,,,,,,,,,,,,,,,,,,,,,,,,,1118.6335,1119.8499,2.972557629,1.2016,0,8,8,19,1,song_indices/IWantToHoldYourHand_TheBeatles.csv,,,,,,,,,,,,,,,,,,,,,,,,,,,,,,,,,,,,,,,,,,,,,,,,
,,,,,065515,001,2024-06-17_10h50.09.465,experiment,2024.1.5,Win32,59.88023952,5f2bf7aa253520000bfc83b6,667045947eb812cbdacbf325,66704c9421e6cab958ad926a,,,,,,,,,,,,,,,,,,,,,,,,,,,,,,,,,,,,1119.8504,1125.45,0,0,0,0,1,SoundStimuli/IWannaDanceWithSomebody_WhitneyHouston_Original5S.wav,,,,,,,,,,,,,,,,,,,,,,,,,,,,,,,,,,,,,,,,,,,,,,,,,,,,,,,,,,
,,,,,065515,001,2024-06-17_10h50.09.465,experiment,2024.1.5,Win32,59.88023952,5f2bf7aa253520000bfc83b6,667045947eb812cbdacbf325,66704c9421e6cab958ad926a,,,,,,,,,,,,,,,,,,,,,,,,,,,,,,,,,,,,1125.4551,1132.2835,0,1,1,1,1,SoundStimuli/IWannaDanceWithSomebody_WhitneyHouston_Cover5S.wav,,,,,,,,,,,,,,,,,,,,,,,,,,,,,,,,,,,,,,,,,,,,,,,,,,,,,,,,,,
,,,,,065515,001,2024-06-17_10h50.09.465,experiment,2024.1.5,Win32,59.88023952,5f2bf7aa253520000bfc83b6,667045947eb812cbdacbf325,66704c9421e6cab958ad926a,,,,,,,,,,,,,,,,,,,,,,,,,,,,,,,,,,,,,,,,,,,,1132.2837,1133.4166,1.93194292,1.1193,0,9,9,13,1,song_indices/IWannaDanceWithSomebody_WhitneyHouston.csv,,,,,,,,,,,,,,,,,,,,,,,,,,,,,,,,,,,,,,,,,,,,,,,,
,,,,,065515,001,2024-06-17_10h50.09.465,experiment,2024.1.5,Win32,59.88023952,5f2bf7aa253520000bfc83b6,667045947eb812cbdacbf325,66704c9421e6cab958ad926a,,,,,,,,,,,,,,,,,,,,,,,,,,,,,,,,,,,,1133.4172,1143.2385,0,0,0,0,1,SoundStimuli/OldTownRoad_LilNasX_Original5S.wav,,,,,,,,,,,,,,,,,,,,,,,,,,,,,,,,,,,,,,,,,,,,,,,,,,,,,,,,,,
,,,,,065515,001,2024-06-17_10h50.09.465,experiment,2024.1.5,Win32,59.88023952,5f2bf7aa253520000bfc83b6,667045947eb812cbdacbf325,66704c9421e6cab958ad926a,,,,,,,,,,,,,,,,,,,,,,,,,,,,,,,,,,,,1143.2451,1149.7501,0,1,1,1,1,SoundStimuli/OldTownRoad_LilNasX_Cover5S.wav,,,,,,,,,,,,,,,,,,,,,,,,,,,,,,,,,,,,,,,,,,,,,,,,,,,,,,,,,,
,,,,,065515,001,2024-06-17_10h50.09.465,experiment,2024.1.5,Win32,59.88023952,5f2bf7aa253520000bfc83b6,667045947eb812cbdacbf325,66704c9421e6cab958ad926a,,,,,,,,,,,,,,,,,,,,,,,,,,,,,,,,,,,,,,,,,,,,1149.7502,1151.7669,5.995609221,1.9999,0,10,10,20,1,song_indices/OldTownRoad_LilNasX.csv,,,,,,,,,,,,,,,,,,,,,,,,,,,,,,,,,,,,,,,,,,,,,,,,
,,,,,065515,001,2024-06-17_10h50.09.465,experiment,2024.1.5,Win32,59.88023952,5f2bf7aa253520000bfc83b6,667045947eb812cbdacbf325,66704c9421e6cab958ad926a,,,,,,,,,,,,,,,,,,,,,,,,,,,,,,,,,,,,1151.7674,1158.3501,0,0,0,1,1,SoundStimuli/Despacito_LuisFonsiDaddyYankee_Cover5S.wav,,,,,,,,,,,,,,,,,,,,,,,,,,,,,,,,,,,,,,,,,,,,,,,,,,,,,,,,,,
,,,,,065515,001,2024-06-17_10h50.09.465,experiment,2024.1.5,Win32,59.88023952,5f2bf7aa253520000bfc83b6,667045947eb812cbdacbf325,66704c9421e6cab958ad926a,,,,,,,,,,,,,,,,,,,,,,,,,,,,,,,,,,,,1158.3563,1164.9168,0,1,1,0,1,SoundStimuli/Despacito_LuisFonsiDaddyYankee_Original5S.wav,,,,,,,,,,,,,,,,,,,,,,,,,,,,,,,,,,,,,,,,,,,,,,,,,,,,,,,,,,
,,,,,065515,001,2024-06-17_10h50.09.465,experiment,2024.1.5,Win32,59.88023952,5f2bf7aa253520000bfc83b6,667045947eb812cbdacbf325,66704c9421e6cab958ad926a,,,,,,,,,,,,,,,,,,,,,,,,,,,,,,,,,,,,,,,,,,,,1164.917,1166.6835,2.76180022,1.75,0,11,11,11,1,song_indices/Despacito_LuisFonsiDaddyYankee.csv,,,,,,,,,,,,,,,,,,,,,,,,,,,,,,,,,,,,,,,,,,,,,,,,
,,,,,065515,001,2024-06-17_10h50.09.465,experiment,2024.1.5,Win32,59.88023952,5f2bf7aa253520000bfc83b6,667045947eb812cbdacbf325,66704c9421e6cab958ad926a,,,,,,,,,,,,,,,,,,,,,,,,,,,,,,,,,,,,1166.6841,1184.6667,0,0,0,1,1,SoundStimuli/BridgeOverTroubledWater_SimonAndGarfunkel_Cover5S.wav,,,,,,,,,,,,,,,,,,,,,,,,,,,,,,,,,,,,,,,,,,,,,,,,,,,,,,,,,,
,,,,,065515,001,2024-06-17_10h50.09.465,experiment,2024.1.5,Win32,59.88023952,5f2bf7aa253520000bfc83b6,667045947eb812cbdacbf325,66704c9421e6cab958ad926a,,,,,,,,,,,,,,,,,,,,,,,,,,,,,,,,,,,,1184.6746,1198.6688,0,1,1,0,1,SoundStimuli/BridgeOverTroubledWater_SimonAndGarfunkel_Original5S.wav,,,,,,,,,,,,,,,,,,,,,,,,,,,,,,,,,,,,,,,,,,,,,,,,,,,,,,,,,,
,,,,,065515,001,2024-06-17_10h50.09.465,experiment,2024.1.5,Win32,59.88023952,5f2bf7aa253520000bfc83b6,667045947eb812cbdacbf325,66704c9421e6cab958ad926a,,,,,,,,,,,,,,,,,,,,,,,,,,,,,,,,,,,,,,,,,,,,1198.6689,1201.7665,4.974753019,3.0842,0,12,12,1,1,song_indices/BridgeOverTroubledWater_SimonAndGarfunkel.csv,,,,,,,,,,,,,,,,,,,,,,,,,,,,,,,,,,,,,,,,,,,,,,,,
,,,,,065515,001,2024-06-17_10h50.09.465,experiment,2024.1.5,Win32,59.88023952,5f2bf7aa253520000bfc83b6,667045947eb812cbdacbf325,66704c9421e6cab958ad926a,,,,,,,,,,,,,,,,,,,,,,,,,,,,,,,,,,,,1201.7671,1207.9002,0,0,0,1,1,SoundStimuli/Smooth_SantanaRobThomas_Cover5S.wav,,,,,,,,,,,,,,,,,,,,,,,,,,,,,,,,,,,,,,,,,,,,,,,,,,,,,,,,,,
,,,,,065515,001,2024-06-17_10h50.09.465,experiment,2024.1.5,Win32,59.88023952,5f2bf7aa253520000bfc83b6,667045947eb812cbdacbf325,66704c9421e6cab958ad926a,,,,,,,,,,,,,,,,,,,,,,,,,,,,,,,,,,,,1207.9062,1214.1166,0,1,1,0,1,SoundStimuli/Smooth_SantanaRobThomas_Original5S.wav,,,,,,,,,,,,,,,,,,,,,,,,,,,,,,,,,,,,,,,,,,,,,,,,,,,,,,,,,,
,,,,,065515,001,2024-06-17_10h50.09.465,experiment,2024.1.5,Win32,59.88023952,5f2bf7aa253520000bfc83b6,667045947eb812cbdacbf325,66704c9421e6cab958ad926a,,,,,,,,,,,,,,,,,,,,,,,,,,,,,,,,,,,,,,,,,,,,1214.1168,1219.3833,2.057080132,5.2495,0,13,13,4,1,song_indices/Smooth_SantanaRobThomas.csv,,,,,,,,,,,,,,,,,,,,,,,,,,,,,,,,,,,,,,,,,,,,,,,,
,,,,,065515,001,2024-06-17_10h50.09.465,experiment,2024.1.5,Win32,59.88023952,5f2bf7aa253520000bfc83b6,667045947eb812cbdacbf325,66704c9421e6cab958ad926a,,,,,,,,,,,,,,,,,,,,,,,,,,,,,,,,,,,,1219.3841,1225.65,0,0,0,1,1,SoundStimuli/MackTheKnife_BobbyDarin_Cover5S.wav,,,,,,,,,,,,,,,,,,,,,,,,,,,,,,,,,,,,,,,,,,,,,,,,,,,,,,,,,,
,,,,,065515,001,2024-06-17_10h50.09.465,experiment,2024.1.5,Win32,59.88023952,5f2bf7aa253520000bfc83b6,667045947eb812cbdacbf325,66704c9421e6cab958ad926a,,,,,,,,,,,,,,,,,,,,,,,,,,,,,,,,,,,,1225.6568,1231.8001,0,1,1,0,1,SoundStimuli/MackTheKnife_BobbyDarin_Original5S.wav,,,,,,,,,,,,,,,,,,,,,,,,,,,,,,,,,,,,,,,,,,,,,,,,,,,,,,,,,,
,,,,,065515,001,2024-06-17_10h50.09.465,experiment,2024.1.5,Win32,59.88023952,5f2bf7aa253520000bfc83b6,667045947eb812cbdacbf325,66704c9421e6cab958ad926a,,,,,,,,,,,,,,,,,,,,,,,,,,,,,,,,,,,,,,,,,,,,1231.8002,1249.4169,1.912184413,17.6097,0,14,14,21,1,song_indices/MackTheKnife_BobbyDarin.csv,,,,,,,,,,,,,,,,,,,,,,,,,,,,,,,,,,,,,,,,,,,,,,,,
,,,,,065515,001,2024-06-17_10h50.09.465,experiment,2024.1.5,Win32,59.88023952,5f2bf7aa253520000bfc83b6,667045947eb812cbdacbf325,66704c9421e6cab958ad926a,,,,,,,,,,,,,,,,,,,,,,,,,,,,,,,,,,,,1249.4194,1254.1332,0,0,0,1,1,SoundStimuli/AChangeIsGonnaCome_SamCooke_Cover5S.wav,,,,,,,,,,,,,,,,,,,,,,,,,,,,,,,,,,,,,,,,,,,,,,,,,,,,,,,,,,
,,,,,065515,001,2024-06-17_10h50.09.465,experiment,2024.1.5,Win32,59.88023952,5f2bf7aa253520000bfc83b6,667045947eb812cbdacbf325,66704c9421e6cab958ad926a,,,,,,,,,,,,,,,,,,,,,,,,,,,,,,,,,,,,1254.1335,1260.1667,0,1,1,0,1,SoundStimuli/AChangeIsGonnaCome_SamCooke_Original5S.wav,,,,,,,,,,,,,,,,,,,,,,,,,,,,,,,,,,,,,,,,,,,,,,,,,,,,,,,,,,
,,,,,065515,001,2024-06-17_10h50.09.465,experiment,2024.1.5,Win32,59.88023952,5f2bf7aa253520000bfc83b6,667045947eb812cbdacbf325,66704c9421e6cab958ad926a,,,,,,,,,,,,,,,,,,,,,,,,,,,,,,,,,,,,,,,,,,,,1260.1668,1261.1832,4,1.0034,0,15,15,17,1,song_indices/AChangeIsGonnaCome_SamCooke.csv,,,,,,,,,,,,,,,,,,,,,,,,,,,,,,,,,,,,,,,,,,,,,,,,
,,,,,065515,001,2024-06-17_10h50.09.465,experiment,2024.1.5,Win32,59.88023952,5f2bf7aa253520000bfc83b6,667045947eb812cbdacbf325,66704c9421e6cab958ad926a,,,,,,,,,,,,,,,,,,,,,,,,,,,,,,,,,,,,1261.1838,1267.5332,0,0,0,0,1,SoundStimuli/EndlessLove_DianaRossLionelRichie_Original5S.wav,,,,,,,,,,,,,,,,,,,,,,,,,,,,,,,,,,,,,,,,,,,,,,,,,,,,,,,,,,
,,,,,065515,001,2024-06-17_10h50.09.465,experiment,2024.1.5,Win32,59.88023952,5f2bf7aa253520000bfc83b6,667045947eb812cbdacbf325,66704c9421e6cab958ad926a,,,,,,,,,,,,,,,,,,,,,,,,,,,,,,,,,,,,1267.5399,1275.0499,0,1,1,1,1,SoundStimuli/EndlessLove_DianaRossLionelRichie_Cover5S.wav,,,,,,,,,,,,,,,,,,,,,,,,,,,,,,,,,,,,,,,,,,,,,,,,,,,,,,,,,,
,,,,,065515,001,2024-06-17_10h50.09.465,experiment,2024.1.5,Win32,59.88023952,5f2bf7aa253520000bfc83b6,667045947eb812cbdacbf325,66704c9421e6cab958ad926a,,,,,,,,,,,,,,,,,,,,,,,,,,,,,,,,,,,,,,,,,,,,1275.0501,1275.7333,6.911086718,0.6726,0,16,16,3,1,song_indices/EndlessLove_DianaRossLionelRichie.csv,,,,,,,,,,,,,,,,,,,,,,,,,,,,,,,,,,,,,,,,,,,,,,,,
,,,,,065515,001,2024-06-17_10h50.09.465,experiment,2024.1.5,Win32,59.88023952,5f2bf7aa253520000bfc83b6,667045947eb812cbdacbf325,66704c9421e6cab958ad926a,,,,,,,,,,,,,,,,,,,,,,,,,,,,,,,,,,,,1275.7342,1281.6833,0,0,0,1,1,SoundStimuli/IllMakeLoveToYou_BoyzIIMen_Cover5S.wav,,,,,,,,,,,,,,,,,,,,,,,,,,,,,,,,,,,,,,,,,,,,,,,,,,,,,,,,,,
,,,,,065515,001,2024-06-17_10h50.09.465,experiment,2024.1.5,Win32,59.88023952,5f2bf7aa253520000bfc83b6,667045947eb812cbdacbf325,66704c9421e6cab958ad926a,,,,,,,,,,,,,,,,,,,,,,,,,,,,,,,,,,,,1281.6896,1287.7666,0,1,1,0,1,SoundStimuli/IllMakeLoveToYou_BoyzIIMen_Original5S.wav,,,,,,,,,,,,,,,,,,,,,,,,,,,,,,,,,,,,,,,,,,,,,,,,,,,,,,,,,,
,,,,,065515,001,2024-06-17_10h50.09.465,experiment,2024.1.5,Win32,59.88023952,5f2bf7aa253520000bfc83b6,667045947eb812cbdacbf325,66704c9421e6cab958ad926a,,,,,,,,,,,,,,,,,,,,,,,,,,,,,,,,,,,,,,,,,,,,1287.7667,1289.0169,4.96816685,1.233,0,17,17,6,1,song_indices/IllMakeLoveToYou_BoyzIIMen.csv,,,,,,,,,,,,,,,,,,,,,,,,,,,,,,,,,,,,,,,,,,,,,,,,
,,,,,065515,001,2024-06-17_10h50.09.465,experiment,2024.1.5,Win32,59.88023952,5f2bf7aa253520000bfc83b6,667045947eb812cbdacbf325,66704c9421e6cab958ad926a,,,,,,,,,,,,,,,,,,,,,,,,,,,,,,,,,,,,1289.0176,1295.15,0,0,0,0,1,SoundStimuli/StrawberryFieldsForever_TheBeatles_Original5S.wav,,,,,,,,,,,,,,,,,,,,,,,,,,,,,,,,,,,,,,,,,,,,,,,,,,,,,,,,,,
,,,,,065515,001,2024-06-17_10h50.09.465,experiment,2024.1.5,Win32,59.88023952,5f2bf7aa253520000bfc83b6,667045947eb812cbdacbf325,66704c9421e6cab958ad926a,,,,,,,,,,,,,,,,,,,,,,,,,,,,,,,,,,,,1295.1578,1302.1832,0,1,1,1,1,SoundStimuli/StrawberryFieldsForever_TheBeatles_Cover5S.wav,,,,,,,,,,,,,,,,,,,,,,,,,,,,,,,,,,,,,,,,,,,,,,,,,,,,,,,,,,
,,,,,065515,001,2024-06-17_10h50.09.465,experiment,2024.1.5,Win32,59.88023952,5f2bf7aa253520000bfc83b6,667045947eb812cbdacbf325,66704c9421e6cab958ad926a,,,,,,,,,,,,,,,,,,,,,,,,,,,,,,,,,,,,,,,,,,,,1302.1834,1304.5499,6.048298573,2.3498,0,18,18,14,1,song_indices/StrawberryFieldsForever_TheBeatles.csv,,,,,,,,,,,,,,,,,,,,,,,,,,,,,,,,,,,,,,,,,,,,,,,,
,,,,,065515,001,2024-06-17_10h50.09.465,experiment,2024.1.5,Win32,59.88023952,5f2bf7aa253520000bfc83b6,667045947eb812cbdacbf325,66704c9421e6cab958ad926a,,,,,,,,,,,,,,,,,,,,,,,,,,,,,,,,,,,,1304.5508,1312.0498,0,0,0,1,1,SoundStimuli/BadDay_DanielPowter_Cover5S.wav,,,,,,,,,,,,,,,,,,,,,,,,,,,,,,,,,,,,,,,,,,,,,,,,,,,,,,,,,,
,,,,,065515,001,2024-06-17_10h50.09.465,experiment,2024.1.5,Win32,59.88023952,5f2bf7aa253520000bfc83b6,667045947eb812cbdacbf325,66704c9421e6cab958ad926a,,,,,,,,,,,,,,,,,,,,,,,,,,,,,,,,,,,,1312.056,1319.7667,0,1,1,0,1,SoundStimuli/BadDay_DanielPowter_Original5S.wav,,,,,,,,,,,,,,,,,,,,,,,,,,,,,,,,,,,,,,,,,,,,,,,,,,,,,,,,,,
,,,,,065515,001,2024-06-17_10h50.09.465,experiment,2024.1.5,Win32,59.88023952,5f2bf7aa253520000bfc83b6,667045947eb812cbdacbf325,66704c9421e6cab958ad926a,,,,,,,,,,,,,,,,,,,,,,,,,,,,,,,,,,,,,,,,,,,,1319.7668,1320.9664,5.607025247,1.1862,0,19,19,22,1,song_indices/BadDay_DanielPowter.csv,,,,,,,,,,,,,,,,,,,,,,,,,,,,,,,,,,,,,,,,,,,,,,,,
,,,,,065515,001,2024-06-17_10h50.09.465,experiment,2024.1.5,Win32,59.88023952,5f2bf7aa253520000bfc83b6,667045947eb812cbdacbf325,66704c9421e6cab958ad926a,,,,,,,,,,,,,,,,,,,,,,,,,,,,,,,,,,,,1320.9669,1329.2664,0,0,0,1,1,SoundStimuli/Mood_24kGoldnianndior_Cover5S.wav,,,,,,,,,,,,,,,,,,,,,,,,,,,,,,,,,,,,,,,,,,,,,,,,,,,,,,,,,,
,,,,,065515,001,2024-06-17_10h50.09.465,experiment,2024.1.5,Win32,59.88023952,5f2bf7aa253520000bfc83b6,667045947eb812cbdacbf325,66704c9421e6cab958ad926a,,,,,,,,,,,,,,,,,,,,,,,,,,,,,,,,,,,,1329.2727,1335.5666,0,1,1,0,1,SoundStimuli/Mood_24kGoldnianndior_Original5S.wav,,,,,,,,,,,,,,,,,,,,,,,,,,,,,,,,,,,,,,,,,,,,,,,,,,,,,,,,,,
,,,,,065515,001,2024-06-17_10h50.09.465,experiment,2024.1.5,Win32,59.88023952,5f2bf7aa253520000bfc83b6,667045947eb812cbdacbf325,66704c9421e6cab958ad926a,,,,,,,,,,,,,,,,,,,,,,,,,,,,,,,,,,,,,,,,,,,,1335.5667,1337.7331,3.953896817,2.1495,0,20,20,5,1,song_indices/Mood_24kGoldnianndior.csv,,,,,,,,,,,,,,,,,,,,,,,,,,,,,,,,,,,,,,,,,,,,,,,,
,,,,,065515,001,2024-06-17_10h50.09.465,experiment,2024.1.5,Win32,59.88023952,5f2bf7aa253520000bfc83b6,667045947eb812cbdacbf325,66704c9421e6cab958ad926a,,,,,,,,,,,,,,,,,,,,,,,,,,,,,,,,,,,,1337.7338,1343.9335,0,0,0,0,1,SoundStimuli/LikeAPrayer_Madonna_Original5S.wav,,,,,,,,,,,,,,,,,,,,,,,,,,,,,,,,,,,,,,,,,,,,,,,,,,,,,,,,,,
,,,,,065515,001,2024-06-17_10h50.09.465,experiment,2024.1.5,Win32,59.88023952,5f2bf7aa253520000bfc83b6,667045947eb812cbdacbf325,66704c9421e6cab958ad926a,,,,,,,,,,,,,,,,,,,,,,,,,,,,,,,,,,,,1343.9401,1350.15,0,1,1,1,1,SoundStimuli/LikeAPrayer_Madonna_Cover5S.wav,,,,,,,,,,,,,,,,,,,,,,,,,,,,,,,,,,,,,,,,,,,,,,,,,,,,,,,,,,
,,,,,065515,001,2024-06-17_10h50.09.465,experiment,2024.1.5,Win32,59.88023952,5f2bf7aa253520000bfc83b6,667045947eb812cbdacbf325,66704c9421e6cab958ad926a,,,,,,,,,,,,,,,,,,,,,,,,,,,,,,,,,,,,,,,,,,,,1350.1501,1351.833,6.878155873,1.6764,0,21,21,7,1,song_indices/LikeAPrayer_Madonna.csv,,,,,,,,,,,,,,,,,,,,,,,,,,,,,,,,,,,,,,,,,,,,,,,,
,,,,,065515,001,2024-06-17_10h50.09.465,experiment,2024.1.5,Win32,59.88023952,5f2bf7aa253520000bfc83b6,667045947eb812cbdacbf325,66704c9421e6cab958ad926a,,,,,,,,,,,,,,,,,,,,,,,,,,,,,,,,,,,,1351.8336,1359.4998,0,0,0,1,1,SoundStimuli/LivinOnAPrayer_BonJovi_Cover5S.wav,,,,,,,,,,,,,,,,,,,,,,,,,,,,,,,,,,,,,,,,,,,,,,,,,,,,,,,,,,
,,,,,065515,001,2024-06-17_10h50.09.465,experiment,2024.1.5,Win32,59.88023952,5f2bf7aa253520000bfc83b6,667045947eb812cbdacbf325,66704c9421e6cab958ad926a,,,,,,,,,,,,,,,,,,,,,,,,,,,,,,,,,,,,1359.5057,1365.7498,0,1,1,0,1,SoundStimuli/LivinOnAPrayer_BonJovi_Original5S.wav,,,,,,,,,,,,,,,,,,,,,,,,,,,,,,,,,,,,,,,,,,,,,,,,,,,,,,,,,,
,,,,,065515,001,2024-06-17_10h50.09.465,experiment,2024.1.5,Win32,59.88023952,5f2bf7aa253520000bfc83b6,667045947eb812cbdacbf325,66704c9421e6cab958ad926a,,,,,,,,,,,,,,,,,,,,,,,,,,,,,,,,,,,,,,,,,,,,1365.7499,1367.8832,4.019758507,2.1243,0,22,22,16,1,song_indices/LivinOnAPrayer_BonJovi.csv,,,,,,,,,,,,,,,,,,,,,,,,,,,,,,,,,,,,,,,,,,,,,,,,
,,,,,065515,001,2024-06-17_10h50.09.465,experiment,2024.1.5,Win32,59.88023952,5f2bf7aa253520000bfc83b6,667045947eb812cbdacbf325,66704c9421e6cab958ad926a,,,,,,,,,,,,,,,,,,,,,,,,,,,,,,,,,,,,,,,,,,,,,,,,,,,,,,1367.8832,1367.8833,,,,0,2,2,0,1,choose_song_b1.csv,,,,,,,,,,,,,,,,,,,,,,,,,,,,,,,,,,,,,
,,,,,065515,001,2024-06-17_10h50.09.465,experiment,2024.1.5,Win32,59.88023952,5f2bf7aa253520000bfc83b6,667045947eb812cbdacbf325,66704c9421e6cab958ad926a,,,,,,,,,,,,,,,,,,,,,,,,,,,,,,,,,,,,,,,,,,,,,,,,,,,,,,,,,,,,,,,,,28,Item 2,I HAVE NEVER PLAYED AN INSTRUMENT. I HAVE TRIED TREACHING MYSELF BUT CAN NEVER SIT AND FOCUS ON IT.,Item 6,SPOTIFY,4,4,WORK,Rarely,Sometimes,Always,Never,Never,Never,Sometimes,Often,Often,Sometimes,Often,Often,Sometimes,Always,Sometimes,Never,TOO MANY TO LIST,INDIE FOLK,ALTERNATIVE ,LOFI,THEY REALLY HAVEN'T CHANGED,THERE WAS NOTHING NOT CAPTURED IN THE PREVIOUS QUESTIONS. MY MUSIC HABITS ARE ALL OVER THE PLACE.,0,0,0,0,1,,
,,,,,065515,001,2024-06-17_10h50.09.465,experiment,2024.1.5,Win32,59.88023952,5f2bf7aa253520000bfc83b6,667045947eb812cbdacbf325,66704c9421e6cab958ad926a,,,,,,,,,,,,,,,,,,,,,,,,,,,,,,,,,,,,,,,,,,,,,,,,,,,,,,,,,,,,,,,,,,,,,,,,,,,,,,,,,,,,,,,,,,,,,,,,,,,,1502.3593,1504.7998
