welcome.started,welcome.stopped,space_to_continue.keys,space_to_continue.rt,space_to_continue.duration,participant,session,date,expName,psychopyVersion,OS,frameRate,PROLIFIC_PID,STUDY_ID,SESSION_ID,consent.consent,consent.consent_recontact,consent_check.started,consent_check.stopped,calibration_ready.started,calibration_ready.stopped,cal_ready.keys,cal_ready.rt,cal_ready.duration,calibration.started,calibration.stopped,mouse.x,mouse.y,mouse.leftButton,mouse.midButton,mouse.rightButton,mouse.time,mouse.clicked_name,move_on.keys,move_on.rt,move_on.duration,instructions.started,instructions.stopped,next.keys,next.rt,next.duration,practice_trial.started,practice_trial.stopped,practice_slider.response,practice_slider.rt,ready.started,ready.stopped,key_resp.keys,key_resp.rt,key_resp.duration,play_sound.started,play_sound.stopped,trials.thisRepN,trials.thisTrialN,trials.thisN,trials.thisIndex,trials.ran,orig_or_cover,rating.started,rating.stopped,slider.response,slider.rt,songs.thisRepN,songs.thisTrialN,songs.thisN,songs.thisIndex,songs.ran,song_id,short_break.started,short_break.stopped,space_to_move_on.keys,space_to_move_on.rt,space_to_move_on.duration,blocks.thisRepN,blocks.thisTrialN,blocks.thisN,blocks.thisIndex,blocks.ran,block,survey.age,survey.musician,survey.music_making,survey.listen_time,survey.medium,survey.music_seeking,survey.music_choice,survey.activities,survey.question1.Classical,survey.question1.A cappella,survey.question1.Hip hop,survey.question1.Ambient,survey.question1.Folk/indie,survey.question1.Latin,survey.question1.Jazz,survey.question1.Alternative rock,survey.question1.R&B,survey.question1.Pop,survey.question1.Metal,survey.question1.Reggae,survey.question1.Country,survey.question1.Classic rock,survey.question1.Electronic (EDM),survey.question1.Disco,survey.other_genres,survey.genres_ranked.text1,survey.genres_ranked.text2,survey.genres_ranked.text3,survey.habit_change,survey.habits,experiment.thisRepN,experiment.thisTrialN,experiment.thisN,experiment.thisIndex,experiment.ran,goodbye.started,goodbye.stopped
1E-04,2.3227,space,2.3015,,080524,001,2024-06-17_10h56.21.035,experiment,2024.1.5,Win32,60.60606061,60ace56a83e45642b22d9954,667045947eb812cbdacbf325,66704e6c469d3e80ce7985d0,,,,,,,,,,,,,,,,,,,,,,,,,,,,,,,,,,,,,,,,,,,,,,,,,,,,,,,,,,,,,,,,,,,,,,,,,,,,,,,,,,,,,,,,,,,,,,,,,,,,,
,,,,,080524,001,2024-06-17_10h56.21.035,experiment,2024.1.5,Win32,60.60606061,60ace56a83e45642b22d9954,667045947eb812cbdacbf325,66704e6c469d3e80ce7985d0,yes,yes,,,,,,,,,,,,,,,,,,,,,,,,,,,,,,,,,,,,,,,,,,,,,,,,,,,,,,,,,,,,,,,,,,,,,,,,,,,,,,,,,,,,,,,,,,,,,,,,,,,
,,,,,080524,001,2024-06-17_10h56.21.035,experiment,2024.1.5,Win32,60.60606061,60ace56a83e45642b22d9954,667045947eb812cbdacbf325,66704e6c469d3e80ce7985d0,,,11.0678,11.0683,,,,,,,,,,,,,,,,,,,,,,,,,,,,,,,,,,,,,,,,,,,,,,,,,,,,,,,,,,,,,,,,,,,,,,,,,,,,,,,,,,,,,,,,,,,,,,,,,
,,,,,080524,001,2024-06-17_10h56.21.035,experiment,2024.1.5,Win32,60.60606061,60ace56a83e45642b22d9954,667045947eb812cbdacbf325,66704e6c469d3e80ce7985d0,,,,,11.073,25.1046,space,14.0061,,25.1048,35.2112,"[0.02800091969440261,0.11724681930848393,-0.015506422663309488]","[-0.4482375301989207,-0.38353425910673944,-0.4348505472083647]","[1,1,1]","[0,0,0]","[0,0,0]","[1.3472999999523196,5.8166999999880815,8.63509999996424]","[""play_button"",""play_button""]",right,0.0875,,35.2172,41.7672,space,6.5287,,41.7675,57.8957,5.041528565,16.11,57.8958,64.5972,space,6.6832,,64.6301,71.091,0,0,0,0,1,SoundStimuli/ShapeofYou_EdSheeran_Original5S.wav,,,,,,,,,,,,,,,,,,,,,,,,,,,,,,,,,,,,,,,,,,,,,,,,,,,,,,,,,,
,,,,,080524,001,2024-06-17_10h56.21.035,experiment,2024.1.5,Win32,60.60606061,60ace56a83e45642b22d9954,667045947eb812cbdacbf325,66704e6c469d3e80ce7985d0,,,,,,,,,,,,,,,,,,,,,,,,,,,,,,,,,,,,71.0917,77.3894,0,1,1,1,1,SoundStimuli/ShapeofYou_EdSheeran_Cover5S.wav,,,,,,,,,,,,,,,,,,,,,,,,,,,,,,,,,,,,,,,,,,,,,,,,,,,,,,,,,,
,,,,,080524,001,2024-06-17_10h56.21.035,experiment,2024.1.5,Win32,60.60606061,60ace56a83e45642b22d9954,667045947eb812cbdacbf325,66704e6c469d3e80ce7985d0,,,,,,,,,,,,,,,,,,,,,,,,,,,,,,,,,,,,,,,,,,,,77.397,79.1187,5.630184883,1.7192,0,0,0,21,1,song_indices/ShapeofYou_EdSheeran.csv,,,,,,,,,,,,,,,,,,,,,,,,,,,,,,,,,,,,,,,,,,,,,,,,
,,,,,080524,001,2024-06-17_10h56.21.035,experiment,2024.1.5,Win32,60.60606061,60ace56a83e45642b22d9954,667045947eb812cbdacbf325,66704e6c469d3e80ce7985d0,,,,,,,,,,,,,,,,,,,,,,,,,,,,,,,,,,,,79.1195,85.0493,0,0,0,0,1,SoundStimuli/StandByMe_BenEKing_Original5S.wav,,,,,,,,,,,,,,,,,,,,,,,,,,,,,,,,,,,,,,,,,,,,,,,,,,,,,,,,,,
,,,,,080524,001,2024-06-17_10h56.21.035,experiment,2024.1.5,Win32,60.60606061,60ace56a83e45642b22d9954,667045947eb812cbdacbf325,66704e6c469d3e80ce7985d0,,,,,,,,,,,,,,,,,,,,,,,,,,,,,,,,,,,,85.0546,91.0818,0,1,1,1,1,SoundStimuli/StandByMe_BenEKing_Cover5S.wav,,,,,,,,,,,,,,,,,,,,,,,,,,,,,,,,,,,,,,,,,,,,,,,,,,,,,,,,,,
,,,,,080524,001,2024-06-17_10h56.21.035,experiment,2024.1.5,Win32,60.60606061,60ace56a83e45642b22d9954,667045947eb812cbdacbf325,66704e6c469d3e80ce7985d0,,,,,,,,,,,,,,,,,,,,,,,,,,,,,,,,,,,,,,,,,,,,91.0818,92.2975,3.864216664,1.2074,0,1,1,1,1,song_indices/StandByMe_BenEKing.csv,,,,,,,,,,,,,,,,,,,,,,,,,,,,,,,,,,,,,,,,,,,,,,,,
,,,,,080524,001,2024-06-17_10h56.21.035,experiment,2024.1.5,Win32,60.60606061,60ace56a83e45642b22d9954,667045947eb812cbdacbf325,66704e6c469d3e80ce7985d0,,,,,,,,,,,,,,,,,,,,,,,,,,,,,,,,,,,,92.2983,98.3598,0,0,0,1,1,SoundStimuli/RockWithYou_MichaelJackson_Cover5S.wav,,,,,,,,,,,,,,,,,,,,,,,,,,,,,,,,,,,,,,,,,,,,,,,,,,,,,,,,,,
,,,,,080524,001,2024-06-17_10h56.21.035,experiment,2024.1.5,Win32,60.60606061,60ace56a83e45642b22d9954,667045947eb812cbdacbf325,66704e6c469d3e80ce7985d0,,,,,,,,,,,,,,,,,,,,,,,,,,,,,,,,,,,,98.3659,104.6907,0,1,1,0,1,SoundStimuli/RockWithYou_MichaelJackson_Original5S.wav,,,,,,,,,,,,,,,,,,,,,,,,,,,,,,,,,,,,,,,,,,,,,,,,,,,,,,,,,,
,,,,,080524,001,2024-06-17_10h56.21.035,experiment,2024.1.5,Win32,60.60606061,60ace56a83e45642b22d9954,667045947eb812cbdacbf325,66704e6c469d3e80ce7985d0,,,,,,,,,,,,,,,,,,,,,,,,,,,,,,,,,,,,,,,,,,,,104.691,107.4749,4.941189721,2.7759,0,2,2,16,1,song_indices/RockWithYou_MichaelJackson.csv,,,,,,,,,,,,,,,,,,,,,,,,,,,,,,,,,,,,,,,,,,,,,,,,
,,,,,080524,001,2024-06-17_10h56.21.035,experiment,2024.1.5,Win32,60.60606061,60ace56a83e45642b22d9954,667045947eb812cbdacbf325,66704e6c469d3e80ce7985d0,,,,,,,,,,,,,,,,,,,,,,,,,,,,,,,,,,,,107.4757,115.2042,0,0,0,0,1,SoundStimuli/NoOne_AliciaKeys_Original5S.wav,,,,,,,,,,,,,,,,,,,,,,,,,,,,,,,,,,,,,,,,,,,,,,,,,,,,,,,,,,
,,,,,080524,001,2024-06-17_10h56.21.035,experiment,2024.1.5,Win32,60.60606061,60ace56a83e45642b22d9954,667045947eb812cbdacbf325,66704e6c469d3e80ce7985d0,,,,,,,,,,,,,,,,,,,,,,,,,,,,,,,,,,,,115.2124,121.4259,0,1,1,1,1,SoundStimuli/NoOne_AliciaKeys_Cover5S.wav,,,,,,,,,,,,,,,,,,,,,,,,,,,,,,,,,,,,,,,,,,,,,,,,,,,,,,,,,,
,,,,,080524,001,2024-06-17_10h56.21.035,experiment,2024.1.5,Win32,60.60606061,60ace56a83e45642b22d9954,667045947eb812cbdacbf325,66704e6c469d3e80ce7985d0,,,,,,,,,,,,,,,,,,,,,,,,,,,,,,,,,,,,,,,,,,,,121.426,123.1601,4.847539985,1.7285,0,3,3,19,1,song_indices/NoOne_AliciaKeys.csv,,,,,,,,,,,,,,,,,,,,,,,,,,,,,,,,,,,,,,,,,,,,,,,,
,,,,,080524,001,2024-06-17_10h56.21.035,experiment,2024.1.5,Win32,60.60606061,60ace56a83e45642b22d9954,667045947eb812cbdacbf325,66704e6c469d3e80ce7985d0,,,,,,,,,,,,,,,,,,,,,,,,,,,,,,,,,,,,123.1608,130.6753,0,0,0,1,1,SoundStimuli/IWillAlwaysLoveYou_WhitneyHouston_Cover5S.wav,,,,,,,,,,,,,,,,,,,,,,,,,,,,,,,,,,,,,,,,,,,,,,,,,,,,,,,,,,
,,,,,080524,001,2024-06-17_10h56.21.035,experiment,2024.1.5,Win32,60.60606061,60ace56a83e45642b22d9954,667045947eb812cbdacbf325,66704e6c469d3e80ce7985d0,,,,,,,,,,,,,,,,,,,,,,,,,,,,,,,,,,,,130.6827,137.0629,0,1,1,0,1,SoundStimuli/IWillAlwaysLoveYou_WhitneyHouston_Original5S.wav,,,,,,,,,,,,,,,,,,,,,,,,,,,,,,,,,,,,,,,,,,,,,,,,,,,,,,,,,,
,,,,,080524,001,2024-06-17_10h56.21.035,experiment,2024.1.5,Win32,60.60606061,60ace56a83e45642b22d9954,667045947eb812cbdacbf325,66704e6c469d3e80ce7985d0,,,,,,,,,,,,,,,,,,,,,,,,,,,,,,,,,,,,,,,,,,,,137.0631,139.9479,6.981418036,2.8708,0,4,4,10,1,song_indices/IWillAlwaysLoveYou_WhitneyHouston.csv,,,,,,,,,,,,,,,,,,,,,,,,,,,,,,,,,,,,,,,,,,,,,,,,
,,,,,080524,001,2024-06-17_10h56.21.035,experiment,2024.1.5,Win32,60.60606061,60ace56a83e45642b22d9954,667045947eb812cbdacbf325,66704e6c469d3e80ce7985d0,,,,,,,,,,,,,,,,,,,,,,,,,,,,,,,,,,,,139.9489,146.7028,0,0,0,0,1,SoundStimuli/PartyRockAnthem_LMFAO_Original5S.wav,,,,,,,,,,,,,,,,,,,,,,,,,,,,,,,,,,,,,,,,,,,,,,,,,,,,,,,,,,
,,,,,080524,001,2024-06-17_10h56.21.035,experiment,2024.1.5,Win32,60.60606061,60ace56a83e45642b22d9954,667045947eb812cbdacbf325,66704e6c469d3e80ce7985d0,,,,,,,,,,,,,,,,,,,,,,,,,,,,,,,,,,,,146.7254,153.5074,0,1,1,1,1,SoundStimuli/PartyRockAnthem_LMFAO_Cover5S.wav,,,,,,,,,,,,,,,,,,,,,,,,,,,,,,,,,,,,,,,,,,,,,,,,,,,,,,,,,,
,,,,,080524,001,2024-06-17_10h56.21.035,experiment,2024.1.5,Win32,60.60606061,60ace56a83e45642b22d9954,667045947eb812cbdacbf325,66704e6c469d3e80ce7985d0,,,,,,,,,,,,,,,,,,,,,,,,,,,,,,,,,,,,,,,,,,,,153.5079,238.6138,4.981325111,85.0761,0,5,5,2,1,song_indices/PartyRockAnthem_LMFAO.csv,,,,,,,,,,,,,,,,,,,,,,,,,,,,,,,,,,,,,,,,,,,,,,,,
,,,,,080524,001,2024-06-17_10h56.21.035,experiment,2024.1.5,Win32,60.60606061,60ace56a83e45642b22d9954,667045947eb812cbdacbf325,66704e6c469d3e80ce7985d0,,,,,,,,,,,,,,,,,,,,,,,,,,,,,,,,,,,,238.6154,245.1516,0,0,0,0,1,SoundStimuli/CrazyInLove_BeyonceFtJayZ_Original5S.wav,,,,,,,,,,,,,,,,,,,,,,,,,,,,,,,,,,,,,,,,,,,,,,,,,,,,,,,,,,
,,,,,080524,001,2024-06-17_10h56.21.035,experiment,2024.1.5,Win32,60.60606061,60ace56a83e45642b22d9954,667045947eb812cbdacbf325,66704e6c469d3e80ce7985d0,,,,,,,,,,,,,,,,,,,,,,,,,,,,,,,,,,,,245.1609,255.4083,0,1,1,1,1,SoundStimuli/CrazyInLove_BeyonceFtJayZ_Cover5S.wav,,,,,,,,,,,,,,,,,,,,,,,,,,,,,,,,,,,,,,,,,,,,,,,,,,,,,,,,,,
,,,,,080524,001,2024-06-17_10h56.21.035,experiment,2024.1.5,Win32,60.60606061,60ace56a83e45642b22d9954,667045947eb812cbdacbf325,66704e6c469d3e80ce7985d0,,,,,,,,,,,,,,,,,,,,,,,,,,,,,,,,,,,,,,,,,,,,255.4083,256.7763,4.994703698,1.3485,0,6,6,3,1,song_indices/CrazyInLove_BeyonceFtJayZ.csv,,,,,,,,,,,,,,,,,,,,,,,,,,,,,,,,,,,,,,,,,,,,,,,,
,,,,,080524,001,2024-06-17_10h56.21.035,experiment,2024.1.5,Win32,60.60606061,60ace56a83e45642b22d9954,667045947eb812cbdacbf325,66704e6c469d3e80ce7985d0,,,,,,,,,,,,,,,,,,,,,,,,,,,,,,,,,,,,256.7779,263.1144,0,0,0,1,1,SoundStimuli/Stronger_KanyeWest_Cover5S.wav,,,,,,,,,,,,,,,,,,,,,,,,,,,,,,,,,,,,,,,,,,,,,,,,,,,,,,,,,,
,,,,,080524,001,2024-06-17_10h56.21.035,experiment,2024.1.5,Win32,60.60606061,60ace56a83e45642b22d9954,667045947eb812cbdacbf325,66704e6c469d3e80ce7985d0,,,,,,,,,,,,,,,,,,,,,,,,,,,,,,,,,,,,263.1336,269.2011,0,1,1,0,1,SoundStimuli/Stronger_KanyeWest_Original5S.wav,,,,,,,,,,,,,,,,,,,,,,,,,,,,,,,,,,,,,,,,,,,,,,,,,,,,,,,,,,
,,,,,080524,001,2024-06-17_10h56.21.035,experiment,2024.1.5,Win32,60.60606061,60ace56a83e45642b22d9954,667045947eb812cbdacbf325,66704e6c469d3e80ce7985d0,,,,,,,,,,,,,,,,,,,,,,,,,,,,,,,,,,,,,,,,,,,,269.2012,272.9703,4.024759329,3.7513,0,7,7,9,1,song_indices/Stronger_KanyeWest.csv,,,,,,,,,,,,,,,,,,,,,,,,,,,,,,,,,,,,,,,,,,,,,,,,
,,,,,080524,001,2024-06-17_10h56.21.035,experiment,2024.1.5,Win32,60.60606061,60ace56a83e45642b22d9954,667045947eb812cbdacbf325,66704e6c469d3e80ce7985d0,,,,,,,,,,,,,,,,,,,,,,,,,,,,,,,,,,,,272.972,279.0751,0,0,0,0,1,SoundStimuli/GimmeShelter_RollingStones_Original5S.wav,,,,,,,,,,,,,,,,,,,,,,,,,,,,,,,,,,,,,,,,,,,,,,,,,,,,,,,,,,
,,,,,080524,001,2024-06-17_10h56.21.035,experiment,2024.1.5,Win32,60.60606061,60ace56a83e45642b22d9954,667045947eb812cbdacbf325,66704e6c469d3e80ce7985d0,,,,,,,,,,,,,,,,,,,,,,,,,,,,,,,,,,,,279.0983,285.3119,0,1,1,1,1,SoundStimuli/GimmeShelter_RollingStones_Cover5S.wav,,,,,,,,,,,,,,,,,,,,,,,,,,,,,,,,,,,,,,,,,,,,,,,,,,,,,,,,,,
,,,,,080524,001,2024-06-17_10h56.21.035,experiment,2024.1.5,Win32,60.60606061,60ace56a83e45642b22d9954,667045947eb812cbdacbf325,66704e6c469d3e80ce7985d0,,,,,,,,,,,,,,,,,,,,,,,,,,,,,,,,,,,,,,,,,,,,285.312,286.6795,3.014679203,1.3554,0,8,8,20,1,song_indices/GimmeShelter_RollingStones.csv,,,,,,,,,,,,,,,,,,,,,,,,,,,,,,,,,,,,,,,,,,,,,,,,
,,,,,080524,001,2024-06-17_10h56.21.035,experiment,2024.1.5,Win32,60.60606061,60ace56a83e45642b22d9954,667045947eb812cbdacbf325,66704e6c469d3e80ce7985d0,,,,,,,,,,,,,,,,,,,,,,,,,,,,,,,,,,,,286.6811,292.7673,0,0,0,0,1,SoundStimuli/GetUrFreakOn_MissyElliot_Original5S.wav,,,,,,,,,,,,,,,,,,,,,,,,,,,,,,,,,,,,,,,,,,,,,,,,,,,,,,,,,,
,,,,,080524,001,2024-06-17_10h56.21.035,experiment,2024.1.5,Win32,60.60606061,60ace56a83e45642b22d9954,667045947eb812cbdacbf325,66704e6c469d3e80ce7985d0,,,,,,,,,,,,,,,,,,,,,,,,,,,,,,,,,,,,292.7763,299.3549,0,1,1,1,1,SoundStimuli/GetUrFreakOn_MissyElliot_Cover5S.wav,,,,,,,,,,,,,,,,,,,,,,,,,,,,,,,,,,,,,,,,,,,,,,,,,,,,,,,,,,
,,,,,080524,001,2024-06-17_10h56.21.035,experiment,2024.1.5,Win32,60.60606061,60ace56a83e45642b22d9954,667045947eb812cbdacbf325,66704e6c469d3e80ce7985d0,,,,,,,,,,,,,,,,,,,,,,,,,,,,,,,,,,,,,,,,,,,,299.3553,301.6392,4.814093337,2.2589,0,9,9,18,1,song_indices/GetUrFreakOn_MissyElliot.csv,,,,,,,,,,,,,,,,,,,,,,,,,,,,,,,,,,,,,,,,,,,,,,,,
,,,,,080524,001,2024-06-17_10h56.21.035,experiment,2024.1.5,Win32,60.60606061,60ace56a83e45642b22d9954,667045947eb812cbdacbf325,66704e6c469d3e80ce7985d0,,,,,,,,,,,,,,,,,,,,,,,,,,,,,,,,,,,,301.6412,307.8603,0,0,0,0,1,SoundStimuli/BetteDavisEyes_KimCarnes_Original5S.wav,,,,,,,,,,,,,,,,,,,,,,,,,,,,,,,,,,,,,,,,,,,,,,,,,,,,,,,,,,
,,,,,080524,001,2024-06-17_10h56.21.035,experiment,2024.1.5,Win32,60.60606061,60ace56a83e45642b22d9954,667045947eb812cbdacbf325,66704e6c469d3e80ce7985d0,,,,,,,,,,,,,,,,,,,,,,,,,,,,,,,,,,,,307.8658,313.5648,0,1,1,1,1,SoundStimuli/BetteDavisEyes_KimCarnes_Cover5S.wav,,,,,,,,,,,,,,,,,,,,,,,,,,,,,,,,,,,,,,,,,,,,,,,,,,,,,,,,,,
,,,,,080524,001,2024-06-17_10h56.21.035,experiment,2024.1.5,Win32,60.60606061,60ace56a83e45642b22d9954,667045947eb812cbdacbf325,66704e6c469d3e80ce7985d0,,,,,,,,,,,,,,,,,,,,,,,,,,,,,,,,,,,,,,,,,,,,313.5652,315.1486,4.94787883,1.5541,0,10,10,5,1,song_indices/BetteDavisEyes_KimCarnes.csv,,,,,,,,,,,,,,,,,,,,,,,,,,,,,,,,,,,,,,,,,,,,,,,,
,,,,,080524,001,2024-06-17_10h56.21.035,experiment,2024.1.5,Win32,60.60606061,60ace56a83e45642b22d9954,667045947eb812cbdacbf325,66704e6c469d3e80ce7985d0,,,,,,,,,,,,,,,,,,,,,,,,,,,,,,,,,,,,315.1501,322.5034,0,0,0,0,1,SoundStimuli/Happy_PharellWilliams_Original5S.wav,,,,,,,,,,,,,,,,,,,,,,,,,,,,,,,,,,,,,,,,,,,,,,,,,,,,,,,,,,
,,,,,080524,001,2024-06-17_10h56.21.035,experiment,2024.1.5,Win32,60.60606061,60ace56a83e45642b22d9954,667045947eb812cbdacbf325,66704e6c469d3e80ce7985d0,,,,,,,,,,,,,,,,,,,,,,,,,,,,,,,,,,,,322.5135,329.8585,0,1,1,1,1,SoundStimuli/Happy_PharellWilliams_Cover5S.wav,,,,,,,,,,,,,,,,,,,,,,,,,,,,,,,,,,,,,,,,,,,,,,,,,,,,,,,,,,
,,,,,080524,001,2024-06-17_10h56.21.035,experiment,2024.1.5,Win32,60.60606061,60ace56a83e45642b22d9954,667045947eb812cbdacbf325,66704e6c469d3e80ce7985d0,,,,,,,,,,,,,,,,,,,,,,,,,,,,,,,,,,,,,,,,,,,,329.8588,332.4766,5.489709913,2.599,0,11,11,7,1,song_indices/Happy_PharellWilliams.csv,,,,,,,,,,,,,,,,,,,,,,,,,,,,,,,,,,,,,,,,,,,,,,,,
,,,,,080524,001,2024-06-17_10h56.21.035,experiment,2024.1.5,Win32,60.60606061,60ace56a83e45642b22d9954,667045947eb812cbdacbf325,66704e6c469d3e80ce7985d0,,,,,,,,,,,,,,,,,,,,,,,,,,,,,,,,,,,,332.4782,338.4139,0,0,0,1,1,SoundStimuli/TheBoyIsMine_BrandyMonica_Cover5S.wav,,,,,,,,,,,,,,,,,,,,,,,,,,,,,,,,,,,,,,,,,,,,,,,,,,,,,,,,,,
,,,,,080524,001,2024-06-17_10h56.21.035,experiment,2024.1.5,Win32,60.60606061,60ace56a83e45642b22d9954,667045947eb812cbdacbf325,66704e6c469d3e80ce7985d0,,,,,,,,,,,,,,,,,,,,,,,,,,,,,,,,,,,,338.4198,344.6349,0,1,1,0,1,SoundStimuli/TheBoyIsMine_BrandyMonica_Original5S.wav,,,,,,,,,,,,,,,,,,,,,,,,,,,,,,,,,,,,,,,,,,,,,,,,,,,,,,,,,,
,,,,,080524,001,2024-06-17_10h56.21.035,experiment,2024.1.5,Win32,60.60606061,60ace56a83e45642b22d9954,667045947eb812cbdacbf325,66704e6c469d3e80ce7985d0,,,,,,,,,,,,,,,,,,,,,,,,,,,,,,,,,,,,,,,,,,,,344.6349,345.7357,6.172015966,1.0833,0,12,12,6,1,song_indices/TheBoyIsMine_BrandyMonica.csv,,,,,,,,,,,,,,,,,,,,,,,,,,,,,,,,,,,,,,,,,,,,,,,,
,,,,,080524,001,2024-06-17_10h56.21.035,experiment,2024.1.5,Win32,60.60606061,60ace56a83e45642b22d9954,667045947eb812cbdacbf325,66704e6c469d3e80ce7985d0,,,,,,,,,,,,,,,,,,,,,,,,,,,,,,,,,,,,345.7379,351.6397,0,0,0,0,1,SoundStimuli/EyeOfTheTiger_Survivor_Original5S.wav,,,,,,,,,,,,,,,,,,,,,,,,,,,,,,,,,,,,,,,,,,,,,,,,,,,,,,,,,,
,,,,,080524,001,2024-06-17_10h56.21.035,experiment,2024.1.5,Win32,60.60606061,60ace56a83e45642b22d9954,667045947eb812cbdacbf325,66704e6c469d3e80ce7985d0,,,,,,,,,,,,,,,,,,,,,,,,,,,,,,,,,,,,351.6457,357.7606,0,1,1,1,1,SoundStimuli/EyeOfTheTiger_Survivor_Cover5S.wav,,,,,,,,,,,,,,,,,,,,,,,,,,,,,,,,,,,,,,,,,,,,,,,,,,,,,,,,,,
,,,,,080524,001,2024-06-17_10h56.21.035,experiment,2024.1.5,Win32,60.60606061,60ace56a83e45642b22d9954,667045947eb812cbdacbf325,66704e6c469d3e80ce7985d0,,,,,,,,,,,,,,,,,,,,,,,,,,,,,,,,,,,,,,,,,,,,357.7609,358.7443,6.432897844,0.9611,0,13,13,11,1,song_indices/EyeOfTheTiger_Survivor.csv,,,,,,,,,,,,,,,,,,,,,,,,,,,,,,,,,,,,,,,,,,,,,,,,
,,,,,080524,001,2024-06-17_10h56.21.035,experiment,2024.1.5,Win32,60.60606061,60ace56a83e45642b22d9954,667045947eb812cbdacbf325,66704e6c469d3e80ce7985d0,,,,,,,,,,,,,,,,,,,,,,,,,,,,,,,,,,,,358.7461,365.9835,0,0,0,0,1,SoundStimuli/UptownFunk_MarkRonson_Original5S.wav,,,,,,,,,,,,,,,,,,,,,,,,,,,,,,,,,,,,,,,,,,,,,,,,,,,,,,,,,,
,,,,,080524,001,2024-06-17_10h56.21.035,experiment,2024.1.5,Win32,60.60606061,60ace56a83e45642b22d9954,667045947eb812cbdacbf325,66704e6c469d3e80ce7985d0,,,,,,,,,,,,,,,,,,,,,,,,,,,,,,,,,,,,365.9919,373.004,0,1,1,1,1,SoundStimuli/UptownFunk_MarkRonson_Cover5S.wav,,,,,,,,,,,,,,,,,,,,,,,,,,,,,,,,,,,,,,,,,,,,,,,,,,,,,,,,,,
,,,,,080524,001,2024-06-17_10h56.21.035,experiment,2024.1.5,Win32,60.60606061,60ace56a83e45642b22d9954,667045947eb812cbdacbf325,66704e6c469d3e80ce7985d0,,,,,,,,,,,,,,,,,,,,,,,,,,,,,,,,,,,,,,,,,,,,373.0043,374.3214,6.519857735,1.2987,0,14,14,15,1,song_indices/UptownFunk_MarkRonson.csv,,,,,,,,,,,,,,,,,,,,,,,,,,,,,,,,,,,,,,,,,,,,,,,,
,,,,,080524,001,2024-06-17_10h56.21.035,experiment,2024.1.5,Win32,60.60606061,60ace56a83e45642b22d9954,667045947eb812cbdacbf325,66704e6c469d3e80ce7985d0,,,,,,,,,,,,,,,,,,,,,,,,,,,,,,,,,,,,374.3229,380.0921,0,0,0,1,1,SoundStimuli/SmellsLikeTeenSpirit_Nirvana_Cover5S.wav,,,,,,,,,,,,,,,,,,,,,,,,,,,,,,,,,,,,,,,,,,,,,,,,,,,,,,,,,,
,,,,,080524,001,2024-06-17_10h56.21.035,experiment,2024.1.5,Win32,60.60606061,60ace56a83e45642b22d9954,667045947eb812cbdacbf325,66704e6c469d3e80ce7985d0,,,,,,,,,,,,,,,,,,,,,,,,,,,,,,,,,,,,380.0987,386.2966,0,1,1,0,1,SoundStimuli/SmellsLikeTeenSpirit_Nirvana_Original5S.wav,,,,,,,,,,,,,,,,,,,,,,,,,,,,,,,,,,,,,,,,,,,,,,,,,,,,,,,,,,
,,,,,080524,001,2024-06-17_10h56.21.035,experiment,2024.1.5,Win32,60.60606061,60ace56a83e45642b22d9954,667045947eb812cbdacbf325,66704e6c469d3e80ce7985d0,,,,,,,,,,,,,,,,,,,,,,,,,,,,,,,,,,,,,,,,,,,,386.2972,387.6805,6.533236688,1.3557,0,15,15,8,1,song_indices/SmellsLikeTeenSpirit_Nirvana.csv,,,,,,,,,,,,,,,,,,,,,,,,,,,,,,,,,,,,,,,,,,,,,,,,
,,,,,080524,001,2024-06-17_10h56.21.035,experiment,2024.1.5,Win32,60.60606061,60ace56a83e45642b22d9954,667045947eb812cbdacbf325,66704e6c469d3e80ce7985d0,,,,,,,,,,,,,,,,,,,,,,,,,,,,,,,,,,,,387.6821,393.8845,0,0,0,0,1,SoundStimuli/NoScrubs_TLC_Original5S.wav,,,,,,,,,,,,,,,,,,,,,,,,,,,,,,,,,,,,,,,,,,,,,,,,,,,,,,,,,,
,,,,,080524,001,2024-06-17_10h56.21.035,experiment,2024.1.5,Win32,60.60606061,60ace56a83e45642b22d9954,667045947eb812cbdacbf325,66704e6c469d3e80ce7985d0,,,,,,,,,,,,,,,,,,,,,,,,,,,,,,,,,,,,393.8924,400.0219,0,1,1,1,1,SoundStimuli/NoScrubs_TLC_Cover5S.wav,,,,,,,,,,,,,,,,,,,,,,,,,,,,,,,,,,,,,,,,,,,,,,,,,,,,,,,,,,
,,,,,080524,001,2024-06-17_10h56.21.035,experiment,2024.1.5,Win32,60.60606061,60ace56a83e45642b22d9954,667045947eb812cbdacbf325,66704e6c469d3e80ce7985d0,,,,,,,,,,,,,,,,,,,,,,,,,,,,,,,,,,,,,,,,,,,,400.0222,401.9065,6.432897844,1.8738,0,16,16,14,1,song_indices/NoScrubs_TLC.csv,,,,,,,,,,,,,,,,,,,,,,,,,,,,,,,,,,,,,,,,,,,,,,,,
,,,,,080524,001,2024-06-17_10h56.21.035,experiment,2024.1.5,Win32,60.60606061,60ace56a83e45642b22d9954,667045947eb812cbdacbf325,66704e6c469d3e80ce7985d0,,,,,,,,,,,,,,,,,,,,,,,,,,,,,,,,,,,,401.9082,409.0614,0,0,0,1,1,SoundStimuli/IWalkTheLine_JohnnyCash_Cover5S.wav,,,,,,,,,,,,,,,,,,,,,,,,,,,,,,,,,,,,,,,,,,,,,,,,,,,,,,,,,,
,,,,,080524,001,2024-06-17_10h56.21.035,experiment,2024.1.5,Win32,60.60606061,60ace56a83e45642b22d9954,667045947eb812cbdacbf325,66704e6c469d3e80ce7985d0,,,,,,,,,,,,,,,,,,,,,,,,,,,,,,,,,,,,409.0671,415.053,0,1,1,0,1,SoundStimuli/IWalkTheLine_JohnnyCash_Original5S.wav,,,,,,,,,,,,,,,,,,,,,,,,,,,,,,,,,,,,,,,,,,,,,,,,,,,,,,,,,,
,,,,,080524,001,2024-06-17_10h56.21.035,experiment,2024.1.5,Win32,60.60606061,60ace56a83e45642b22d9954,667045947eb812cbdacbf325,66704e6c469d3e80ce7985d0,,,,,,,,,,,,,,,,,,,,,,,,,,,,,,,,,,,,,,,,,,,,415.0533,417.4003,2.399265897,2.3239,0,17,17,17,1,song_indices/IWalkTheLine_JohnnyCash.csv,,,,,,,,,,,,,,,,,,,,,,,,,,,,,,,,,,,,,,,,,,,,,,,,
,,,,,080524,001,2024-06-17_10h56.21.035,experiment,2024.1.5,Win32,60.60606061,60ace56a83e45642b22d9954,667045947eb812cbdacbf325,66704e6c469d3e80ce7985d0,,,,,,,,,,,,,,,,,,,,,,,,,,,,,,,,,,,,417.4019,423.6712,0,0,0,0,1,SoundStimuli/ItsAllInTheGame_TommyEdwards_Original5S.wav,,,,,,,,,,,,,,,,,,,,,,,,,,,,,,,,,,,,,,,,,,,,,,,,,,,,,,,,,,
,,,,,080524,001,2024-06-17_10h56.21.035,experiment,2024.1.5,Win32,60.60606061,60ace56a83e45642b22d9954,667045947eb812cbdacbf325,66704e6c469d3e80ce7985d0,,,,,,,,,,,,,,,,,,,,,,,,,,,,,,,,,,,,423.6781,429.9092,0,1,1,1,1,SoundStimuli/ItsAllInTheGame_TommyEdwards_Cover5S.wav,,,,,,,,,,,,,,,,,,,,,,,,,,,,,,,,,,,,,,,,,,,,,,,,,,,,,,,,,,
,,,,,080524,001,2024-06-17_10h56.21.035,experiment,2024.1.5,Win32,60.60606061,60ace56a83e45642b22d9954,667045947eb812cbdacbf325,66704e6c469d3e80ce7985d0,,,,,,,,,,,,,,,,,,,,,,,,,,,,,,,,,,,,,,,,,,,,429.9097,432.0104,5.409438764,2.0781,0,18,18,13,1,song_indices/ItsAllInTheGame_TommyEdwards.csv,,,,,,,,,,,,,,,,,,,,,,,,,,,,,,,,,,,,,,,,,,,,,,,,
,,,,,080524,001,2024-06-17_10h56.21.035,experiment,2024.1.5,Win32,60.60606061,60ace56a83e45642b22d9954,667045947eb812cbdacbf325,66704e6c469d3e80ce7985d0,,,,,,,,,,,,,,,,,,,,,,,,,,,,,,,,,,,,432.012,438.4484,0,0,0,1,1,SoundStimuli/Fallin_AliciaKeys_Cover5S.wav,,,,,,,,,,,,,,,,,,,,,,,,,,,,,,,,,,,,,,,,,,,,,,,,,,,,,,,,,,
,,,,,080524,001,2024-06-17_10h56.21.035,experiment,2024.1.5,Win32,60.60606061,60ace56a83e45642b22d9954,667045947eb812cbdacbf325,66704e6c469d3e80ce7985d0,,,,,,,,,,,,,,,,,,,,,,,,,,,,,,,,,,,,438.4705,444.6358,0,1,1,0,1,SoundStimuli/Fallin_AliciaKeys_Original5S.wav,,,,,,,,,,,,,,,,,,,,,,,,,,,,,,,,,,,,,,,,,,,,,,,,,,,,,,,,,,
,,,,,080524,001,2024-06-17_10h56.21.035,experiment,2024.1.5,Win32,60.60606061,60ace56a83e45642b22d9954,667045947eb812cbdacbf325,66704e6c469d3e80ce7985d0,,,,,,,,,,,,,,,,,,,,,,,,,,,,,,,,,,,,,,,,,,,,444.6363,446.5365,6.018162777,1.8681,0,19,19,12,1,song_indices/Fallin_AliciaKeys.csv,,,,,,,,,,,,,,,,,,,,,,,,,,,,,,,,,,,,,,,,,,,,,,,,
,,,,,080524,001,2024-06-17_10h56.21.035,experiment,2024.1.5,Win32,60.60606061,60ace56a83e45642b22d9954,667045947eb812cbdacbf325,66704e6c469d3e80ce7985d0,,,,,,,,,,,,,,,,,,,,,,,,,,,,,,,,,,,,446.5381,455.4592,0,0,0,1,1,SoundStimuli/HeyYa_Outkast_Cover5S.wav,,,,,,,,,,,,,,,,,,,,,,,,,,,,,,,,,,,,,,,,,,,,,,,,,,,,,,,,,,
,,,,,080524,001,2024-06-17_10h56.21.035,experiment,2024.1.5,Win32,60.60606061,60ace56a83e45642b22d9954,667045947eb812cbdacbf325,66704e6c469d3e80ce7985d0,,,,,,,,,,,,,,,,,,,,,,,,,,,,,,,,,,,,455.4672,461.7642,0,1,1,0,1,SoundStimuli/HeyYa_Outkast_Original5S.wav,,,,,,,,,,,,,,,,,,,,,,,,,,,,,,,,,,,,,,,,,,,,,,,,,,,,,,,,,,
,,,,,080524,001,2024-06-17_10h56.21.035,experiment,2024.1.5,Win32,60.60606061,60ace56a83e45642b22d9954,667045947eb812cbdacbf325,66704e6c469d3e80ce7985d0,,,,,,,,,,,,,,,,,,,,,,,,,,,,,,,,,,,,,,,,,,,,461.7645,463.2311,1.977841721,1.4346,0,20,20,22,1,song_indices/HeyYa_Outkast.csv,,,,,,,,,,,,,,,,,,,,,,,,,,,,,,,,,,,,,,,,,,,,,,,,
,,,,,080524,001,2024-06-17_10h56.21.035,experiment,2024.1.5,Win32,60.60606061,60ace56a83e45642b22d9954,667045947eb812cbdacbf325,66704e6c469d3e80ce7985d0,,,,,,,,,,,,,,,,,,,,,,,,,,,,,,,,,,,,463.2326,469.5852,0,0,0,1,1,SoundStimuli/GoodGollyMissMolly_LittleRichard_Cover5S.wav,,,,,,,,,,,,,,,,,,,,,,,,,,,,,,,,,,,,,,,,,,,,,,,,,,,,,,,,,,
,,,,,080524,001,2024-06-17_10h56.21.035,experiment,2024.1.5,Win32,60.60606061,60ace56a83e45642b22d9954,667045947eb812cbdacbf325,66704e6c469d3e80ce7985d0,,,,,,,,,,,,,,,,,,,,,,,,,,,,,,,,,,,,469.5912,475.6566,0,1,1,0,1,SoundStimuli/GoodGollyMissMolly_LittleRichard_Original5S.wav,,,,,,,,,,,,,,,,,,,,,,,,,,,,,,,,,,,,,,,,,,,,,,,,,,,,,,,,,,
,,,,,080524,001,2024-06-17_10h56.21.035,experiment,2024.1.5,Win32,60.60606061,60ace56a83e45642b22d9954,667045947eb812cbdacbf325,66704e6c469d3e80ce7985d0,,,,,,,,,,,,,,,,,,,,,,,,,,,,,,,,,,,,,,,,,,,,475.6572,477.1781,2.673526177,1.4984,0,21,21,0,1,song_indices/GoodGollyMissMolly_LittleRichard.csv,,,,,,,,,,,,,,,,,,,,,,,,,,,,,,,,,,,,,,,,,,,,,,,,
,,,,,080524,001,2024-06-17_10h56.21.035,experiment,2024.1.5,Win32,60.60606061,60ace56a83e45642b22d9954,667045947eb812cbdacbf325,66704e6c469d3e80ce7985d0,,,,,,,,,,,,,,,,,,,,,,,,,,,,,,,,,,,,477.1786,483.3948,0,0,0,0,1,SoundStimuli/TheBattleOfNewOrleans_JohnnyHorton_Original5S.wav,,,,,,,,,,,,,,,,,,,,,,,,,,,,,,,,,,,,,,,,,,,,,,,,,,,,,,,,,,
,,,,,080524,001,2024-06-17_10h56.21.035,experiment,2024.1.5,Win32,60.60606061,60ace56a83e45642b22d9954,667045947eb812cbdacbf325,66704e6c469d3e80ce7985d0,,,,,,,,,,,,,,,,,,,,,,,,,,,,,,,,,,,,483.4098,491.3831,0,1,1,1,1,SoundStimuli/TheBattleOfNewOrleans_JohnnyHorton_Cover5S.wav,,,,,,,,,,,,,,,,,,,,,,,,,,,,,,,,,,,,,,,,,,,,,,,,,,,,,,,,,,
,,,,,080524,001,2024-06-17_10h56.21.035,experiment,2024.1.5,Win32,60.60606061,60ace56a83e45642b22d9954,667045947eb812cbdacbf325,66704e6c469d3e80ce7985d0,,,,,,,,,,,,,,,,,,,,,,,,,,,,,,,,,,,,,,,,,,,,491.3831,492.6508,5.924513042,1.253,0,22,22,4,1,song_indices/TheBattleOfNewOrleans_JohnnyHorton.csv,,,,,,,,,,,,,,,,,,,,,,,,,,,,,,,,,,,,,,,,,,,,,,,,
,,,,,080524,001,2024-06-17_10h56.21.035,experiment,2024.1.5,Win32,60.60606061,60ace56a83e45642b22d9954,667045947eb812cbdacbf325,66704e6c469d3e80ce7985d0,,,,,,,,,,,,,,,,,,,,,,,,,,,,,,,,,,,,,,,,,,,,,,,,,,,,,,492.6521,498.9585,space,6.2867,,0,0,0,1,1,choose_song_b2.csv,,,,,,,,,,,,,,,,,,,,,,,,,,,,,,,,,,,,,
,,,,,080524,001,2024-06-17_10h56.21.035,experiment,2024.1.5,Win32,60.60606061,60ace56a83e45642b22d9954,667045947eb812cbdacbf325,66704e6c469d3e80ce7985d0,,,,,,,,,,,,,,,,,,,,,,,,,,,,,,,,,,,,498.9599,504.7921,0,0,0,1,1,SoundStimuli/StayinAlive_BeeGees_Cover5S.wav,,,,,,,,,,,,,,,,,,,,,,,,,,,,,,,,,,,,,,,,,,,,,,,,,,,,,,,,,,
,,,,,080524,001,2024-06-17_10h56.21.035,experiment,2024.1.5,Win32,60.60606061,60ace56a83e45642b22d9954,667045947eb812cbdacbf325,66704e6c469d3e80ce7985d0,,,,,,,,,,,,,,,,,,,,,,,,,,,,,,,,,,,,504.7984,510.8138,0,1,1,0,1,SoundStimuli/StayinAlive_BeeGees_Original5S.wav,,,,,,,,,,,,,,,,,,,,,,,,,,,,,,,,,,,,,,,,,,,,,,,,,,,,,,,,,,
,,,,,080524,001,2024-06-17_10h56.21.035,experiment,2024.1.5,Win32,60.60606061,60ace56a83e45642b22d9954,667045947eb812cbdacbf325,66704e6c469d3e80ce7985d0,,,,,,,,,,,,,,,,,,,,,,,,,,,,,,,,,,,,,,,,,,,,510.814,513.5857,5.710456032,2.7506,0,0,0,2,1,song_indices/StayinAlive_BeeGees.csv,,,,,,,,,,,,,,,,,,,,,,,,,,,,,,,,,,,,,,,,,,,,,,,,
,,,,,080524,001,2024-06-17_10h56.21.035,experiment,2024.1.5,Win32,60.60606061,60ace56a83e45642b22d9954,667045947eb812cbdacbf325,66704e6c469d3e80ce7985d0,,,,,,,,,,,,,,,,,,,,,,,,,,,,,,,,,,,,513.5863,519.5353,0,0,0,1,1,SoundStimuli/IllMakeLoveToYou_BoyzIIMen_Cover5S.wav,,,,,,,,,,,,,,,,,,,,,,,,,,,,,,,,,,,,,,,,,,,,,,,,,,,,,,,,,,
,,,,,080524,001,2024-06-17_10h56.21.035,experiment,2024.1.5,Win32,60.60606061,60ace56a83e45642b22d9954,667045947eb812cbdacbf325,66704e6c469d3e80ce7985d0,,,,,,,,,,,,,,,,,,,,,,,,,,,,,,,,,,,,519.5418,525.6231,0,1,1,0,1,SoundStimuli/IllMakeLoveToYou_BoyzIIMen_Original5S.wav,,,,,,,,,,,,,,,,,,,,,,,,,,,,,,,,,,,,,,,,,,,,,,,,,,,,,,,,,,
,,,,,080524,001,2024-06-17_10h56.21.035,experiment,2024.1.5,Win32,60.60606061,60ace56a83e45642b22d9954,667045947eb812cbdacbf325,66704e6c469d3e80ce7985d0,,,,,,,,,,,,,,,,,,,,,,,,,,,,,,,,,,,,,,,,,,,,525.6235,527.0865,5.008082284,1.4439,0,1,1,6,1,song_indices/IllMakeLoveToYou_BoyzIIMen.csv,,,,,,,,,,,,,,,,,,,,,,,,,,,,,,,,,,,,,,,,,,,,,,,,
,,,,,080524,001,2024-06-17_10h56.21.035,experiment,2024.1.5,Win32,60.60606061,60ace56a83e45642b22d9954,667045947eb812cbdacbf325,66704e6c469d3e80ce7985d0,,,,,,,,,,,,,,,,,,,,,,,,,,,,,,,,,,,,527.0872,533.1776,0,0,0,0,1,SoundStimuli/HeatWaves_GlassAnimals_Original5S.wav,,,,,,,,,,,,,,,,,,,,,,,,,,,,,,,,,,,,,,,,,,,,,,,,,,,,,,,,,,
,,,,,080524,001,2024-06-17_10h56.21.035,experiment,2024.1.5,Win32,60.60606061,60ace56a83e45642b22d9954,667045947eb812cbdacbf325,66704e6c469d3e80ce7985d0,,,,,,,,,,,,,,,,,,,,,,,,,,,,,,,,,,,,533.1844,541.7885,0,1,1,1,1,SoundStimuli/HeatWaves_GlassAnimals_Cover5S.wav,,,,,,,,,,,,,,,,,,,,,,,,,,,,,,,,,,,,,,,,,,,,,,,,,,,,,,,,,,
,,,,,080524,001,2024-06-17_10h56.21.035,experiment,2024.1.5,Win32,60.60606061,60ace56a83e45642b22d9954,667045947eb812cbdacbf325,66704e6c469d3e80ce7985d0,,,,,,,,,,,,,,,,,,,,,,,,,,,,,,,,,,,,,,,,,,,,541.7885,543.4515,4.867607681,1.6505,0,2,2,10,1,song_indices/HeatWaves_GlassAnimals.csv,,,,,,,,,,,,,,,,,,,,,,,,,,,,,,,,,,,,,,,,,,,,,,,,
,,,,,080524,001,2024-06-17_10h56.21.035,experiment,2024.1.5,Win32,60.60606061,60ace56a83e45642b22d9954,667045947eb812cbdacbf325,66704e6c469d3e80ce7985d0,,,,,,,,,,,,,,,,,,,,,,,,,,,,,,,,,,,,543.4533,549.7056,0,0,0,0,1,SoundStimuli/LivinOnAPrayer_BonJovi_Original5S.wav,,,,,,,,,,,,,,,,,,,,,,,,,,,,,,,,,,,,,,,,,,,,,,,,,,,,,,,,,,
,,,,,080524,001,2024-06-17_10h56.21.035,experiment,2024.1.5,Win32,60.60606061,60ace56a83e45642b22d9954,667045947eb812cbdacbf325,66704e6c469d3e80ce7985d0,,,,,,,,,,,,,,,,,,,,,,,,,,,,,,,,,,,,549.7208,557.394,0,1,1,1,1,SoundStimuli/LivinOnAPrayer_BonJovi_Cover5S.wav,,,,,,,,,,,,,,,,,,,,,,,,,,,,,,,,,,,,,,,,,,,,,,,,,,,,,,,,,,
,,,,,080524,001,2024-06-17_10h56.21.035,experiment,2024.1.5,Win32,60.60606061,60ace56a83e45642b22d9954,667045947eb812cbdacbf325,66704e6c469d3e80ce7985d0,,,,,,,,,,,,,,,,,,,,,,,,,,,,,,,,,,,,,,,,,,,,557.3943,558.5786,4.111719955,1.1644,0,3,3,16,1,song_indices/LivinOnAPrayer_BonJovi.csv,,,,,,,,,,,,,,,,,,,,,,,,,,,,,,,,,,,,,,,,,,,,,,,,
,,,,,080524,001,2024-06-17_10h56.21.035,experiment,2024.1.5,Win32,60.60606061,60ace56a83e45642b22d9954,667045947eb812cbdacbf325,66704e6c469d3e80ce7985d0,,,,,,,,,,,,,,,,,,,,,,,,,,,,,,,,,,,,558.5805,566.8675,0,0,0,1,1,SoundStimuli/Mood_24kGoldnianndior_Cover5S.wav,,,,,,,,,,,,,,,,,,,,,,,,,,,,,,,,,,,,,,,,,,,,,,,,,,,,,,,,,,
,,,,,080524,001,2024-06-17_10h56.21.035,experiment,2024.1.5,Win32,60.60606061,60ace56a83e45642b22d9954,667045947eb812cbdacbf325,66704e6c469d3e80ce7985d0,,,,,,,,,,,,,,,,,,,,,,,,,,,,,,,,,,,,566.8859,573.1887,0,1,1,0,1,SoundStimuli/Mood_24kGoldnianndior_Original5S.wav,,,,,,,,,,,,,,,,,,,,,,,,,,,,,,,,,,,,,,,,,,,,,,,,,,,,,,,,,,
,,,,,080524,001,2024-06-17_10h56.21.035,experiment,2024.1.5,Win32,60.60606061,60ace56a83e45642b22d9954,667045947eb812cbdacbf325,66704e6c469d3e80ce7985d0,,,,,,,,,,,,,,,,,,,,,,,,,,,,,,,,,,,,,,,,,,,,573.1892,575.4395,4.446183505,2.2189,0,4,4,5,1,song_indices/Mood_24kGoldnianndior.csv,,,,,,,,,,,,,,,,,,,,,,,,,,,,,,,,,,,,,,,,,,,,,,,,
,,,,,080524,001,2024-06-17_10h56.21.035,experiment,2024.1.5,Win32,60.60606061,60ace56a83e45642b22d9954,667045947eb812cbdacbf325,66704e6c469d3e80ce7985d0,,,,,,,,,,,,,,,,,,,,,,,,,,,,,,,,,,,,575.441,581.7611,0,0,0,0,1,SoundStimuli/BridgeOverTroubledWater_SimonAndGarfunkel_Original5S.wav,,,,,,,,,,,,,,,,,,,,,,,,,,,,,,,,,,,,,,,,,,,,,,,,,,,,,,,,,,
,,,,,080524,001,2024-06-17_10h56.21.035,experiment,2024.1.5,Win32,60.60606061,60ace56a83e45642b22d9954,667045947eb812cbdacbf325,66704e6c469d3e80ce7985d0,,,,,,,,,,,,,,,,,,,,,,,,,,,,,,,,,,,,581.7822,588.4822,0,1,1,1,1,SoundStimuli/BridgeOverTroubledWater_SimonAndGarfunkel_Cover5S.wav,,,,,,,,,,,,,,,,,,,,,,,,,,,,,,,,,,,,,,,,,,,,,,,,,,,,,,,,,,
,,,,,080524,001,2024-06-17_10h56.21.035,experiment,2024.1.5,Win32,60.60606061,60ace56a83e45642b22d9954,667045947eb812cbdacbf325,66704e6c469d3e80ce7985d0,,,,,,,,,,,,,,,,,,,,,,,,,,,,,,,,,,,,,,,,,,,,588.4826,591.1833,5.02146087,2.6752,0,5,5,1,1,song_indices/BridgeOverTroubledWater_SimonAndGarfunkel.csv,,,,,,,,,,,,,,,,,,,,,,,,,,,,,,,,,,,,,,,,,,,,,,,,
,,,,,080524,001,2024-06-17_10h56.21.035,experiment,2024.1.5,Win32,60.60606061,60ace56a83e45642b22d9954,667045947eb812cbdacbf325,66704e6c469d3e80ce7985d0,,,,,,,,,,,,,,,,,,,,,,,,,,,,,,,,,,,,591.1852,598.2054,0,0,0,1,1,SoundStimuli/StrawberryFieldsForever_TheBeatles_Cover5S.wav,,,,,,,,,,,,,,,,,,,,,,,,,,,,,,,,,,,,,,,,,,,,,,,,,,,,,,,,,,
,,,,,080524,001,2024-06-17_10h56.21.035,experiment,2024.1.5,Win32,60.60606061,60ace56a83e45642b22d9954,667045947eb812cbdacbf325,66704e6c469d3e80ce7985d0,,,,,,,,,,,,,,,,,,,,,,,,,,,,,,,,,,,,598.2265,604.3588,0,1,1,0,1,SoundStimuli/StrawberryFieldsForever_TheBeatles_Original5S.wav,,,,,,,,,,,,,,,,,,,,,,,,,,,,,,,,,,,,,,,,,,,,,,,,,,,,,,,,,,
,,,,,080524,001,2024-06-17_10h56.21.035,experiment,2024.1.5,Win32,60.60606061,60ace56a83e45642b22d9954,667045947eb812cbdacbf325,66704e6c469d3e80ce7985d0,,,,,,,,,,,,,,,,,,,,,,,,,,,,,,,,,,,,,,,,,,,,604.3591,605.8102,2.278858989,1.4367,0,6,6,14,1,song_indices/StrawberryFieldsForever_TheBeatles.csv,,,,,,,,,,,,,,,,,,,,,,,,,,,,,,,,,,,,,,,,,,,,,,,,
,,,,,080524,001,2024-06-17_10h56.21.035,experiment,2024.1.5,Win32,60.60606061,60ace56a83e45642b22d9954,667045947eb812cbdacbf325,66704e6c469d3e80ce7985d0,,,,,,,,,,,,,,,,,,,,,,,,,,,,,,,,,,,,605.812,612.6819,0,0,0,1,1,SoundStimuli/GodOnlyKnows_TheBeachBoys_Cover5S.wav,,,,,,,,,,,,,,,,,,,,,,,,,,,,,,,,,,,,,,,,,,,,,,,,,,,,,,,,,,
,,,,,080524,001,2024-06-17_10h56.21.035,experiment,2024.1.5,Win32,60.60606061,60ace56a83e45642b22d9954,667045947eb812cbdacbf325,66704e6c469d3e80ce7985d0,,,,,,,,,,,,,,,,,,,,,,,,,,,,,,,,,,,,612.7027,618.9358,0,1,1,0,1,SoundStimuli/GodOnlyKnows_TheBeachBoys_Original5S.wav,,,,,,,,,,,,,,,,,,,,,,,,,,,,,,,,,,,,,,,,,,,,,,,,,,,,,,,,,,
,,,,,080524,001,2024-06-17_10h56.21.035,experiment,2024.1.5,Win32,60.60606061,60ace56a83e45642b22d9954,667045947eb812cbdacbf325,66704e6c469d3e80ce7985d0,,,,,,,,,,,,,,,,,,,,,,,,,,,,,,,,,,,,,,,,,,,,618.9363,622.409,4.319087121,3.4531,0,7,7,8,1,song_indices/GodOnlyKnows_TheBeachBoys.csv,,,,,,,,,,,,,,,,,,,,,,,,,,,,,,,,,,,,,,,,,,,,,,,,
,,,,,080524,001,2024-06-17_10h56.21.035,experiment,2024.1.5,Win32,60.60606061,60ace56a83e45642b22d9954,667045947eb812cbdacbf325,66704e6c469d3e80ce7985d0,,,,,,,,,,,,,,,,,,,,,,,,,,,,,,,,,,,,622.4095,628.976,0,0,0,0,1,SoundStimuli/Despacito_LuisFonsiDaddyYankee_Original5S.wav,,,,,,,,,,,,,,,,,,,,,,,,,,,,,,,,,,,,,,,,,,,,,,,,,,,,,,,,,,
,,,,,080524,001,2024-06-17_10h56.21.035,experiment,2024.1.5,Win32,60.60606061,60ace56a83e45642b22d9954,667045947eb812cbdacbf325,66704e6c469d3e80ce7985d0,,,,,,,,,,,,,,,,,,,,,,,,,,,,,,,,,,,,628.9943,635.5807,0,1,1,1,1,SoundStimuli/Despacito_LuisFonsiDaddyYankee_Cover5S.wav,,,,,,,,,,,,,,,,,,,,,,,,,,,,,,,,,,,,,,,,,,,,,,,,,,,,,,,,,,
,,,,,080524,001,2024-06-17_10h56.21.035,experiment,2024.1.5,Win32,60.60606061,60ace56a83e45642b22d9954,667045947eb812cbdacbf325,66704e6c469d3e80ce7985d0,,,,,,,,,,,,,,,,,,,,,,,,,,,,,,,,,,,,,,,,,,,,635.581,636.8974,5.991405605,1.2947,0,8,8,11,1,song_indices/Despacito_LuisFonsiDaddyYankee.csv,,,,,,,,,,,,,,,,,,,,,,,,,,,,,,,,,,,,,,,,,,,,,,,,
,,,,,080524,001,2024-06-17_10h56.21.035,experiment,2024.1.5,Win32,60.60606061,60ace56a83e45642b22d9954,667045947eb812cbdacbf325,66704e6c469d3e80ce7985d0,,,,,,,,,,,,,,,,,,,,,,,,,,,,,,,,,,,,636.8994,644.5699,0,0,0,1,1,SoundStimuli/MyGirl_TheTemptations_Cover5S.wav,,,,,,,,,,,,,,,,,,,,,,,,,,,,,,,,,,,,,,,,,,,,,,,,,,,,,,,,,,
,,,,,080524,001,2024-06-17_10h56.21.035,experiment,2024.1.5,Win32,60.60606061,60ace56a83e45642b22d9954,667045947eb812cbdacbf325,66704e6c469d3e80ce7985d0,,,,,,,,,,,,,,,,,,,,,,,,,,,,,,,,,,,,644.5907,650.974,0,1,1,0,1,SoundStimuli/MyGirl_TheTemptations_Original5S.wav,,,,,,,,,,,,,,,,,,,,,,,,,,,,,,,,,,,,,,,,,,,,,,,,,,,,,,,,,,
,,,,,080524,001,2024-06-17_10h56.21.035,experiment,2024.1.5,Win32,60.60606061,60ace56a83e45642b22d9954,667045947eb812cbdacbf325,66704e6c469d3e80ce7985d0,,,,,,,,,,,,,,,,,,,,,,,,,,,,,,,,,,,,,,,,,,,,650.9744,652.9415,3.998002157,1.9557,0,9,9,15,1,song_indices/MyGirl_TheTemptations.csv,,,,,,,,,,,,,,,,,,,,,,,,,,,,,,,,,,,,,,,,,,,,,,,,
,,,,,080524,001,2024-06-17_10h56.21.035,experiment,2024.1.5,Win32,60.60606061,60ace56a83e45642b22d9954,667045947eb812cbdacbf325,66704e6c469d3e80ce7985d0,,,,,,,,,,,,,,,,,,,,,,,,,,,,,,,,,,,,652.9434,658.9794,0,0,0,0,1,SoundStimuli/AnotherOneBitesTheDust_Queen_Original5S.wav,,,,,,,,,,,,,,,,,,,,,,,,,,,,,,,,,,,,,,,,,,,,,,,,,,,,,,,,,,
,,,,,080524,001,2024-06-17_10h56.21.035,experiment,2024.1.5,Win32,60.60606061,60ace56a83e45642b22d9954,667045947eb812cbdacbf325,66704e6c469d3e80ce7985d0,,,,,,,,,,,,,,,,,,,,,,,,,,,,,,,,,,,,658.9999,667.1175,0,1,1,1,1,SoundStimuli/AnotherOneBitesTheDust_Queen_Cover5S.wav,,,,,,,,,,,,,,,,,,,,,,,,,,,,,,,,,,,,,,,,,,,,,,,,,,,,,,,,,,
,,,,,080524,001,2024-06-17_10h56.21.035,experiment,2024.1.5,Win32,60.60606061,60ace56a83e45642b22d9954,667045947eb812cbdacbf325,66704e6c469d3e80ce7985d0,,,,,,,,,,,,,,,,,,,,,,,,,,,,,,,,,,,,,,,,,,,,667.1176,673.1217,4.94787883,5.9908,0,10,10,9,1,song_indices/AnotherOneBitesTheDust_Queen.csv,,,,,,,,,,,,,,,,,,,,,,,,,,,,,,,,,,,,,,,,,,,,,,,,
,,,,,080524,001,2024-06-17_10h56.21.035,experiment,2024.1.5,Win32,60.60606061,60ace56a83e45642b22d9954,667045947eb812cbdacbf325,66704e6c469d3e80ce7985d0,,,,,,,,,,,,,,,,,,,,,,,,,,,,,,,,,,,,673.1234,679.5759,0,0,0,0,1,SoundStimuli/BadDay_DanielPowter_Original5S.wav,,,,,,,,,,,,,,,,,,,,,,,,,,,,,,,,,,,,,,,,,,,,,,,,,,,,,,,,,,
,,,,,080524,001,2024-06-17_10h56.21.035,experiment,2024.1.5,Win32,60.60606061,60ace56a83e45642b22d9954,667045947eb812cbdacbf325,66704e6c469d3e80ce7985d0,,,,,,,,,,,,,,,,,,,,,,,,,,,,,,,,,,,,679.5855,687.081,0,1,1,1,1,SoundStimuli/BadDay_DanielPowter_Cover5S.wav,,,,,,,,,,,,,,,,,,,,,,,,,,,,,,,,,,,,,,,,,,,,,,,,,,,,,,,,,,
,,,,,080524,001,2024-06-17_10h56.21.035,experiment,2024.1.5,Win32,60.60606061,60ace56a83e45642b22d9954,667045947eb812cbdacbf325,66704e6c469d3e80ce7985d0,,,,,,,,,,,,,,,,,,,,,,,,,,,,,,,,,,,,,,,,,,,,687.0814,688.6486,5.315789029,1.5498,0,11,11,22,1,song_indices/BadDay_DanielPowter.csv,,,,,,,,,,,,,,,,,,,,,,,,,,,,,,,,,,,,,,,,,,,,,,,,
,,,,,080524,001,2024-06-17_10h56.21.035,experiment,2024.1.5,Win32,60.60606061,60ace56a83e45642b22d9954,667045947eb812cbdacbf325,66704e6c469d3e80ce7985d0,,,,,,,,,,,,,,,,,,,,,,,,,,,,,,,,,,,,688.6504,694.2529,0,0,0,0,1,SoundStimuli/IWannaDanceWithSomebody_WhitneyHouston_Original5S.wav,,,,,,,,,,,,,,,,,,,,,,,,,,,,,,,,,,,,,,,,,,,,,,,,,,,,,,,,,,
,,,,,080524,001,2024-06-17_10h56.21.035,experiment,2024.1.5,Win32,60.60606061,60ace56a83e45642b22d9954,667045947eb812cbdacbf325,66704e6c469d3e80ce7985d0,,,,,,,,,,,,,,,,,,,,,,,,,,,,,,,,,,,,694.2744,701.1069,0,1,1,1,1,SoundStimuli/IWannaDanceWithSomebody_WhitneyHouston_Cover5S.wav,,,,,,,,,,,,,,,,,,,,,,,,,,,,,,,,,,,,,,,,,,,,,,,,,,,,,,,,,,
,,,,,080524,001,2024-06-17_10h56.21.035,experiment,2024.1.5,Win32,60.60606061,60ace56a83e45642b22d9954,667045947eb812cbdacbf325,66704e6c469d3e80ce7985d0,,,,,,,,,,,,,,,,,,,,,,,,,,,,,,,,,,,,,,,,,,,,701.1071,703.0749,4.573279522,1.9502,0,12,12,13,1,song_indices/IWannaDanceWithSomebody_WhitneyHouston.csv,,,,,,,,,,,,,,,,,,,,,,,,,,,,,,,,,,,,,,,,,,,,,,,,
,,,,,080524,001,2024-06-17_10h56.21.035,experiment,2024.1.5,Win32,60.60606061,60ace56a83e45642b22d9954,667045947eb812cbdacbf325,66704e6c469d3e80ce7985d0,,,,,,,,,,,,,,,,,,,,,,,,,,,,,,,,,,,,703.0767,710.5803,0,0,0,1,1,SoundStimuli/EndlessLove_DianaRossLionelRichie_Cover5S.wav,,,,,,,,,,,,,,,,,,,,,,,,,,,,,,,,,,,,,,,,,,,,,,,,,,,,,,,,,,
,,,,,080524,001,2024-06-17_10h56.21.035,experiment,2024.1.5,Win32,60.60606061,60ace56a83e45642b22d9954,667045947eb812cbdacbf325,66704e6c469d3e80ce7985d0,,,,,,,,,,,,,,,,,,,,,,,,,,,,,,,,,,,,710.6001,716.9349,0,1,1,0,1,SoundStimuli/EndlessLove_DianaRossLionelRichie_Original5S.wav,,,,,,,,,,,,,,,,,,,,,,,,,,,,,,,,,,,,,,,,,,,,,,,,,,,,,,,,,,
,,,,,080524,001,2024-06-17_10h56.21.035,experiment,2024.1.5,Win32,60.60606061,60ace56a83e45642b22d9954,667045947eb812cbdacbf325,66704e6c469d3e80ce7985d0,,,,,,,,,,,,,,,,,,,,,,,,,,,,,,,,,,,,,,,,,,,,716.9352,719.1857,4.399358638,2.2223,0,13,13,3,1,song_indices/EndlessLove_DianaRossLionelRichie.csv,,,,,,,,,,,,,,,,,,,,,,,,,,,,,,,,,,,,,,,,,,,,,,,,
,,,,,080524,001,2024-06-17_10h56.21.035,experiment,2024.1.5,Win32,60.60606061,60ace56a83e45642b22d9954,667045947eb812cbdacbf325,66704e6c469d3e80ce7985d0,,,,,,,,,,,,,,,,,,,,,,,,,,,,,,,,,,,,719.1878,724.9738,0,0,0,0,1,SoundStimuli/IWantToHoldYourHand_TheBeatles_Original5S.wav,,,,,,,,,,,,,,,,,,,,,,,,,,,,,,,,,,,,,,,,,,,,,,,,,,,,,,,,,,
,,,,,080524,001,2024-06-17_10h56.21.035,experiment,2024.1.5,Win32,60.60606061,60ace56a83e45642b22d9954,667045947eb812cbdacbf325,66704e6c469d3e80ce7985d0,,,,,,,,,,,,,,,,,,,,,,,,,,,,,,,,,,,,724.9949,731.0272,0,1,1,1,1,SoundStimuli/IWantToHoldYourHand_TheBeatles_Cover5S.wav,,,,,,,,,,,,,,,,,,,,,,,,,,,,,,,,,,,,,,,,,,,,,,,,,,,,,,,,,,
,,,,,080524,001,2024-06-17_10h56.21.035,experiment,2024.1.5,Win32,60.60606061,60ace56a83e45642b22d9954,667045947eb812cbdacbf325,66704e6c469d3e80ce7985d0,,,,,,,,,,,,,,,,,,,,,,,,,,,,,,,,,,,,,,,,,,,,731.0275,733.779,4.493008373,2.732,0,14,14,19,1,song_indices/IWantToHoldYourHand_TheBeatles.csv,,,,,,,,,,,,,,,,,,,,,,,,,,,,,,,,,,,,,,,,,,,,,,,,
,,,,,080524,001,2024-06-17_10h56.21.035,experiment,2024.1.5,Win32,60.60606061,60ace56a83e45642b22d9954,667045947eb812cbdacbf325,66704e6c469d3e80ce7985d0,,,,,,,,,,,,,,,,,,,,,,,,,,,,,,,,,,,,733.781,740.3,0,0,0,1,1,SoundStimuli/OldTownRoad_LilNasX_Cover5S.wav,,,,,,,,,,,,,,,,,,,,,,,,,,,,,,,,,,,,,,,,,,,,,,,,,,,,,,,,,,
,,,,,080524,001,2024-06-17_10h56.21.035,experiment,2024.1.5,Win32,60.60606061,60ace56a83e45642b22d9954,667045947eb812cbdacbf325,66704e6c469d3e80ce7985d0,,,,,,,,,,,,,,,,,,,,,,,,,,,,,,,,,,,,740.3116,747.6931,0,1,1,0,1,SoundStimuli/OldTownRoad_LilNasX_Original5S.wav,,,,,,,,,,,,,,,,,,,,,,,,,,,,,,,,,,,,,,,,,,,,,,,,,,,,,,,,,,
,,,,,080524,001,2024-06-17_10h56.21.035,experiment,2024.1.5,Win32,60.60606061,60ace56a83e45642b22d9954,667045947eb812cbdacbf325,66704e6c469d3e80ce7985d0,,,,,,,,,,,,,,,,,,,,,,,,,,,,,,,,,,,,,,,,,,,,747.6932,748.422,5.957959324,0.7095,0,15,15,20,1,song_indices/OldTownRoad_LilNasX.csv,,,,,,,,,,,,,,,,,,,,,,,,,,,,,,,,,,,,,,,,,,,,,,,,
,,,,,080524,001,2024-06-17_10h56.21.035,experiment,2024.1.5,Win32,60.60606061,60ace56a83e45642b22d9954,667045947eb812cbdacbf325,66704e6c469d3e80ce7985d0,,,,,,,,,,,,,,,,,,,,,,,,,,,,,,,,,,,,748.4238,754.6927,0,0,0,1,1,SoundStimuli/MackTheKnife_BobbyDarin_Cover5S.wav,,,,,,,,,,,,,,,,,,,,,,,,,,,,,,,,,,,,,,,,,,,,,,,,,,,,,,,,,,
,,,,,080524,001,2024-06-17_10h56.21.035,experiment,2024.1.5,Win32,60.60606061,60ace56a83e45642b22d9954,667045947eb812cbdacbf325,66704e6c469d3e80ce7985d0,,,,,,,,,,,,,,,,,,,,,,,,,,,,,,,,,,,,754.7006,760.8309,0,1,1,0,1,SoundStimuli/MackTheKnife_BobbyDarin_Original5S.wav,,,,,,,,,,,,,,,,,,,,,,,,,,,,,,,,,,,,,,,,,,,,,,,,,,,,,,,,,,
,,,,,080524,001,2024-06-17_10h56.21.035,experiment,2024.1.5,Win32,60.60606061,60ace56a83e45642b22d9954,667045947eb812cbdacbf325,66704e6c469d3e80ce7985d0,,,,,,,,,,,,,,,,,,,,,,,,,,,,,,,,,,,,,,,,,,,,760.8315,762.0477,3.201978673,1.1903,0,16,16,21,1,song_indices/MackTheKnife_BobbyDarin.csv,,,,,,,,,,,,,,,,,,,,,,,,,,,,,,,,,,,,,,,,,,,,,,,,
,,,,,080524,001,2024-06-17_10h56.21.035,experiment,2024.1.5,Win32,60.60606061,60ace56a83e45642b22d9954,667045947eb812cbdacbf325,66704e6c469d3e80ce7985d0,,,,,,,,,,,,,,,,,,,,,,,,,,,,,,,,,,,,762.049,768.1851,0,0,0,1,1,SoundStimuli/Smooth_SantanaRobThomas_Cover5S.wav,,,,,,,,,,,,,,,,,,,,,,,,,,,,,,,,,,,,,,,,,,,,,,,,,,,,,,,,,,
,,,,,080524,001,2024-06-17_10h56.21.035,experiment,2024.1.5,Win32,60.60606061,60ace56a83e45642b22d9954,667045947eb812cbdacbf325,66704e6c469d3e80ce7985d0,,,,,,,,,,,,,,,,,,,,,,,,,,,,,,,,,,,,768.1915,774.4059,0,1,1,0,1,SoundStimuli/Smooth_SantanaRobThomas_Original5S.wav,,,,,,,,,,,,,,,,,,,,,,,,,,,,,,,,,,,,,,,,,,,,,,,,,,,,,,,,,,
,,,,,080524,001,2024-06-17_10h56.21.035,experiment,2024.1.5,Win32,60.60606061,60ace56a83e45642b22d9954,667045947eb812cbdacbf325,66704e6c469d3e80ce7985d0,,,,,,,,,,,,,,,,,,,,,,,,,,,,,,,,,,,,,,,,,,,,774.4061,777.1744,6.178705076,2.7583,0,17,17,4,1,song_indices/Smooth_SantanaRobThomas.csv,,,,,,,,,,,,,,,,,,,,,,,,,,,,,,,,,,,,,,,,,,,,,,,,
,,,,,080524,001,2024-06-17_10h56.21.035,experiment,2024.1.5,Win32,60.60606061,60ace56a83e45642b22d9954,667045947eb812cbdacbf325,66704e6c469d3e80ce7985d0,,,,,,,,,,,,,,,,,,,,,,,,,,,,,,,,,,,,777.1764,783.3671,0,0,0,0,1,SoundStimuli/LikeAPrayer_Madonna_Original5S.wav,,,,,,,,,,,,,,,,,,,,,,,,,,,,,,,,,,,,,,,,,,,,,,,,,,,,,,,,,,
,,,,,080524,001,2024-06-17_10h56.21.035,experiment,2024.1.5,Win32,60.60606061,60ace56a83e45642b22d9954,667045947eb812cbdacbf325,66704e6c469d3e80ce7985d0,,,,,,,,,,,,,,,,,,,,,,,,,,,,,,,,,,,,783.3725,789.583,0,1,1,1,1,SoundStimuli/LikeAPrayer_Madonna_Cover5S.wav,,,,,,,,,,,,,,,,,,,,,,,,,,,,,,,,,,,,,,,,,,,,,,,,,,,,,,,,,,
,,,,,080524,001,2024-06-17_10h56.21.035,experiment,2024.1.5,Win32,60.60606061,60ace56a83e45642b22d9954,667045947eb812cbdacbf325,66704e6c469d3e80ce7985d0,,,,,,,,,,,,,,,,,,,,,,,,,,,,,,,,,,,,,,,,,,,,789.5836,795.1865,4.974636002,5.5923,0,18,18,7,1,song_indices/LikeAPrayer_Madonna.csv,,,,,,,,,,,,,,,,,,,,,,,,,,,,,,,,,,,,,,,,,,,,,,,,
,,,,,080524,001,2024-06-17_10h56.21.035,experiment,2024.1.5,Win32,60.60606061,60ace56a83e45642b22d9954,667045947eb812cbdacbf325,66704e6c469d3e80ce7985d0,,,,,,,,,,,,,,,,,,,,,,,,,,,,,,,,,,,,795.1885,799.5894,0,0,0,1,1,SoundStimuli/LikeARollingStone_BobDylan_Cover5S.wav,,,,,,,,,,,,,,,,,,,,,,,,,,,,,,,,,,,,,,,,,,,,,,,,,,,,,,,,,,
,,,,,080524,001,2024-06-17_10h56.21.035,experiment,2024.1.5,Win32,60.60606061,60ace56a83e45642b22d9954,667045947eb812cbdacbf325,66704e6c469d3e80ce7985d0,,,,,,,,,,,,,,,,,,,,,,,,,,,,,,,,,,,,799.5958,805.7444,0,1,1,0,1,SoundStimuli/LikeARollingStone_BobDylan_Original5S.wav,,,,,,,,,,,,,,,,,,,,,,,,,,,,,,,,,,,,,,,,,,,,,,,,,,,,,,,,,,
,,,,,080524,001,2024-06-17_10h56.21.035,experiment,2024.1.5,Win32,60.60606061,60ace56a83e45642b22d9954,667045947eb812cbdacbf325,66704e6c469d3e80ce7985d0,,,,,,,,,,,,,,,,,,,,,,,,,,,,,,,,,,,,,,,,,,,,805.7449,812.6543,4.988014588,6.8966,0,19,19,12,1,song_indices/LikeARollingStone_BobDylan.csv,,,,,,,,,,,,,,,,,,,,,,,,,,,,,,,,,,,,,,,,,,,,,,,,
,,,,,080524,001,2024-06-17_10h56.21.035,experiment,2024.1.5,Win32,60.60606061,60ace56a83e45642b22d9954,667045947eb812cbdacbf325,66704e6c469d3e80ce7985d0,,,,,,,,,,,,,,,,,,,,,,,,,,,,,,,,,,,,812.6547,816.7177,0,0,0,1,1,SoundStimuli/BohemianRhapsody_Queen_Cover5S.wav,,,,,,,,,,,,,,,,,,,,,,,,,,,,,,,,,,,,,,,,,,,,,,,,,,,,,,,,,,
,,,,,080524,001,2024-06-17_10h56.21.035,experiment,2024.1.5,Win32,60.60606061,60ace56a83e45642b22d9954,667045947eb812cbdacbf325,66704e6c469d3e80ce7985d0,,,,,,,,,,,,,,,,,,,,,,,,,,,,,,,,,,,,816.7284,822.6892,0,1,1,0,1,SoundStimuli/BohemianRhapsody_Queen_Original5S.wav,,,,,,,,,,,,,,,,,,,,,,,,,,,,,,,,,,,,,,,,,,,,,,,,,,,,,,,,,,
,,,,,080524,001,2024-06-17_10h56.21.035,experiment,2024.1.5,Win32,60.60606061,60ace56a83e45642b22d9954,667045947eb812cbdacbf325,66704e6c469d3e80ce7985d0,,,,,,,,,,,,,,,,,,,,,,,,,,,,,,,,,,,,,,,,,,,,822.6898,826.1576,3.964555876,3.4437,0,20,20,18,1,song_indices/BohemianRhapsody_Queen.csv,,,,,,,,,,,,,,,,,,,,,,,,,,,,,,,,,,,,,,,,,,,,,,,,
,,,,,080524,001,2024-06-17_10h56.21.035,experiment,2024.1.5,Win32,60.60606061,60ace56a83e45642b22d9954,667045947eb812cbdacbf325,66704e6c469d3e80ce7985d0,,,,,,,,,,,,,,,,,,,,,,,,,,,,,,,,,,,,826.1592,834.4129,0,0,0,1,1,SoundStimuli/Perfect_EdSheeran_Cover5S.wav,,,,,,,,,,,,,,,,,,,,,,,,,,,,,,,,,,,,,,,,,,,,,,,,,,,,,,,,,,
,,,,,080524,001,2024-06-17_10h56.21.035,experiment,2024.1.5,Win32,60.60606061,60ace56a83e45642b22d9954,667045947eb812cbdacbf325,66704e6c469d3e80ce7985d0,,,,,,,,,,,,,,,,,,,,,,,,,,,,,,,,,,,,834.42,843.2727,0,1,1,0,1,SoundStimuli/Perfect_EdSheeran_Original5S.wav,,,,,,,,,,,,,,,,,,,,,,,,,,,,,,,,,,,,,,,,,,,,,,,,,,,,,,,,,,
,,,,,080524,001,2024-06-17_10h56.21.035,experiment,2024.1.5,Win32,60.60606061,60ace56a83e45642b22d9954,667045947eb812cbdacbf325,66704e6c469d3e80ce7985d0,,,,,,,,,,,,,,,,,,,,,,,,,,,,,,,,,,,,,,,,,,,,843.2728,844.2579,5.817484354,0.9792,0,21,21,0,1,song_indices/Perfect_EdSheeran.csv,,,,,,,,,,,,,,,,,,,,,,,,,,,,,,,,,,,,,,,,,,,,,,,,
,,,,,080524,001,2024-06-17_10h56.21.035,experiment,2024.1.5,Win32,60.60606061,60ace56a83e45642b22d9954,667045947eb812cbdacbf325,66704e6c469d3e80ce7985d0,,,,,,,,,,,,,,,,,,,,,,,,,,,,,,,,,,,,844.2584,850.2901,0,0,0,0,1,SoundStimuli/AChangeIsGonnaCome_SamCooke_Original5S.wav,,,,,,,,,,,,,,,,,,,,,,,,,,,,,,,,,,,,,,,,,,,,,,,,,,,,,,,,,,
,,,,,080524,001,2024-06-17_10h56.21.035,experiment,2024.1.5,Win32,60.60606061,60ace56a83e45642b22d9954,667045947eb812cbdacbf325,66704e6c469d3e80ce7985d0,,,,,,,,,,,,,,,,,,,,,,,,,,,,,,,,,,,,850.2981,855.0098,0,1,1,1,1,SoundStimuli/AChangeIsGonnaCome_SamCooke_Cover5S.wav,,,,,,,,,,,,,,,,,,,,,,,,,,,,,,,,,,,,,,,,,,,,,,,,,,,,,,,,,,
,,,,,080524,001,2024-06-17_10h56.21.035,experiment,2024.1.5,Win32,60.60606061,60ace56a83e45642b22d9954,667045947eb812cbdacbf325,66704e6c469d3e80ce7985d0,,,,,,,,,,,,,,,,,,,,,,,,,,,,,,,,,,,,,,,,,,,,855.01,857.2948,5.442885045,2.2644,0,22,22,17,1,song_indices/AChangeIsGonnaCome_SamCooke.csv,,,,,,,,,,,,,,,,,,,,,,,,,,,,,,,,,,,,,,,,,,,,,,,,
,,,,,080524,001,2024-06-17_10h56.21.035,experiment,2024.1.5,Win32,60.60606061,60ace56a83e45642b22d9954,667045947eb812cbdacbf325,66704e6c469d3e80ce7985d0,,,,,,,,,,,,,,,,,,,,,,,,,,,,,,,,,,,,,,,,,,,,,,,,,,,,,,857.295,886.0988,space,28.7788,,0,1,1,0,1,choose_song_b1.csv,,,,,,,,,,,,,,,,,,,,,,,,,,,,,,,,,,,,,
,,,,,080524,001,2024-06-17_10h56.21.035,experiment,2024.1.5,Win32,60.60606061,60ace56a83e45642b22d9954,667045947eb812cbdacbf325,66704e6c469d3e80ce7985d0,,,,,,,,,,,,,,,,,,,,,,,,,,,,,,,,,,,,886.1031,893.6365,0,0,0,1,1,SoundStimuli/TikTok_Kesha_Cover5S.wav,,,,,,,,,,,,,,,,,,,,,,,,,,,,,,,,,,,,,,,,,,,,,,,,,,,,,,,,,,
,,,,,080524,001,2024-06-17_10h56.21.035,experiment,2024.1.5,Win32,60.60606061,60ace56a83e45642b22d9954,667045947eb812cbdacbf325,66704e6c469d3e80ce7985d0,,,,,,,,,,,,,,,,,,,,,,,,,,,,,,,,,,,,893.6585,899.8734,0,1,1,0,1,SoundStimuli/TikTok_Kesha_Original5S.wav,,,,,,,,,,,,,,,,,,,,,,,,,,,,,,,,,,,,,,,,,,,,,,,,,,,,,,,,,,
,,,,,080524,001,2024-06-17_10h56.21.035,experiment,2024.1.5,Win32,60.60606061,60ace56a83e45642b22d9954,667045947eb812cbdacbf325,66704e6c469d3e80ce7985d0,,,,,,,,,,,,,,,,,,,,,,,,,,,,,,,,,,,,,,,,,,,,899.8735,902.8587,5.369303006,2.9687,0,0,0,3,1,song_indices/TikTok_Kesha.csv,,,,,,,,,,,,,,,,,,,,,,,,,,,,,,,,,,,,,,,,,,,,,,,,
,,,,,080524,001,2024-06-17_10h56.21.035,experiment,2024.1.5,Win32,60.60606061,60ace56a83e45642b22d9954,667045947eb812cbdacbf325,66704e6c469d3e80ce7985d0,,,,,,,,,,,,,,,,,,,,,,,,,,,,,,,,,,,,902.8601,909.3158,0,0,0,1,1,SoundStimuli/YouLightUpMyLife_DebbyBoone_Cover5S.wav,,,,,,,,,,,,,,,,,,,,,,,,,,,,,,,,,,,,,,,,,,,,,,,,,,,,,,,,,,
,,,,,080524,001,2024-06-17_10h56.21.035,experiment,2024.1.5,Win32,60.60606061,60ace56a83e45642b22d9954,667045947eb812cbdacbf325,66704e6c469d3e80ce7985d0,,,,,,,,,,,,,,,,,,,,,,,,,,,,,,,,,,,,909.3223,915.4004,0,1,1,0,1,SoundStimuli/YouLightUpMyLife_DebbyBoone_Original5S.wav,,,,,,,,,,,,,,,,,,,,,,,,,,,,,,,,,,,,,,,,,,,,,,,,,,,,,,,,,,
,,,,,080524,001,2024-06-17_10h56.21.035,experiment,2024.1.5,Win32,60.60606061,60ace56a83e45642b22d9954,667045947eb812cbdacbf325,66704e6c469d3e80ce7985d0,,,,,,,,,,,,,,,,,,,,,,,,,,,,,,,,,,,,,,,,,,,,915.4004,916.9848,5.723834618,1.5742,0,1,1,4,1,song_indices/YouLightUpMyLife_DebbyBoone.csv,,,,,,,,,,,,,,,,,,,,,,,,,,,,,,,,,,,,,,,,,,,,,,,,
,,,,,080524,001,2024-06-17_10h56.21.035,experiment,2024.1.5,Win32,60.60606061,60ace56a83e45642b22d9954,667045947eb812cbdacbf325,66704e6c469d3e80ce7985d0,,,,,,,,,,,,,,,,,,,,,,,,,,,,,,,,,,,,916.9861,923.1556,0,0,0,0,1,SoundStimuli/TheSign_AceOfBase_Original5S.wav,,,,,,,,,,,,,,,,,,,,,,,,,,,,,,,,,,,,,,,,,,,,,,,,,,,,,,,,,,
,,,,,080524,001,2024-06-17_10h56.21.035,experiment,2024.1.5,Win32,60.60606061,60ace56a83e45642b22d9954,667045947eb812cbdacbf325,66704e6c469d3e80ce7985d0,,,,,,,,,,,,,,,,,,,,,,,,,,,,,,,,,,,,923.1619,929.1767,0,1,1,1,1,SoundStimuli/TheSign_AceOfBase_Cover5S.wav,,,,,,,,,,,,,,,,,,,,,,,,,,,,,,,,,,,,,,,,,,,,,,,,,,,,,,,,,,
,,,,,080524,001,2024-06-17_10h56.21.035,experiment,2024.1.5,Win32,60.60606061,60ace56a83e45642b22d9954,667045947eb812cbdacbf325,66704e6c469d3e80ce7985d0,,,,,,,,,,,,,,,,,,,,,,,,,,,,,,,,,,,,,,,,,,,,929.1771,930.4938,5.456263631,1.2943,0,2,2,5,1,song_indices/TheSign_AceOfBase.csv,,,,,,,,,,,,,,,,,,,,,,,,,,,,,,,,,,,,,,,,,,,,,,,,
,,,,,080524,001,2024-06-17_10h56.21.035,experiment,2024.1.5,Win32,60.60606061,60ace56a83e45642b22d9954,667045947eb812cbdacbf325,66704e6c469d3e80ce7985d0,,,,,,,,,,,,,,,,,,,,,,,,,,,,,,,,,,,,930.4957,935.7975,0,0,0,1,1,SoundStimuli/Superstition_StevieWonder_Cover5S.wav,,,,,,,,,,,,,,,,,,,,,,,,,,,,,,,,,,,,,,,,,,,,,,,,,,,,,,,,,,
,,,,,080524,001,2024-06-17_10h56.21.035,experiment,2024.1.5,Win32,60.60606061,60ace56a83e45642b22d9954,667045947eb812cbdacbf325,66704e6c469d3e80ce7985d0,,,,,,,,,,,,,,,,,,,,,,,,,,,,,,,,,,,,935.804,941.9349,0,1,1,0,1,SoundStimuli/Superstition_StevieWonder_Original5S.wav,,,,,,,,,,,,,,,,,,,,,,,,,,,,,,,,,,,,,,,,,,,,,,,,,,,,,,,,,,
,,,,,080524,001,2024-06-17_10h56.21.035,experiment,2024.1.5,Win32,60.60606061,60ace56a83e45642b22d9954,667045947eb812cbdacbf325,66704e6c469d3e80ce7985d0,,,,,,,,,,,,,,,,,,,,,,,,,,,,,,,,,,,,,,,,,,,,941.9351,943.6027,5.054907151,1.6539,0,3,3,15,1,song_indices/Superstition_StevieWonder.csv,,,,,,,,,,,,,,,,,,,,,,,,,,,,,,,,,,,,,,,,,,,,,,,,
,,,,,080524,001,2024-06-17_10h56.21.035,experiment,2024.1.5,Win32,60.60606061,60ace56a83e45642b22d9954,667045947eb812cbdacbf325,66704e6c469d3e80ce7985d0,,,,,,,,,,,,,,,,,,,,,,,,,,,,,,,,,,,,943.6044,950.4077,0,0,0,1,1,SoundStimuli/SomebodyThatIUsedtoKnow_Gotye_Cover5S.wav,,,,,,,,,,,,,,,,,,,,,,,,,,,,,,,,,,,,,,,,,,,,,,,,,,,,,,,,,,
,,,,,080524,001,2024-06-17_10h56.21.035,experiment,2024.1.5,Win32,60.60606061,60ace56a83e45642b22d9954,667045947eb812cbdacbf325,66704e6c469d3e80ce7985d0,,,,,,,,,,,,,,,,,,,,,,,,,,,,,,,,,,,,950.4304,957.6621,0,1,1,0,1,SoundStimuli/SomebodyThatIUsedtoKnow_Gotye_Original5S.wav,,,,,,,,,,,,,,,,,,,,,,,,,,,,,,,,,,,,,,,,,,,,,,,,,,,,,,,,,,
,,,,,080524,001,2024-06-17_10h56.21.035,experiment,2024.1.5,Win32,60.60606061,60ace56a83e45642b22d9954,667045947eb812cbdacbf325,66704e6c469d3e80ce7985d0,,,,,,,,,,,,,,,,,,,,,,,,,,,,,,,,,,,,,,,,,,,,957.6626,958.9297,5.904444979,1.2473,0,4,4,7,1,song_indices/SomebodyThatIUsedtoKnow_Gotye.csv,,,,,,,,,,,,,,,,,,,,,,,,,,,,,,,,,,,,,,,,,,,,,,,,
,,,,,080524,001,2024-06-17_10h56.21.035,experiment,2024.1.5,Win32,60.60606061,60ace56a83e45642b22d9954,667045947eb812cbdacbf325,66704e6c469d3e80ce7985d0,,,,,,,,,,,,,,,,,,,,,,,,,,,,,,,,,,,,958.9314,965.0347,0,0,0,0,1,SoundStimuli/UnbreakMyHeart_ToniBraxton_Original5S.wav,,,,,,,,,,,,,,,,,,,,,,,,,,,,,,,,,,,,,,,,,,,,,,,,,,,,,,,,,,
,,,,,080524,001,2024-06-17_10h56.21.035,experiment,2024.1.5,Win32,60.60606061,60ace56a83e45642b22d9954,667045947eb812cbdacbf325,66704e6c469d3e80ce7985d0,,,,,,,,,,,,,,,,,,,,,,,,,,,,,,,,,,,,965.0429,969.0195,0,1,1,1,1,SoundStimuli/UnbreakMyHeart_ToniBraxton_Cover5S.wav,,,,,,,,,,,,,,,,,,,,,,,,,,,,,,,,,,,,,,,,,,,,,,,,,,,,,,,,,,
,,,,,080524,001,2024-06-17_10h56.21.035,experiment,2024.1.5,Win32,60.60606061,60ace56a83e45642b22d9954,667045947eb812cbdacbf325,66704e6c469d3e80ce7985d0,,,,,,,,,,,,,,,,,,,,,,,,,,,,,,,,,,,,,,,,,,,,969.0196,970.254,3.06819318,1.2162,0,5,5,16,1,song_indices/UnbreakMyHeart_ToniBraxton.csv,,,,,,,,,,,,,,,,,,,,,,,,,,,,,,,,,,,,,,,,,,,,,,,,
,,,,,080524,001,2024-06-17_10h56.21.035,experiment,2024.1.5,Win32,60.60606061,60ace56a83e45642b22d9954,667045947eb812cbdacbf325,66704e6c469d3e80ce7985d0,,,,,,,,,,,,,,,,,,,,,,,,,,,,,,,,,,,,970.2559,976.7416,0,0,0,0,1,SoundStimuli/BlindingLights_TheWeeknd_Original5S.wav,,,,,,,,,,,,,,,,,,,,,,,,,,,,,,,,,,,,,,,,,,,,,,,,,,,,,,,,,,
,,,,,080524,001,2024-06-17_10h56.21.035,experiment,2024.1.5,Win32,60.60606061,60ace56a83e45642b22d9954,667045947eb812cbdacbf325,66704e6c469d3e80ce7985d0,,,,,,,,,,,,,,,,,,,,,,,,,,,,,,,,,,,,976.7485,983.5465,0,1,1,1,1,SoundStimuli/BlindingLights_TheWeeknd_Cover5S.wav,,,,,,,,,,,,,,,,,,,,,,,,,,,,,,,,,,,,,,,,,,,,,,,,,,,,,,,,,,
,,,,,080524,001,2024-06-17_10h56.21.035,experiment,2024.1.5,Win32,60.60606061,60ace56a83e45642b22d9954,667045947eb812cbdacbf325,66704e6c469d3e80ce7985d0,,,,,,,,,,,,,,,,,,,,,,,,,,,,,,,,,,,,,,,,,,,,983.547,985.7309,5.951270214,2.149,0,6,6,21,1,song_indices/BlindingLights_TheWeeknd.csv,,,,,,,,,,,,,,,,,,,,,,,,,,,,,,,,,,,,,,,,,,,,,,,,
,,,,,080524,001,2024-06-17_10h56.21.035,experiment,2024.1.5,Win32,60.60606061,60ace56a83e45642b22d9954,667045947eb812cbdacbf325,66704e6c469d3e80ce7985d0,,,,,,,,,,,,,,,,,,,,,,,,,,,,,,,,,,,,985.7323,992.8361,0,0,0,1,1,SoundStimuli/BlurredLines_RobinThicke_Cover5S.wav,,,,,,,,,,,,,,,,,,,,,,,,,,,,,,,,,,,,,,,,,,,,,,,,,,,,,,,,,,
,,,,,080524,001,2024-06-17_10h56.21.035,experiment,2024.1.5,Win32,60.60606061,60ace56a83e45642b22d9954,667045947eb812cbdacbf325,66704e6c469d3e80ce7985d0,,,,,,,,,,,,,,,,,,,,,,,,,,,,,,,,,,,,992.8476,999.5903,0,1,1,0,1,SoundStimuli/BlurredLines_RobinThicke_Original5S.wav,,,,,,,,,,,,,,,,,,,,,,,,,,,,,,,,,,,,,,,,,,,,,,,,,,,,,,,,,,
,,,,,080524,001,2024-06-17_10h56.21.035,experiment,2024.1.5,Win32,60.60606061,60ace56a83e45642b22d9954,667045947eb812cbdacbf325,66704e6c469d3e80ce7985d0,,,,,,,,,,,,,,,,,,,,,,,,,,,,,,,,,,,,,,,,,,,,999.5905,1001.4794,4.934500244,1.8814,0,7,7,9,1,song_indices/BlurredLines_RobinThicke.csv,,,,,,,,,,,,,,,,,,,,,,,,,,,,,,,,,,,,,,,,,,,,,,,,
,,,,,080524,001,2024-06-17_10h56.21.035,experiment,2024.1.5,Win32,60.60606061,60ace56a83e45642b22d9954,667045947eb812cbdacbf325,66704e6c469d3e80ce7985d0,,,,,,,,,,,,,,,,,,,,,,,,,,,,,,,,,,,,1001.4799,1008.7631,0,0,0,1,1,SoundStimuli/FlashdanceWhatAFeeling_IreneCara_Cover5S.wav,,,,,,,,,,,,,,,,,,,,,,,,,,,,,,,,,,,,,,,,,,,,,,,,,,,,,,,,,,
,,,,,080524,001,2024-06-17_10h56.21.035,experiment,2024.1.5,Win32,60.60606061,60ace56a83e45642b22d9954,667045947eb812cbdacbf325,66704e6c469d3e80ce7985d0,,,,,,,,,,,,,,,,,,,,,,,,,,,,,,,,,,,,1008.7695,1015.1511,0,1,1,0,1,SoundStimuli/FlashdanceWhatAFeeling_IreneCara_Original5S.wav,,,,,,,,,,,,,,,,,,,,,,,,,,,,,,,,,,,,,,,,,,,,,,,,,,,,,,,,,,
,,,,,080524,001,2024-06-17_10h56.21.035,experiment,2024.1.5,Win32,60.60606061,60ace56a83e45642b22d9954,667045947eb812cbdacbf325,66704e6c469d3e80ce7985d0,,,,,,,,,,,,,,,,,,,,,,,,,,,,,,,,,,,,,,,,,,,,1015.1514,1017.6688,6.078366231,2.4856,0,8,8,18,1,song_indices/FlashdanceWhatAFeeling_IreneCara.csv,,,,,,,,,,,,,,,,,,,,,,,,,,,,,,,,,,,,,,,,,,,,,,,,
,,,,,080524,001,2024-06-17_10h56.21.035,experiment,2024.1.5,Win32,60.60606061,60ace56a83e45642b22d9954,667045947eb812cbdacbf325,66704e6c469d3e80ce7985d0,,,,,,,,,,,,,,,,,,,,,,,,,,,,,,,,,,,,1017.67,1023.7115,0,0,0,0,1,SoundStimuli/HowDoILive_LeAnnRimes_Original5S.wav,,,,,,,,,,,,,,,,,,,,,,,,,,,,,,,,,,,,,,,,,,,,,,,,,,,,,,,,,,
,,,,,080524,001,2024-06-17_10h56.21.035,experiment,2024.1.5,Win32,60.60606061,60ace56a83e45642b22d9954,667045947eb812cbdacbf325,66704e6c469d3e80ce7985d0,,,,,,,,,,,,,,,,,,,,,,,,,,,,,,,,,,,,1023.7175,1029.1934,0,1,1,1,1,SoundStimuli/HowDoILive_LeAnnRimes_Cover5S.wav,,,,,,,,,,,,,,,,,,,,,,,,,,,,,,,,,,,,,,,,,,,,,,,,,,,,,,,,,,
,,,,,080524,001,2024-06-17_10h56.21.035,experiment,2024.1.5,Win32,60.60606061,60ace56a83e45642b22d9954,667045947eb812cbdacbf325,66704e6c469d3e80ce7985d0,,,,,,,,,,,,,,,,,,,,,,,,,,,,,,,,,,,,,,,,,,,,1029.1935,1031.128,5.697077446,1.9269,0,9,9,17,1,song_indices/HowDoILive_LeAnnRimes.csv,,,,,,,,,,,,,,,,,,,,,,,,,,,,,,,,,,,,,,,,,,,,,,,,
,,,,,080524,001,2024-06-17_10h56.21.035,experiment,2024.1.5,Win32,60.60606061,60ace56a83e45642b22d9954,667045947eb812cbdacbf325,66704e6c469d3e80ce7985d0,,,,,,,,,,,,,,,,,,,,,,,,,,,,,,,,,,,,1031.1295,1037.1994,0,0,0,0,1,SoundStimuli/TossinAndTurnin_BobbyLewis_Original5S.wav,,,,,,,,,,,,,,,,,,,,,,,,,,,,,,,,,,,,,,,,,,,,,,,,,,,,,,,,,,
,,,,,080524,001,2024-06-17_10h56.21.035,experiment,2024.1.5,Win32,60.60606061,60ace56a83e45642b22d9954,667045947eb812cbdacbf325,66704e6c469d3e80ce7985d0,,,,,,,,,,,,,,,,,,,,,,,,,,,,,,,,,,,,1037.2211,1043.3369,0,1,1,1,1,SoundStimuli/TossinAndTurnin_BobbyLewis_Cover5S.wav,,,,,,,,,,,,,,,,,,,,,,,,,,,,,,,,,,,,,,,,,,,,,,,,,,,,,,,,,,
,,,,,080524,001,2024-06-17_10h56.21.035,experiment,2024.1.5,Win32,60.60606061,60ace56a83e45642b22d9954,667045947eb812cbdacbf325,66704e6c469d3e80ce7985d0,,,,,,,,,,,,,,,,,,,,,,,,,,,,,,,,,,,,,,,,,,,,1043.3372,1047.8724,5.375992482,4.5069,0,10,10,13,1,song_indices/TossinAndTurnin_BobbyLewis.csv,,,,,,,,,,,,,,,,,,,,,,,,,,,,,,,,,,,,,,,,,,,,,,,,
,,,,,080524,001,2024-06-17_10h56.21.035,experiment,2024.1.5,Win32,60.60606061,60ace56a83e45642b22d9954,667045947eb812cbdacbf325,66704e6c469d3e80ce7985d0,,,,,,,,,,,,,,,,,,,,,,,,,,,,,,,,,,,,1047.8738,1054.8606,0,0,0,1,1,SoundStimuli/Dilemma_NellyKellyRowland_Cover5S.wav,,,,,,,,,,,,,,,,,,,,,,,,,,,,,,,,,,,,,,,,,,,,,,,,,,,,,,,,,,
,,,,,080524,001,2024-06-17_10h56.21.035,experiment,2024.1.5,Win32,60.60606061,60ace56a83e45642b22d9954,667045947eb812cbdacbf325,66704e6c469d3e80ce7985d0,,,,,,,,,,,,,,,,,,,,,,,,,,,,,,,,,,,,1054.8672,1061.0653,0,1,1,0,1,SoundStimuli/Dilemma_NellyKellyRowland_Original5S.wav,,,,,,,,,,,,,,,,,,,,,,,,,,,,,,,,,,,,,,,,,,,,,,,,,,,,,,,,,,
,,,,,080524,001,2024-06-17_10h56.21.035,experiment,2024.1.5,Win32,60.60606061,60ace56a83e45642b22d9954,667045947eb812cbdacbf325,66704e6c469d3e80ce7985d0,,,,,,,,,,,,,,,,,,,,,,,,,,,,,,,,,,,,,,,,,,,,1061.0656,1065.0841,4.901053962,3.9874,0,11,11,2,1,song_indices/Dilemma_NellyKellyRowland.csv,,,,,,,,,,,,,,,,,,,,,,,,,,,,,,,,,,,,,,,,,,,,,,,,
,,,,,080524,001,2024-06-17_10h56.21.035,experiment,2024.1.5,Win32,60.60606061,60ace56a83e45642b22d9954,667045947eb812cbdacbf325,66704e6c469d3e80ce7985d0,,,,,,,,,,,,,,,,,,,,,,,,,,,,,,,,,,,,1065.0857,1071.1218,0,0,0,0,1,SoundStimuli/LeFreak_Chic_Original5S.wav,,,,,,,,,,,,,,,,,,,,,,,,,,,,,,,,,,,,,,,,,,,,,,,,,,,,,,,,,,
,,,,,080524,001,2024-06-17_10h56.21.035,experiment,2024.1.5,Win32,60.60606061,60ace56a83e45642b22d9954,667045947eb812cbdacbf325,66704e6c469d3e80ce7985d0,,,,,,,,,,,,,,,,,,,,,,,,,,,,,,,,,,,,1071.1306,1076.6419,0,1,1,1,1,SoundStimuli/LeFreak_Chic_Cover5S.wav,,,,,,,,,,,,,,,,,,,,,,,,,,,,,,,,,,,,,,,,,,,,,,,,,,,,,,,,,,
,,,,,080524,001,2024-06-17_10h56.21.035,experiment,2024.1.5,Win32,60.60606061,60ace56a83e45642b22d9954,667045947eb812cbdacbf325,66704e6c469d3e80ce7985d0,,,,,,,,,,,,,,,,,,,,,,,,,,,,,,,,,,,,,,,,,,,,1076.6422,1082.7692,5.964648433,6.1206,0,12,12,11,1,song_indices/LeFreak_Chic.csv,,,,,,,,,,,,,,,,,,,,,,,,,,,,,,,,,,,,,,,,,,,,,,,,
,,,,,080524,001,2024-06-17_10h56.21.035,experiment,2024.1.5,Win32,60.60606061,60ace56a83e45642b22d9954,667045947eb812cbdacbf325,66704e6c469d3e80ce7985d0,,,,,,,,,,,,,,,,,,,,,,,,,,,,,,,,,,,,1082.7697,1088.8501,0,0,0,0,1,SoundStimuli/Weak_SWV_Original5S.wav,,,,,,,,,,,,,,,,,,,,,,,,,,,,,,,,,,,,,,,,,,,,,,,,,,,,,,,,,,
,,,,,080524,001,2024-06-17_10h56.21.035,experiment,2024.1.5,Win32,60.60606061,60ace56a83e45642b22d9954,667045947eb812cbdacbf325,66704e6c469d3e80ce7985d0,,,,,,,,,,,,,,,,,,,,,,,,,,,,,,,,,,,,1088.8577,1095.3381,0,1,1,1,1,SoundStimuli/Weak_SWV_Cover5S.wav,,,,,,,,,,,,,,,,,,,,,,,,,,,,,,,,,,,,,,,,,,,,,,,,,,,,,,,,,,
,,,,,080524,001,2024-06-17_10h56.21.035,experiment,2024.1.5,Win32,60.60606061,60ace56a83e45642b22d9954,667045947eb812cbdacbf325,66704e6c469d3e80ce7985d0,,,,,,,,,,,,,,,,,,,,,,,,,,,,,,,,,,,,,,,,,,,,1095.3383,1097.1055,5.248896098,1.7558,0,13,13,6,1,song_indices/Weak_SWV.csv,,,,,,,,,,,,,,,,,,,,,,,,,,,,,,,,,,,,,,,,,,,,,,,,
,,,,,080524,001,2024-06-17_10h56.21.035,experiment,2024.1.5,Win32,60.60606061,60ace56a83e45642b22d9954,667045947eb812cbdacbf325,66704e6c469d3e80ce7985d0,,,,,,,,,,,,,,,,,,,,,,,,,,,,,,,,,,,,1097.1071,1104.944,0,0,0,1,1,SoundStimuli/Dreams_FleetwoodMac_Cover5S.wav,,,,,,,,,,,,,,,,,,,,,,,,,,,,,,,,,,,,,,,,,,,,,,,,,,,,,,,,,,
,,,,,080524,001,2024-06-17_10h56.21.035,experiment,2024.1.5,Win32,60.60606061,60ace56a83e45642b22d9954,667045947eb812cbdacbf325,66704e6c469d3e80ce7985d0,,,,,,,,,,,,,,,,,,,,,,,,,,,,,,,,,,,,1104.953,1111.4484,0,1,1,0,1,SoundStimuli/Dreams_FleetwoodMac_Original5S.wav,,,,,,,,,,,,,,,,,,,,,,,,,,,,,,,,,,,,,,,,,,,,,,,,,,,,,,,,,,
,,,,,080524,001,2024-06-17_10h56.21.035,experiment,2024.1.5,Win32,60.60606061,60ace56a83e45642b22d9954,667045947eb812cbdacbf325,66704e6c469d3e80ce7985d0,,,,,,,,,,,,,,,,,,,,,,,,,,,,,,,,,,,,,,,,,,,,1111.4485,1113.7334,4.954568307,2.2775,0,14,14,1,1,song_indices/Dreams_FleetwoodMac.csv,,,,,,,,,,,,,,,,,,,,,,,,,,,,,,,,,,,,,,,,,,,,,,,,
,,,,,080524,001,2024-06-17_10h56.21.035,experiment,2024.1.5,Win32,60.60606061,60ace56a83e45642b22d9954,667045947eb812cbdacbf325,66704e6c469d3e80ce7985d0,,,,,,,,,,,,,,,,,,,,,,,,,,,,,,,,,,,,1113.7352,1125.4245,0,0,0,1,1,SoundStimuli/LetsGetItOn_MarvinGaye_Cover5S.wav,,,,,,,,,,,,,,,,,,,,,,,,,,,,,,,,,,,,,,,,,,,,,,,,,,,,,,,,,,
,,,,,080524,001,2024-06-17_10h56.21.035,experiment,2024.1.5,Win32,60.60606061,60ace56a83e45642b22d9954,667045947eb812cbdacbf325,66704e6c469d3e80ce7985d0,,,,,,,,,,,,,,,,,,,,,,,,,,,,,,,,,,,,1125.4306,1131.7292,0,1,1,0,1,SoundStimuli/LetsGetItOn_MarvinGaye_Original5S.wav,,,,,,,,,,,,,,,,,,,,,,,,,,,,,,,,,,,,,,,,,,,,,,,,,,,,,,,,,,
,,,,,080524,001,2024-06-17_10h56.21.035,experiment,2024.1.5,Win32,60.60606061,60ace56a83e45642b22d9954,667045947eb812cbdacbf325,66704e6c469d3e80ce7985d0,,,,,,,,,,,,,,,,,,,,,,,,,,,,,,,,,,,,,,,,,,,,1131.7294,1133.5297,3.737120647,1.7902,0,15,15,20,1,song_indices/LetsGetItOn_MarvinGaye.csv,,,,,,,,,,,,,,,,,,,,,,,,,,,,,,,,,,,,,,,,,,,,,,,,
,,,,,080524,001,2024-06-17_10h56.21.035,experiment,2024.1.5,Win32,60.60606061,60ace56a83e45642b22d9954,667045947eb812cbdacbf325,66704e6c469d3e80ce7985d0,,,,,,,,,,,,,,,,,,,,,,,,,,,,,,,,,,,,1133.5308,1139.6007,0,0,0,1,1,SoundStimuli/Respect_ArethaFranklin_Cover5S.wav,,,,,,,,,,,,,,,,,,,,,,,,,,,,,,,,,,,,,,,,,,,,,,,,,,,,,,,,,,
,,,,,080524,001,2024-06-17_10h56.21.035,experiment,2024.1.5,Win32,60.60606061,60ace56a83e45642b22d9954,667045947eb812cbdacbf325,66704e6c469d3e80ce7985d0,,,,,,,,,,,,,,,,,,,,,,,,,,,,,,,,,,,,1139.607,1153.4598,0,1,1,0,1,SoundStimuli/Respect_ArethaFranklin_Original5S.wav,,,,,,,,,,,,,,,,,,,,,,,,,,,,,,,,,,,,,,,,,,,,,,,,,,,,,,,,,,
,,,,,080524,001,2024-06-17_10h56.21.035,experiment,2024.1.5,Win32,60.60606061,60ace56a83e45642b22d9954,667045947eb812cbdacbf325,66704e6c469d3e80ce7985d0,,,,,,,,,,,,,,,,,,,,,,,,,,,,,,,,,,,,,,,,,,,,1153.4598,1155.7279,4.633482976,2.2547,0,16,16,0,1,song_indices/Respect_ArethaFranklin.csv,,,,,,,,,,,,,,,,,,,,,,,,,,,,,,,,,,,,,,,,,,,,,,,,
,,,,,080524,001,2024-06-17_10h56.21.035,experiment,2024.1.5,Win32,60.60606061,60ace56a83e45642b22d9954,667045947eb812cbdacbf325,66704e6c469d3e80ce7985d0,,,,,,,,,,,,,,,,,,,,,,,,,,,,,,,,,,,,1155.7286,1168.8534,0,0,0,1,1,SoundStimuli/ComeAndGetYourLove_Redbone_Cover5S.wav,,,,,,,,,,,,,,,,,,,,,,,,,,,,,,,,,,,,,,,,,,,,,,,,,,,,,,,,,,
,,,,,080524,001,2024-06-17_10h56.21.035,experiment,2024.1.5,Win32,60.60606061,60ace56a83e45642b22d9954,667045947eb812cbdacbf325,66704e6c469d3e80ce7985d0,,,,,,,,,,,,,,,,,,,,,,,,,,,,,,,,,,,,1168.8595,1174.9741,0,1,1,0,1,SoundStimuli/ComeAndGetYourLove_Redbone_Original5S.wav,,,,,,,,,,,,,,,,,,,,,,,,,,,,,,,,,,,,,,,,,,,,,,,,,,,,,,,,,,
,,,,,080524,001,2024-06-17_10h56.21.035,experiment,2024.1.5,Win32,60.60606061,60ace56a83e45642b22d9954,667045947eb812cbdacbf325,66704e6c469d3e80ce7985d0,,,,,,,,,,,,,,,,,,,,,,,,,,,,,,,,,,,,,,,,,,,,1174.9743,1178.4432,4.867607681,3.4576,0,17,17,22,1,song_indices/ComeAndGetYourLove_Redbone.csv,,,,,,,,,,,,,,,,,,,,,,,,,,,,,,,,,,,,,,,,,,,,,,,,
,,,,,080524,001,2024-06-17_10h56.21.035,experiment,2024.1.5,Win32,60.60606061,60ace56a83e45642b22d9954,667045947eb812cbdacbf325,66704e6c469d3e80ce7985d0,,,,,,,,,,,,,,,,,,,,,,,,,,,,,,,,,,,,1178.4438,1183.568,0,0,0,1,1,SoundStimuli/JoyToTheWorld_ThreeDogNight_Cover5S.wav,,,,,,,,,,,,,,,,,,,,,,,,,,,,,,,,,,,,,,,,,,,,,,,,,,,,,,,,,,
,,,,,080524,001,2024-06-17_10h56.21.035,experiment,2024.1.5,Win32,60.60606061,60ace56a83e45642b22d9954,667045947eb812cbdacbf325,66704e6c469d3e80ce7985d0,,,,,,,,,,,,,,,,,,,,,,,,,,,,,,,,,,,,1183.5755,1189.6845,0,1,1,0,1,SoundStimuli/JoyToTheWorld_ThreeDogNight_Original5S.wav,,,,,,,,,,,,,,,,,,,,,,,,,,,,,,,,,,,,,,,,,,,,,,,,,,,,,,,,,,
,,,,,080524,001,2024-06-17_10h56.21.035,experiment,2024.1.5,Win32,60.60606061,60ace56a83e45642b22d9954,667045947eb812cbdacbf325,66704e6c469d3e80ce7985d0,,,,,,,,,,,,,,,,,,,,,,,,,,,,,,,,,,,,,,,,,,,,1189.6847,1191.4187,6.031540996,1.7083,0,18,18,8,1,song_indices/JoyToTheWorld_ThreeDogNight.csv,,,,,,,,,,,,,,,,,,,,,,,,,,,,,,,,,,,,,,,,,,,,,,,,
,,,,,080524,001,2024-06-17_10h56.21.035,experiment,2024.1.5,Win32,60.60606061,60ace56a83e45642b22d9954,667045947eb812cbdacbf325,66704e6c469d3e80ce7985d0,,,,,,,,,,,,,,,,,,,,,,,,,,,,,,,,,,,,1191.4196,1197.2893,0,0,0,0,1,SoundStimuli/Irreplaceable_Beyonce_Original5S.wav,,,,,,,,,,,,,,,,,,,,,,,,,,,,,,,,,,,,,,,,,,,,,,,,,,,,,,,,,,
,,,,,080524,001,2024-06-17_10h56.21.035,experiment,2024.1.5,Win32,60.60606061,60ace56a83e45642b22d9954,667045947eb812cbdacbf325,66704e6c469d3e80ce7985d0,,,,,,,,,,,,,,,,,,,,,,,,,,,,,,,,,,,,1197.2949,1203.2099,0,1,1,1,1,SoundStimuli/Irreplaceable_Beyonce_Cover5S.wav,,,,,,,,,,,,,,,,,,,,,,,,,,,,,,,,,,,,,,,,,,,,,,,,,,,,,,,,,,
,,,,,080524,001,2024-06-17_10h56.21.035,experiment,2024.1.5,Win32,60.60606061,60ace56a83e45642b22d9954,667045947eb812cbdacbf325,66704e6c469d3e80ce7985d0,,,,,,,,,,,,,,,,,,,,,,,,,,,,,,,,,,,,,,,,,,,,1203.2101,1205.2614,4.974636002,2.0337,0,19,19,19,1,song_indices/Irreplaceable_Beyonce.csv,,,,,,,,,,,,,,,,,,,,,,,,,,,,,,,,,,,,,,,,,,,,,,,,
,,,,,080524,001,2024-06-17_10h56.21.035,experiment,2024.1.5,Win32,60.60606061,60ace56a83e45642b22d9954,667045947eb812cbdacbf325,66704e6c469d3e80ce7985d0,,,,,,,,,,,,,,,,,,,,,,,,,,,,,,,,,,,,1205.2624,1212.7048,0,0,0,0,1,SoundStimuli/Kiss_Prince_Original5S.wav,,,,,,,,,,,,,,,,,,,,,,,,,,,,,,,,,,,,,,,,,,,,,,,,,,,,,,,,,,
,,,,,080524,001,2024-06-17_10h56.21.035,experiment,2024.1.5,Win32,60.60606061,60ace56a83e45642b22d9954,667045947eb812cbdacbf325,66704e6c469d3e80ce7985d0,,,,,,,,,,,,,,,,,,,,,,,,,,,,,,,,,,,,1212.7216,1219.0037,0,1,1,1,1,SoundStimuli/Kiss_Prince_Cover5S.wav,,,,,,,,,,,,,,,,,,,,,,,,,,,,,,,,,,,,,,,,,,,,,,,,,,,,,,,,,,
,,,,,080524,001,2024-06-17_10h56.21.035,experiment,2024.1.5,Win32,60.60606061,60ace56a83e45642b22d9954,667045947eb812cbdacbf325,66704e6c469d3e80ce7985d0,,,,,,,,,,,,,,,,,,,,,,,,,,,,,,,,,,,,,,,,,,,,1219.0039,1221.9893,4.773957946,2.9755,0,20,20,14,1,song_indices/Kiss_Prince.csv,,,,,,,,,,,,,,,,,,,,,,,,,,,,,,,,,,,,,,,,,,,,,,,,
,,,,,080524,001,2024-06-17_10h56.21.035,experiment,2024.1.5,Win32,60.60606061,60ace56a83e45642b22d9954,667045947eb812cbdacbf325,66704e6c469d3e80ce7985d0,,,,,,,,,,,,,,,,,,,,,,,,,,,,,,,,,,,,1221.9912,1237.1046,0,0,0,1,1,SoundStimuli/PokerFace_LadyGaga_Cover5S.wav,,,,,,,,,,,,,,,,,,,,,,,,,,,,,,,,,,,,,,,,,,,,,,,,,,,,,,,,,,
,,,,,080524,001,2024-06-17_10h56.21.035,experiment,2024.1.5,Win32,60.60606061,60ace56a83e45642b22d9954,667045947eb812cbdacbf325,66704e6c469d3e80ce7985d0,,,,,,,,,,,,,,,,,,,,,,,,,,,,,,,,,,,,1237.1111,1250.6081,0,1,1,0,1,SoundStimuli/PokerFace_LadyGaga_Original5S.wav,,,,,,,,,,,,,,,,,,,,,,,,,,,,,,,,,,,,,,,,,,,,,,,,,,,,,,,,,,
,,,,,080524,001,2024-06-17_10h56.21.035,experiment,2024.1.5,Win32,60.60606061,60ace56a83e45642b22d9954,667045947eb812cbdacbf325,66704e6c469d3e80ce7985d0,,,,,,,,,,,,,,,,,,,,,,,,,,,,,,,,,,,,,,,,,,,,1250.6083,1252.4929,5.596738234,1.8756,0,21,21,23,1,song_indices/PokerFace_LadyGaga.csv,,,,,,,,,,,,,,,,,,,,,,,,,,,,,,,,,,,,,,,,,,,,,,,,
,,,,,080524,001,2024-06-17_10h56.21.035,experiment,2024.1.5,Win32,60.60606061,60ace56a83e45642b22d9954,667045947eb812cbdacbf325,66704e6c469d3e80ce7985d0,,,,,,,,,,,,,,,,,,,,,,,,,,,,,,,,,,,,1252.4947,1262.3828,0,0,0,0,1,SoundStimuli/Levitating_DuaLipa_Original5S.wav,,,,,,,,,,,,,,,,,,,,,,,,,,,,,,,,,,,,,,,,,,,,,,,,,,,,,,,,,,
,,,,,080524,001,2024-06-17_10h56.21.035,experiment,2024.1.5,Win32,60.60606061,60ace56a83e45642b22d9954,667045947eb812cbdacbf325,66704e6c469d3e80ce7985d0,,,,,,,,,,,,,,,,,,,,,,,,,,,,,,,,,,,,1262.3913,1268.1077,0,1,1,1,1,SoundStimuli/Levitating_DuaLipa_Cover5S.wav,,,,,,,,,,,,,,,,,,,,,,,,,,,,,,,,,,,,,,,,,,,,,,,,,,,,,,,,,,
,,,,,080524,001,2024-06-17_10h56.21.035,experiment,2024.1.5,Win32,60.60606061,60ace56a83e45642b22d9954,667045947eb812cbdacbf325,66704e6c469d3e80ce7985d0,,,,,,,,,,,,,,,,,,,,,,,,,,,,,,,,,,,,,,,,,,,,1268.1077,1269.721,4.42611581,1.5992,0,22,22,10,1,song_indices/Levitating_DuaLipa.csv,,,,,,,,,,,,,,,,,,,,,,,,,,,,,,,,,,,,,,,,,,,,,,,,
,,,,,080524,001,2024-06-17_10h56.21.035,experiment,2024.1.5,Win32,60.60606061,60ace56a83e45642b22d9954,667045947eb812cbdacbf325,66704e6c469d3e80ce7985d0,,,,,,,,,,,,,,,,,,,,,,,,,,,,,,,,,,,,1269.7219,1275.9088,0,0,0,0,1,SoundStimuli/SaveYourTears_TheWeekndArianaGrande_Original5S.wav,,,,,,,,,,,,,,,,,,,,,,,,,,,,,,,,,,,,,,,,,,,,,,,,,,,,,,,,,,
,,,,,080524,001,2024-06-17_10h56.21.035,experiment,2024.1.5,Win32,60.60606061,60ace56a83e45642b22d9954,667045947eb812cbdacbf325,66704e6c469d3e80ce7985d0,,,,,,,,,,,,,,,,,,,,,,,,,,,,,,,,,,,,1275.9186,1281.7959,0,1,1,1,1,SoundStimuli/SaveYourTears_TheWeekndArianaGrande_Cover5S.wav,,,,,,,,,,,,,,,,,,,,,,,,,,,,,,,,,,,,,,,,,,,,,,,,,,,,,,,,,,
,,,,,080524,001,2024-06-17_10h56.21.035,experiment,2024.1.5,Win32,60.60606061,60ace56a83e45642b22d9954,667045947eb812cbdacbf325,66704e6c469d3e80ce7985d0,,,,,,,,,,,,,,,,,,,,,,,,,,,,,,,,,,,,,,,,,,,,1281.7961,1284.665,3.931109594,2.8594,0,23,23,12,1,song_indices/SaveYourTears_TheWeekndArianaGrande.csv,,,,,,,,,,,,,,,,,,,,,,,,,,,,,,,,,,,,,,,,,,,,,,,,
,,,,,080524,001,2024-06-17_10h56.21.035,experiment,2024.1.5,Win32,60.60606061,60ace56a83e45642b22d9954,667045947eb812cbdacbf325,66704e6c469d3e80ce7985d0,,,,,,,,,,,,,,,,,,,,,,,,,,,,,,,,,,,,,,,,,,,,,,,,,,,,,,1284.6653,1284.6655,,,,0,2,2,2,1,choose_song_b3.csv,,,,,,,,,,,,,,,,,,,,,,,,,,,,,,,,,,,,,
,,,,,080524,001,2024-06-17_10h56.21.035,experiment,2024.1.5,Win32,60.60606061,60ace56a83e45642b22d9954,667045947eb812cbdacbf325,66704e6c469d3e80ce7985d0,,,,,,,,,,,,,,,,,,,,,,,,,,,,,,,,,,,,,,,,,,,,,,,,,,,,,,,,,,,,,,,,,34,Item 3,i played saxophone in school/concert band and took lessons from age 8-17. I still play every now and then just for my own enjoyment. i can play guitar TABs and some chords. I dabble with piano. ,Item 4,"apple music, youtube, my own collection",3,5,"driving, exercise, cleaning",Never,Sometimes,Sometimes,Never,Often,Rarely,Rarely,Always,Sometimes,Often,Rarely,Never,Never,Often,Never,Never,"oldies, showtunes",alt rock,pop-punk/emo,indie,"i used to listen to a band/artist's whole discography. now i jump around a lot more. a song from an artist here, a song from an artist there.

 i'm turned onto new artists frequently from hearing their song in a tv show or movie and then expanding from there. ",n/a,0,0,0,0,1,,
,,,,,080524,001,2024-06-17_10h56.21.035,experiment,2024.1.5,Win32,60.60606061,60ace56a83e45642b22d9954,667045947eb812cbdacbf325,66704e6c469d3e80ce7985d0,,,,,,,,,,,,,,,,,,,,,,,,,,,,,,,,,,,,,,,,,,,,,,,,,,,,,,,,,,,,,,,,,,,,,,,,,,,,,,,,,,,,,,,,,,,,,,,,,,,,1580.4808,1582.9985
