welcome.started,welcome.stopped,space_to_continue.keys,space_to_continue.rt,space_to_continue.duration,participant,session,date,expName,psychopyVersion,OS,frameRate,PROLIFIC_PID,STUDY_ID,SESSION_ID,consent.consent,consent.consent_recontact,consent_check.started,consent_check.stopped,calibration_ready.started,calibration_ready.stopped,cal_ready.keys,cal_ready.rt,cal_ready.duration,calibration.started,calibration.stopped,mouse.x,mouse.y,mouse.leftButton,mouse.midButton,mouse.rightButton,mouse.time,mouse.clicked_name,move_on.keys,move_on.rt,move_on.duration,instructions.started,instructions.stopped,next.keys,next.rt,next.duration,practice_trial.started,practice_trial.stopped,practice_slider.response,practice_slider.rt,ready.started,ready.stopped,key_resp.keys,key_resp.rt,key_resp.duration,play_sound.started,play_sound.stopped,trials.thisRepN,trials.thisTrialN,trials.thisN,trials.thisIndex,trials.ran,orig_or_cover,rating.started,rating.stopped,slider.response,slider.rt,songs.thisRepN,songs.thisTrialN,songs.thisN,songs.thisIndex,songs.ran,song_id,short_break.started,short_break.stopped,space_to_move_on.keys,space_to_move_on.rt,space_to_move_on.duration,blocks.thisRepN,blocks.thisTrialN,blocks.thisN,blocks.thisIndex,blocks.ran,block,survey.age,survey.musician,survey.music_making,survey.listen_time,survey.medium,survey.music_seeking,survey.music_choice,survey.activities,survey.question1.A cappella,survey.question1.Hip hop,survey.question1.Folk/indie,survey.question1.Disco,survey.question1.Jazz,survey.question1.Classical,survey.question1.Latin,survey.question1.Metal,survey.question1.Classic rock,survey.question1.Electronic (EDM),survey.question1.R&B,survey.question1.Pop,survey.question1.Alternative rock,survey.question1.Ambient,survey.question1.Country,survey.question1.Reggae,survey.other_genres,survey.genres_ranked.text1,survey.genres_ranked.text2,survey.genres_ranked.text3,survey.habit_change,survey.habits,experiment.thisRepN,experiment.thisTrialN,experiment.thisN,experiment.thisIndex,experiment.ran,goodbye.started,goodbye.stopped
0.0002,2.026,space,2.0039,,152039,001,2024-06-17_11h28.19.974,experiment,2024.1.5,Win32,59.52380952,59ea48b7be399f0001e4a178,667045947eb812cbdacbf325,667053e032e73530f7ef4001,,,,,,,,,,,,,,,,,,,,,,,,,,,,,,,,,,,,,,,,,,,,,,,,,,,,,,,,,,,,,,,,,,,,,,,,,,,,,,,,,,,,,,,,,,,,,,,,,,,,,
,,,,,152039,001,2024-06-17_11h28.19.974,experiment,2024.1.5,Win32,59.52380952,59ea48b7be399f0001e4a178,667045947eb812cbdacbf325,667053e032e73530f7ef4001,yes,yes,,,,,,,,,,,,,,,,,,,,,,,,,,,,,,,,,,,,,,,,,,,,,,,,,,,,,,,,,,,,,,,,,,,,,,,,,,,,,,,,,,,,,,,,,,,,,,,,,,,
,,,,,152039,001,2024-06-17_11h28.19.974,experiment,2024.1.5,Win32,59.52380952,59ea48b7be399f0001e4a178,667045947eb812cbdacbf325,667053e032e73530f7ef4001,,,13.5947,13.5949,,,,,,,,,,,,,,,,,,,,,,,,,,,,,,,,,,,,,,,,,,,,,,,,,,,,,,,,,,,,,,,,,,,,,,,,,,,,,,,,,,,,,,,,,,,,,,,,,
,,,,,152039,001,2024-06-17_11h28.19.974,experiment,2024.1.5,Win32,59.52380952,59ea48b7be399f0001e4a178,667045947eb812cbdacbf325,667053e032e73530f7ef4001,,,,,13.5961,16.0424,space,2.4183,,16.0425,68.0144,"[-0.007407407407407408,0.021296296296296296,0.003703703703703704,0.005555555555555556,0.008333333333333333,0.008333333333333333,-0.008333333333333333,0.012422360248447204,-0.012422360248447204,-0.013457556935817806,-0.013457556935817806,-0.012422360248447204,-0.012422360248447204,-0.012422360248447204,-0.012422360248447204,-0.025,-0.025,-0.025,-0.025,-0.025,-0.025,-0.025,-0.025,-0.025925925925925925,-0.025925925925925925,-0.025925925925925925,-0.025925925925925925,0.5916666666666667,0.028703703703703703]","[-0.43796296296296294,-0.24074074074074073,-0.43148148148148147,-0.21388888888888888,-0.41203703703703703,-0.41203703703703703,-0.4027777777777778,-0.43167701863354035,-0.4244306418219462,-0.4244306418219462,-0.4244306418219462,-0.4254658385093168,-0.4254658385093168,-0.4254658385093168,-0.42650103519668736,-0.4398148148148148,-0.4398148148148148,-0.4398148148148148,-0.4398148148148148,-0.44074074074074077,-0.44074074074074077,-0.44074074074074077,-0.44166666666666665,-0.44166666666666665,-0.44166666666666665,-0.44166666666666665,-0.4425925925925926,-0.35648148148148145,-0.4009259259259259]","[1,1,1,1,1,1,1,1,1,1,1,1,1,1,1,1,1,1,1,1,1,1,1,1,1,1,1,1,1]","[0,0,0,0,0,0,0,0,0,0,0,0,0,0,0,0,0,0,0,0,0,0,0,0,0,0,0,0,0]","[0,0,0,0,0,0,0,0,0,0,0,0,0,0,0,0,0,0,0,0,0,0,0,0,0,0,0,0,0]","[7.947400000095371,30.180000000000007,30.830099999904633,32.26349999999999,34.6632999997139,34.813599999904625,37.86340000009537,41.86329999971389,42.39659999990462,42.563299999713905,42.746699999809266,43.4132999997139,43.56319999980926,43.7465,43.9132999997139,44.84669999980926,45.01340000009537,45.196599999904635,45.379900000095375,47.946599999904635,48.09669999980926,48.313599999904625,48.496599999904646,48.71319999980926,49.129999999999995,49.329900000095364,49.51340000009537,49.96319999980926,50.39679999971389]","[""play_button"",""play_button"",""play_button"",""play_button"",""play_button"",""play_button"",""play_button"",""play_button"",""play_button"",""play_button"",""play_button"",""play_button"",""play_button"",""play_button"",""play_button"",""play_button"",""play_button"",""play_button"",""play_button"",""play_button"",""play_button"",""play_button"",""play_button"",""play_button"",""play_button""]",right,41.9368,,68.0147,86.0587,space,18.0319,,86.0589,104.9418,5.005555556,18.8732,104.9421,106.3751,space,1.4273,,106.3916,114.9917,0,0,0,1,1,SoundStimuli/HeatWaves_GlassAnimals_Cover5S.wav,,,,,,,,,,,,,,,,,,,,,,,,,,,,,,,,,,,,,,,,,,,,,,,,,,,,,,,,,,
,,,,,152039,001,2024-06-17_11h28.19.974,experiment,2024.1.5,Win32,59.52380952,59ea48b7be399f0001e4a178,667045947eb812cbdacbf325,667053e032e73530f7ef4001,,,,,,,,,,,,,,,,,,,,,,,,,,,,,,,,,,,,114.9921,121.0915,0,1,1,0,1,SoundStimuli/HeatWaves_GlassAnimals_Original5S.wav,,,,,,,,,,,,,,,,,,,,,,,,,,,,,,,,,,,,,,,,,,,,,,,,,,,,,,,,,,
,,,,,152039,001,2024-06-17_11h28.19.974,experiment,2024.1.5,Win32,59.52380952,59ea48b7be399f0001e4a178,667045947eb812cbdacbf325,667053e032e73530f7ef4001,,,,,,,,,,,,,,,,,,,,,,,,,,,,,,,,,,,,,,,,,,,,121.098,123.6248,5.994444444,2.5175,0,0,0,10,1,song_indices/HeatWaves_GlassAnimals.csv,,,,,,,,,,,,,,,,,,,,,,,,,,,,,,,,,,,,,,,,,,,,,,,,
,,,,,152039,001,2024-06-17_11h28.19.974,experiment,2024.1.5,Win32,59.52380952,59ea48b7be399f0001e4a178,667045947eb812cbdacbf325,667053e032e73530f7ef4001,,,,,,,,,,,,,,,,,,,,,,,,,,,,,,,,,,,,123.6258,129.6747,0,0,0,0,1,SoundStimuli/BohemianRhapsody_Queen_Original5S.wav,,,,,,,,,,,,,,,,,,,,,,,,,,,,,,,,,,,,,,,,,,,,,,,,,,,,,,,,,,
,,,,,152039,001,2024-06-17_11h28.19.974,experiment,2024.1.5,Win32,59.52380952,59ea48b7be399f0001e4a178,667045947eb812cbdacbf325,667053e032e73530f7ef4001,,,,,,,,,,,,,,,,,,,,,,,,,,,,,,,,,,,,129.6811,133.8246,0,1,1,1,1,SoundStimuli/BohemianRhapsody_Queen_Cover5S.wav,,,,,,,,,,,,,,,,,,,,,,,,,,,,,,,,,,,,,,,,,,,,,,,,,,,,,,,,,,
,,,,,152039,001,2024-06-17_11h28.19.974,experiment,2024.1.5,Win32,59.52380952,59ea48b7be399f0001e4a178,667045947eb812cbdacbf325,667053e032e73530f7ef4001,,,,,,,,,,,,,,,,,,,,,,,,,,,,,,,,,,,,,,,,,,,,133.8248,136.6415,2.988888889,2.8156,0,1,1,18,1,song_indices/BohemianRhapsody_Queen.csv,,,,,,,,,,,,,,,,,,,,,,,,,,,,,,,,,,,,,,,,,,,,,,,,
,,,,,152039,001,2024-06-17_11h28.19.974,experiment,2024.1.5,Win32,59.52380952,59ea48b7be399f0001e4a178,667045947eb812cbdacbf325,667053e032e73530f7ef4001,,,,,,,,,,,,,,,,,,,,,,,,,,,,,,,,,,,,136.6427,144.9413,0,0,0,1,1,SoundStimuli/Mood_24kGoldnianndior_Cover5S.wav,,,,,,,,,,,,,,,,,,,,,,,,,,,,,,,,,,,,,,,,,,,,,,,,,,,,,,,,,,
,,,,,152039,001,2024-06-17_11h28.19.974,experiment,2024.1.5,Win32,59.52380952,59ea48b7be399f0001e4a178,667045947eb812cbdacbf325,667053e032e73530f7ef4001,,,,,,,,,,,,,,,,,,,,,,,,,,,,,,,,,,,,144.9476,151.2411,0,1,1,0,1,SoundStimuli/Mood_24kGoldnianndior_Original5S.wav,,,,,,,,,,,,,,,,,,,,,,,,,,,,,,,,,,,,,,,,,,,,,,,,,,,,,,,,,,
,,,,,152039,001,2024-06-17_11h28.19.974,experiment,2024.1.5,Win32,59.52380952,59ea48b7be399f0001e4a178,667045947eb812cbdacbf325,667053e032e73530f7ef4001,,,,,,,,,,,,,,,,,,,,,,,,,,,,,,,,,,,,,,,,,,,,151.2412,154.9912,1.994444444,3.737,0,2,2,5,1,song_indices/Mood_24kGoldnianndior.csv,,,,,,,,,,,,,,,,,,,,,,,,,,,,,,,,,,,,,,,,,,,,,,,,
,,,,,152039,001,2024-06-17_11h28.19.974,experiment,2024.1.5,Win32,59.52380952,59ea48b7be399f0001e4a178,667045947eb812cbdacbf325,667053e032e73530f7ef4001,,,,,,,,,,,,,,,,,,,,,,,,,,,,,,,,,,,,154.9923,161.6911,0,0,0,1,1,SoundStimuli/BridgeOverTroubledWater_SimonAndGarfunkel_Cover5S.wav,,,,,,,,,,,,,,,,,,,,,,,,,,,,,,,,,,,,,,,,,,,,,,,,,,,,,,,,,,
,,,,,152039,001,2024-06-17_11h28.19.974,experiment,2024.1.5,Win32,59.52380952,59ea48b7be399f0001e4a178,667045947eb812cbdacbf325,667053e032e73530f7ef4001,,,,,,,,,,,,,,,,,,,,,,,,,,,,,,,,,,,,161.6972,168.0077,0,1,1,0,1,SoundStimuli/BridgeOverTroubledWater_SimonAndGarfunkel_Original5S.wav,,,,,,,,,,,,,,,,,,,,,,,,,,,,,,,,,,,,,,,,,,,,,,,,,,,,,,,,,,
,,,,,152039,001,2024-06-17_11h28.19.974,experiment,2024.1.5,Win32,59.52380952,59ea48b7be399f0001e4a178,667045947eb812cbdacbf325,667053e032e73530f7ef4001,,,,,,,,,,,,,,,,,,,,,,,,,,,,,,,,,,,,,,,,,,,,168.0079,169.6577,4.994444444,1.6385,0,3,3,1,1,song_indices/BridgeOverTroubledWater_SimonAndGarfunkel.csv,,,,,,,,,,,,,,,,,,,,,,,,,,,,,,,,,,,,,,,,,,,,,,,,
,,,,,152039,001,2024-06-17_11h28.19.974,experiment,2024.1.5,Win32,59.52380952,59ea48b7be399f0001e4a178,667045947eb812cbdacbf325,667053e032e73530f7ef4001,,,,,,,,,,,,,,,,,,,,,,,,,,,,,,,,,,,,169.6585,177.7909,0,0,0,1,1,SoundStimuli/AnotherOneBitesTheDust_Queen_Cover5S.wav,,,,,,,,,,,,,,,,,,,,,,,,,,,,,,,,,,,,,,,,,,,,,,,,,,,,,,,,,,
,,,,,152039,001,2024-06-17_11h28.19.974,experiment,2024.1.5,Win32,59.52380952,59ea48b7be399f0001e4a178,667045947eb812cbdacbf325,667053e032e73530f7ef4001,,,,,,,,,,,,,,,,,,,,,,,,,,,,,,,,,,,,177.7977,183.8242,0,1,1,0,1,SoundStimuli/AnotherOneBitesTheDust_Queen_Original5S.wav,,,,,,,,,,,,,,,,,,,,,,,,,,,,,,,,,,,,,,,,,,,,,,,,,,,,,,,,,,
,,,,,152039,001,2024-06-17_11h28.19.974,experiment,2024.1.5,Win32,59.52380952,59ea48b7be399f0001e4a178,667045947eb812cbdacbf325,667053e032e73530f7ef4001,,,,,,,,,,,,,,,,,,,,,,,,,,,,,,,,,,,,,,,,,,,,183.8243,185.3576,2.988888889,1.5223,0,4,4,9,1,song_indices/AnotherOneBitesTheDust_Queen.csv,,,,,,,,,,,,,,,,,,,,,,,,,,,,,,,,,,,,,,,,,,,,,,,,
,,,,,152039,001,2024-06-17_11h28.19.974,experiment,2024.1.5,Win32,59.52380952,59ea48b7be399f0001e4a178,667045947eb812cbdacbf325,667053e032e73530f7ef4001,,,,,,,,,,,,,,,,,,,,,,,,,,,,,,,,,,,,185.3584,191.3075,0,0,0,1,1,SoundStimuli/IllMakeLoveToYou_BoyzIIMen_Cover5S.wav,,,,,,,,,,,,,,,,,,,,,,,,,,,,,,,,,,,,,,,,,,,,,,,,,,,,,,,,,,
,,,,,152039,001,2024-06-17_11h28.19.974,experiment,2024.1.5,Win32,59.52380952,59ea48b7be399f0001e4a178,667045947eb812cbdacbf325,667053e032e73530f7ef4001,,,,,,,,,,,,,,,,,,,,,,,,,,,,,,,,,,,,191.3136,197.3908,0,1,1,0,1,SoundStimuli/IllMakeLoveToYou_BoyzIIMen_Original5S.wav,,,,,,,,,,,,,,,,,,,,,,,,,,,,,,,,,,,,,,,,,,,,,,,,,,,,,,,,,,
,,,,,152039,001,2024-06-17_11h28.19.974,experiment,2024.1.5,Win32,59.52380952,59ea48b7be399f0001e4a178,667045947eb812cbdacbf325,667053e032e73530f7ef4001,,,,,,,,,,,,,,,,,,,,,,,,,,,,,,,,,,,,,,,,,,,,197.391,198.8412,6.005555556,1.4425,0,5,5,6,1,song_indices/IllMakeLoveToYou_BoyzIIMen.csv,,,,,,,,,,,,,,,,,,,,,,,,,,,,,,,,,,,,,,,,,,,,,,,,
,,,,,152039,001,2024-06-17_11h28.19.974,experiment,2024.1.5,Win32,59.52380952,59ea48b7be399f0001e4a178,667045947eb812cbdacbf325,667053e032e73530f7ef4001,,,,,,,,,,,,,,,,,,,,,,,,,,,,,,,,,,,,198.8419,204.8743,0,0,0,0,1,SoundStimuli/StayinAlive_BeeGees_Original5S.wav,,,,,,,,,,,,,,,,,,,,,,,,,,,,,,,,,,,,,,,,,,,,,,,,,,,,,,,,,,
,,,,,152039,001,2024-06-17_11h28.19.974,experiment,2024.1.5,Win32,59.52380952,59ea48b7be399f0001e4a178,667045947eb812cbdacbf325,667053e032e73530f7ef4001,,,,,,,,,,,,,,,,,,,,,,,,,,,,,,,,,,,,204.8804,210.7242,0,1,1,1,1,SoundStimuli/StayinAlive_BeeGees_Cover5S.wav,,,,,,,,,,,,,,,,,,,,,,,,,,,,,,,,,,,,,,,,,,,,,,,,,,,,,,,,,,
,,,,,152039,001,2024-06-17_11h28.19.974,experiment,2024.1.5,Win32,59.52380952,59ea48b7be399f0001e4a178,667045947eb812cbdacbf325,667053e032e73530f7ef4001,,,,,,,,,,,,,,,,,,,,,,,,,,,,,,,,,,,,,,,,,,,,210.7244,212.1411,6.522222222,1.4034,0,6,6,2,1,song_indices/StayinAlive_BeeGees.csv,,,,,,,,,,,,,,,,,,,,,,,,,,,,,,,,,,,,,,,,,,,,,,,,
,,,,,152039,001,2024-06-17_11h28.19.974,experiment,2024.1.5,Win32,59.52380952,59ea48b7be399f0001e4a178,667045947eb812cbdacbf325,667053e032e73530f7ef4001,,,,,,,,,,,,,,,,,,,,,,,,,,,,,,,,,,,,212.1429,216.8744,0,0,0,1,1,SoundStimuli/AChangeIsGonnaCome_SamCooke_Cover5S.wav,,,,,,,,,,,,,,,,,,,,,,,,,,,,,,,,,,,,,,,,,,,,,,,,,,,,,,,,,,
,,,,,152039,001,2024-06-17_11h28.19.974,experiment,2024.1.5,Win32,59.52380952,59ea48b7be399f0001e4a178,667045947eb812cbdacbf325,667053e032e73530f7ef4001,,,,,,,,,,,,,,,,,,,,,,,,,,,,,,,,,,,,216.8808,222.9074,0,1,1,0,1,SoundStimuli/AChangeIsGonnaCome_SamCooke_Original5S.wav,,,,,,,,,,,,,,,,,,,,,,,,,,,,,,,,,,,,,,,,,,,,,,,,,,,,,,,,,,
,,,,,152039,001,2024-06-17_11h28.19.974,experiment,2024.1.5,Win32,59.52380952,59ea48b7be399f0001e4a178,667045947eb812cbdacbf325,667053e032e73530f7ef4001,,,,,,,,,,,,,,,,,,,,,,,,,,,,,,,,,,,,,,,,,,,,222.9075,223.7572,5.033333333,0.8294,0,7,7,17,1,song_indices/AChangeIsGonnaCome_SamCooke.csv,,,,,,,,,,,,,,,,,,,,,,,,,,,,,,,,,,,,,,,,,,,,,,,,
,,,,,152039,001,2024-06-17_11h28.19.974,experiment,2024.1.5,Win32,59.52380952,59ea48b7be399f0001e4a178,667045947eb812cbdacbf325,667053e032e73530f7ef4001,,,,,,,,,,,,,,,,,,,,,,,,,,,,,,,,,,,,223.7581,230.6241,0,0,0,1,1,SoundStimuli/GodOnlyKnows_TheBeachBoys_Cover5S.wav,,,,,,,,,,,,,,,,,,,,,,,,,,,,,,,,,,,,,,,,,,,,,,,,,,,,,,,,,,
,,,,,152039,001,2024-06-17_11h28.19.974,experiment,2024.1.5,Win32,59.52380952,59ea48b7be399f0001e4a178,667045947eb812cbdacbf325,667053e032e73530f7ef4001,,,,,,,,,,,,,,,,,,,,,,,,,,,,,,,,,,,,230.6302,236.8739,0,1,1,0,1,SoundStimuli/GodOnlyKnows_TheBeachBoys_Original5S.wav,,,,,,,,,,,,,,,,,,,,,,,,,,,,,,,,,,,,,,,,,,,,,,,,,,,,,,,,,,
,,,,,152039,001,2024-06-17_11h28.19.974,experiment,2024.1.5,Win32,59.52380952,59ea48b7be399f0001e4a178,667045947eb812cbdacbf325,667053e032e73530f7ef4001,,,,,,,,,,,,,,,,,,,,,,,,,,,,,,,,,,,,,,,,,,,,236.874,238.5574,4.461111111,1.6721,0,8,8,8,1,song_indices/GodOnlyKnows_TheBeachBoys.csv,,,,,,,,,,,,,,,,,,,,,,,,,,,,,,,,,,,,,,,,,,,,,,,,
,,,,,152039,001,2024-06-17_11h28.19.974,experiment,2024.1.5,Win32,59.52380952,59ea48b7be399f0001e4a178,667045947eb812cbdacbf325,667053e032e73530f7ef4001,,,,,,,,,,,,,,,,,,,,,,,,,,,,,,,,,,,,238.5582,244.6073,0,0,0,1,1,SoundStimuli/IWantToHoldYourHand_TheBeatles_Cover5S.wav,,,,,,,,,,,,,,,,,,,,,,,,,,,,,,,,,,,,,,,,,,,,,,,,,,,,,,,,,,
,,,,,152039,001,2024-06-17_11h28.19.974,experiment,2024.1.5,Win32,59.52380952,59ea48b7be399f0001e4a178,667045947eb812cbdacbf325,667053e032e73530f7ef4001,,,,,,,,,,,,,,,,,,,,,,,,,,,,,,,,,,,,244.6136,250.4407,0,1,1,0,1,SoundStimuli/IWantToHoldYourHand_TheBeatles_Original5S.wav,,,,,,,,,,,,,,,,,,,,,,,,,,,,,,,,,,,,,,,,,,,,,,,,,,,,,,,,,,
,,,,,152039,001,2024-06-17_11h28.19.974,experiment,2024.1.5,Win32,59.52380952,59ea48b7be399f0001e4a178,667045947eb812cbdacbf325,667053e032e73530f7ef4001,,,,,,,,,,,,,,,,,,,,,,,,,,,,,,,,,,,,,,,,,,,,250.4408,251.5572,4.988888889,1.1068,0,9,9,19,1,song_indices/IWantToHoldYourHand_TheBeatles.csv,,,,,,,,,,,,,,,,,,,,,,,,,,,,,,,,,,,,,,,,,,,,,,,,
,,,,,152039,001,2024-06-17_11h28.19.974,experiment,2024.1.5,Win32,59.52380952,59ea48b7be399f0001e4a178,667045947eb812cbdacbf325,667053e032e73530f7ef4001,,,,,,,,,,,,,,,,,,,,,,,,,,,,,,,,,,,,251.5581,258.0904,0,0,0,1,1,SoundStimuli/OldTownRoad_LilNasX_Cover5S.wav,,,,,,,,,,,,,,,,,,,,,,,,,,,,,,,,,,,,,,,,,,,,,,,,,,,,,,,,,,
,,,,,152039,001,2024-06-17_11h28.19.974,experiment,2024.1.5,Win32,59.52380952,59ea48b7be399f0001e4a178,667045947eb812cbdacbf325,667053e032e73530f7ef4001,,,,,,,,,,,,,,,,,,,,,,,,,,,,,,,,,,,,258.0965,265.5244,0,1,1,0,1,SoundStimuli/OldTownRoad_LilNasX_Original5S.wav,,,,,,,,,,,,,,,,,,,,,,,,,,,,,,,,,,,,,,,,,,,,,,,,,,,,,,,,,,
,,,,,152039,001,2024-06-17_11h28.19.974,experiment,2024.1.5,Win32,59.52380952,59ea48b7be399f0001e4a178,667045947eb812cbdacbf325,667053e032e73530f7ef4001,,,,,,,,,,,,,,,,,,,,,,,,,,,,,,,,,,,,,,,,,,,,265.5245,266.8405,6.466666667,1.2996,0,10,10,20,1,song_indices/OldTownRoad_LilNasX.csv,,,,,,,,,,,,,,,,,,,,,,,,,,,,,,,,,,,,,,,,,,,,,,,,
,,,,,152039,001,2024-06-17_11h28.19.974,experiment,2024.1.5,Win32,59.52380952,59ea48b7be399f0001e4a178,667045947eb812cbdacbf325,667053e032e73530f7ef4001,,,,,,,,,,,,,,,,,,,,,,,,,,,,,,,,,,,,266.8412,273.1904,0,0,0,1,1,SoundStimuli/MackTheKnife_BobbyDarin_Cover5S.wav,,,,,,,,,,,,,,,,,,,,,,,,,,,,,,,,,,,,,,,,,,,,,,,,,,,,,,,,,,
,,,,,152039,001,2024-06-17_11h28.19.974,experiment,2024.1.5,Win32,59.52380952,59ea48b7be399f0001e4a178,667045947eb812cbdacbf325,667053e032e73530f7ef4001,,,,,,,,,,,,,,,,,,,,,,,,,,,,,,,,,,,,273.1967,279.4237,0,1,1,0,1,SoundStimuli/MackTheKnife_BobbyDarin_Original5S.wav,,,,,,,,,,,,,,,,,,,,,,,,,,,,,,,,,,,,,,,,,,,,,,,,,,,,,,,,,,
,,,,,152039,001,2024-06-17_11h28.19.974,experiment,2024.1.5,Win32,59.52380952,59ea48b7be399f0001e4a178,667045947eb812cbdacbf325,667053e032e73530f7ef4001,,,,,,,,,,,,,,,,,,,,,,,,,,,,,,,,,,,,,,,,,,,,279.4239,280.9236,1.977777778,1.479,0,11,11,21,1,song_indices/MackTheKnife_BobbyDarin.csv,,,,,,,,,,,,,,,,,,,,,,,,,,,,,,,,,,,,,,,,,,,,,,,,
,,,,,152039,001,2024-06-17_11h28.19.974,experiment,2024.1.5,Win32,59.52380952,59ea48b7be399f0001e4a178,667045947eb812cbdacbf325,667053e032e73530f7ef4001,,,,,,,,,,,,,,,,,,,,,,,,,,,,,,,,,,,,280.9244,285.3237,0,0,0,1,1,SoundStimuli/LikeARollingStone_BobDylan_Cover5S.wav,,,,,,,,,,,,,,,,,,,,,,,,,,,,,,,,,,,,,,,,,,,,,,,,,,,,,,,,,,
,,,,,152039,001,2024-06-17_11h28.19.974,experiment,2024.1.5,Win32,59.52380952,59ea48b7be399f0001e4a178,667045947eb812cbdacbf325,667053e032e73530f7ef4001,,,,,,,,,,,,,,,,,,,,,,,,,,,,,,,,,,,,285.3299,291.4735,0,1,1,0,1,SoundStimuli/LikeARollingStone_BobDylan_Original5S.wav,,,,,,,,,,,,,,,,,,,,,,,,,,,,,,,,,,,,,,,,,,,,,,,,,,,,,,,,,,
,,,,,152039,001,2024-06-17_11h28.19.974,experiment,2024.1.5,Win32,59.52380952,59ea48b7be399f0001e4a178,667045947eb812cbdacbf325,667053e032e73530f7ef4001,,,,,,,,,,,,,,,,,,,,,,,,,,,,,,,,,,,,,,,,,,,,291.4737,292.9403,5.983333333,1.4596,0,12,12,12,1,song_indices/LikeARollingStone_BobDylan.csv,,,,,,,,,,,,,,,,,,,,,,,,,,,,,,,,,,,,,,,,,,,,,,,,
,,,,,152039,001,2024-06-17_11h28.19.974,experiment,2024.1.5,Win32,59.52380952,59ea48b7be399f0001e4a178,667045947eb812cbdacbf325,667053e032e73530f7ef4001,,,,,,,,,,,,,,,,,,,,,,,,,,,,,,,,,,,,292.9412,299.1569,0,0,0,1,1,SoundStimuli/LikeAPrayer_Madonna_Cover5S.wav,,,,,,,,,,,,,,,,,,,,,,,,,,,,,,,,,,,,,,,,,,,,,,,,,,,,,,,,,,
,,,,,152039,001,2024-06-17_11h28.19.974,experiment,2024.1.5,Win32,59.52380952,59ea48b7be399f0001e4a178,667045947eb812cbdacbf325,667053e032e73530f7ef4001,,,,,,,,,,,,,,,,,,,,,,,,,,,,,,,,,,,,299.1631,305.357,0,1,1,0,1,SoundStimuli/LikeAPrayer_Madonna_Original5S.wav,,,,,,,,,,,,,,,,,,,,,,,,,,,,,,,,,,,,,,,,,,,,,,,,,,,,,,,,,,
,,,,,152039,001,2024-06-17_11h28.19.974,experiment,2024.1.5,Win32,59.52380952,59ea48b7be399f0001e4a178,667045947eb812cbdacbf325,667053e032e73530f7ef4001,,,,,,,,,,,,,,,,,,,,,,,,,,,,,,,,,,,,,,,,,,,,305.357,306.7902,5.977777778,1.4145,0,13,13,7,1,song_indices/LikeAPrayer_Madonna.csv,,,,,,,,,,,,,,,,,,,,,,,,,,,,,,,,,,,,,,,,,,,,,,,,
,,,,,152039,001,2024-06-17_11h28.19.974,experiment,2024.1.5,Win32,59.52380952,59ea48b7be399f0001e4a178,667045947eb812cbdacbf325,667053e032e73530f7ef4001,,,,,,,,,,,,,,,,,,,,,,,,,,,,,,,,,,,,306.7908,313.8236,0,0,0,1,1,SoundStimuli/StrawberryFieldsForever_TheBeatles_Cover5S.wav,,,,,,,,,,,,,,,,,,,,,,,,,,,,,,,,,,,,,,,,,,,,,,,,,,,,,,,,,,
,,,,,152039,001,2024-06-17_11h28.19.974,experiment,2024.1.5,Win32,59.52380952,59ea48b7be399f0001e4a178,667045947eb812cbdacbf325,667053e032e73530f7ef4001,,,,,,,,,,,,,,,,,,,,,,,,,,,,,,,,,,,,313.8299,319.9569,0,1,1,0,1,SoundStimuli/StrawberryFieldsForever_TheBeatles_Original5S.wav,,,,,,,,,,,,,,,,,,,,,,,,,,,,,,,,,,,,,,,,,,,,,,,,,,,,,,,,,,
,,,,,152039,001,2024-06-17_11h28.19.974,experiment,2024.1.5,Win32,59.52380952,59ea48b7be399f0001e4a178,667045947eb812cbdacbf325,667053e032e73530f7ef4001,,,,,,,,,,,,,,,,,,,,,,,,,,,,,,,,,,,,,,,,,,,,319.9569,321.3903,1.983333333,1.4172,0,14,14,14,1,song_indices/StrawberryFieldsForever_TheBeatles.csv,,,,,,,,,,,,,,,,,,,,,,,,,,,,,,,,,,,,,,,,,,,,,,,,
,,,,,152039,001,2024-06-17_11h28.19.974,experiment,2024.1.5,Win32,59.52380952,59ea48b7be399f0001e4a178,667045947eb812cbdacbf325,667053e032e73530f7ef4001,,,,,,,,,,,,,,,,,,,,,,,,,,,,,,,,,,,,321.3916,327.9734,0,0,0,1,1,SoundStimuli/Despacito_LuisFonsiDaddyYankee_Cover5S.wav,,,,,,,,,,,,,,,,,,,,,,,,,,,,,,,,,,,,,,,,,,,,,,,,,,,,,,,,,,
,,,,,152039,001,2024-06-17_11h28.19.974,experiment,2024.1.5,Win32,59.52380952,59ea48b7be399f0001e4a178,667045947eb812cbdacbf325,667053e032e73530f7ef4001,,,,,,,,,,,,,,,,,,,,,,,,,,,,,,,,,,,,327.9812,334.5405,0,1,1,0,1,SoundStimuli/Despacito_LuisFonsiDaddyYankee_Original5S.wav,,,,,,,,,,,,,,,,,,,,,,,,,,,,,,,,,,,,,,,,,,,,,,,,,,,,,,,,,,
,,,,,152039,001,2024-06-17_11h28.19.974,experiment,2024.1.5,Win32,59.52380952,59ea48b7be399f0001e4a178,667045947eb812cbdacbf325,667053e032e73530f7ef4001,,,,,,,,,,,,,,,,,,,,,,,,,,,,,,,,,,,,,,,,,,,,334.5406,335.7068,6.972222222,1.1553,0,15,15,11,1,song_indices/Despacito_LuisFonsiDaddyYankee.csv,,,,,,,,,,,,,,,,,,,,,,,,,,,,,,,,,,,,,,,,,,,,,,,,
,,,,,152039,001,2024-06-17_11h28.19.974,experiment,2024.1.5,Win32,59.52380952,59ea48b7be399f0001e4a178,667045947eb812cbdacbf325,667053e032e73530f7ef4001,,,,,,,,,,,,,,,,,,,,,,,,,,,,,,,,,,,,335.7078,341.3065,0,0,0,0,1,SoundStimuli/IWannaDanceWithSomebody_WhitneyHouston_Original5S.wav,,,,,,,,,,,,,,,,,,,,,,,,,,,,,,,,,,,,,,,,,,,,,,,,,,,,,,,,,,
,,,,,152039,001,2024-06-17_11h28.19.974,experiment,2024.1.5,Win32,59.52380952,59ea48b7be399f0001e4a178,667045947eb812cbdacbf325,667053e032e73530f7ef4001,,,,,,,,,,,,,,,,,,,,,,,,,,,,,,,,,,,,341.3129,348.1566,0,1,1,1,1,SoundStimuli/IWannaDanceWithSomebody_WhitneyHouston_Cover5S.wav,,,,,,,,,,,,,,,,,,,,,,,,,,,,,,,,,,,,,,,,,,,,,,,,,,,,,,,,,,
,,,,,152039,001,2024-06-17_11h28.19.974,experiment,2024.1.5,Win32,59.52380952,59ea48b7be399f0001e4a178,667045947eb812cbdacbf325,667053e032e73530f7ef4001,,,,,,,,,,,,,,,,,,,,,,,,,,,,,,,,,,,,,,,,,,,,348.1566,349.3064,1.983333333,1.1419,0,16,16,13,1,song_indices/IWannaDanceWithSomebody_WhitneyHouston.csv,,,,,,,,,,,,,,,,,,,,,,,,,,,,,,,,,,,,,,,,,,,,,,,,
,,,,,152039,001,2024-06-17_11h28.19.974,experiment,2024.1.5,Win32,59.52380952,59ea48b7be399f0001e4a178,667045947eb812cbdacbf325,667053e032e73530f7ef4001,,,,,,,,,,,,,,,,,,,,,,,,,,,,,,,,,,,,349.307,355.7065,0,0,0,0,1,SoundStimuli/MyGirl_TheTemptations_Original5S.wav,,,,,,,,,,,,,,,,,,,,,,,,,,,,,,,,,,,,,,,,,,,,,,,,,,,,,,,,,,
,,,,,152039,001,2024-06-17_11h28.19.974,experiment,2024.1.5,Win32,59.52380952,59ea48b7be399f0001e4a178,667045947eb812cbdacbf325,667053e032e73530f7ef4001,,,,,,,,,,,,,,,,,,,,,,,,,,,,,,,,,,,,355.7125,363.373,0,1,1,1,1,SoundStimuli/MyGirl_TheTemptations_Cover5S.wav,,,,,,,,,,,,,,,,,,,,,,,,,,,,,,,,,,,,,,,,,,,,,,,,,,,,,,,,,,
,,,,,152039,001,2024-06-17_11h28.19.974,experiment,2024.1.5,Win32,59.52380952,59ea48b7be399f0001e4a178,667045947eb812cbdacbf325,667053e032e73530f7ef4001,,,,,,,,,,,,,,,,,,,,,,,,,,,,,,,,,,,,,,,,,,,,363.3732,364.9399,4.977777778,1.5478,0,17,17,15,1,song_indices/MyGirl_TheTemptations.csv,,,,,,,,,,,,,,,,,,,,,,,,,,,,,,,,,,,,,,,,,,,,,,,,
,,,,,152039,001,2024-06-17_11h28.19.974,experiment,2024.1.5,Win32,59.52380952,59ea48b7be399f0001e4a178,667045947eb812cbdacbf325,667053e032e73530f7ef4001,,,,,,,,,,,,,,,,,,,,,,,,,,,,,,,,,,,,364.9408,372.4565,0,0,0,1,1,SoundStimuli/EndlessLove_DianaRossLionelRichie_Cover5S.wav,,,,,,,,,,,,,,,,,,,,,,,,,,,,,,,,,,,,,,,,,,,,,,,,,,,,,,,,,,
,,,,,152039,001,2024-06-17_11h28.19.974,experiment,2024.1.5,Win32,59.52380952,59ea48b7be399f0001e4a178,667045947eb812cbdacbf325,667053e032e73530f7ef4001,,,,,,,,,,,,,,,,,,,,,,,,,,,,,,,,,,,,372.4626,378.8066,0,1,1,0,1,SoundStimuli/EndlessLove_DianaRossLionelRichie_Original5S.wav,,,,,,,,,,,,,,,,,,,,,,,,,,,,,,,,,,,,,,,,,,,,,,,,,,,,,,,,,,
,,,,,152039,001,2024-06-17_11h28.19.974,experiment,2024.1.5,Win32,59.52380952,59ea48b7be399f0001e4a178,667045947eb812cbdacbf325,667053e032e73530f7ef4001,,,,,,,,,,,,,,,,,,,,,,,,,,,,,,,,,,,,,,,,,,,,378.8068,379.6064,6.494444444,0.7855,0,18,18,3,1,song_indices/EndlessLove_DianaRossLionelRichie.csv,,,,,,,,,,,,,,,,,,,,,,,,,,,,,,,,,,,,,,,,,,,,,,,,
,,,,,152039,001,2024-06-17_11h28.19.974,experiment,2024.1.5,Win32,59.52380952,59ea48b7be399f0001e4a178,667045947eb812cbdacbf325,667053e032e73530f7ef4001,,,,,,,,,,,,,,,,,,,,,,,,,,,,,,,,,,,,379.607,388.4729,0,0,0,0,1,SoundStimuli/Perfect_EdSheeran_Original5S.wav,,,,,,,,,,,,,,,,,,,,,,,,,,,,,,,,,,,,,,,,,,,,,,,,,,,,,,,,,,
,,,,,152039,001,2024-06-17_11h28.19.974,experiment,2024.1.5,Win32,59.52380952,59ea48b7be399f0001e4a178,667045947eb812cbdacbf325,667053e032e73530f7ef4001,,,,,,,,,,,,,,,,,,,,,,,,,,,,,,,,,,,,388.4791,396.7396,0,1,1,1,1,SoundStimuli/Perfect_EdSheeran_Cover5S.wav,,,,,,,,,,,,,,,,,,,,,,,,,,,,,,,,,,,,,,,,,,,,,,,,,,,,,,,,,,
,,,,,152039,001,2024-06-17_11h28.19.974,experiment,2024.1.5,Win32,59.52380952,59ea48b7be399f0001e4a178,667045947eb812cbdacbf325,667053e032e73530f7ef4001,,,,,,,,,,,,,,,,,,,,,,,,,,,,,,,,,,,,,,,,,,,,396.7397,398.3564,6.966666667,1.6002,0,19,19,0,1,song_indices/Perfect_EdSheeran.csv,,,,,,,,,,,,,,,,,,,,,,,,,,,,,,,,,,,,,,,,,,,,,,,,
,,,,,152039,001,2024-06-17_11h28.19.974,experiment,2024.1.5,Win32,59.52380952,59ea48b7be399f0001e4a178,667045947eb812cbdacbf325,667053e032e73530f7ef4001,,,,,,,,,,,,,,,,,,,,,,,,,,,,,,,,,,,,398.3579,404.4895,0,0,0,1,1,SoundStimuli/Smooth_SantanaRobThomas_Cover5S.wav,,,,,,,,,,,,,,,,,,,,,,,,,,,,,,,,,,,,,,,,,,,,,,,,,,,,,,,,,,
,,,,,152039,001,2024-06-17_11h28.19.974,experiment,2024.1.5,Win32,59.52380952,59ea48b7be399f0001e4a178,667045947eb812cbdacbf325,667053e032e73530f7ef4001,,,,,,,,,,,,,,,,,,,,,,,,,,,,,,,,,,,,404.4955,410.7061,0,1,1,0,1,SoundStimuli/Smooth_SantanaRobThomas_Original5S.wav,,,,,,,,,,,,,,,,,,,,,,,,,,,,,,,,,,,,,,,,,,,,,,,,,,,,,,,,,,
,,,,,152039,001,2024-06-17_11h28.19.974,experiment,2024.1.5,Win32,59.52380952,59ea48b7be399f0001e4a178,667045947eb812cbdacbf325,667053e032e73530f7ef4001,,,,,,,,,,,,,,,,,,,,,,,,,,,,,,,,,,,,,,,,,,,,410.7062,412.1895,6.983333333,1.4628,0,20,20,4,1,song_indices/Smooth_SantanaRobThomas.csv,,,,,,,,,,,,,,,,,,,,,,,,,,,,,,,,,,,,,,,,,,,,,,,,
,,,,,152039,001,2024-06-17_11h28.19.974,experiment,2024.1.5,Win32,59.52380952,59ea48b7be399f0001e4a178,667045947eb812cbdacbf325,667053e032e73530f7ef4001,,,,,,,,,,,,,,,,,,,,,,,,,,,,,,,,,,,,412.1903,418.4398,0,0,0,0,1,SoundStimuli/LivinOnAPrayer_BonJovi_Original5S.wav,,,,,,,,,,,,,,,,,,,,,,,,,,,,,,,,,,,,,,,,,,,,,,,,,,,,,,,,,,
,,,,,152039,001,2024-06-17_11h28.19.974,experiment,2024.1.5,Win32,59.52380952,59ea48b7be399f0001e4a178,667045947eb812cbdacbf325,667053e032e73530f7ef4001,,,,,,,,,,,,,,,,,,,,,,,,,,,,,,,,,,,,418.4456,426.1895,0,1,1,1,1,SoundStimuli/LivinOnAPrayer_BonJovi_Cover5S.wav,,,,,,,,,,,,,,,,,,,,,,,,,,,,,,,,,,,,,,,,,,,,,,,,,,,,,,,,,,
,,,,,152039,001,2024-06-17_11h28.19.974,experiment,2024.1.5,Win32,59.52380952,59ea48b7be399f0001e4a178,667045947eb812cbdacbf325,667053e032e73530f7ef4001,,,,,,,,,,,,,,,,,,,,,,,,,,,,,,,,,,,,,,,,,,,,426.1896,428.9561,2.983333333,2.7552,0,21,21,16,1,song_indices/LivinOnAPrayer_BonJovi.csv,,,,,,,,,,,,,,,,,,,,,,,,,,,,,,,,,,,,,,,,,,,,,,,,
,,,,,152039,001,2024-06-17_11h28.19.974,experiment,2024.1.5,Win32,59.52380952,59ea48b7be399f0001e4a178,667045947eb812cbdacbf325,667053e032e73530f7ef4001,,,,,,,,,,,,,,,,,,,,,,,,,,,,,,,,,,,,428.957,435.5061,0,0,0,0,1,SoundStimuli/BadDay_DanielPowter_Original5S.wav,,,,,,,,,,,,,,,,,,,,,,,,,,,,,,,,,,,,,,,,,,,,,,,,,,,,,,,,,,
,,,,,152039,001,2024-06-17_11h28.19.974,experiment,2024.1.5,Win32,59.52380952,59ea48b7be399f0001e4a178,667045947eb812cbdacbf325,667053e032e73530f7ef4001,,,,,,,,,,,,,,,,,,,,,,,,,,,,,,,,,,,,435.5122,443.0395,0,1,1,1,1,SoundStimuli/BadDay_DanielPowter_Cover5S.wav,,,,,,,,,,,,,,,,,,,,,,,,,,,,,,,,,,,,,,,,,,,,,,,,,,,,,,,,,,
,,,,,152039,001,2024-06-17_11h28.19.974,experiment,2024.1.5,Win32,59.52380952,59ea48b7be399f0001e4a178,667045947eb812cbdacbf325,667053e032e73530f7ef4001,,,,,,,,,,,,,,,,,,,,,,,,,,,,,,,,,,,,,,,,,,,,443.0396,443.8559,4.994444444,0.8063,0,22,22,22,1,song_indices/BadDay_DanielPowter.csv,,,,,,,,,,,,,,,,,,,,,,,,,,,,,,,,,,,,,,,,,,,,,,,,
,,,,,152039,001,2024-06-17_11h28.19.974,experiment,2024.1.5,Win32,59.52380952,59ea48b7be399f0001e4a178,667045947eb812cbdacbf325,667053e032e73530f7ef4001,,,,,,,,,,,,,,,,,,,,,,,,,,,,,,,,,,,,,,,,,,,,,,,,,,,,,,443.8563,445.2228,space,1.3606,,0,0,0,0,1,choose_song_b1.csv,,,,,,,,,,,,,,,,,,,,,,,,,,,,,,,,,,,,,
,,,,,152039,001,2024-06-17_11h28.19.974,experiment,2024.1.5,Win32,59.52380952,59ea48b7be399f0001e4a178,667045947eb812cbdacbf325,667053e032e73530f7ef4001,,,,,,,,,,,,,,,,,,,,,,,,,,,,,,,,,,,,445.2247,452.5058,0,0,0,1,1,SoundStimuli/FlashdanceWhatAFeeling_IreneCara_Cover5S.wav,,,,,,,,,,,,,,,,,,,,,,,,,,,,,,,,,,,,,,,,,,,,,,,,,,,,,,,,,,
,,,,,152039,001,2024-06-17_11h28.19.974,experiment,2024.1.5,Win32,59.52380952,59ea48b7be399f0001e4a178,667045947eb812cbdacbf325,667053e032e73530f7ef4001,,,,,,,,,,,,,,,,,,,,,,,,,,,,,,,,,,,,452.512,458.906,0,1,1,0,1,SoundStimuli/FlashdanceWhatAFeeling_IreneCara_Original5S.wav,,,,,,,,,,,,,,,,,,,,,,,,,,,,,,,,,,,,,,,,,,,,,,,,,,,,,,,,,,
,,,,,152039,001,2024-06-17_11h28.19.974,experiment,2024.1.5,Win32,59.52380952,59ea48b7be399f0001e4a178,667045947eb812cbdacbf325,667053e032e73530f7ef4001,,,,,,,,,,,,,,,,,,,,,,,,,,,,,,,,,,,,,,,,,,,,458.9062,459.9061,6.994444444,0.9791,0,0,0,18,1,song_indices/FlashdanceWhatAFeeling_IreneCara.csv,,,,,,,,,,,,,,,,,,,,,,,,,,,,,,,,,,,,,,,,,,,,,,,,
,,,,,152039,001,2024-06-17_11h28.19.974,experiment,2024.1.5,Win32,59.52380952,59ea48b7be399f0001e4a178,667045947eb812cbdacbf325,667053e032e73530f7ef4001,,,,,,,,,,,,,,,,,,,,,,,,,,,,,,,,,,,,459.9069,466.4224,0,0,0,0,1,SoundStimuli/Dreams_FleetwoodMac_Original5S.wav,,,,,,,,,,,,,,,,,,,,,,,,,,,,,,,,,,,,,,,,,,,,,,,,,,,,,,,,,,
,,,,,152039,001,2024-06-17_11h28.19.974,experiment,2024.1.5,Win32,59.52380952,59ea48b7be399f0001e4a178,667045947eb812cbdacbf325,667053e032e73530f7ef4001,,,,,,,,,,,,,,,,,,,,,,,,,,,,,,,,,,,,466.4285,474.2557,0,1,1,1,1,SoundStimuli/Dreams_FleetwoodMac_Cover5S.wav,,,,,,,,,,,,,,,,,,,,,,,,,,,,,,,,,,,,,,,,,,,,,,,,,,,,,,,,,,
,,,,,152039,001,2024-06-17_11h28.19.974,experiment,2024.1.5,Win32,59.52380952,59ea48b7be399f0001e4a178,667045947eb812cbdacbf325,667053e032e73530f7ef4001,,,,,,,,,,,,,,,,,,,,,,,,,,,,,,,,,,,,,,,,,,,,474.2558,477.3728,2.466666667,3.0957,0,1,1,1,1,song_indices/Dreams_FleetwoodMac.csv,,,,,,,,,,,,,,,,,,,,,,,,,,,,,,,,,,,,,,,,,,,,,,,,
,,,,,152039,001,2024-06-17_11h28.19.974,experiment,2024.1.5,Win32,59.52380952,59ea48b7be399f0001e4a178,667045947eb812cbdacbf325,667053e032e73530f7ef4001,,,,,,,,,,,,,,,,,,,,,,,,,,,,,,,,,,,,477.3735,482.9225,0,0,0,1,1,SoundStimuli/LeFreak_Chic_Cover5S.wav,,,,,,,,,,,,,,,,,,,,,,,,,,,,,,,,,,,,,,,,,,,,,,,,,,,,,,,,,,
,,,,,152039,001,2024-06-17_11h28.19.974,experiment,2024.1.5,Win32,59.52380952,59ea48b7be399f0001e4a178,667045947eb812cbdacbf325,667053e032e73530f7ef4001,,,,,,,,,,,,,,,,,,,,,,,,,,,,,,,,,,,,482.9285,488.9724,0,1,1,0,1,SoundStimuli/LeFreak_Chic_Original5S.wav,,,,,,,,,,,,,,,,,,,,,,,,,,,,,,,,,,,,,,,,,,,,,,,,,,,,,,,,,,
,,,,,152039,001,2024-06-17_11h28.19.974,experiment,2024.1.5,Win32,59.52380952,59ea48b7be399f0001e4a178,667045947eb812cbdacbf325,667053e032e73530f7ef4001,,,,,,,,,,,,,,,,,,,,,,,,,,,,,,,,,,,,,,,,,,,,488.9725,490.9556,6.983333333,1.9761,0,2,2,11,1,song_indices/LeFreak_Chic.csv,,,,,,,,,,,,,,,,,,,,,,,,,,,,,,,,,,,,,,,,,,,,,,,,
,,,,,152039,001,2024-06-17_11h28.19.974,experiment,2024.1.5,Win32,59.52380952,59ea48b7be399f0001e4a178,667045947eb812cbdacbf325,667053e032e73530f7ef4001,,,,,,,,,,,,,,,,,,,,,,,,,,,,,,,,,,,,490.9564,497.1723,0,0,0,0,1,SoundStimuli/TikTok_Kesha_Original5S.wav,,,,,,,,,,,,,,,,,,,,,,,,,,,,,,,,,,,,,,,,,,,,,,,,,,,,,,,,,,
,,,,,152039,001,2024-06-17_11h28.19.974,experiment,2024.1.5,Win32,59.52380952,59ea48b7be399f0001e4a178,667045947eb812cbdacbf325,667053e032e73530f7ef4001,,,,,,,,,,,,,,,,,,,,,,,,,,,,,,,,,,,,497.1783,504.7058,0,1,1,1,1,SoundStimuli/TikTok_Kesha_Cover5S.wav,,,,,,,,,,,,,,,,,,,,,,,,,,,,,,,,,,,,,,,,,,,,,,,,,,,,,,,,,,
,,,,,152039,001,2024-06-17_11h28.19.974,experiment,2024.1.5,Win32,59.52380952,59ea48b7be399f0001e4a178,667045947eb812cbdacbf325,667053e032e73530f7ef4001,,,,,,,,,,,,,,,,,,,,,,,,,,,,,,,,,,,,,,,,,,,,504.7059,505.7556,2.011111111,1.0312,0,3,3,3,1,song_indices/TikTok_Kesha.csv,,,,,,,,,,,,,,,,,,,,,,,,,,,,,,,,,,,,,,,,,,,,,,,,
,,,,,152039,001,2024-06-17_11h28.19.974,experiment,2024.1.5,Win32,59.52380952,59ea48b7be399f0001e4a178,667045947eb812cbdacbf325,667053e032e73530f7ef4001,,,,,,,,,,,,,,,,,,,,,,,,,,,,,,,,,,,,505.7567,512.2887,0,0,0,1,1,SoundStimuli/Weak_SWV_Cover5S.wav,,,,,,,,,,,,,,,,,,,,,,,,,,,,,,,,,,,,,,,,,,,,,,,,,,,,,,,,,,
,,,,,152039,001,2024-06-17_11h28.19.974,experiment,2024.1.5,Win32,59.52380952,59ea48b7be399f0001e4a178,667045947eb812cbdacbf325,667053e032e73530f7ef4001,,,,,,,,,,,,,,,,,,,,,,,,,,,,,,,,,,,,512.2953,518.4225,0,1,1,0,1,SoundStimuli/Weak_SWV_Original5S.wav,,,,,,,,,,,,,,,,,,,,,,,,,,,,,,,,,,,,,,,,,,,,,,,,,,,,,,,,,,
,,,,,152039,001,2024-06-17_11h28.19.974,experiment,2024.1.5,Win32,59.52380952,59ea48b7be399f0001e4a178,667045947eb812cbdacbf325,667053e032e73530f7ef4001,,,,,,,,,,,,,,,,,,,,,,,,,,,,,,,,,,,,,,,,,,,,518.4226,520.0221,1,1.5791,0,4,4,6,1,song_indices/Weak_SWV.csv,,,,,,,,,,,,,,,,,,,,,,,,,,,,,,,,,,,,,,,,,,,,,,,,
,,,,,152039,001,2024-06-17_11h28.19.974,experiment,2024.1.5,Win32,59.52380952,59ea48b7be399f0001e4a178,667045947eb812cbdacbf325,667053e032e73530f7ef4001,,,,,,,,,,,,,,,,,,,,,,,,,,,,,,,,,,,,520.0229,526.272,0,0,0,0,1,SoundStimuli/Superstition_StevieWonder_Original5S.wav,,,,,,,,,,,,,,,,,,,,,,,,,,,,,,,,,,,,,,,,,,,,,,,,,,,,,,,,,,
,,,,,152039,001,2024-06-17_11h28.19.974,experiment,2024.1.5,Win32,59.52380952,59ea48b7be399f0001e4a178,667045947eb812cbdacbf325,667053e032e73530f7ef4001,,,,,,,,,,,,,,,,,,,,,,,,,,,,,,,,,,,,526.278,531.6221,0,1,1,1,1,SoundStimuli/Superstition_StevieWonder_Cover5S.wav,,,,,,,,,,,,,,,,,,,,,,,,,,,,,,,,,,,,,,,,,,,,,,,,,,,,,,,,,,
,,,,,152039,001,2024-06-17_11h28.19.974,experiment,2024.1.5,Win32,59.52380952,59ea48b7be399f0001e4a178,667045947eb812cbdacbf325,667053e032e73530f7ef4001,,,,,,,,,,,,,,,,,,,,,,,,,,,,,,,,,,,,,,,,,,,,531.6223,533.0052,1.005555556,1.3758,0,5,5,15,1,song_indices/Superstition_StevieWonder.csv,,,,,,,,,,,,,,,,,,,,,,,,,,,,,,,,,,,,,,,,,,,,,,,,
,,,,,152039,001,2024-06-17_11h28.19.974,experiment,2024.1.5,Win32,59.52380952,59ea48b7be399f0001e4a178,667045947eb812cbdacbf325,667053e032e73530f7ef4001,,,,,,,,,,,,,,,,,,,,,,,,,,,,,,,,,,,,533.0059,539.0388,0,0,0,0,1,SoundStimuli/HowDoILive_LeAnnRimes_Original5S.wav,,,,,,,,,,,,,,,,,,,,,,,,,,,,,,,,,,,,,,,,,,,,,,,,,,,,,,,,,,
,,,,,152039,001,2024-06-17_11h28.19.974,experiment,2024.1.5,Win32,59.52380952,59ea48b7be399f0001e4a178,667045947eb812cbdacbf325,667053e032e73530f7ef4001,,,,,,,,,,,,,,,,,,,,,,,,,,,,,,,,,,,,539.0448,544.5723,0,1,1,1,1,SoundStimuli/HowDoILive_LeAnnRimes_Cover5S.wav,,,,,,,,,,,,,,,,,,,,,,,,,,,,,,,,,,,,,,,,,,,,,,,,,,,,,,,,,,
,,,,,152039,001,2024-06-17_11h28.19.974,experiment,2024.1.5,Win32,59.52380952,59ea48b7be399f0001e4a178,667045947eb812cbdacbf325,667053e032e73530f7ef4001,,,,,,,,,,,,,,,,,,,,,,,,,,,,,,,,,,,,,,,,,,,,544.5725,546.3552,6.994444444,1.7619,0,6,6,17,1,song_indices/HowDoILive_LeAnnRimes.csv,,,,,,,,,,,,,,,,,,,,,,,,,,,,,,,,,,,,,,,,,,,,,,,,
,,,,,152039,001,2024-06-17_11h28.19.974,experiment,2024.1.5,Win32,59.52380952,59ea48b7be399f0001e4a178,667045947eb812cbdacbf325,667053e032e73530f7ef4001,,,,,,,,,,,,,,,,,,,,,,,,,,,,,,,,,,,,546.3559,552.2885,0,0,0,0,1,SoundStimuli/Respect_ArethaFranklin_Original5S.wav,,,,,,,,,,,,,,,,,,,,,,,,,,,,,,,,,,,,,,,,,,,,,,,,,,,,,,,,,,
,,,,,152039,001,2024-06-17_11h28.19.974,experiment,2024.1.5,Win32,59.52380952,59ea48b7be399f0001e4a178,667045947eb812cbdacbf325,667053e032e73530f7ef4001,,,,,,,,,,,,,,,,,,,,,,,,,,,,,,,,,,,,552.2945,558.3556,0,1,1,1,1,SoundStimuli/Respect_ArethaFranklin_Cover5S.wav,,,,,,,,,,,,,,,,,,,,,,,,,,,,,,,,,,,,,,,,,,,,,,,,,,,,,,,,,,
,,,,,152039,001,2024-06-17_11h28.19.974,experiment,2024.1.5,Win32,59.52380952,59ea48b7be399f0001e4a178,667045947eb812cbdacbf325,667053e032e73530f7ef4001,,,,,,,,,,,,,,,,,,,,,,,,,,,,,,,,,,,,,,,,,,,,558.3557,560.1552,1.005555556,1.7836,0,7,7,0,1,song_indices/Respect_ArethaFranklin.csv,,,,,,,,,,,,,,,,,,,,,,,,,,,,,,,,,,,,,,,,,,,,,,,,
,,,,,152039,001,2024-06-17_11h28.19.974,experiment,2024.1.5,Win32,59.52380952,59ea48b7be399f0001e4a178,667045947eb812cbdacbf325,667053e032e73530f7ef4001,,,,,,,,,,,,,,,,,,,,,,,,,,,,,,,,,,,,560.1562,565.9052,0,0,0,1,1,SoundStimuli/Levitating_DuaLipa_Cover5S.wav,,,,,,,,,,,,,,,,,,,,,,,,,,,,,,,,,,,,,,,,,,,,,,,,,,,,,,,,,,
,,,,,152039,001,2024-06-17_11h28.19.974,experiment,2024.1.5,Win32,59.52380952,59ea48b7be399f0001e4a178,667045947eb812cbdacbf325,667053e032e73530f7ef4001,,,,,,,,,,,,,,,,,,,,,,,,,,,,,,,,,,,,565.9113,571.9387,0,1,1,0,1,SoundStimuli/Levitating_DuaLipa_Original5S.wav,,,,,,,,,,,,,,,,,,,,,,,,,,,,,,,,,,,,,,,,,,,,,,,,,,,,,,,,,,
,,,,,152039,001,2024-06-17_11h28.19.974,experiment,2024.1.5,Win32,59.52380952,59ea48b7be399f0001e4a178,667045947eb812cbdacbf325,667053e032e73530f7ef4001,,,,,,,,,,,,,,,,,,,,,,,,,,,,,,,,,,,,,,,,,,,,571.9388,573.6218,3.544444444,1.6732,0,8,8,10,1,song_indices/Levitating_DuaLipa.csv,,,,,,,,,,,,,,,,,,,,,,,,,,,,,,,,,,,,,,,,,,,,,,,,
,,,,,152039,001,2024-06-17_11h28.19.974,experiment,2024.1.5,Win32,59.52380952,59ea48b7be399f0001e4a178,667045947eb812cbdacbf325,667053e032e73530f7ef4001,,,,,,,,,,,,,,,,,,,,,,,,,,,,,,,,,,,,573.6226,579.7218,0,0,0,0,1,SoundStimuli/ComeAndGetYourLove_Redbone_Original5S.wav,,,,,,,,,,,,,,,,,,,,,,,,,,,,,,,,,,,,,,,,,,,,,,,,,,,,,,,,,,
,,,,,152039,001,2024-06-17_11h28.19.974,experiment,2024.1.5,Win32,59.52380952,59ea48b7be399f0001e4a178,667045947eb812cbdacbf325,667053e032e73530f7ef4001,,,,,,,,,,,,,,,,,,,,,,,,,,,,,,,,,,,,579.7275,586.7885,0,1,1,1,1,SoundStimuli/ComeAndGetYourLove_Redbone_Cover5S.wav,,,,,,,,,,,,,,,,,,,,,,,,,,,,,,,,,,,,,,,,,,,,,,,,,,,,,,,,,,
,,,,,152039,001,2024-06-17_11h28.19.974,experiment,2024.1.5,Win32,59.52380952,59ea48b7be399f0001e4a178,667045947eb812cbdacbf325,667053e032e73530f7ef4001,,,,,,,,,,,,,,,,,,,,,,,,,,,,,,,,,,,,,,,,,,,,586.7886,588.0549,2.988888889,1.2565,0,9,9,22,1,song_indices/ComeAndGetYourLove_Redbone.csv,,,,,,,,,,,,,,,,,,,,,,,,,,,,,,,,,,,,,,,,,,,,,,,,
,,,,,152039,001,2024-06-17_11h28.19.974,experiment,2024.1.5,Win32,59.52380952,59ea48b7be399f0001e4a178,667045947eb812cbdacbf325,667053e032e73530f7ef4001,,,,,,,,,,,,,,,,,,,,,,,,,,,,,,,,,,,,588.0556,594.9051,0,0,0,1,1,SoundStimuli/SomebodyThatIUsedtoKnow_Gotye_Cover5S.wav,,,,,,,,,,,,,,,,,,,,,,,,,,,,,,,,,,,,,,,,,,,,,,,,,,,,,,,,,,
,,,,,152039,001,2024-06-17_11h28.19.974,experiment,2024.1.5,Win32,59.52380952,59ea48b7be399f0001e4a178,667045947eb812cbdacbf325,667053e032e73530f7ef4001,,,,,,,,,,,,,,,,,,,,,,,,,,,,,,,,,,,,594.9113,602.1552,0,1,1,0,1,SoundStimuli/SomebodyThatIUsedtoKnow_Gotye_Original5S.wav,,,,,,,,,,,,,,,,,,,,,,,,,,,,,,,,,,,,,,,,,,,,,,,,,,,,,,,,,,
,,,,,152039,001,2024-06-17_11h28.19.974,experiment,2024.1.5,Win32,59.52380952,59ea48b7be399f0001e4a178,667045947eb812cbdacbf325,667053e032e73530f7ef4001,,,,,,,,,,,,,,,,,,,,,,,,,,,,,,,,,,,,,,,,,,,,602.1554,603.6715,6.005555556,1.4962,0,10,10,7,1,song_indices/SomebodyThatIUsedtoKnow_Gotye.csv,,,,,,,,,,,,,,,,,,,,,,,,,,,,,,,,,,,,,,,,,,,,,,,,
,,,,,152039,001,2024-06-17_11h28.19.974,experiment,2024.1.5,Win32,59.52380952,59ea48b7be399f0001e4a178,667045947eb812cbdacbf325,667053e032e73530f7ef4001,,,,,,,,,,,,,,,,,,,,,,,,,,,,,,,,,,,,603.6724,609.9218,0,0,0,0,1,SoundStimuli/TheSign_AceOfBase_Original5S.wav,,,,,,,,,,,,,,,,,,,,,,,,,,,,,,,,,,,,,,,,,,,,,,,,,,,,,,,,,,
,,,,,152039,001,2024-06-17_11h28.19.974,experiment,2024.1.5,Win32,59.52380952,59ea48b7be399f0001e4a178,667045947eb812cbdacbf325,667053e032e73530f7ef4001,,,,,,,,,,,,,,,,,,,,,,,,,,,,,,,,,,,,609.9281,615.9552,0,1,1,1,1,SoundStimuli/TheSign_AceOfBase_Cover5S.wav,,,,,,,,,,,,,,,,,,,,,,,,,,,,,,,,,,,,,,,,,,,,,,,,,,,,,,,,,,
,,,,,152039,001,2024-06-17_11h28.19.974,experiment,2024.1.5,Win32,59.52380952,59ea48b7be399f0001e4a178,667045947eb812cbdacbf325,667053e032e73530f7ef4001,,,,,,,,,,,,,,,,,,,,,,,,,,,,,,,,,,,,,,,,,,,,615.9553,616.8881,5.994444444,0.9212,0,11,11,5,1,song_indices/TheSign_AceOfBase.csv,,,,,,,,,,,,,,,,,,,,,,,,,,,,,,,,,,,,,,,,,,,,,,,,
,,,,,152039,001,2024-06-17_11h28.19.974,experiment,2024.1.5,Win32,59.52380952,59ea48b7be399f0001e4a178,667045947eb812cbdacbf325,667053e032e73530f7ef4001,,,,,,,,,,,,,,,,,,,,,,,,,,,,,,,,,,,,616.8891,620.9382,0,0,0,1,1,SoundStimuli/UnbreakMyHeart_ToniBraxton_Cover5S.wav,,,,,,,,,,,,,,,,,,,,,,,,,,,,,,,,,,,,,,,,,,,,,,,,,,,,,,,,,,
,,,,,152039,001,2024-06-17_11h28.19.974,experiment,2024.1.5,Win32,59.52380952,59ea48b7be399f0001e4a178,667045947eb812cbdacbf325,667053e032e73530f7ef4001,,,,,,,,,,,,,,,,,,,,,,,,,,,,,,,,,,,,620.9446,627.0719,0,1,1,0,1,SoundStimuli/UnbreakMyHeart_ToniBraxton_Original5S.wav,,,,,,,,,,,,,,,,,,,,,,,,,,,,,,,,,,,,,,,,,,,,,,,,,,,,,,,,,,
,,,,,152039,001,2024-06-17_11h28.19.974,experiment,2024.1.5,Win32,59.52380952,59ea48b7be399f0001e4a178,667045947eb812cbdacbf325,667053e032e73530f7ef4001,,,,,,,,,,,,,,,,,,,,,,,,,,,,,,,,,,,,,,,,,,,,627.072,629.1047,3.022222222,2.0255,0,12,12,16,1,song_indices/UnbreakMyHeart_ToniBraxton.csv,,,,,,,,,,,,,,,,,,,,,,,,,,,,,,,,,,,,,,,,,,,,,,,,
,,,,,152039,001,2024-06-17_11h28.19.974,experiment,2024.1.5,Win32,59.52380952,59ea48b7be399f0001e4a178,667045947eb812cbdacbf325,667053e032e73530f7ef4001,,,,,,,,,,,,,,,,,,,,,,,,,,,,,,,,,,,,629.1053,635.188,0,0,0,0,1,SoundStimuli/YouLightUpMyLife_DebbyBoone_Original5S.wav,,,,,,,,,,,,,,,,,,,,,,,,,,,,,,,,,,,,,,,,,,,,,,,,,,,,,,,,,,
,,,,,152039,001,2024-06-17_11h28.19.974,experiment,2024.1.5,Win32,59.52380952,59ea48b7be399f0001e4a178,667045947eb812cbdacbf325,667053e032e73530f7ef4001,,,,,,,,,,,,,,,,,,,,,,,,,,,,,,,,,,,,635.1939,641.7213,0,1,1,1,1,SoundStimuli/YouLightUpMyLife_DebbyBoone_Cover5S.wav,,,,,,,,,,,,,,,,,,,,,,,,,,,,,,,,,,,,,,,,,,,,,,,,,,,,,,,,,,
,,,,,152039,001,2024-06-17_11h28.19.974,experiment,2024.1.5,Win32,59.52380952,59ea48b7be399f0001e4a178,667045947eb812cbdacbf325,667053e032e73530f7ef4001,,,,,,,,,,,,,,,,,,,,,,,,,,,,,,,,,,,,,,,,,,,,641.7215,643.1547,6.994444444,1.4261,0,13,13,4,1,song_indices/YouLightUpMyLife_DebbyBoone.csv,,,,,,,,,,,,,,,,,,,,,,,,,,,,,,,,,,,,,,,,,,,,,,,,
,,,,,152039,001,2024-06-17_11h28.19.974,experiment,2024.1.5,Win32,59.52380952,59ea48b7be399f0001e4a178,667045947eb812cbdacbf325,667053e032e73530f7ef4001,,,,,,,,,,,,,,,,,,,,,,,,,,,,,,,,,,,,643.1553,649.2879,0,0,0,1,1,SoundStimuli/TossinAndTurnin_BobbyLewis_Cover5S.wav,,,,,,,,,,,,,,,,,,,,,,,,,,,,,,,,,,,,,,,,,,,,,,,,,,,,,,,,,,
,,,,,152039,001,2024-06-17_11h28.19.974,experiment,2024.1.5,Win32,59.52380952,59ea48b7be399f0001e4a178,667045947eb812cbdacbf325,667053e032e73530f7ef4001,,,,,,,,,,,,,,,,,,,,,,,,,,,,,,,,,,,,649.2944,655.4212,0,1,1,0,1,SoundStimuli/TossinAndTurnin_BobbyLewis_Original5S.wav,,,,,,,,,,,,,,,,,,,,,,,,,,,,,,,,,,,,,,,,,,,,,,,,,,,,,,,,,,
,,,,,152039,001,2024-06-17_11h28.19.974,experiment,2024.1.5,Win32,59.52380952,59ea48b7be399f0001e4a178,667045947eb812cbdacbf325,667053e032e73530f7ef4001,,,,,,,,,,,,,,,,,,,,,,,,,,,,,,,,,,,,,,,,,,,,655.4214,657.5879,1.011111111,2.1517,0,14,14,13,1,song_indices/TossinAndTurnin_BobbyLewis.csv,,,,,,,,,,,,,,,,,,,,,,,,,,,,,,,,,,,,,,,,,,,,,,,,
,,,,,152039,001,2024-06-17_11h28.19.974,experiment,2024.1.5,Win32,59.52380952,59ea48b7be399f0001e4a178,667045947eb812cbdacbf325,667053e032e73530f7ef4001,,,,,,,,,,,,,,,,,,,,,,,,,,,,,,,,,,,,657.5889,664.7211,0,0,0,1,1,SoundStimuli/BlurredLines_RobinThicke_Cover5S.wav,,,,,,,,,,,,,,,,,,,,,,,,,,,,,,,,,,,,,,,,,,,,,,,,,,,,,,,,,,
,,,,,152039,001,2024-06-17_11h28.19.974,experiment,2024.1.5,Win32,59.52380952,59ea48b7be399f0001e4a178,667045947eb812cbdacbf325,667053e032e73530f7ef4001,,,,,,,,,,,,,,,,,,,,,,,,,,,,,,,,,,,,664.7272,671.5712,0,1,1,0,1,SoundStimuli/BlurredLines_RobinThicke_Original5S.wav,,,,,,,,,,,,,,,,,,,,,,,,,,,,,,,,,,,,,,,,,,,,,,,,,,,,,,,,,,
,,,,,152039,001,2024-06-17_11h28.19.974,experiment,2024.1.5,Win32,59.52380952,59ea48b7be399f0001e4a178,667045947eb812cbdacbf325,667053e032e73530f7ef4001,,,,,,,,,,,,,,,,,,,,,,,,,,,,,,,,,,,,,,,,,,,,671.5715,672.7711,4.977777778,1.1898,0,15,15,9,1,song_indices/BlurredLines_RobinThicke.csv,,,,,,,,,,,,,,,,,,,,,,,,,,,,,,,,,,,,,,,,,,,,,,,,
,,,,,152039,001,2024-06-17_11h28.19.974,experiment,2024.1.5,Win32,59.52380952,59ea48b7be399f0001e4a178,667045947eb812cbdacbf325,667053e032e73530f7ef4001,,,,,,,,,,,,,,,,,,,,,,,,,,,,,,,,,,,,672.7717,679.0212,0,0,0,0,1,SoundStimuli/SaveYourTears_TheWeekndArianaGrande_Original5S.wav,,,,,,,,,,,,,,,,,,,,,,,,,,,,,,,,,,,,,,,,,,,,,,,,,,,,,,,,,,
,,,,,152039,001,2024-06-17_11h28.19.974,experiment,2024.1.5,Win32,59.52380952,59ea48b7be399f0001e4a178,667045947eb812cbdacbf325,667053e032e73530f7ef4001,,,,,,,,,,,,,,,,,,,,,,,,,,,,,,,,,,,,679.0272,684.9715,0,1,1,1,1,SoundStimuli/SaveYourTears_TheWeekndArianaGrande_Cover5S.wav,,,,,,,,,,,,,,,,,,,,,,,,,,,,,,,,,,,,,,,,,,,,,,,,,,,,,,,,,,
,,,,,152039,001,2024-06-17_11h28.19.974,experiment,2024.1.5,Win32,59.52380952,59ea48b7be399f0001e4a178,667045947eb812cbdacbf325,667053e032e73530f7ef4001,,,,,,,,,,,,,,,,,,,,,,,,,,,,,,,,,,,,,,,,,,,,684.9717,686.0043,1.994444444,1.0217,0,16,16,12,1,song_indices/SaveYourTears_TheWeekndArianaGrande.csv,,,,,,,,,,,,,,,,,,,,,,,,,,,,,,,,,,,,,,,,,,,,,,,,
,,,,,152039,001,2024-06-17_11h28.19.974,experiment,2024.1.5,Win32,59.52380952,59ea48b7be399f0001e4a178,667045947eb812cbdacbf325,667053e032e73530f7ef4001,,,,,,,,,,,,,,,,,,,,,,,,,,,,,,,,,,,,686.0049,691.8876,0,0,0,0,1,SoundStimuli/Irreplaceable_Beyonce_Original5S.wav,,,,,,,,,,,,,,,,,,,,,,,,,,,,,,,,,,,,,,,,,,,,,,,,,,,,,,,,,,
,,,,,152039,001,2024-06-17_11h28.19.974,experiment,2024.1.5,Win32,59.52380952,59ea48b7be399f0001e4a178,667045947eb812cbdacbf325,667053e032e73530f7ef4001,,,,,,,,,,,,,,,,,,,,,,,,,,,,,,,,,,,,691.8935,697.8047,0,1,1,1,1,SoundStimuli/Irreplaceable_Beyonce_Cover5S.wav,,,,,,,,,,,,,,,,,,,,,,,,,,,,,,,,,,,,,,,,,,,,,,,,,,,,,,,,,,
,,,,,152039,001,2024-06-17_11h28.19.974,experiment,2024.1.5,Win32,59.52380952,59ea48b7be399f0001e4a178,667045947eb812cbdacbf325,667053e032e73530f7ef4001,,,,,,,,,,,,,,,,,,,,,,,,,,,,,,,,,,,,,,,,,,,,697.8048,698.7375,6.011111111,0.9167,0,17,17,19,1,song_indices/Irreplaceable_Beyonce.csv,,,,,,,,,,,,,,,,,,,,,,,,,,,,,,,,,,,,,,,,,,,,,,,,
,,,,,152039,001,2024-06-17_11h28.19.974,experiment,2024.1.5,Win32,59.52380952,59ea48b7be399f0001e4a178,667045947eb812cbdacbf325,667053e032e73530f7ef4001,,,,,,,,,,,,,,,,,,,,,,,,,,,,,,,,,,,,698.7383,705.0876,0,0,0,1,1,SoundStimuli/Kiss_Prince_Cover5S.wav,,,,,,,,,,,,,,,,,,,,,,,,,,,,,,,,,,,,,,,,,,,,,,,,,,,,,,,,,,
,,,,,152039,001,2024-06-17_11h28.19.974,experiment,2024.1.5,Win32,59.52380952,59ea48b7be399f0001e4a178,667045947eb812cbdacbf325,667053e032e73530f7ef4001,,,,,,,,,,,,,,,,,,,,,,,,,,,,,,,,,,,,705.0939,712.5374,0,1,1,0,1,SoundStimuli/Kiss_Prince_Original5S.wav,,,,,,,,,,,,,,,,,,,,,,,,,,,,,,,,,,,,,,,,,,,,,,,,,,,,,,,,,,
,,,,,152039,001,2024-06-17_11h28.19.974,experiment,2024.1.5,Win32,59.52380952,59ea48b7be399f0001e4a178,667045947eb812cbdacbf325,667053e032e73530f7ef4001,,,,,,,,,,,,,,,,,,,,,,,,,,,,,,,,,,,,,,,,,,,,712.5375,713.8541,1,1.3051,0,18,18,14,1,song_indices/Kiss_Prince.csv,,,,,,,,,,,,,,,,,,,,,,,,,,,,,,,,,,,,,,,,,,,,,,,,
,,,,,152039,001,2024-06-17_11h28.19.974,experiment,2024.1.5,Win32,59.52380952,59ea48b7be399f0001e4a178,667045947eb812cbdacbf325,667053e032e73530f7ef4001,,,,,,,,,,,,,,,,,,,,,,,,,,,,,,,,,,,,713.8549,720.3373,0,0,0,0,1,SoundStimuli/BlindingLights_TheWeeknd_Original5S.wav,,,,,,,,,,,,,,,,,,,,,,,,,,,,,,,,,,,,,,,,,,,,,,,,,,,,,,,,,,
,,,,,152039,001,2024-06-17_11h28.19.974,experiment,2024.1.5,Win32,59.52380952,59ea48b7be399f0001e4a178,667045947eb812cbdacbf325,667053e032e73530f7ef4001,,,,,,,,,,,,,,,,,,,,,,,,,,,,,,,,,,,,720.3434,727.1377,0,1,1,1,1,SoundStimuli/BlindingLights_TheWeeknd_Cover5S.wav,,,,,,,,,,,,,,,,,,,,,,,,,,,,,,,,,,,,,,,,,,,,,,,,,,,,,,,,,,
,,,,,152039,001,2024-06-17_11h28.19.974,experiment,2024.1.5,Win32,59.52380952,59ea48b7be399f0001e4a178,667045947eb812cbdacbf325,667053e032e73530f7ef4001,,,,,,,,,,,,,,,,,,,,,,,,,,,,,,,,,,,,,,,,,,,,727.1377,728.0206,6.477777778,0.8634,0,19,19,21,1,song_indices/BlindingLights_TheWeeknd.csv,,,,,,,,,,,,,,,,,,,,,,,,,,,,,,,,,,,,,,,,,,,,,,,,
,,,,,152039,001,2024-06-17_11h28.19.974,experiment,2024.1.5,Win32,59.52380952,59ea48b7be399f0001e4a178,667045947eb812cbdacbf325,667053e032e73530f7ef4001,,,,,,,,,,,,,,,,,,,,,,,,,,,,,,,,,,,,728.0212,735.0205,0,0,0,1,1,SoundStimuli/Dilemma_NellyKellyRowland_Cover5S.wav,,,,,,,,,,,,,,,,,,,,,,,,,,,,,,,,,,,,,,,,,,,,,,,,,,,,,,,,,,
,,,,,152039,001,2024-06-17_11h28.19.974,experiment,2024.1.5,Win32,59.52380952,59ea48b7be399f0001e4a178,667045947eb812cbdacbf325,667053e032e73530f7ef4001,,,,,,,,,,,,,,,,,,,,,,,,,,,,,,,,,,,,735.0265,741.2207,0,1,1,0,1,SoundStimuli/Dilemma_NellyKellyRowland_Original5S.wav,,,,,,,,,,,,,,,,,,,,,,,,,,,,,,,,,,,,,,,,,,,,,,,,,,,,,,,,,,
,,,,,152039,001,2024-06-17_11h28.19.974,experiment,2024.1.5,Win32,59.52380952,59ea48b7be399f0001e4a178,667045947eb812cbdacbf325,667053e032e73530f7ef4001,,,,,,,,,,,,,,,,,,,,,,,,,,,,,,,,,,,,,,,,,,,,741.2208,742.7206,5.488888889,1.4794,0,20,20,2,1,song_indices/Dilemma_NellyKellyRowland.csv,,,,,,,,,,,,,,,,,,,,,,,,,,,,,,,,,,,,,,,,,,,,,,,,
,,,,,152039,001,2024-06-17_11h28.19.974,experiment,2024.1.5,Win32,59.52380952,59ea48b7be399f0001e4a178,667045947eb812cbdacbf325,667053e032e73530f7ef4001,,,,,,,,,,,,,,,,,,,,,,,,,,,,,,,,,,,,742.7215,749.3706,0,0,0,1,1,SoundStimuli/LetsGetItOn_MarvinGaye_Cover5S.wav,,,,,,,,,,,,,,,,,,,,,,,,,,,,,,,,,,,,,,,,,,,,,,,,,,,,,,,,,,
,,,,,152039,001,2024-06-17_11h28.19.974,experiment,2024.1.5,Win32,59.52380952,59ea48b7be399f0001e4a178,667045947eb812cbdacbf325,667053e032e73530f7ef4001,,,,,,,,,,,,,,,,,,,,,,,,,,,,,,,,,,,,749.3769,755.671,0,1,1,0,1,SoundStimuli/LetsGetItOn_MarvinGaye_Original5S.wav,,,,,,,,,,,,,,,,,,,,,,,,,,,,,,,,,,,,,,,,,,,,,,,,,,,,,,,,,,
,,,,,152039,001,2024-06-17_11h28.19.974,experiment,2024.1.5,Win32,59.52380952,59ea48b7be399f0001e4a178,667045947eb812cbdacbf325,667053e032e73530f7ef4001,,,,,,,,,,,,,,,,,,,,,,,,,,,,,,,,,,,,,,,,,,,,755.671,757.0705,3.011111111,1.3781,0,21,21,20,1,song_indices/LetsGetItOn_MarvinGaye.csv,,,,,,,,,,,,,,,,,,,,,,,,,,,,,,,,,,,,,,,,,,,,,,,,
,,,,,152039,001,2024-06-17_11h28.19.974,experiment,2024.1.5,Win32,59.52380952,59ea48b7be399f0001e4a178,667045947eb812cbdacbf325,667053e032e73530f7ef4001,,,,,,,,,,,,,,,,,,,,,,,,,,,,,,,,,,,,757.0713,764.0871,0,0,0,0,1,SoundStimuli/PokerFace_LadyGaga_Original5S.wav,,,,,,,,,,,,,,,,,,,,,,,,,,,,,,,,,,,,,,,,,,,,,,,,,,,,,,,,,,
,,,,,152039,001,2024-06-17_11h28.19.974,experiment,2024.1.5,Win32,59.52380952,59ea48b7be399f0001e4a178,667045947eb812cbdacbf325,667053e032e73530f7ef4001,,,,,,,,,,,,,,,,,,,,,,,,,,,,,,,,,,,,764.0932,770.9374,0,1,1,1,1,SoundStimuli/PokerFace_LadyGaga_Cover5S.wav,,,,,,,,,,,,,,,,,,,,,,,,,,,,,,,,,,,,,,,,,,,,,,,,,,,,,,,,,,
,,,,,152039,001,2024-06-17_11h28.19.974,experiment,2024.1.5,Win32,59.52380952,59ea48b7be399f0001e4a178,667045947eb812cbdacbf325,667053e032e73530f7ef4001,,,,,,,,,,,,,,,,,,,,,,,,,,,,,,,,,,,,,,,,,,,,770.9375,772.787,3.538888889,1.8369,0,22,22,23,1,song_indices/PokerFace_LadyGaga.csv,,,,,,,,,,,,,,,,,,,,,,,,,,,,,,,,,,,,,,,,,,,,,,,,
,,,,,152039,001,2024-06-17_11h28.19.974,experiment,2024.1.5,Win32,59.52380952,59ea48b7be399f0001e4a178,667045947eb812cbdacbf325,667053e032e73530f7ef4001,,,,,,,,,,,,,,,,,,,,,,,,,,,,,,,,,,,,772.7877,777.937,0,0,0,1,1,SoundStimuli/JoyToTheWorld_ThreeDogNight_Cover5S.wav,,,,,,,,,,,,,,,,,,,,,,,,,,,,,,,,,,,,,,,,,,,,,,,,,,,,,,,,,,
,,,,,152039,001,2024-06-17_11h28.19.974,experiment,2024.1.5,Win32,59.52380952,59ea48b7be399f0001e4a178,667045947eb812cbdacbf325,667053e032e73530f7ef4001,,,,,,,,,,,,,,,,,,,,,,,,,,,,,,,,,,,,777.9435,784.0708,0,1,1,0,1,SoundStimuli/JoyToTheWorld_ThreeDogNight_Original5S.wav,,,,,,,,,,,,,,,,,,,,,,,,,,,,,,,,,,,,,,,,,,,,,,,,,,,,,,,,,,
,,,,,152039,001,2024-06-17_11h28.19.974,experiment,2024.1.5,Win32,59.52380952,59ea48b7be399f0001e4a178,667045947eb812cbdacbf325,667053e032e73530f7ef4001,,,,,,,,,,,,,,,,,,,,,,,,,,,,,,,,,,,,,,,,,,,,784.071,786.2869,6.988888889,2.2082,0,23,23,8,1,song_indices/JoyToTheWorld_ThreeDogNight.csv,,,,,,,,,,,,,,,,,,,,,,,,,,,,,,,,,,,,,,,,,,,,,,,,
,,,,,152039,001,2024-06-17_11h28.19.974,experiment,2024.1.5,Win32,59.52380952,59ea48b7be399f0001e4a178,667045947eb812cbdacbf325,667053e032e73530f7ef4001,,,,,,,,,,,,,,,,,,,,,,,,,,,,,,,,,,,,,,,,,,,,,,,,,,,,,,786.287,787.504,space,1.211,,0,1,1,2,1,choose_song_b3.csv,,,,,,,,,,,,,,,,,,,,,,,,,,,,,,,,,,,,,
,,,,,152039,001,2024-06-17_11h28.19.974,experiment,2024.1.5,Win32,59.52380952,59ea48b7be399f0001e4a178,667045947eb812cbdacbf325,667053e032e73530f7ef4001,,,,,,,,,,,,,,,,,,,,,,,,,,,,,,,,,,,,787.5053,793.9369,0,0,0,1,1,SoundStimuli/Fallin_AliciaKeys_Cover5S.wav,,,,,,,,,,,,,,,,,,,,,,,,,,,,,,,,,,,,,,,,,,,,,,,,,,,,,,,,,,
,,,,,152039,001,2024-06-17_11h28.19.974,experiment,2024.1.5,Win32,59.52380952,59ea48b7be399f0001e4a178,667045947eb812cbdacbf325,667053e032e73530f7ef4001,,,,,,,,,,,,,,,,,,,,,,,,,,,,,,,,,,,,793.9432,800.1204,0,1,1,0,1,SoundStimuli/Fallin_AliciaKeys_Original5S.wav,,,,,,,,,,,,,,,,,,,,,,,,,,,,,,,,,,,,,,,,,,,,,,,,,,,,,,,,,,
,,,,,152039,001,2024-06-17_11h28.19.974,experiment,2024.1.5,Win32,59.52380952,59ea48b7be399f0001e4a178,667045947eb812cbdacbf325,667053e032e73530f7ef4001,,,,,,,,,,,,,,,,,,,,,,,,,,,,,,,,,,,,,,,,,,,,800.1204,801.0702,7,0.932,0,0,0,12,1,song_indices/Fallin_AliciaKeys.csv,,,,,,,,,,,,,,,,,,,,,,,,,,,,,,,,,,,,,,,,,,,,,,,,
,,,,,152039,001,2024-06-17_11h28.19.974,experiment,2024.1.5,Win32,59.52380952,59ea48b7be399f0001e4a178,667045947eb812cbdacbf325,667053e032e73530f7ef4001,,,,,,,,,,,,,,,,,,,,,,,,,,,,,,,,,,,,801.0711,807.6537,0,0,0,1,1,SoundStimuli/GetUrFreakOn_MissyElliot_Cover5S.wav,,,,,,,,,,,,,,,,,,,,,,,,,,,,,,,,,,,,,,,,,,,,,,,,,,,,,,,,,,
,,,,,152039,001,2024-06-17_11h28.19.974,experiment,2024.1.5,Win32,59.52380952,59ea48b7be399f0001e4a178,667045947eb812cbdacbf325,667053e032e73530f7ef4001,,,,,,,,,,,,,,,,,,,,,,,,,,,,,,,,,,,,807.6603,813.7371,0,1,1,0,1,SoundStimuli/GetUrFreakOn_MissyElliot_Original5S.wav,,,,,,,,,,,,,,,,,,,,,,,,,,,,,,,,,,,,,,,,,,,,,,,,,,,,,,,,,,
,,,,,152039,001,2024-06-17_11h28.19.974,experiment,2024.1.5,Win32,59.52380952,59ea48b7be399f0001e4a178,667045947eb812cbdacbf325,667053e032e73530f7ef4001,,,,,,,,,,,,,,,,,,,,,,,,,,,,,,,,,,,,,,,,,,,,813.7372,815.8368,3.011111111,2.0873,0,1,1,18,1,song_indices/GetUrFreakOn_MissyElliot.csv,,,,,,,,,,,,,,,,,,,,,,,,,,,,,,,,,,,,,,,,,,,,,,,,
,,,,,152039,001,2024-06-17_11h28.19.974,experiment,2024.1.5,Win32,59.52380952,59ea48b7be399f0001e4a178,667045947eb812cbdacbf325,667053e032e73530f7ef4001,,,,,,,,,,,,,,,,,,,,,,,,,,,,,,,,,,,,815.8375,821.9868,0,0,0,0,1,SoundStimuli/GoodGollyMissMolly_LittleRichard_Original5S.wav,,,,,,,,,,,,,,,,,,,,,,,,,,,,,,,,,,,,,,,,,,,,,,,,,,,,,,,,,,
,,,,,152039,001,2024-06-17_11h28.19.974,experiment,2024.1.5,Win32,59.52380952,59ea48b7be399f0001e4a178,667045947eb812cbdacbf325,667053e032e73530f7ef4001,,,,,,,,,,,,,,,,,,,,,,,,,,,,,,,,,,,,821.9928,828.4202,0,1,1,1,1,SoundStimuli/GoodGollyMissMolly_LittleRichard_Cover5S.wav,,,,,,,,,,,,,,,,,,,,,,,,,,,,,,,,,,,,,,,,,,,,,,,,,,,,,,,,,,
,,,,,152039,001,2024-06-17_11h28.19.974,experiment,2024.1.5,Win32,59.52380952,59ea48b7be399f0001e4a178,667045947eb812cbdacbf325,667053e032e73530f7ef4001,,,,,,,,,,,,,,,,,,,,,,,,,,,,,,,,,,,,,,,,,,,,828.4204,830.1368,1,1.7089,0,2,2,0,1,song_indices/GoodGollyMissMolly_LittleRichard.csv,,,,,,,,,,,,,,,,,,,,,,,,,,,,,,,,,,,,,,,,,,,,,,,,
,,,,,152039,001,2024-06-17_11h28.19.974,experiment,2024.1.5,Win32,59.52380952,59ea48b7be399f0001e4a178,667045947eb812cbdacbf325,667053e032e73530f7ef4001,,,,,,,,,,,,,,,,,,,,,,,,,,,,,,,,,,,,830.1376,836.087,0,0,0,1,1,SoundStimuli/IWillAlwaysLoveYou_WhitneyHouston_Cover5S.wav,,,,,,,,,,,,,,,,,,,,,,,,,,,,,,,,,,,,,,,,,,,,,,,,,,,,,,,,,,
,,,,,152039,001,2024-06-17_11h28.19.974,experiment,2024.1.5,Win32,59.52380952,59ea48b7be399f0001e4a178,667045947eb812cbdacbf325,667053e032e73530f7ef4001,,,,,,,,,,,,,,,,,,,,,,,,,,,,,,,,,,,,836.0931,842.4703,0,1,1,0,1,SoundStimuli/IWillAlwaysLoveYou_WhitneyHouston_Original5S.wav,,,,,,,,,,,,,,,,,,,,,,,,,,,,,,,,,,,,,,,,,,,,,,,,,,,,,,,,,,
,,,,,152039,001,2024-06-17_11h28.19.974,experiment,2024.1.5,Win32,59.52380952,59ea48b7be399f0001e4a178,667045947eb812cbdacbf325,667053e032e73530f7ef4001,,,,,,,,,,,,,,,,,,,,,,,,,,,,,,,,,,,,,,,,,,,,842.4705,843.2202,7,0.7299,0,3,3,10,1,song_indices/IWillAlwaysLoveYou_WhitneyHouston.csv,,,,,,,,,,,,,,,,,,,,,,,,,,,,,,,,,,,,,,,,,,,,,,,,
,,,,,152039,001,2024-06-17_11h28.19.974,experiment,2024.1.5,Win32,59.52380952,59ea48b7be399f0001e4a178,667045947eb812cbdacbf325,667053e032e73530f7ef4001,,,,,,,,,,,,,,,,,,,,,,,,,,,,,,,,,,,,843.2208,850.6533,0,0,0,1,1,SoundStimuli/Happy_PharellWilliams_Cover5S.wav,,,,,,,,,,,,,,,,,,,,,,,,,,,,,,,,,,,,,,,,,,,,,,,,,,,,,,,,,,
,,,,,152039,001,2024-06-17_11h28.19.974,experiment,2024.1.5,Win32,59.52380952,59ea48b7be399f0001e4a178,667045947eb812cbdacbf325,667053e032e73530f7ef4001,,,,,,,,,,,,,,,,,,,,,,,,,,,,,,,,,,,,850.66,858.0867,0,1,1,0,1,SoundStimuli/Happy_PharellWilliams_Original5S.wav,,,,,,,,,,,,,,,,,,,,,,,,,,,,,,,,,,,,,,,,,,,,,,,,,,,,,,,,,,
,,,,,152039,001,2024-06-17_11h28.19.974,experiment,2024.1.5,Win32,59.52380952,59ea48b7be399f0001e4a178,667045947eb812cbdacbf325,667053e032e73530f7ef4001,,,,,,,,,,,,,,,,,,,,,,,,,,,,,,,,,,,,,,,,,,,,858.0869,859.6202,7,1.5199,0,4,4,7,1,song_indices/Happy_PharellWilliams.csv,,,,,,,,,,,,,,,,,,,,,,,,,,,,,,,,,,,,,,,,,,,,,,,,
,,,,,152039,001,2024-06-17_11h28.19.974,experiment,2024.1.5,Win32,59.52380952,59ea48b7be399f0001e4a178,667045947eb812cbdacbf325,667053e032e73530f7ef4001,,,,,,,,,,,,,,,,,,,,,,,,,,,,,,,,,,,,859.6212,866.4699,0,0,0,0,1,SoundStimuli/PartyRockAnthem_LMFAO_Original5S.wav,,,,,,,,,,,,,,,,,,,,,,,,,,,,,,,,,,,,,,,,,,,,,,,,,,,,,,,,,,
,,,,,152039,001,2024-06-17_11h28.19.974,experiment,2024.1.5,Win32,59.52380952,59ea48b7be399f0001e4a178,667045947eb812cbdacbf325,667053e032e73530f7ef4001,,,,,,,,,,,,,,,,,,,,,,,,,,,,,,,,,,,,866.4772,873.3202,0,1,1,1,1,SoundStimuli/PartyRockAnthem_LMFAO_Cover5S.wav,,,,,,,,,,,,,,,,,,,,,,,,,,,,,,,,,,,,,,,,,,,,,,,,,,,,,,,,,,
,,,,,152039,001,2024-06-17_11h28.19.974,experiment,2024.1.5,Win32,59.52380952,59ea48b7be399f0001e4a178,667045947eb812cbdacbf325,667053e032e73530f7ef4001,,,,,,,,,,,,,,,,,,,,,,,,,,,,,,,,,,,,,,,,,,,,873.3204,874.4703,1.994444444,1.1491,0,5,5,2,1,song_indices/PartyRockAnthem_LMFAO.csv,,,,,,,,,,,,,,,,,,,,,,,,,,,,,,,,,,,,,,,,,,,,,,,,
,,,,,152039,001,2024-06-17_11h28.19.974,experiment,2024.1.5,Win32,59.52380952,59ea48b7be399f0001e4a178,667045947eb812cbdacbf325,667053e032e73530f7ef4001,,,,,,,,,,,,,,,,,,,,,,,,,,,,,,,,,,,,874.471,881.1199,0,0,0,0,1,SoundStimuli/CrazyInLove_BeyonceFtJayZ_Original5S.wav,,,,,,,,,,,,,,,,,,,,,,,,,,,,,,,,,,,,,,,,,,,,,,,,,,,,,,,,,,
,,,,,152039,001,2024-06-17_11h28.19.974,experiment,2024.1.5,Win32,59.52380952,59ea48b7be399f0001e4a178,667045947eb812cbdacbf325,667053e032e73530f7ef4001,,,,,,,,,,,,,,,,,,,,,,,,,,,,,,,,,,,,881.1261,891.4536,0,1,1,1,1,SoundStimuli/CrazyInLove_BeyonceFtJayZ_Cover5S.wav,,,,,,,,,,,,,,,,,,,,,,,,,,,,,,,,,,,,,,,,,,,,,,,,,,,,,,,,,,
,,,,,152039,001,2024-06-17_11h28.19.974,experiment,2024.1.5,Win32,59.52380952,59ea48b7be399f0001e4a178,667045947eb812cbdacbf325,667053e032e73530f7ef4001,,,,,,,,,,,,,,,,,,,,,,,,,,,,,,,,,,,,,,,,,,,,891.454,893.9198,4.366666667,2.4453,0,6,6,3,1,song_indices/CrazyInLove_BeyonceFtJayZ.csv,,,,,,,,,,,,,,,,,,,,,,,,,,,,,,,,,,,,,,,,,,,,,,,,
,,,,,152039,001,2024-06-17_11h28.19.974,experiment,2024.1.5,Win32,59.52380952,59ea48b7be399f0001e4a178,667045947eb812cbdacbf325,667053e032e73530f7ef4001,,,,,,,,,,,,,,,,,,,,,,,,,,,,,,,,,,,,893.9205,900.2363,0,0,0,1,1,SoundStimuli/ShapeofYou_EdSheeran_Cover5S.wav,,,,,,,,,,,,,,,,,,,,,,,,,,,,,,,,,,,,,,,,,,,,,,,,,,,,,,,,,,
,,,,,152039,001,2024-06-17_11h28.19.974,experiment,2024.1.5,Win32,59.52380952,59ea48b7be399f0001e4a178,667045947eb812cbdacbf325,667053e032e73530f7ef4001,,,,,,,,,,,,,,,,,,,,,,,,,,,,,,,,,,,,900.2428,906.703,0,1,1,0,1,SoundStimuli/ShapeofYou_EdSheeran_Original5S.wav,,,,,,,,,,,,,,,,,,,,,,,,,,,,,,,,,,,,,,,,,,,,,,,,,,,,,,,,,,
,,,,,152039,001,2024-06-17_11h28.19.974,experiment,2024.1.5,Win32,59.52380952,59ea48b7be399f0001e4a178,667045947eb812cbdacbf325,667053e032e73530f7ef4001,,,,,,,,,,,,,,,,,,,,,,,,,,,,,,,,,,,,,,,,,,,,906.7031,908.2529,2.361111111,1.5322,0,7,7,21,1,song_indices/ShapeofYou_EdSheeran.csv,,,,,,,,,,,,,,,,,,,,,,,,,,,,,,,,,,,,,,,,,,,,,,,,
,,,,,152039,001,2024-06-17_11h28.19.974,experiment,2024.1.5,Win32,59.52380952,59ea48b7be399f0001e4a178,667045947eb812cbdacbf325,667053e032e73530f7ef4001,,,,,,,,,,,,,,,,,,,,,,,,,,,,,,,,,,,,908.2541,914.3862,0,0,0,1,1,SoundStimuli/NoScrubs_TLC_Cover5S.wav,,,,,,,,,,,,,,,,,,,,,,,,,,,,,,,,,,,,,,,,,,,,,,,,,,,,,,,,,,
,,,,,152039,001,2024-06-17_11h28.19.974,experiment,2024.1.5,Win32,59.52380952,59ea48b7be399f0001e4a178,667045947eb812cbdacbf325,667053e032e73530f7ef4001,,,,,,,,,,,,,,,,,,,,,,,,,,,,,,,,,,,,914.3923,920.5861,0,1,1,0,1,SoundStimuli/NoScrubs_TLC_Original5S.wav,,,,,,,,,,,,,,,,,,,,,,,,,,,,,,,,,,,,,,,,,,,,,,,,,,,,,,,,,,
,,,,,152039,001,2024-06-17_11h28.19.974,experiment,2024.1.5,Win32,59.52380952,59ea48b7be399f0001e4a178,667045947eb812cbdacbf325,667053e032e73530f7ef4001,,,,,,,,,,,,,,,,,,,,,,,,,,,,,,,,,,,,,,,,,,,,920.5864,922.6694,3,2.0747,0,8,8,14,1,song_indices/NoScrubs_TLC.csv,,,,,,,,,,,,,,,,,,,,,,,,,,,,,,,,,,,,,,,,,,,,,,,,
,,,,,152039,001,2024-06-17_11h28.19.974,experiment,2024.1.5,Win32,59.52380952,59ea48b7be399f0001e4a178,667045947eb812cbdacbf325,667053e032e73530f7ef4001,,,,,,,,,,,,,,,,,,,,,,,,,,,,,,,,,,,,922.6702,928.6198,0,0,0,0,1,SoundStimuli/StandByMe_BenEKing_Original5S.wav,,,,,,,,,,,,,,,,,,,,,,,,,,,,,,,,,,,,,,,,,,,,,,,,,,,,,,,,,,
,,,,,152039,001,2024-06-17_11h28.19.974,experiment,2024.1.5,Win32,59.52380952,59ea48b7be399f0001e4a178,667045947eb812cbdacbf325,667053e032e73530f7ef4001,,,,,,,,,,,,,,,,,,,,,,,,,,,,,,,,,,,,928.6257,934.6531,0,1,1,1,1,SoundStimuli/StandByMe_BenEKing_Cover5S.wav,,,,,,,,,,,,,,,,,,,,,,,,,,,,,,,,,,,,,,,,,,,,,,,,,,,,,,,,,,
,,,,,152039,001,2024-06-17_11h28.19.974,experiment,2024.1.5,Win32,59.52380952,59ea48b7be399f0001e4a178,667045947eb812cbdacbf325,667053e032e73530f7ef4001,,,,,,,,,,,,,,,,,,,,,,,,,,,,,,,,,,,,,,,,,,,,934.6532,935.6194,1.994444444,0.9486,0,9,9,1,1,song_indices/StandByMe_BenEKing.csv,,,,,,,,,,,,,,,,,,,,,,,,,,,,,,,,,,,,,,,,,,,,,,,,
,,,,,152039,001,2024-06-17_11h28.19.974,experiment,2024.1.5,Win32,59.52380952,59ea48b7be399f0001e4a178,667045947eb812cbdacbf325,667053e032e73530f7ef4001,,,,,,,,,,,,,,,,,,,,,,,,,,,,,,,,,,,,935.6202,941.7696,0,0,0,0,1,SoundStimuli/Stronger_KanyeWest_Original5S.wav,,,,,,,,,,,,,,,,,,,,,,,,,,,,,,,,,,,,,,,,,,,,,,,,,,,,,,,,,,
,,,,,152039,001,2024-06-17_11h28.19.974,experiment,2024.1.5,Win32,59.52380952,59ea48b7be399f0001e4a178,667045947eb812cbdacbf325,667053e032e73530f7ef4001,,,,,,,,,,,,,,,,,,,,,,,,,,,,,,,,,,,,941.7758,948.103,0,1,1,1,1,SoundStimuli/Stronger_KanyeWest_Cover5S.wav,,,,,,,,,,,,,,,,,,,,,,,,,,,,,,,,,,,,,,,,,,,,,,,,,,,,,,,,,,
,,,,,152039,001,2024-06-17_11h28.19.974,experiment,2024.1.5,Win32,59.52380952,59ea48b7be399f0001e4a178,667045947eb812cbdacbf325,667053e032e73530f7ef4001,,,,,,,,,,,,,,,,,,,,,,,,,,,,,,,,,,,,,,,,,,,,948.1031,949.6529,1.722222222,1.5387,0,10,10,9,1,song_indices/Stronger_KanyeWest.csv,,,,,,,,,,,,,,,,,,,,,,,,,,,,,,,,,,,,,,,,,,,,,,,,
,,,,,152039,001,2024-06-17_11h28.19.974,experiment,2024.1.5,Win32,59.52380952,59ea48b7be399f0001e4a178,667045947eb812cbdacbf325,667053e032e73530f7ef4001,,,,,,,,,,,,,,,,,,,,,,,,,,,,,,,,,,,,949.6539,955.9026,0,0,0,0,1,SoundStimuli/TheBattleOfNewOrleans_JohnnyHorton_Original5S.wav,,,,,,,,,,,,,,,,,,,,,,,,,,,,,,,,,,,,,,,,,,,,,,,,,,,,,,,,,,
,,,,,152039,001,2024-06-17_11h28.19.974,experiment,2024.1.5,Win32,59.52380952,59ea48b7be399f0001e4a178,667045947eb812cbdacbf325,667053e032e73530f7ef4001,,,,,,,,,,,,,,,,,,,,,,,,,,,,,,,,,,,,955.9091,963.9361,0,1,1,1,1,SoundStimuli/TheBattleOfNewOrleans_JohnnyHorton_Cover5S.wav,,,,,,,,,,,,,,,,,,,,,,,,,,,,,,,,,,,,,,,,,,,,,,,,,,,,,,,,,,
,,,,,152039,001,2024-06-17_11h28.19.974,experiment,2024.1.5,Win32,59.52380952,59ea48b7be399f0001e4a178,667045947eb812cbdacbf325,667053e032e73530f7ef4001,,,,,,,,,,,,,,,,,,,,,,,,,,,,,,,,,,,,,,,,,,,,963.9363,965.6692,7,1.7238,0,11,11,4,1,song_indices/TheBattleOfNewOrleans_JohnnyHorton.csv,,,,,,,,,,,,,,,,,,,,,,,,,,,,,,,,,,,,,,,,,,,,,,,,
,,,,,152039,001,2024-06-17_11h28.19.974,experiment,2024.1.5,Win32,59.52380952,59ea48b7be399f0001e4a178,667045947eb812cbdacbf325,667053e032e73530f7ef4001,,,,,,,,,,,,,,,,,,,,,,,,,,,,,,,,,,,,965.67,971.8864,0,0,0,1,1,SoundStimuli/NoOne_AliciaKeys_Cover5S.wav,,,,,,,,,,,,,,,,,,,,,,,,,,,,,,,,,,,,,,,,,,,,,,,,,,,,,,,,,,
,,,,,152039,001,2024-06-17_11h28.19.974,experiment,2024.1.5,Win32,59.52380952,59ea48b7be399f0001e4a178,667045947eb812cbdacbf325,667053e032e73530f7ef4001,,,,,,,,,,,,,,,,,,,,,,,,,,,,,,,,,,,,971.8921,979.6192,0,1,1,0,1,SoundStimuli/NoOne_AliciaKeys_Original5S.wav,,,,,,,,,,,,,,,,,,,,,,,,,,,,,,,,,,,,,,,,,,,,,,,,,,,,,,,,,,
,,,,,152039,001,2024-06-17_11h28.19.974,experiment,2024.1.5,Win32,59.52380952,59ea48b7be399f0001e4a178,667045947eb812cbdacbf325,667053e032e73530f7ef4001,,,,,,,,,,,,,,,,,,,,,,,,,,,,,,,,,,,,,,,,,,,,979.6193,980.8528,6,1.2136,0,12,12,19,1,song_indices/NoOne_AliciaKeys.csv,,,,,,,,,,,,,,,,,,,,,,,,,,,,,,,,,,,,,,,,,,,,,,,,
,,,,,152039,001,2024-06-17_11h28.19.974,experiment,2024.1.5,Win32,59.52380952,59ea48b7be399f0001e4a178,667045947eb812cbdacbf325,667053e032e73530f7ef4001,,,,,,,,,,,,,,,,,,,,,,,,,,,,,,,,,,,,980.8537,987.1858,0,0,0,0,1,SoundStimuli/RockWithYou_MichaelJackson_Original5S.wav,,,,,,,,,,,,,,,,,,,,,,,,,,,,,,,,,,,,,,,,,,,,,,,,,,,,,,,,,,
,,,,,152039,001,2024-06-17_11h28.19.974,experiment,2024.1.5,Win32,59.52380952,59ea48b7be399f0001e4a178,667045947eb812cbdacbf325,667053e032e73530f7ef4001,,,,,,,,,,,,,,,,,,,,,,,,,,,,,,,,,,,,987.1919,993.2524,0,1,1,1,1,SoundStimuli/RockWithYou_MichaelJackson_Cover5S.wav,,,,,,,,,,,,,,,,,,,,,,,,,,,,,,,,,,,,,,,,,,,,,,,,,,,,,,,,,,
,,,,,152039,001,2024-06-17_11h28.19.974,experiment,2024.1.5,Win32,59.52380952,59ea48b7be399f0001e4a178,667045947eb812cbdacbf325,667053e032e73530f7ef4001,,,,,,,,,,,,,,,,,,,,,,,,,,,,,,,,,,,,,,,,,,,,993.2525,994.3191,1,1.0556,0,13,13,16,1,song_indices/RockWithYou_MichaelJackson.csv,,,,,,,,,,,,,,,,,,,,,,,,,,,,,,,,,,,,,,,,,,,,,,,,
,,,,,152039,001,2024-06-17_11h28.19.974,experiment,2024.1.5,Win32,59.52380952,59ea48b7be399f0001e4a178,667045947eb812cbdacbf325,667053e032e73530f7ef4001,,,,,,,,,,,,,,,,,,,,,,,,,,,,,,,,,,,,994.3201,1003.2356,0,0,0,1,1,SoundStimuli/HeyYa_Outkast_Cover5S.wav,,,,,,,,,,,,,,,,,,,,,,,,,,,,,,,,,,,,,,,,,,,,,,,,,,,,,,,,,,
,,,,,152039,001,2024-06-17_11h28.19.974,experiment,2024.1.5,Win32,59.52380952,59ea48b7be399f0001e4a178,667045947eb812cbdacbf325,667053e032e73530f7ef4001,,,,,,,,,,,,,,,,,,,,,,,,,,,,,,,,,,,,1003.2416,1009.5355,0,1,1,0,1,SoundStimuli/HeyYa_Outkast_Original5S.wav,,,,,,,,,,,,,,,,,,,,,,,,,,,,,,,,,,,,,,,,,,,,,,,,,,,,,,,,,,
,,,,,152039,001,2024-06-17_11h28.19.974,experiment,2024.1.5,Win32,59.52380952,59ea48b7be399f0001e4a178,667045947eb812cbdacbf325,667053e032e73530f7ef4001,,,,,,,,,,,,,,,,,,,,,,,,,,,,,,,,,,,,,,,,,,,,1009.5357,1010.6023,1,1.0532,0,14,14,22,1,song_indices/HeyYa_Outkast.csv,,,,,,,,,,,,,,,,,,,,,,,,,,,,,,,,,,,,,,,,,,,,,,,,
,,,,,152039,001,2024-06-17_11h28.19.974,experiment,2024.1.5,Win32,59.52380952,59ea48b7be399f0001e4a178,667045947eb812cbdacbf325,667053e032e73530f7ef4001,,,,,,,,,,,,,,,,,,,,,,,,,,,,,,,,,,,,1010.603,1016.3523,0,0,0,1,1,SoundStimuli/BetteDavisEyes_KimCarnes_Cover5S.wav,,,,,,,,,,,,,,,,,,,,,,,,,,,,,,,,,,,,,,,,,,,,,,,,,,,,,,,,,,
,,,,,152039,001,2024-06-17_11h28.19.974,experiment,2024.1.5,Win32,59.52380952,59ea48b7be399f0001e4a178,667045947eb812cbdacbf325,667053e032e73530f7ef4001,,,,,,,,,,,,,,,,,,,,,,,,,,,,,,,,,,,,1016.3587,1022.5856,0,1,1,0,1,SoundStimuli/BetteDavisEyes_KimCarnes_Original5S.wav,,,,,,,,,,,,,,,,,,,,,,,,,,,,,,,,,,,,,,,,,,,,,,,,,,,,,,,,,,
,,,,,152039,001,2024-06-17_11h28.19.974,experiment,2024.1.5,Win32,59.52380952,59ea48b7be399f0001e4a178,667045947eb812cbdacbf325,667053e032e73530f7ef4001,,,,,,,,,,,,,,,,,,,,,,,,,,,,,,,,,,,,,,,,,,,,1022.5857,1023.2687,1.933333333,0.6751,0,15,15,5,1,song_indices/BetteDavisEyes_KimCarnes.csv,,,,,,,,,,,,,,,,,,,,,,,,,,,,,,,,,,,,,,,,,,,,,,,,
,,,,,152039,001,2024-06-17_11h28.19.974,experiment,2024.1.5,Win32,59.52380952,59ea48b7be399f0001e4a178,667045947eb812cbdacbf325,667053e032e73530f7ef4001,,,,,,,,,,,,,,,,,,,,,,,,,,,,,,,,,,,,1023.2695,1029.5355,0,0,0,0,1,SoundStimuli/ItsAllInTheGame_TommyEdwards_Original5S.wav,,,,,,,,,,,,,,,,,,,,,,,,,,,,,,,,,,,,,,,,,,,,,,,,,,,,,,,,,,
,,,,,152039,001,2024-06-17_11h28.19.974,experiment,2024.1.5,Win32,59.52380952,59ea48b7be399f0001e4a178,667045947eb812cbdacbf325,667053e032e73530f7ef4001,,,,,,,,,,,,,,,,,,,,,,,,,,,,,,,,,,,,1029.5422,1035.7692,0,1,1,1,1,SoundStimuli/ItsAllInTheGame_TommyEdwards_Cover5S.wav,,,,,,,,,,,,,,,,,,,,,,,,,,,,,,,,,,,,,,,,,,,,,,,,,,,,,,,,,,
,,,,,152039,001,2024-06-17_11h28.19.974,experiment,2024.1.5,Win32,59.52380952,59ea48b7be399f0001e4a178,667045947eb812cbdacbf325,667053e032e73530f7ef4001,,,,,,,,,,,,,,,,,,,,,,,,,,,,,,,,,,,,,,,,,,,,1035.7693,1037.1689,6.972222222,1.3905,0,16,16,13,1,song_indices/ItsAllInTheGame_TommyEdwards.csv,,,,,,,,,,,,,,,,,,,,,,,,,,,,,,,,,,,,,,,,,,,,,,,,
,,,,,152039,001,2024-06-17_11h28.19.974,experiment,2024.1.5,Win32,59.52380952,59ea48b7be399f0001e4a178,667045947eb812cbdacbf325,667053e032e73530f7ef4001,,,,,,,,,,,,,,,,,,,,,,,,,,,,,,,,,,,,1037.1699,1043.2687,0,0,0,0,1,SoundStimuli/GimmeShelter_RollingStones_Original5S.wav,,,,,,,,,,,,,,,,,,,,,,,,,,,,,,,,,,,,,,,,,,,,,,,,,,,,,,,,,,
,,,,,152039,001,2024-06-17_11h28.19.974,experiment,2024.1.5,Win32,59.52380952,59ea48b7be399f0001e4a178,667045947eb812cbdacbf325,667053e032e73530f7ef4001,,,,,,,,,,,,,,,,,,,,,,,,,,,,,,,,,,,,1043.2745,1049.4856,0,1,1,1,1,SoundStimuli/GimmeShelter_RollingStones_Cover5S.wav,,,,,,,,,,,,,,,,,,,,,,,,,,,,,,,,,,,,,,,,,,,,,,,,,,,,,,,,,,
,,,,,152039,001,2024-06-17_11h28.19.974,experiment,2024.1.5,Win32,59.52380952,59ea48b7be399f0001e4a178,667045947eb812cbdacbf325,667053e032e73530f7ef4001,,,,,,,,,,,,,,,,,,,,,,,,,,,,,,,,,,,,,,,,,,,,1049.4858,1050.3521,1,0.8495,0,17,17,20,1,song_indices/GimmeShelter_RollingStones.csv,,,,,,,,,,,,,,,,,,,,,,,,,,,,,,,,,,,,,,,,,,,,,,,,
,,,,,152039,001,2024-06-17_11h28.19.974,experiment,2024.1.5,Win32,59.52380952,59ea48b7be399f0001e4a178,667045947eb812cbdacbf325,667053e032e73530f7ef4001,,,,,,,,,,,,,,,,,,,,,,,,,,,,,,,,,,,,1050.3529,1057.502,0,0,0,1,1,SoundStimuli/IWalkTheLine_JohnnyCash_Cover5S.wav,,,,,,,,,,,,,,,,,,,,,,,,,,,,,,,,,,,,,,,,,,,,,,,,,,,,,,,,,,
,,,,,152039,001,2024-06-17_11h28.19.974,experiment,2024.1.5,Win32,59.52380952,59ea48b7be399f0001e4a178,667045947eb812cbdacbf325,667053e032e73530f7ef4001,,,,,,,,,,,,,,,,,,,,,,,,,,,,,,,,,,,,1057.508,1063.4853,0,1,1,0,1,SoundStimuli/IWalkTheLine_JohnnyCash_Original5S.wav,,,,,,,,,,,,,,,,,,,,,,,,,,,,,,,,,,,,,,,,,,,,,,,,,,,,,,,,,,
,,,,,152039,001,2024-06-17_11h28.19.974,experiment,2024.1.5,Win32,59.52380952,59ea48b7be399f0001e4a178,667045947eb812cbdacbf325,667053e032e73530f7ef4001,,,,,,,,,,,,,,,,,,,,,,,,,,,,,,,,,,,,,,,,,,,,1063.4855,1065.3023,1,1.7987,0,18,18,17,1,song_indices/IWalkTheLine_JohnnyCash.csv,,,,,,,,,,,,,,,,,,,,,,,,,,,,,,,,,,,,,,,,,,,,,,,,
,,,,,152039,001,2024-06-17_11h28.19.974,experiment,2024.1.5,Win32,59.52380952,59ea48b7be399f0001e4a178,667045947eb812cbdacbf325,667053e032e73530f7ef4001,,,,,,,,,,,,,,,,,,,,,,,,,,,,,,,,,,,,1065.303,1071.5519,0,0,0,0,1,SoundStimuli/SmellsLikeTeenSpirit_Nirvana_Original5S.wav,,,,,,,,,,,,,,,,,,,,,,,,,,,,,,,,,,,,,,,,,,,,,,,,,,,,,,,,,,
,,,,,152039,001,2024-06-17_11h28.19.974,experiment,2024.1.5,Win32,59.52380952,59ea48b7be399f0001e4a178,667045947eb812cbdacbf325,667053e032e73530f7ef4001,,,,,,,,,,,,,,,,,,,,,,,,,,,,,,,,,,,,1071.5579,1077.4017,0,1,1,1,1,SoundStimuli/SmellsLikeTeenSpirit_Nirvana_Cover5S.wav,,,,,,,,,,,,,,,,,,,,,,,,,,,,,,,,,,,,,,,,,,,,,,,,,,,,,,,,,,
,,,,,152039,001,2024-06-17_11h28.19.974,experiment,2024.1.5,Win32,59.52380952,59ea48b7be399f0001e4a178,667045947eb812cbdacbf325,667053e032e73530f7ef4001,,,,,,,,,,,,,,,,,,,,,,,,,,,,,,,,,,,,,,,,,,,,1077.4019,1078.3184,7,0.9033,0,19,19,8,1,song_indices/SmellsLikeTeenSpirit_Nirvana.csv,,,,,,,,,,,,,,,,,,,,,,,,,,,,,,,,,,,,,,,,,,,,,,,,
,,,,,152039,001,2024-06-17_11h28.19.974,experiment,2024.1.5,Win32,59.52380952,59ea48b7be399f0001e4a178,667045947eb812cbdacbf325,667053e032e73530f7ef4001,,,,,,,,,,,,,,,,,,,,,,,,,,,,,,,,,,,,1078.3191,1084.2183,0,0,0,0,1,SoundStimuli/EyeOfTheTiger_Survivor_Original5S.wav,,,,,,,,,,,,,,,,,,,,,,,,,,,,,,,,,,,,,,,,,,,,,,,,,,,,,,,,,,
,,,,,152039,001,2024-06-17_11h28.19.974,experiment,2024.1.5,Win32,59.52380952,59ea48b7be399f0001e4a178,667045947eb812cbdacbf325,667053e032e73530f7ef4001,,,,,,,,,,,,,,,,,,,,,,,,,,,,,,,,,,,,1084.2244,1090.352,0,1,1,1,1,SoundStimuli/EyeOfTheTiger_Survivor_Cover5S.wav,,,,,,,,,,,,,,,,,,,,,,,,,,,,,,,,,,,,,,,,,,,,,,,,,,,,,,,,,,
,,,,,152039,001,2024-06-17_11h28.19.974,experiment,2024.1.5,Win32,59.52380952,59ea48b7be399f0001e4a178,667045947eb812cbdacbf325,667053e032e73530f7ef4001,,,,,,,,,,,,,,,,,,,,,,,,,,,,,,,,,,,,,,,,,,,,1090.3521,1091.3017,7,0.9354,0,20,20,11,1,song_indices/EyeOfTheTiger_Survivor.csv,,,,,,,,,,,,,,,,,,,,,,,,,,,,,,,,,,,,,,,,,,,,,,,,
,,,,,152039,001,2024-06-17_11h28.19.974,experiment,2024.1.5,Win32,59.52380952,59ea48b7be399f0001e4a178,667045947eb812cbdacbf325,667053e032e73530f7ef4001,,,,,,,,,,,,,,,,,,,,,,,,,,,,,,,,,,,,1091.3023,1097.335,0,0,0,1,1,SoundStimuli/TheBoyIsMine_BrandyMonica_Cover5S.wav,,,,,,,,,,,,,,,,,,,,,,,,,,,,,,,,,,,,,,,,,,,,,,,,,,,,,,,,,,
,,,,,152039,001,2024-06-17_11h28.19.974,experiment,2024.1.5,Win32,59.52380952,59ea48b7be399f0001e4a178,667045947eb812cbdacbf325,667053e032e73530f7ef4001,,,,,,,,,,,,,,,,,,,,,,,,,,,,,,,,,,,,1097.3412,1103.5683,0,1,1,0,1,SoundStimuli/TheBoyIsMine_BrandyMonica_Original5S.wav,,,,,,,,,,,,,,,,,,,,,,,,,,,,,,,,,,,,,,,,,,,,,,,,,,,,,,,,,,
,,,,,152039,001,2024-06-17_11h28.19.974,experiment,2024.1.5,Win32,59.52380952,59ea48b7be399f0001e4a178,667045947eb812cbdacbf325,667053e032e73530f7ef4001,,,,,,,,,,,,,,,,,,,,,,,,,,,,,,,,,,,,,,,,,,,,1103.5684,1104.6849,7,1.0965,0,21,21,6,1,song_indices/TheBoyIsMine_BrandyMonica.csv,,,,,,,,,,,,,,,,,,,,,,,,,,,,,,,,,,,,,,,,,,,,,,,,
,,,,,152039,001,2024-06-17_11h28.19.974,experiment,2024.1.5,Win32,59.52380952,59ea48b7be399f0001e4a178,667045947eb812cbdacbf325,667053e032e73530f7ef4001,,,,,,,,,,,,,,,,,,,,,,,,,,,,,,,,,,,,1104.6856,1111.9184,0,0,0,0,1,SoundStimuli/UptownFunk_MarkRonson_Original5S.wav,,,,,,,,,,,,,,,,,,,,,,,,,,,,,,,,,,,,,,,,,,,,,,,,,,,,,,,,,,
,,,,,152039,001,2024-06-17_11h28.19.974,experiment,2024.1.5,Win32,59.52380952,59ea48b7be399f0001e4a178,667045947eb812cbdacbf325,667053e032e73530f7ef4001,,,,,,,,,,,,,,,,,,,,,,,,,,,,,,,,,,,,1111.9248,1118.9516,0,1,1,1,1,SoundStimuli/UptownFunk_MarkRonson_Cover5S.wav,,,,,,,,,,,,,,,,,,,,,,,,,,,,,,,,,,,,,,,,,,,,,,,,,,,,,,,,,,
,,,,,152039,001,2024-06-17_11h28.19.974,experiment,2024.1.5,Win32,59.52380952,59ea48b7be399f0001e4a178,667045947eb812cbdacbf325,667053e032e73530f7ef4001,,,,,,,,,,,,,,,,,,,,,,,,,,,,,,,,,,,,,,,,,,,,1118.9516,1119.7683,7,0.8088,0,22,22,15,1,song_indices/UptownFunk_MarkRonson.csv,,,,,,,,,,,,,,,,,,,,,,,,,,,,,,,,,,,,,,,,,,,,,,,,
,,,,,152039,001,2024-06-17_11h28.19.974,experiment,2024.1.5,Win32,59.52380952,59ea48b7be399f0001e4a178,667045947eb812cbdacbf325,667053e032e73530f7ef4001,,,,,,,,,,,,,,,,,,,,,,,,,,,,,,,,,,,,,,,,,,,,,,,,,,,,,,1119.7684,1119.7685,,,,0,2,2,1,1,choose_song_b2.csv,,,,,,,,,,,,,,,,,,,,,,,,,,,,,,,,,,,,,
,,,,,152039,001,2024-06-17_11h28.19.974,experiment,2024.1.5,Win32,59.52380952,59ea48b7be399f0001e4a178,667045947eb812cbdacbf325,667053e032e73530f7ef4001,,,,,,,,,,,,,,,,,,,,,,,,,,,,,,,,,,,,,,,,,,,,,,,,,,,,,,,,,,,,,,,,,27,Item 2,not a musician,Item 5,Youtube and Spotify,3,5,"Exercising, hanging out with friends, playing video games, scrolling though social media ",Never,Never,Sometimes,Never,Often,Rarely,Never,Often,Often,Rarely,Rarely,Rarely,Often,Always,Rarely,Never,"Industrial, Hard rock",Hard rock,Metal,Ambient,The only genre I don't listen to anymore is rap,I think all my habits have been covered ,0,0,0,0,1,,
,,,,,152039,001,2024-06-17_11h28.19.974,experiment,2024.1.5,Win32,59.52380952,59ea48b7be399f0001e4a178,667045947eb812cbdacbf325,667053e032e73530f7ef4001,,,,,,,,,,,,,,,,,,,,,,,,,,,,,,,,,,,,,,,,,,,,,,,,,,,,,,,,,,,,,,,,,,,,,,,,,,,,,,,,,,,,,,,,,,,,,,,,,,,,1426.1883,1428.6496
