welcome.started,welcome.stopped,space_to_continue.keys,space_to_continue.rt,space_to_continue.duration,participant,session,date,expName,psychopyVersion,OS,frameRate,PROLIFIC_PID,STUDY_ID,SESSION_ID,consent.consent,consent.consent_recontact,consent_check.started,consent_check.stopped,calibration_ready.started,calibration_ready.stopped,cal_ready.keys,cal_ready.rt,cal_ready.duration,calibration.started,calibration.stopped,mouse.x,mouse.y,mouse.leftButton,mouse.midButton,mouse.rightButton,mouse.time,mouse.clicked_name,move_on.keys,move_on.rt,move_on.duration,instructions.started,instructions.stopped,next.keys,next.rt,next.duration,practice_trial.started,practice_trial.stopped,practice_slider.response,practice_slider.rt,ready.started,ready.stopped,key_resp.keys,key_resp.rt,key_resp.duration,play_sound.started,play_sound.stopped,trials.thisRepN,trials.thisTrialN,trials.thisN,trials.thisIndex,trials.ran,orig_or_cover,rating.started,rating.stopped,slider.response,slider.rt,songs.thisRepN,songs.thisTrialN,songs.thisN,songs.thisIndex,songs.ran,song_id,short_break.started,short_break.stopped,space_to_move_on.keys,space_to_move_on.rt,space_to_move_on.duration,blocks.thisRepN,blocks.thisTrialN,blocks.thisN,blocks.thisIndex,blocks.ran,block,survey.age,survey.musician,survey.music_making,survey.listen_time,survey.medium,survey.music_seeking,survey.music_choice,survey.activities,survey.question1.Electronic (EDM),survey.question1.Classical,survey.question1.Ambient,survey.question1.Alternative rock,survey.question1.Country,survey.question1.Reggae,survey.question1.A cappella,survey.question1.Latin,survey.question1.Hip hop,survey.question1.Disco,survey.question1.Classic rock,survey.question1.Folk/indie,survey.question1.Jazz,survey.question1.Pop,survey.question1.R&B,survey.question1.Metal,survey.other_genres,survey.genres_ranked.text1,survey.genres_ranked.text2,survey.genres_ranked.text3,survey.habit_change,survey.habits,experiment.thisRepN,experiment.thisTrialN,experiment.thisN,experiment.thisIndex,experiment.ran,goodbye.started,goodbye.stopped
0.0001,4.6559,space,4.6478,,391788,001,2024-06-17_10h54.55.895,experiment,2024.1.5,MacIntel,57.14285714,65f89b593eed885831f28113,667045947eb812cbdacbf325,66704d7d4f0346860a6b0248,,,,,,,,,,,,,,,,,,,,,,,,,,,,,,,,,,,,,,,,,,,,,,,,,,,,,,,,,,,,,,,,,,,,,,,,,,,,,,,,,,,,,,,,,,,,,,,,,,,,,
,,,,,391788,001,2024-06-17_10h54.55.895,experiment,2024.1.5,MacIntel,57.14285714,65f89b593eed885831f28113,667045947eb812cbdacbf325,66704d7d4f0346860a6b0248,yes,yes,,,,,,,,,,,,,,,,,,,,,,,,,,,,,,,,,,,,,,,,,,,,,,,,,,,,,,,,,,,,,,,,,,,,,,,,,,,,,,,,,,,,,,,,,,,,,,,,,,,
,,,,,391788,001,2024-06-17_10h54.55.895,experiment,2024.1.5,MacIntel,57.14285714,65f89b593eed885831f28113,667045947eb812cbdacbf325,66704d7d4f0346860a6b0248,,,28.8784,28.8786,,,,,,,,,,,,,,,,,,,,,,,,,,,,,,,,,,,,,,,,,,,,,,,,,,,,,,,,,,,,,,,,,,,,,,,,,,,,,,,,,,,,,,,,,,,,,,,,,
,,,,,391788,001,2024-06-17_10h54.55.895,experiment,2024.1.5,MacIntel,57.14285714,65f89b593eed885831f28113,667045947eb812cbdacbf325,66704d7d4f0346860a6b0248,,,,,28.8805,33.3162,space,4.4075,,33.3163,47.3331,"[-0.012880635935397039,-0.033720979138627184]","[-0.4116230652759085,-0.4332415040376851]","[1,1]","[0,0]","[0,0]","[3.146300000071534,12.028700000047678]","[""play_button""]",right,3.9872,,47.3416,55.1331,space,7.7616,,55.1332,70.6832,4.975037853,15.5361,70.6835,74.3658,space,3.6629,,74.3819,80.4818,0,0,0,0,1,SoundStimuli/UnbreakMyHeart_ToniBraxton_Original5S.wav,,,,,,,,,,,,,,,,,,,,,,,,,,,,,,,,,,,,,,,,,,,,,,,,,,,,,,,,,,
,,,,,391788,001,2024-06-17_10h54.55.895,experiment,2024.1.5,MacIntel,57.14285714,65f89b593eed885831f28113,667045947eb812cbdacbf325,66704d7d4f0346860a6b0248,,,,,,,,,,,,,,,,,,,,,,,,,,,,,,,,,,,,80.4828,84.4659,0,1,1,1,1,SoundStimuli/UnbreakMyHeart_ToniBraxton_Cover5S.wav,,,,,,,,,,,,,,,,,,,,,,,,,,,,,,,,,,,,,,,,,,,,,,,,,,,,,,,,,,
,,,,,391788,001,2024-06-17_10h54.55.895,experiment,2024.1.5,MacIntel,57.14285714,65f89b593eed885831f28113,667045947eb812cbdacbf325,66704d7d4f0346860a6b0248,,,,,,,,,,,,,,,,,,,,,,,,,,,,,,,,,,,,,,,,,,,,84.4756,87.8986,1.027664452,3.4094,0,0,0,16,1,song_indices/UnbreakMyHeart_ToniBraxton.csv,,,,,,,,,,,,,,,,,,,,,,,,,,,,,,,,,,,,,,,,,,,,,,,,
,,,,,391788,001,2024-06-17_10h54.55.895,experiment,2024.1.5,MacIntel,57.14285714,65f89b593eed885831f28113,667045947eb812cbdacbf325,66704d7d4f0346860a6b0248,,,,,,,,,,,,,,,,,,,,,,,,,,,,,,,,,,,,87.9006,95.1331,0,0,0,0,1,SoundStimuli/SomebodyThatIUsedtoKnow_Gotye_Original5S.wav,,,,,,,,,,,,,,,,,,,,,,,,,,,,,,,,,,,,,,,,,,,,,,,,,,,,,,,,,,
,,,,,391788,001,2024-06-17_10h54.55.895,experiment,2024.1.5,MacIntel,57.14285714,65f89b593eed885831f28113,667045947eb812cbdacbf325,66704d7d4f0346860a6b0248,,,,,,,,,,,,,,,,,,,,,,,,,,,,,,,,,,,,95.144,101.9314,0,1,1,1,1,SoundStimuli/SomebodyThatIUsedtoKnow_Gotye_Cover5S.wav,,,,,,,,,,,,,,,,,,,,,,,,,,,,,,,,,,,,,,,,,,,,,,,,,,,,,,,,,,
,,,,,391788,001,2024-06-17_10h54.55.895,experiment,2024.1.5,MacIntel,57.14285714,65f89b593eed885831f28113,667045947eb812cbdacbf325,66704d7d4f0346860a6b0248,,,,,,,,,,,,,,,,,,,,,,,,,,,,,,,,,,,,,,,,,,,,101.9318,105.6323,5.961620962,3.6824,0,1,1,7,1,song_indices/SomebodyThatIUsedtoKnow_Gotye.csv,,,,,,,,,,,,,,,,,,,,,,,,,,,,,,,,,,,,,,,,,,,,,,,,
,,,,,391788,001,2024-06-17_10h54.55.895,experiment,2024.1.5,MacIntel,57.14285714,65f89b593eed885831f28113,667045947eb812cbdacbf325,66704d7d4f0346860a6b0248,,,,,,,,,,,,,,,,,,,,,,,,,,,,,,,,,,,,105.6348,111.7823,0,0,0,0,1,SoundStimuli/Superstition_StevieWonder_Original5S.wav,,,,,,,,,,,,,,,,,,,,,,,,,,,,,,,,,,,,,,,,,,,,,,,,,,,,,,,,,,
,,,,,391788,001,2024-06-17_10h54.55.895,experiment,2024.1.5,MacIntel,57.14285714,65f89b593eed885831f28113,667045947eb812cbdacbf325,66704d7d4f0346860a6b0248,,,,,,,,,,,,,,,,,,,,,,,,,,,,,,,,,,,,111.7929,117.0811,0,1,1,1,1,SoundStimuli/Superstition_StevieWonder_Cover5S.wav,,,,,,,,,,,,,,,,,,,,,,,,,,,,,,,,,,,,,,,,,,,,,,,,,,,,,,,,,,
,,,,,391788,001,2024-06-17_10h54.55.895,experiment,2024.1.5,MacIntel,57.14285714,65f89b593eed885831f28113,667045947eb812cbdacbf325,66704d7d4f0346860a6b0248,,,,,,,,,,,,,,,,,,,,,,,,,,,,,,,,,,,,,,,,,,,,117.0814,118.6477,4.048168321,1.5451,0,2,2,15,1,song_indices/Superstition_StevieWonder.csv,,,,,,,,,,,,,,,,,,,,,,,,,,,,,,,,,,,,,,,,,,,,,,,,
,,,,,391788,001,2024-06-17_10h54.55.895,experiment,2024.1.5,MacIntel,57.14285714,65f89b593eed885831f28113,667045947eb812cbdacbf325,66704d7d4f0346860a6b0248,,,,,,,,,,,,,,,,,,,,,,,,,,,,,,,,,,,,118.6496,124.8495,0,0,0,0,1,SoundStimuli/Dilemma_NellyKellyRowland_Original5S.wav,,,,,,,,,,,,,,,,,,,,,,,,,,,,,,,,,,,,,,,,,,,,,,,,,,,,,,,,,,
,,,,,391788,001,2024-06-17_10h54.55.895,experiment,2024.1.5,MacIntel,57.14285714,65f89b593eed885831f28113,667045947eb812cbdacbf325,66704d7d4f0346860a6b0248,,,,,,,,,,,,,,,,,,,,,,,,,,,,,,,,,,,,124.8604,131.8488,0,1,1,1,1,SoundStimuli/Dilemma_NellyKellyRowland_Cover5S.wav,,,,,,,,,,,,,,,,,,,,,,,,,,,,,,,,,,,,,,,,,,,,,,,,,,,,,,,,,,
,,,,,391788,001,2024-06-17_10h54.55.895,experiment,2024.1.5,MacIntel,57.14285714,65f89b593eed885831f28113,667045947eb812cbdacbf325,66704d7d4f0346860a6b0248,,,,,,,,,,,,,,,,,,,,,,,,,,,,,,,,,,,,,,,,,,,,131.8492,134.032,3.054361541,2.1731,0,3,3,2,1,song_indices/Dilemma_NellyKellyRowland.csv,,,,,,,,,,,,,,,,,,,,,,,,,,,,,,,,,,,,,,,,,,,,,,,,
,,,,,391788,001,2024-06-17_10h54.55.895,experiment,2024.1.5,MacIntel,57.14285714,65f89b593eed885831f28113,667045947eb812cbdacbf325,66704d7d4f0346860a6b0248,,,,,,,,,,,,,,,,,,,,,,,,,,,,,,,,,,,,134.0332,140.5151,0,0,0,1,1,SoundStimuli/Weak_SWV_Cover5S.wav,,,,,,,,,,,,,,,,,,,,,,,,,,,,,,,,,,,,,,,,,,,,,,,,,,,,,,,,,,
,,,,,391788,001,2024-06-17_10h54.55.895,experiment,2024.1.5,MacIntel,57.14285714,65f89b593eed885831f28113,667045947eb812cbdacbf325,66704d7d4f0346860a6b0248,,,,,,,,,,,,,,,,,,,,,,,,,,,,,,,,,,,,140.5219,146.5986,0,1,1,0,1,SoundStimuli/Weak_SWV_Original5S.wav,,,,,,,,,,,,,,,,,,,,,,,,,,,,,,,,,,,,,,,,,,,,,,,,,,,,,,,,,,
,,,,,391788,001,2024-06-17_10h54.55.895,experiment,2024.1.5,MacIntel,57.14285714,65f89b593eed885831f28113,667045947eb812cbdacbf325,66704d7d4f0346860a6b0248,,,,,,,,,,,,,,,,,,,,,,,,,,,,,,,,,,,,,,,,,,,,146.5991,148.3478,2.978749579,1.7277,0,4,4,6,1,song_indices/Weak_SWV.csv,,,,,,,,,,,,,,,,,,,,,,,,,,,,,,,,,,,,,,,,,,,,,,,,
,,,,,391788,001,2024-06-17_10h54.55.895,experiment,2024.1.5,MacIntel,57.14285714,65f89b593eed885831f28113,667045947eb812cbdacbf325,66704d7d4f0346860a6b0248,,,,,,,,,,,,,,,,,,,,,,,,,,,,,,,,,,,,148.3494,154.6524,0,0,0,0,1,SoundStimuli/LetsGetItOn_MarvinGaye_Original5S.wav,,,,,,,,,,,,,,,,,,,,,,,,,,,,,,,,,,,,,,,,,,,,,,,,,,,,,,,,,,
,,,,,391788,001,2024-06-17_10h54.55.895,experiment,2024.1.5,MacIntel,57.14285714,65f89b593eed885831f28113,667045947eb812cbdacbf325,66704d7d4f0346860a6b0248,,,,,,,,,,,,,,,,,,,,,,,,,,,,,,,,,,,,154.659,161.2976,0,1,1,1,1,SoundStimuli/LetsGetItOn_MarvinGaye_Cover5S.wav,,,,,,,,,,,,,,,,,,,,,,,,,,,,,,,,,,,,,,,,,,,,,,,,,,,,,,,,,,
,,,,,391788,001,2024-06-17_10h54.55.895,experiment,2024.1.5,MacIntel,57.14285714,65f89b593eed885831f28113,667045947eb812cbdacbf325,66704d7d4f0346860a6b0248,,,,,,,,,,,,,,,,,,,,,,,,,,,,,,,,,,,,,,,,,,,,161.2979,163.6481,2.877176565,2.3387,0,5,5,20,1,song_indices/LetsGetItOn_MarvinGaye.csv,,,,,,,,,,,,,,,,,,,,,,,,,,,,,,,,,,,,,,,,,,,,,,,,
,,,,,391788,001,2024-06-17_10h54.55.895,experiment,2024.1.5,MacIntel,57.14285714,65f89b593eed885831f28113,667045947eb812cbdacbf325,66704d7d4f0346860a6b0248,,,,,,,,,,,,,,,,,,,,,,,,,,,,,,,,,,,,163.6491,170.1489,0,0,0,0,1,SoundStimuli/Dreams_FleetwoodMac_Original5S.wav,,,,,,,,,,,,,,,,,,,,,,,,,,,,,,,,,,,,,,,,,,,,,,,,,,,,,,,,,,
,,,,,391788,001,2024-06-17_10h54.55.895,experiment,2024.1.5,MacIntel,57.14285714,65f89b593eed885831f28113,667045947eb812cbdacbf325,66704d7d4f0346860a6b0248,,,,,,,,,,,,,,,,,,,,,,,,,,,,,,,,,,,,170.1587,177.9808,0,1,1,1,1,SoundStimuli/Dreams_FleetwoodMac_Cover5S.wav,,,,,,,,,,,,,,,,,,,,,,,,,,,,,,,,,,,,,,,,,,,,,,,,,,,,,,,,,,
,,,,,391788,001,2024-06-17_10h54.55.895,experiment,2024.1.5,MacIntel,57.14285714,65f89b593eed885831f28113,667045947eb812cbdacbf325,66704d7d4f0346860a6b0248,,,,,,,,,,,,,,,,,,,,,,,,,,,,,,,,,,,,,,,,,,,,177.9811,180.649,1.967845727,2.6529,0,6,6,1,1,song_indices/Dreams_FleetwoodMac.csv,,,,,,,,,,,,,,,,,,,,,,,,,,,,,,,,,,,,,,,,,,,,,,,,
,,,,,391788,001,2024-06-17_10h54.55.895,experiment,2024.1.5,MacIntel,57.14285714,65f89b593eed885831f28113,667045947eb812cbdacbf325,66704d7d4f0346860a6b0248,,,,,,,,,,,,,,,,,,,,,,,,,,,,,,,,,,,,180.6498,186.1651,0,0,0,1,1,SoundStimuli/LeFreak_Chic_Cover5S.wav,,,,,,,,,,,,,,,,,,,,,,,,,,,,,,,,,,,,,,,,,,,,,,,,,,,,,,,,,,
,,,,,391788,001,2024-06-17_10h54.55.895,experiment,2024.1.5,MacIntel,57.14285714,65f89b593eed885831f28113,667045947eb812cbdacbf325,66704d7d4f0346860a6b0248,,,,,,,,,,,,,,,,,,,,,,,,,,,,,,,,,,,,186.1743,192.1981,0,1,1,0,1,SoundStimuli/LeFreak_Chic_Original5S.wav,,,,,,,,,,,,,,,,,,,,,,,,,,,,,,,,,,,,,,,,,,,,,,,,,,,,,,,,,,
,,,,,391788,001,2024-06-17_10h54.55.895,experiment,2024.1.5,MacIntel,57.14285714,65f89b593eed885831f28113,667045947eb812cbdacbf325,66704d7d4f0346860a6b0248,,,,,,,,,,,,,,,,,,,,,,,,,,,,,,,,,,,,,,,,,,,,192.1982,193.6488,5.037779694,1.4293,0,7,7,11,1,song_indices/LeFreak_Chic.csv,,,,,,,,,,,,,,,,,,,,,,,,,,,,,,,,,,,,,,,,,,,,,,,,
,,,,,391788,001,2024-06-17_10h54.55.895,experiment,2024.1.5,MacIntel,57.14285714,65f89b593eed885831f28113,667045947eb812cbdacbf325,66704d7d4f0346860a6b0248,,,,,,,,,,,,,,,,,,,,,,,,,,,,,,,,,,,,193.6503,200.0987,0,0,0,1,1,SoundStimuli/YouLightUpMyLife_DebbyBoone_Cover5S.wav,,,,,,,,,,,,,,,,,,,,,,,,,,,,,,,,,,,,,,,,,,,,,,,,,,,,,,,,,,
,,,,,391788,001,2024-06-17_10h54.55.895,experiment,2024.1.5,MacIntel,57.14285714,65f89b593eed885831f28113,667045947eb812cbdacbf325,66704d7d4f0346860a6b0248,,,,,,,,,,,,,,,,,,,,,,,,,,,,,,,,,,,,200.1075,206.1805,0,1,1,0,1,SoundStimuli/YouLightUpMyLife_DebbyBoone_Original5S.wav,,,,,,,,,,,,,,,,,,,,,,,,,,,,,,,,,,,,,,,,,,,,,,,,,,,,,,,,,,
,,,,,391788,001,2024-06-17_10h54.55.895,experiment,2024.1.5,MacIntel,57.14285714,65f89b593eed885831f28113,667045947eb812cbdacbf325,66704d7d4f0346860a6b0248,,,,,,,,,,,,,,,,,,,,,,,,,,,,,,,,,,,,,,,,,,,,206.1808,207.5977,6.979748486,1.4065,0,8,8,4,1,song_indices/YouLightUpMyLife_DebbyBoone.csv,,,,,,,,,,,,,,,,,,,,,,,,,,,,,,,,,,,,,,,,,,,,,,,,
,,,,,391788,001,2024-06-17_10h54.55.895,experiment,2024.1.5,MacIntel,57.14285714,65f89b593eed885831f28113,667045947eb812cbdacbf325,66704d7d4f0346860a6b0248,,,,,,,,,,,,,,,,,,,,,,,,,,,,,,,,,,,,207.5987,214.6638,0,0,0,1,1,SoundStimuli/ComeAndGetYourLove_Redbone_Cover5S.wav,,,,,,,,,,,,,,,,,,,,,,,,,,,,,,,,,,,,,,,,,,,,,,,,,,,,,,,,,,
,,,,,391788,001,2024-06-17_10h54.55.895,experiment,2024.1.5,MacIntel,57.14285714,65f89b593eed885831f28113,667045947eb812cbdacbf325,66704d7d4f0346860a6b0248,,,,,,,,,,,,,,,,,,,,,,,,,,,,,,,,,,,,214.6724,220.7647,0,1,1,0,1,SoundStimuli/ComeAndGetYourLove_Redbone_Original5S.wav,,,,,,,,,,,,,,,,,,,,,,,,,,,,,,,,,,,,,,,,,,,,,,,,,,,,,,,,,,
,,,,,391788,001,2024-06-17_10h54.55.895,experiment,2024.1.5,MacIntel,57.14285714,65f89b593eed885831f28113,667045947eb812cbdacbf325,66704d7d4f0346860a6b0248,,,,,,,,,,,,,,,,,,,,,,,,,,,,,,,,,,,,,,,,,,,,220.7652,222.4316,4.041291639,1.6425,0,9,9,22,1,song_indices/ComeAndGetYourLove_Redbone.csv,,,,,,,,,,,,,,,,,,,,,,,,,,,,,,,,,,,,,,,,,,,,,,,,
,,,,,391788,001,2024-06-17_10h54.55.895,experiment,2024.1.5,MacIntel,57.14285714,65f89b593eed885831f28113,667045947eb812cbdacbf325,66704d7d4f0346860a6b0248,,,,,,,,,,,,,,,,,,,,,,,,,,,,,,,,,,,,222.4331,228.2972,0,0,0,0,1,SoundStimuli/Irreplaceable_Beyonce_Original5S.wav,,,,,,,,,,,,,,,,,,,,,,,,,,,,,,,,,,,,,,,,,,,,,,,,,,,,,,,,,,
,,,,,391788,001,2024-06-17_10h54.55.895,experiment,2024.1.5,MacIntel,57.14285714,65f89b593eed885831f28113,667045947eb812cbdacbf325,66704d7d4f0346860a6b0248,,,,,,,,,,,,,,,,,,,,,,,,,,,,,,,,,,,,228.3066,234.2147,0,1,1,1,1,SoundStimuli/Irreplaceable_Beyonce_Cover5S.wav,,,,,,,,,,,,,,,,,,,,,,,,,,,,,,,,,,,,,,,,,,,,,,,,,,,,,,,,,,
,,,,,391788,001,2024-06-17_10h54.55.895,experiment,2024.1.5,MacIntel,57.14285714,65f89b593eed885831f28113,667045947eb812cbdacbf325,66704d7d4f0346860a6b0248,,,,,,,,,,,,,,,,,,,,,,,,,,,,,,,,,,,,,,,,,,,,234.215,235.8973,4.963555686,1.6727,0,10,10,19,1,song_indices/Irreplaceable_Beyonce.csv,,,,,,,,,,,,,,,,,,,,,,,,,,,,,,,,,,,,,,,,,,,,,,,,
,,,,,391788,001,2024-06-17_10h54.55.895,experiment,2024.1.5,MacIntel,57.14285714,65f89b593eed885831f28113,667045947eb812cbdacbf325,66704d7d4f0346860a6b0248,,,,,,,,,,,,,,,,,,,,,,,,,,,,,,,,,,,,235.8982,242.7304,0,0,0,1,1,SoundStimuli/PokerFace_LadyGaga_Cover5S.wav,,,,,,,,,,,,,,,,,,,,,,,,,,,,,,,,,,,,,,,,,,,,,,,,,,,,,,,,,,
,,,,,391788,001,2024-06-17_10h54.55.895,experiment,2024.1.5,MacIntel,57.14285714,65f89b593eed885831f28113,667045947eb812cbdacbf325,66704d7d4f0346860a6b0248,,,,,,,,,,,,,,,,,,,,,,,,,,,,,,,,,,,,242.7409,249.7481,0,1,1,0,1,SoundStimuli/PokerFace_LadyGaga_Original5S.wav,,,,,,,,,,,,,,,,,,,,,,,,,,,,,,,,,,,,,,,,,,,,,,,,,,,,,,,,,,
,,,,,391788,001,2024-06-17_10h54.55.895,experiment,2024.1.5,MacIntel,57.14285714,65f89b593eed885831f28113,667045947eb812cbdacbf325,66704d7d4f0346860a6b0248,,,,,,,,,,,,,,,,,,,,,,,,,,,,,,,,,,,,,,,,,,,,249.7485,251.7971,4.917216941,2.026,0,11,11,23,1,song_indices/PokerFace_LadyGaga.csv,,,,,,,,,,,,,,,,,,,,,,,,,,,,,,,,,,,,,,,,,,,,,,,,
,,,,,391788,001,2024-06-17_10h54.55.895,experiment,2024.1.5,MacIntel,57.14285714,65f89b593eed885831f28113,667045947eb812cbdacbf325,66704d7d4f0346860a6b0248,,,,,,,,,,,,,,,,,,,,,,,,,,,,,,,,,,,,251.7988,257.9317,0,0,0,1,1,SoundStimuli/TossinAndTurnin_BobbyLewis_Cover5S.wav,,,,,,,,,,,,,,,,,,,,,,,,,,,,,,,,,,,,,,,,,,,,,,,,,,,,,,,,,,
,,,,,391788,001,2024-06-17_10h54.55.895,experiment,2024.1.5,MacIntel,57.14285714,65f89b593eed885831f28113,667045947eb812cbdacbf325,66704d7d4f0346860a6b0248,,,,,,,,,,,,,,,,,,,,,,,,,,,,,,,,,,,,257.9413,263.9983,0,1,1,0,1,SoundStimuli/TossinAndTurnin_BobbyLewis_Original5S.wav,,,,,,,,,,,,,,,,,,,,,,,,,,,,,,,,,,,,,,,,,,,,,,,,,,,,,,,,,,
,,,,,391788,001,2024-06-17_10h54.55.895,experiment,2024.1.5,MacIntel,57.14285714,65f89b593eed885831f28113,667045947eb812cbdacbf325,66704d7d4f0346860a6b0248,,,,,,,,,,,,,,,,,,,,,,,,,,,,,,,,,,,,,,,,,,,,263.9986,265.5644,1.837945828,1.5451,0,12,12,13,1,song_indices/TossinAndTurnin_BobbyLewis.csv,,,,,,,,,,,,,,,,,,,,,,,,,,,,,,,,,,,,,,,,,,,,,,,,
,,,,,391788,001,2024-06-17_10h54.55.895,experiment,2024.1.5,MacIntel,57.14285714,65f89b593eed885831f28113,667045947eb812cbdacbf325,66704d7d4f0346860a6b0248,,,,,,,,,,,,,,,,,,,,,,,,,,,,,,,,,,,,265.5654,271.8481,0,0,0,1,1,SoundStimuli/Kiss_Prince_Cover5S.wav,,,,,,,,,,,,,,,,,,,,,,,,,,,,,,,,,,,,,,,,,,,,,,,,,,,,,,,,,,
,,,,,391788,001,2024-06-17_10h54.55.895,experiment,2024.1.5,MacIntel,57.14285714,65f89b593eed885831f28113,667045947eb812cbdacbf325,66704d7d4f0346860a6b0248,,,,,,,,,,,,,,,,,,,,,,,,,,,,,,,,,,,,271.8568,279.2813,0,1,1,0,1,SoundStimuli/Kiss_Prince_Original5S.wav,,,,,,,,,,,,,,,,,,,,,,,,,,,,,,,,,,,,,,,,,,,,,,,,,,,,,,,,,,
,,,,,391788,001,2024-06-17_10h54.55.895,experiment,2024.1.5,MacIntel,57.14285714,65f89b593eed885831f28113,667045947eb812cbdacbf325,66704d7d4f0346860a6b0248,,,,,,,,,,,,,,,,,,,,,,,,,,,,,,,,,,,,,,,,,,,,279.2816,280.9812,3.035182537,1.6779,0,13,13,14,1,song_indices/Kiss_Prince.csv,,,,,,,,,,,,,,,,,,,,,,,,,,,,,,,,,,,,,,,,,,,,,,,,
,,,,,391788,001,2024-06-17_10h54.55.895,experiment,2024.1.5,MacIntel,57.14285714,65f89b593eed885831f28113,667045947eb812cbdacbf325,66704d7d4f0346860a6b0248,,,,,,,,,,,,,,,,,,,,,,,,,,,,,,,,,,,,280.9829,287.3808,0,0,0,0,1,SoundStimuli/FlashdanceWhatAFeeling_IreneCara_Original5S.wav,,,,,,,,,,,,,,,,,,,,,,,,,,,,,,,,,,,,,,,,,,,,,,,,,,,,,,,,,,
,,,,,391788,001,2024-06-17_10h54.55.895,experiment,2024.1.5,MacIntel,57.14285714,65f89b593eed885831f28113,667045947eb812cbdacbf325,66704d7d4f0346860a6b0248,,,,,,,,,,,,,,,,,,,,,,,,,,,,,,,,,,,,287.3813,294.6652,0,1,1,1,1,SoundStimuli/FlashdanceWhatAFeeling_IreneCara_Cover5S.wav,,,,,,,,,,,,,,,,,,,,,,,,,,,,,,,,,,,,,,,,,,,,,,,,,,,,,,,,,,
,,,,,391788,001,2024-06-17_10h54.55.895,experiment,2024.1.5,MacIntel,57.14285714,65f89b593eed885831f28113,667045947eb812cbdacbf325,66704d7d4f0346860a6b0248,,,,,,,,,,,,,,,,,,,,,,,,,,,,,,,,,,,,,,,,,,,,294.6657,295.898,5.799198772,1.2087,0,14,14,18,1,song_indices/FlashdanceWhatAFeeling_IreneCara.csv,,,,,,,,,,,,,,,,,,,,,,,,,,,,,,,,,,,,,,,,,,,,,,,,
,,,,,391788,001,2024-06-17_10h54.55.895,experiment,2024.1.5,MacIntel,57.14285714,65f89b593eed885831f28113,667045947eb812cbdacbf325,66704d7d4f0346860a6b0248,,,,,,,,,,,,,,,,,,,,,,,,,,,,,,,,,,,,295.9,301.9146,0,0,0,1,1,SoundStimuli/TheSign_AceOfBase_Cover5S.wav,,,,,,,,,,,,,,,,,,,,,,,,,,,,,,,,,,,,,,,,,,,,,,,,,,,,,,,,,,
,,,,,391788,001,2024-06-17_10h54.55.895,experiment,2024.1.5,MacIntel,57.14285714,65f89b593eed885831f28113,667045947eb812cbdacbf325,66704d7d4f0346860a6b0248,,,,,,,,,,,,,,,,,,,,,,,,,,,,,,,,,,,,301.9237,308.0804,0,1,1,0,1,SoundStimuli/TheSign_AceOfBase_Original5S.wav,,,,,,,,,,,,,,,,,,,,,,,,,,,,,,,,,,,,,,,,,,,,,,,,,,,,,,,,,,
,,,,,391788,001,2024-06-17_10h54.55.895,experiment,2024.1.5,MacIntel,57.14285714,65f89b593eed885831f28113,667045947eb812cbdacbf325,66704d7d4f0346860a6b0248,,,,,,,,,,,,,,,,,,,,,,,,,,,,,,,,,,,,,,,,,,,,308.0806,309.1308,4.92835212,1.0398,0,15,15,5,1,song_indices/TheSign_AceOfBase.csv,,,,,,,,,,,,,,,,,,,,,,,,,,,,,,,,,,,,,,,,,,,,,,,,
,,,,,391788,001,2024-06-17_10h54.55.895,experiment,2024.1.5,MacIntel,57.14285714,65f89b593eed885831f28113,667045947eb812cbdacbf325,66704d7d4f0346860a6b0248,,,,,,,,,,,,,,,,,,,,,,,,,,,,,,,,,,,,309.1317,316.2313,0,0,0,1,1,SoundStimuli/BlurredLines_RobinThicke_Cover5S.wav,,,,,,,,,,,,,,,,,,,,,,,,,,,,,,,,,,,,,,,,,,,,,,,,,,,,,,,,,,
,,,,,391788,001,2024-06-17_10h54.55.895,experiment,2024.1.5,MacIntel,57.14285714,65f89b593eed885831f28113,667045947eb812cbdacbf325,66704d7d4f0346860a6b0248,,,,,,,,,,,,,,,,,,,,,,,,,,,,,,,,,,,,316.2399,322.9992,0,1,1,0,1,SoundStimuli/BlurredLines_RobinThicke_Original5S.wav,,,,,,,,,,,,,,,,,,,,,,,,,,,,,,,,,,,,,,,,,,,,,,,,,,,,,,,,,,
,,,,,391788,001,2024-06-17_10h54.55.895,experiment,2024.1.5,MacIntel,57.14285714,65f89b593eed885831f28113,667045947eb812cbdacbf325,66704d7d4f0346860a6b0248,,,,,,,,,,,,,,,,,,,,,,,,,,,,,,,,,,,,,,,,,,,,323,323.9144,5.741724849,0.8997,0,16,16,9,1,song_indices/BlurredLines_RobinThicke.csv,,,,,,,,,,,,,,,,,,,,,,,,,,,,,,,,,,,,,,,,,,,,,,,,
,,,,,391788,001,2024-06-17_10h54.55.895,experiment,2024.1.5,MacIntel,57.14285714,65f89b593eed885831f28113,667045947eb812cbdacbf325,66704d7d4f0346860a6b0248,,,,,,,,,,,,,,,,,,,,,,,,,,,,,,,,,,,,323.9164,330.1315,0,0,0,0,1,SoundStimuli/TikTok_Kesha_Original5S.wav,,,,,,,,,,,,,,,,,,,,,,,,,,,,,,,,,,,,,,,,,,,,,,,,,,,,,,,,,,
,,,,,391788,001,2024-06-17_10h54.55.895,experiment,2024.1.5,MacIntel,57.14285714,65f89b593eed885831f28113,667045947eb812cbdacbf325,66704d7d4f0346860a6b0248,,,,,,,,,,,,,,,,,,,,,,,,,,,,,,,,,,,,330.141,337.6646,0,1,1,1,1,SoundStimuli/TikTok_Kesha_Cover5S.wav,,,,,,,,,,,,,,,,,,,,,,,,,,,,,,,,,,,,,,,,,,,,,,,,,,,,,,,,,,
,,,,,391788,001,2024-06-17_10h54.55.895,experiment,2024.1.5,MacIntel,57.14285714,65f89b593eed885831f28113,667045947eb812cbdacbf325,66704d7d4f0346860a6b0248,,,,,,,,,,,,,,,,,,,,,,,,,,,,,,,,,,,,,,,,,,,,337.6651,339.8145,4.097850774,2.127,0,17,17,3,1,song_indices/TikTok_Kesha.csv,,,,,,,,,,,,,,,,,,,,,,,,,,,,,,,,,,,,,,,,,,,,,,,,
,,,,,391788,001,2024-06-17_10h54.55.895,experiment,2024.1.5,MacIntel,57.14285714,65f89b593eed885831f28113,667045947eb812cbdacbf325,66704d7d4f0346860a6b0248,,,,,,,,,,,,,,,,,,,,,,,,,,,,,,,,,,,,339.8166,345.2966,0,0,0,1,1,SoundStimuli/HowDoILive_LeAnnRimes_Cover5S.wav,,,,,,,,,,,,,,,,,,,,,,,,,,,,,,,,,,,,,,,,,,,,,,,,,,,,,,,,,,
,,,,,391788,001,2024-06-17_10h54.55.895,experiment,2024.1.5,MacIntel,57.14285714,65f89b593eed885831f28113,667045947eb812cbdacbf325,66704d7d4f0346860a6b0248,,,,,,,,,,,,,,,,,,,,,,,,,,,,,,,,,,,,345.3082,351.3299,0,1,1,0,1,SoundStimuli/HowDoILive_LeAnnRimes_Original5S.wav,,,,,,,,,,,,,,,,,,,,,,,,,,,,,,,,,,,,,,,,,,,,,,,,,,,,,,,,,,
,,,,,391788,001,2024-06-17_10h54.55.895,experiment,2024.1.5,MacIntel,57.14285714,65f89b593eed885831f28113,667045947eb812cbdacbf325,66704d7d4f0346860a6b0248,,,,,,,,,,,,,,,,,,,,,,,,,,,,,,,,,,,,,,,,,,,,351.3301,352.9642,4.738360111,1.6135,0,18,18,17,1,song_indices/HowDoILive_LeAnnRimes.csv,,,,,,,,,,,,,,,,,,,,,,,,,,,,,,,,,,,,,,,,,,,,,,,,
,,,,,391788,001,2024-06-17_10h54.55.895,experiment,2024.1.5,MacIntel,57.14285714,65f89b593eed885831f28113,667045947eb812cbdacbf325,66704d7d4f0346860a6b0248,,,,,,,,,,,,,,,,,,,,,,,,,,,,,,,,,,,,352.9657,359.4476,0,0,0,0,1,SoundStimuli/BlindingLights_TheWeeknd_Original5S.wav,,,,,,,,,,,,,,,,,,,,,,,,,,,,,,,,,,,,,,,,,,,,,,,,,,,,,,,,,,
,,,,,391788,001,2024-06-17_10h54.55.895,experiment,2024.1.5,MacIntel,57.14285714,65f89b593eed885831f28113,667045947eb812cbdacbf325,66704d7d4f0346860a6b0248,,,,,,,,,,,,,,,,,,,,,,,,,,,,,,,,,,,,359.4567,366.2478,0,1,1,1,1,SoundStimuli/BlindingLights_TheWeeknd_Cover5S.wav,,,,,,,,,,,,,,,,,,,,,,,,,,,,,,,,,,,,,,,,,,,,,,,,,,,,,,,,,,
,,,,,391788,001,2024-06-17_10h54.55.895,experiment,2024.1.5,MacIntel,57.14285714,65f89b593eed885831f28113,667045947eb812cbdacbf325,66704d7d4f0346860a6b0248,,,,,,,,,,,,,,,,,,,,,,,,,,,,,,,,,,,,,,,,,,,,366.2483,367.2642,4.089649226,1.0068,0,19,19,21,1,song_indices/BlindingLights_TheWeeknd.csv,,,,,,,,,,,,,,,,,,,,,,,,,,,,,,,,,,,,,,,,,,,,,,,,
,,,,,391788,001,2024-06-17_10h54.55.895,experiment,2024.1.5,MacIntel,57.14285714,65f89b593eed885831f28113,667045947eb812cbdacbf325,66704d7d4f0346860a6b0248,,,,,,,,,,,,,,,,,,,,,,,,,,,,,,,,,,,,367.2654,373.4631,0,0,0,0,1,SoundStimuli/SaveYourTears_TheWeekndArianaGrande_Original5S.wav,,,,,,,,,,,,,,,,,,,,,,,,,,,,,,,,,,,,,,,,,,,,,,,,,,,,,,,,,,
,,,,,391788,001,2024-06-17_10h54.55.895,experiment,2024.1.5,MacIntel,57.14285714,65f89b593eed885831f28113,667045947eb812cbdacbf325,66704d7d4f0346860a6b0248,,,,,,,,,,,,,,,,,,,,,,,,,,,,,,,,,,,,373.4728,379.3641,0,1,1,1,1,SoundStimuli/SaveYourTears_TheWeekndArianaGrande_Cover5S.wav,,,,,,,,,,,,,,,,,,,,,,,,,,,,,,,,,,,,,,,,,,,,,,,,,,,,,,,,,,
,,,,,391788,001,2024-06-17_10h54.55.895,experiment,2024.1.5,MacIntel,57.14285714,65f89b593eed885831f28113,667045947eb812cbdacbf325,66704d7d4f0346860a6b0248,,,,,,,,,,,,,,,,,,,,,,,,,,,,,,,,,,,,,,,,,,,,379.3645,381.7151,4.102803247,2.3415,0,20,20,12,1,song_indices/SaveYourTears_TheWeekndArianaGrande.csv,,,,,,,,,,,,,,,,,,,,,,,,,,,,,,,,,,,,,,,,,,,,,,,,
,,,,,391788,001,2024-06-17_10h54.55.895,experiment,2024.1.5,MacIntel,57.14285714,65f89b593eed885831f28113,667045947eb812cbdacbf325,66704d7d4f0346860a6b0248,,,,,,,,,,,,,,,,,,,,,,,,,,,,,,,,,,,,381.7163,387.4307,0,0,0,1,1,SoundStimuli/Levitating_DuaLipa_Cover5S.wav,,,,,,,,,,,,,,,,,,,,,,,,,,,,,,,,,,,,,,,,,,,,,,,,,,,,,,,,,,
,,,,,391788,001,2024-06-17_10h54.55.895,experiment,2024.1.5,MacIntel,57.14285714,65f89b593eed885831f28113,667045947eb812cbdacbf325,66704d7d4f0346860a6b0248,,,,,,,,,,,,,,,,,,,,,,,,,,,,,,,,,,,,387.4405,393.4478,0,1,1,0,1,SoundStimuli/Levitating_DuaLipa_Original5S.wav,,,,,,,,,,,,,,,,,,,,,,,,,,,,,,,,,,,,,,,,,,,,,,,,,,,,,,,,,,
,,,,,391788,001,2024-06-17_10h54.55.895,experiment,2024.1.5,MacIntel,57.14285714,65f89b593eed885831f28113,667045947eb812cbdacbf325,66704d7d4f0346860a6b0248,,,,,,,,,,,,,,,,,,,,,,,,,,,,,,,,,,,,,,,,,,,,393.4486,396.0297,2.971052742,2.5589,0,21,21,10,1,song_indices/Levitating_DuaLipa.csv,,,,,,,,,,,,,,,,,,,,,,,,,,,,,,,,,,,,,,,,,,,,,,,,
,,,,,391788,001,2024-06-17_10h54.55.895,experiment,2024.1.5,MacIntel,57.14285714,65f89b593eed885831f28113,667045947eb812cbdacbf325,66704d7d4f0346860a6b0248,,,,,,,,,,,,,,,,,,,,,,,,,,,,,,,,,,,,396.031,402.1463,0,0,0,0,1,SoundStimuli/JoyToTheWorld_ThreeDogNight_Original5S.wav,,,,,,,,,,,,,,,,,,,,,,,,,,,,,,,,,,,,,,,,,,,,,,,,,,,,,,,,,,
,,,,,391788,001,2024-06-17_10h54.55.895,experiment,2024.1.5,MacIntel,57.14285714,65f89b593eed885831f28113,667045947eb812cbdacbf325,66704d7d4f0346860a6b0248,,,,,,,,,,,,,,,,,,,,,,,,,,,,,,,,,,,,402.1558,407.2795,0,1,1,1,1,SoundStimuli/JoyToTheWorld_ThreeDogNight_Cover5S.wav,,,,,,,,,,,,,,,,,,,,,,,,,,,,,,,,,,,,,,,,,,,,,,,,,,,,,,,,,,
,,,,,391788,001,2024-06-17_10h54.55.895,experiment,2024.1.5,MacIntel,57.14285714,65f89b593eed885831f28113,667045947eb812cbdacbf325,66704d7d4f0346860a6b0248,,,,,,,,,,,,,,,,,,,,,,,,,,,,,,,,,,,,,,,,,,,,407.2797,413.5296,5.051533059,6.2329,0,22,22,8,1,song_indices/JoyToTheWorld_ThreeDogNight.csv,,,,,,,,,,,,,,,,,,,,,,,,,,,,,,,,,,,,,,,,,,,,,,,,
,,,,,391788,001,2024-06-17_10h54.55.895,experiment,2024.1.5,MacIntel,57.14285714,65f89b593eed885831f28113,667045947eb812cbdacbf325,66704d7d4f0346860a6b0248,,,,,,,,,,,,,,,,,,,,,,,,,,,,,,,,,,,,413.5316,419.4632,0,0,0,0,1,SoundStimuli/Respect_ArethaFranklin_Original5S.wav,,,,,,,,,,,,,,,,,,,,,,,,,,,,,,,,,,,,,,,,,,,,,,,,,,,,,,,,,,
,,,,,391788,001,2024-06-17_10h54.55.895,experiment,2024.1.5,MacIntel,57.14285714,65f89b593eed885831f28113,667045947eb812cbdacbf325,66704d7d4f0346860a6b0248,,,,,,,,,,,,,,,,,,,,,,,,,,,,,,,,,,,,419.4738,425.5294,0,1,1,1,1,SoundStimuli/Respect_ArethaFranklin_Cover5S.wav,,,,,,,,,,,,,,,,,,,,,,,,,,,,,,,,,,,,,,,,,,,,,,,,,,,,,,,,,,
,,,,,391788,001,2024-06-17_10h54.55.895,experiment,2024.1.5,MacIntel,57.14285714,65f89b593eed885831f28113,667045947eb812cbdacbf325,66704d7d4f0346860a6b0248,,,,,,,,,,,,,,,,,,,,,,,,,,,,,,,,,,,,,,,,,,,,425.5296,427.1472,1.953461474,1.6074,0,23,23,0,1,song_indices/Respect_ArethaFranklin.csv,,,,,,,,,,,,,,,,,,,,,,,,,,,,,,,,,,,,,,,,,,,,,,,,
,,,,,391788,001,2024-06-17_10h54.55.895,experiment,2024.1.5,MacIntel,57.14285714,65f89b593eed885831f28113,667045947eb812cbdacbf325,66704d7d4f0346860a6b0248,,,,,,,,,,,,,,,,,,,,,,,,,,,,,,,,,,,,,,,,,,,,,,,,,,,,,,427.1484,450.4077,space,23.2409,0.0042,0,0,0,2,1,choose_song_b3.csv,,,,,,,,,,,,,,,,,,,,,,,,,,,,,,,,,,,,,
,,,,,391788,001,2024-06-17_10h54.55.895,experiment,2024.1.5,MacIntel,57.14285714,65f89b593eed885831f28113,667045947eb812cbdacbf325,66704d7d4f0346860a6b0248,,,,,,,,,,,,,,,,,,,,,,,,,,,,,,,,,,,,450.4183,456.447,0,0,0,1,1,SoundStimuli/IWantToHoldYourHand_TheBeatles_Cover5S.wav,,,,,,,,,,,,,,,,,,,,,,,,,,,,,,,,,,,,,,,,,,,,,,,,,,,,,,,,,,
,,,,,391788,001,2024-06-17_10h54.55.895,experiment,2024.1.5,MacIntel,57.14285714,65f89b593eed885831f28113,667045947eb812cbdacbf325,66704d7d4f0346860a6b0248,,,,,,,,,,,,,,,,,,,,,,,,,,,,,,,,,,,,456.4555,462.2476,0,1,1,0,1,SoundStimuli/IWantToHoldYourHand_TheBeatles_Original5S.wav,,,,,,,,,,,,,,,,,,,,,,,,,,,,,,,,,,,,,,,,,,,,,,,,,,,,,,,,,,
,,,,,391788,001,2024-06-17_10h54.55.895,experiment,2024.1.5,MacIntel,57.14285714,65f89b593eed885831f28113,667045947eb812cbdacbf325,66704d7d4f0346860a6b0248,,,,,,,,,,,,,,,,,,,,,,,,,,,,,,,,,,,,,,,,,,,,462.2482,464.647,2.97575286,2.3881,0,0,0,19,1,song_indices/IWantToHoldYourHand_TheBeatles.csv,,,,,,,,,,,,,,,,,,,,,,,,,,,,,,,,,,,,,,,,,,,,,,,,
,,,,,391788,001,2024-06-17_10h54.55.895,experiment,2024.1.5,MacIntel,57.14285714,65f89b593eed885831f28113,667045947eb812cbdacbf325,66704d7d4f0346860a6b0248,,,,,,,,,,,,,,,,,,,,,,,,,,,,,,,,,,,,464.6482,470.8627,0,0,0,1,1,SoundStimuli/LikeAPrayer_Madonna_Cover5S.wav,,,,,,,,,,,,,,,,,,,,,,,,,,,,,,,,,,,,,,,,,,,,,,,,,,,,,,,,,,
,,,,,391788,001,2024-06-17_10h54.55.895,experiment,2024.1.5,MacIntel,57.14285714,65f89b593eed885831f28113,667045947eb812cbdacbf325,66704d7d4f0346860a6b0248,,,,,,,,,,,,,,,,,,,,,,,,,,,,,,,,,,,,470.8724,477.0627,0,1,1,0,1,SoundStimuli/LikeAPrayer_Madonna_Original5S.wav,,,,,,,,,,,,,,,,,,,,,,,,,,,,,,,,,,,,,,,,,,,,,,,,,,,,,,,,,,
,,,,,391788,001,2024-06-17_10h54.55.895,experiment,2024.1.5,MacIntel,57.14285714,65f89b593eed885831f28113,667045947eb812cbdacbf325,66704d7d4f0346860a6b0248,,,,,,,,,,,,,,,,,,,,,,,,,,,,,,,,,,,,,,,,,,,,477.063,478.9801,4.646408143,1.9056,0,1,1,7,1,song_indices/LikeAPrayer_Madonna.csv,,,,,,,,,,,,,,,,,,,,,,,,,,,,,,,,,,,,,,,,,,,,,,,,
,,,,,391788,001,2024-06-17_10h54.55.895,experiment,2024.1.5,MacIntel,57.14285714,65f89b593eed885831f28113,667045947eb812cbdacbf325,66704d7d4f0346860a6b0248,,,,,,,,,,,,,,,,,,,,,,,,,,,,,,,,,,,,478.9813,485.3133,0,0,0,0,1,SoundStimuli/EndlessLove_DianaRossLionelRichie_Original5S.wav,,,,,,,,,,,,,,,,,,,,,,,,,,,,,,,,,,,,,,,,,,,,,,,,,,,,,,,,,,
,,,,,391788,001,2024-06-17_10h54.55.895,experiment,2024.1.5,MacIntel,57.14285714,65f89b593eed885831f28113,667045947eb812cbdacbf325,66704d7d4f0346860a6b0248,,,,,,,,,,,,,,,,,,,,,,,,,,,,,,,,,,,,485.3188,492.8298,0,1,1,1,1,SoundStimuli/EndlessLove_DianaRossLionelRichie_Cover5S.wav,,,,,,,,,,,,,,,,,,,,,,,,,,,,,,,,,,,,,,,,,,,,,,,,,,,,,,,,,,
,,,,,391788,001,2024-06-17_10h54.55.895,experiment,2024.1.5,MacIntel,57.14285714,65f89b593eed885831f28113,667045947eb812cbdacbf325,66704d7d4f0346860a6b0248,,,,,,,,,,,,,,,,,,,,,,,,,,,,,,,,,,,,,,,,,,,,492.8303,494.28,6.000736036,1.428,0,2,2,3,1,song_indices/EndlessLove_DianaRossLionelRichie.csv,,,,,,,,,,,,,,,,,,,,,,,,,,,,,,,,,,,,,,,,,,,,,,,,
,,,,,391788,001,2024-06-17_10h54.55.895,experiment,2024.1.5,MacIntel,57.14285714,65f89b593eed885831f28113,667045947eb812cbdacbf325,66704d7d4f0346860a6b0248,,,,,,,,,,,,,,,,,,,,,,,,,,,,,,,,,,,,494.2812,500.8623,0,0,0,1,1,SoundStimuli/Despacito_LuisFonsiDaddyYankee_Cover5S.wav,,,,,,,,,,,,,,,,,,,,,,,,,,,,,,,,,,,,,,,,,,,,,,,,,,,,,,,,,,
,,,,,391788,001,2024-06-17_10h54.55.895,experiment,2024.1.5,MacIntel,57.14285714,65f89b593eed885831f28113,667045947eb812cbdacbf325,66704d7d4f0346860a6b0248,,,,,,,,,,,,,,,,,,,,,,,,,,,,,,,,,,,,500.8682,507.4292,0,1,1,0,1,SoundStimuli/Despacito_LuisFonsiDaddyYankee_Original5S.wav,,,,,,,,,,,,,,,,,,,,,,,,,,,,,,,,,,,,,,,,,,,,,,,,,,,,,,,,,,
,,,,,391788,001,2024-06-17_10h54.55.895,experiment,2024.1.5,MacIntel,57.14285714,65f89b593eed885831f28113,667045947eb812cbdacbf325,66704d7d4f0346860a6b0248,,,,,,,,,,,,,,,,,,,,,,,,,,,,,,,,,,,,,,,,,,,,507.4295,508.4799,6.027958866,1.0392,0,3,3,11,1,song_indices/Despacito_LuisFonsiDaddyYankee.csv,,,,,,,,,,,,,,,,,,,,,,,,,,,,,,,,,,,,,,,,,,,,,,,,
,,,,,391788,001,2024-06-17_10h54.55.895,experiment,2024.1.5,MacIntel,57.14285714,65f89b593eed885831f28113,667045947eb812cbdacbf325,66704d7d4f0346860a6b0248,,,,,,,,,,,,,,,,,,,,,,,,,,,,,,,,,,,,508.4814,514.6301,0,0,0,0,1,SoundStimuli/MackTheKnife_BobbyDarin_Original5S.wav,,,,,,,,,,,,,,,,,,,,,,,,,,,,,,,,,,,,,,,,,,,,,,,,,,,,,,,,,,
,,,,,391788,001,2024-06-17_10h54.55.895,experiment,2024.1.5,MacIntel,57.14285714,65f89b593eed885831f28113,667045947eb812cbdacbf325,66704d7d4f0346860a6b0248,,,,,,,,,,,,,,,,,,,,,,,,,,,,,,,,,,,,514.6397,520.8962,0,1,1,1,1,SoundStimuli/MackTheKnife_BobbyDarin_Cover5S.wav,,,,,,,,,,,,,,,,,,,,,,,,,,,,,,,,,,,,,,,,,,,,,,,,,,,,,,,,,,
,,,,,391788,001,2024-06-17_10h54.55.895,experiment,2024.1.5,MacIntel,57.14285714,65f89b593eed885831f28113,667045947eb812cbdacbf325,66704d7d4f0346860a6b0248,,,,,,,,,,,,,,,,,,,,,,,,,,,,,,,,,,,,,,,,,,,,520.8965,522.7798,1.181758917,1.8728,0,4,4,21,1,song_indices/MackTheKnife_BobbyDarin.csv,,,,,,,,,,,,,,,,,,,,,,,,,,,,,,,,,,,,,,,,,,,,,,,,
,,,,,391788,001,2024-06-17_10h54.55.895,experiment,2024.1.5,MacIntel,57.14285714,65f89b593eed885831f28113,667045947eb812cbdacbf325,66704d7d4f0346860a6b0248,,,,,,,,,,,,,,,,,,,,,,,,,,,,,,,,,,,,522.781,528.9297,0,0,0,0,1,SoundStimuli/LikeARollingStone_BobDylan_Original5S.wav,,,,,,,,,,,,,,,,,,,,,,,,,,,,,,,,,,,,,,,,,,,,,,,,,,,,,,,,,,
,,,,,391788,001,2024-06-17_10h54.55.895,experiment,2024.1.5,MacIntel,57.14285714,65f89b593eed885831f28113,667045947eb812cbdacbf325,66704d7d4f0346860a6b0248,,,,,,,,,,,,,,,,,,,,,,,,,,,,,,,,,,,,528.9408,533.3299,0,1,1,1,1,SoundStimuli/LikeARollingStone_BobDylan_Cover5S.wav,,,,,,,,,,,,,,,,,,,,,,,,,,,,,,,,,,,,,,,,,,,,,,,,,,,,,,,,,,
,,,,,391788,001,2024-06-17_10h54.55.895,experiment,2024.1.5,MacIntel,57.14285714,65f89b593eed885831f28113,667045947eb812cbdacbf325,66704d7d4f0346860a6b0248,,,,,,,,,,,,,,,,,,,,,,,,,,,,,,,,,,,,,,,,,,,,533.3302,535.3631,3.527180771,2.0098,0,5,5,12,1,song_indices/LikeARollingStone_BobDylan.csv,,,,,,,,,,,,,,,,,,,,,,,,,,,,,,,,,,,,,,,,,,,,,,,,
,,,,,391788,001,2024-06-17_10h54.55.895,experiment,2024.1.5,MacIntel,57.14285714,65f89b593eed885831f28113,667045947eb812cbdacbf325,66704d7d4f0346860a6b0248,,,,,,,,,,,,,,,,,,,,,,,,,,,,,,,,,,,,535.3648,543.6301,0,0,0,1,1,SoundStimuli/Perfect_EdSheeran_Cover5S.wav,,,,,,,,,,,,,,,,,,,,,,,,,,,,,,,,,,,,,,,,,,,,,,,,,,,,,,,,,,
,,,,,391788,001,2024-06-17_10h54.55.895,experiment,2024.1.5,MacIntel,57.14285714,65f89b593eed885831f28113,667045947eb812cbdacbf325,66704d7d4f0346860a6b0248,,,,,,,,,,,,,,,,,,,,,,,,,,,,,,,,,,,,543.6407,552.4797,0,1,1,0,1,SoundStimuli/Perfect_EdSheeran_Original5S.wav,,,,,,,,,,,,,,,,,,,,,,,,,,,,,,,,,,,,,,,,,,,,,,,,,,,,,,,,,,
,,,,,391788,001,2024-06-17_10h54.55.895,experiment,2024.1.5,MacIntel,57.14285714,65f89b593eed885831f28113,667045947eb812cbdacbf325,66704d7d4f0346860a6b0248,,,,,,,,,,,,,,,,,,,,,,,,,,,,,,,,,,,,,,,,,,,,552.4799,553.8302,5.982282554,1.332,0,6,6,0,1,song_indices/Perfect_EdSheeran.csv,,,,,,,,,,,,,,,,,,,,,,,,,,,,,,,,,,,,,,,,,,,,,,,,
,,,,,391788,001,2024-06-17_10h54.55.895,experiment,2024.1.5,MacIntel,57.14285714,65f89b593eed885831f28113,667045947eb812cbdacbf325,66704d7d4f0346860a6b0248,,,,,,,,,,,,,,,,,,,,,,,,,,,,,,,,,,,,553.8322,559.9132,0,0,0,0,1,SoundStimuli/IllMakeLoveToYou_BoyzIIMen_Original5S.wav,,,,,,,,,,,,,,,,,,,,,,,,,,,,,,,,,,,,,,,,,,,,,,,,,,,,,,,,,,
,,,,,391788,001,2024-06-17_10h54.55.895,experiment,2024.1.5,MacIntel,57.14285714,65f89b593eed885831f28113,667045947eb812cbdacbf325,66704d7d4f0346860a6b0248,,,,,,,,,,,,,,,,,,,,,,,,,,,,,,,,,,,,559.9233,565.8624,0,1,1,1,1,SoundStimuli/IllMakeLoveToYou_BoyzIIMen_Cover5S.wav,,,,,,,,,,,,,,,,,,,,,,,,,,,,,,,,,,,,,,,,,,,,,,,,,,,,,,,,,,
,,,,,391788,001,2024-06-17_10h54.55.895,experiment,2024.1.5,MacIntel,57.14285714,65f89b593eed885831f28113,667045947eb812cbdacbf325,66704d7d4f0346860a6b0248,,,,,,,,,,,,,,,,,,,,,,,,,,,,,,,,,,,,,,,,,,,,565.8627,588.88,5.982282554,22.9939,0,7,7,6,1,song_indices/IllMakeLoveToYou_BoyzIIMen.csv,,,,,,,,,,,,,,,,,,,,,,,,,,,,,,,,,,,,,,,,,,,,,,,,
,,,,,391788,001,2024-06-17_10h54.55.895,experiment,2024.1.5,MacIntel,57.14285714,65f89b593eed885831f28113,667045947eb812cbdacbf325,66704d7d4f0346860a6b0248,,,,,,,,,,,,,,,,,,,,,,,,,,,,,,,,,,,,588.8823,595.9131,0,0,0,1,1,SoundStimuli/StrawberryFieldsForever_TheBeatles_Cover5S.wav,,,,,,,,,,,,,,,,,,,,,,,,,,,,,,,,,,,,,,,,,,,,,,,,,,,,,,,,,,
,,,,,391788,001,2024-06-17_10h54.55.895,experiment,2024.1.5,MacIntel,57.14285714,65f89b593eed885831f28113,667045947eb812cbdacbf325,66704d7d4f0346860a6b0248,,,,,,,,,,,,,,,,,,,,,,,,,,,,,,,,,,,,595.9222,602.0464,0,1,1,0,1,SoundStimuli/StrawberryFieldsForever_TheBeatles_Original5S.wav,,,,,,,,,,,,,,,,,,,,,,,,,,,,,,,,,,,,,,,,,,,,,,,,,,,,,,,,,,
,,,,,391788,001,2024-06-17_10h54.55.895,experiment,2024.1.5,MacIntel,57.14285714,65f89b593eed885831f28113,667045947eb812cbdacbf325,66704d7d4f0346860a6b0248,,,,,,,,,,,,,,,,,,,,,,,,,,,,,,,,,,,,,,,,,,,,602.0467,605.5956,2.020651077,3.5319,0,8,8,14,1,song_indices/StrawberryFieldsForever_TheBeatles.csv,,,,,,,,,,,,,,,,,,,,,,,,,,,,,,,,,,,,,,,,,,,,,,,,
,,,,,391788,001,2024-06-17_10h54.55.895,experiment,2024.1.5,MacIntel,57.14285714,65f89b593eed885831f28113,667045947eb812cbdacbf325,66704d7d4f0346860a6b0248,,,,,,,,,,,,,,,,,,,,,,,,,,,,,,,,,,,,605.5974,612.1125,0,0,0,1,1,SoundStimuli/OldTownRoad_LilNasX_Cover5S.wav,,,,,,,,,,,,,,,,,,,,,,,,,,,,,,,,,,,,,,,,,,,,,,,,,,,,,,,,,,
,,,,,391788,001,2024-06-17_10h54.55.895,experiment,2024.1.5,MacIntel,57.14285714,65f89b593eed885831f28113,667045947eb812cbdacbf325,66704d7d4f0346860a6b0248,,,,,,,,,,,,,,,,,,,,,,,,,,,,,,,,,,,,612.1231,619.4962,0,1,1,0,1,SoundStimuli/OldTownRoad_LilNasX_Original5S.wav,,,,,,,,,,,,,,,,,,,,,,,,,,,,,,,,,,,,,,,,,,,,,,,,,,,,,,,,,,
,,,,,391788,001,2024-06-17_10h54.55.895,experiment,2024.1.5,MacIntel,57.14285714,65f89b593eed885831f28113,667045947eb812cbdacbf325,66704d7d4f0346860a6b0248,,,,,,,,,,,,,,,,,,,,,,,,,,,,,,,,,,,,,,,,,,,,619.4967,622.995,4.71955964,3.4809,0,9,9,20,1,song_indices/OldTownRoad_LilNasX.csv,,,,,,,,,,,,,,,,,,,,,,,,,,,,,,,,,,,,,,,,,,,,,,,,
,,,,,391788,001,2024-06-17_10h54.55.895,experiment,2024.1.5,MacIntel,57.14285714,65f89b593eed885831f28113,667045947eb812cbdacbf325,66704d7d4f0346860a6b0248,,,,,,,,,,,,,,,,,,,,,,,,,,,,,,,,,,,,622.9961,629.2462,0,0,0,0,1,SoundStimuli/GodOnlyKnows_TheBeachBoys_Original5S.wav,,,,,,,,,,,,,,,,,,,,,,,,,,,,,,,,,,,,,,,,,,,,,,,,,,,,,,,,,,
,,,,,391788,001,2024-06-17_10h54.55.895,experiment,2024.1.5,MacIntel,57.14285714,65f89b593eed885831f28113,667045947eb812cbdacbf325,66704d7d4f0346860a6b0248,,,,,,,,,,,,,,,,,,,,,,,,,,,,,,,,,,,,629.2552,636.1135,0,1,1,1,1,SoundStimuli/GodOnlyKnows_TheBeachBoys_Cover5S.wav,,,,,,,,,,,,,,,,,,,,,,,,,,,,,,,,,,,,,,,,,,,,,,,,,,,,,,,,,,
,,,,,391788,001,2024-06-17_10h54.55.895,experiment,2024.1.5,MacIntel,57.14285714,65f89b593eed885831f28113,667045947eb812cbdacbf325,66704d7d4f0346860a6b0248,,,,,,,,,,,,,,,,,,,,,,,,,,,,,,,,,,,,,,,,,,,,636.1141,638.2288,4.183399226,2.0963,0,10,10,8,1,song_indices/GodOnlyKnows_TheBeachBoys.csv,,,,,,,,,,,,,,,,,,,,,,,,,,,,,,,,,,,,,,,,,,,,,,,,
,,,,,391788,001,2024-06-17_10h54.55.895,experiment,2024.1.5,MacIntel,57.14285714,65f89b593eed885831f28113,667045947eb812cbdacbf325,66704d7d4f0346860a6b0248,,,,,,,,,,,,,,,,,,,,,,,,,,,,,,,,,,,,638.2299,644.2616,0,0,0,0,1,SoundStimuli/StayinAlive_BeeGees_Original5S.wav,,,,,,,,,,,,,,,,,,,,,,,,,,,,,,,,,,,,,,,,,,,,,,,,,,,,,,,,,,
,,,,,391788,001,2024-06-17_10h54.55.895,experiment,2024.1.5,MacIntel,57.14285714,65f89b593eed885831f28113,667045947eb812cbdacbf325,66704d7d4f0346860a6b0248,,,,,,,,,,,,,,,,,,,,,,,,,,,,,,,,,,,,644.2714,650.1122,0,1,1,1,1,SoundStimuli/StayinAlive_BeeGees_Cover5S.wav,,,,,,,,,,,,,,,,,,,,,,,,,,,,,,,,,,,,,,,,,,,,,,,,,,,,,,,,,,
,,,,,391788,001,2024-06-17_10h54.55.895,experiment,2024.1.5,MacIntel,57.14285714,65f89b593eed885831f28113,667045947eb812cbdacbf325,66704d7d4f0346860a6b0248,,,,,,,,,,,,,,,,,,,,,,,,,,,,,,,,,,,,,,,,,,,,650.1124,654.229,4.905324697,4.0973,0,11,11,2,1,song_indices/StayinAlive_BeeGees.csv,,,,,,,,,,,,,,,,,,,,,,,,,,,,,,,,,,,,,,,,,,,,,,,,
,,,,,391788,001,2024-06-17_10h54.55.895,experiment,2024.1.5,MacIntel,57.14285714,65f89b593eed885831f28113,667045947eb812cbdacbf325,66704d7d4f0346860a6b0248,,,,,,,,,,,,,,,,,,,,,,,,,,,,,,,,,,,,654.2303,662.982,0,0,0,0,1,SoundStimuli/MyGirl_TheTemptations_Original5S.wav,,,,,,,,,,,,,,,,,,,,,,,,,,,,,,,,,,,,,,,,,,,,,,,,,,,,,,,,,,
,,,,,391788,001,2024-06-17_10h54.55.895,experiment,2024.1.5,MacIntel,57.14285714,65f89b593eed885831f28113,667045947eb812cbdacbf325,66704d7d4f0346860a6b0248,,,,,,,,,,,,,,,,,,,,,,,,,,,,,,,,,,,,662.9885,670.6457,0,1,1,1,1,SoundStimuli/MyGirl_TheTemptations_Cover5S.wav,,,,,,,,,,,,,,,,,,,,,,,,,,,,,,,,,,,,,,,,,,,,,,,,,,,,,,,,,,
,,,,,391788,001,2024-06-17_10h54.55.895,experiment,2024.1.5,MacIntel,57.14285714,65f89b593eed885831f28113,667045947eb812cbdacbf325,66704d7d4f0346860a6b0248,,,,,,,,,,,,,,,,,,,,,,,,,,,,,,,,,,,,,,,,,,,,670.6461,672.1289,4.92321038,1.4712,0,12,12,15,1,song_indices/MyGirl_TheTemptations.csv,,,,,,,,,,,,,,,,,,,,,,,,,,,,,,,,,,,,,,,,,,,,,,,,
,,,,,391788,001,2024-06-17_10h54.55.895,experiment,2024.1.5,MacIntel,57.14285714,65f89b593eed885831f28113,667045947eb812cbdacbf325,66704d7d4f0346860a6b0248,,,,,,,,,,,,,,,,,,,,,,,,,,,,,,,,,,,,672.1298,680.4291,0,0,0,1,1,SoundStimuli/Mood_24kGoldnianndior_Cover5S.wav,,,,,,,,,,,,,,,,,,,,,,,,,,,,,,,,,,,,,,,,,,,,,,,,,,,,,,,,,,
,,,,,391788,001,2024-06-17_10h54.55.895,experiment,2024.1.5,MacIntel,57.14285714,65f89b593eed885831f28113,667045947eb812cbdacbf325,66704d7d4f0346860a6b0248,,,,,,,,,,,,,,,,,,,,,,,,,,,,,,,,,,,,680.4393,686.7292,0,1,1,0,1,SoundStimuli/Mood_24kGoldnianndior_Original5S.wav,,,,,,,,,,,,,,,,,,,,,,,,,,,,,,,,,,,,,,,,,,,,,,,,,,,,,,,,,,
,,,,,391788,001,2024-06-17_10h54.55.895,experiment,2024.1.5,MacIntel,57.14285714,65f89b593eed885831f28113,667045947eb812cbdacbf325,66704d7d4f0346860a6b0248,,,,,,,,,,,,,,,,,,,,,,,,,,,,,,,,,,,,,,,,,,,,686.7295,687.7955,4.143747897,1.0563,0,13,13,5,1,song_indices/Mood_24kGoldnianndior.csv,,,,,,,,,,,,,,,,,,,,,,,,,,,,,,,,,,,,,,,,,,,,,,,,
,,,,,391788,001,2024-06-17_10h54.55.895,experiment,2024.1.5,MacIntel,57.14285714,65f89b593eed885831f28113,667045947eb812cbdacbf325,66704d7d4f0346860a6b0248,,,,,,,,,,,,,,,,,,,,,,,,,,,,,,,,,,,,687.7967,693.8289,0,0,0,0,1,SoundStimuli/AChangeIsGonnaCome_SamCooke_Original5S.wav,,,,,,,,,,,,,,,,,,,,,,,,,,,,,,,,,,,,,,,,,,,,,,,,,,,,,,,,,,
,,,,,391788,001,2024-06-17_10h54.55.895,experiment,2024.1.5,MacIntel,57.14285714,65f89b593eed885831f28113,667045947eb812cbdacbf325,66704d7d4f0346860a6b0248,,,,,,,,,,,,,,,,,,,,,,,,,,,,,,,,,,,,693.8381,698.5459,0,1,1,1,1,SoundStimuli/AChangeIsGonnaCome_SamCooke_Cover5S.wav,,,,,,,,,,,,,,,,,,,,,,,,,,,,,,,,,,,,,,,,,,,,,,,,,,,,,,,,,,
,,,,,391788,001,2024-06-17_10h54.55.895,experiment,2024.1.5,MacIntel,57.14285714,65f89b593eed885831f28113,667045947eb812cbdacbf325,66704d7d4f0346860a6b0248,,,,,,,,,,,,,,,,,,,,,,,,,,,,,,,,,,,,,,,,,,,,698.5462,700.0448,3.037106746,1.4814,0,14,14,17,1,song_indices/AChangeIsGonnaCome_SamCooke.csv,,,,,,,,,,,,,,,,,,,,,,,,,,,,,,,,,,,,,,,,,,,,,,,,
,,,,,391788,001,2024-06-17_10h54.55.895,experiment,2024.1.5,MacIntel,57.14285714,65f89b593eed885831f28113,667045947eb812cbdacbf325,66704d7d4f0346860a6b0248,,,,,,,,,,,,,,,,,,,,,,,,,,,,,,,,,,,,700.0466,712.7653,0,0,0,0,1,SoundStimuli/BadDay_DanielPowter_Original5S.wav,,,,,,,,,,,,,,,,,,,,,,,,,,,,,,,,,,,,,,,,,,,,,,,,,,,,,,,,,,
,,,,,391788,001,2024-06-17_10h54.55.895,experiment,2024.1.5,MacIntel,57.14285714,65f89b593eed885831f28113,667045947eb812cbdacbf325,66704d7d4f0346860a6b0248,,,,,,,,,,,,,,,,,,,,,,,,,,,,,,,,,,,,712.776,720.2625,0,1,1,1,1,SoundStimuli/BadDay_DanielPowter_Cover5S.wav,,,,,,,,,,,,,,,,,,,,,,,,,,,,,,,,,,,,,,,,,,,,,,,,,,,,,,,,,,
,,,,,391788,001,2024-06-17_10h54.55.895,experiment,2024.1.5,MacIntel,57.14285714,65f89b593eed885831f28113,667045947eb812cbdacbf325,66704d7d4f0346860a6b0248,,,,,,,,,,,,,,,,,,,,,,,,,,,,,,,,,,,,,,,,,,,,720.2632,722.2289,3.97441748,1.9412,0,15,15,22,1,song_indices/BadDay_DanielPowter.csv,,,,,,,,,,,,,,,,,,,,,,,,,,,,,,,,,,,,,,,,,,,,,,,,
,,,,,391788,001,2024-06-17_10h54.55.895,experiment,2024.1.5,MacIntel,57.14285714,65f89b593eed885831f28113,667045947eb812cbdacbf325,66704d7d4f0346860a6b0248,,,,,,,,,,,,,,,,,,,,,,,,,,,,,,,,,,,,722.2307,727.8288,0,0,0,0,1,SoundStimuli/IWannaDanceWithSomebody_WhitneyHouston_Original5S.wav,,,,,,,,,,,,,,,,,,,,,,,,,,,,,,,,,,,,,,,,,,,,,,,,,,,,,,,,,,
,,,,,391788,001,2024-06-17_10h54.55.895,experiment,2024.1.5,MacIntel,57.14285714,65f89b593eed885831f28113,667045947eb812cbdacbf325,66704d7d4f0346860a6b0248,,,,,,,,,,,,,,,,,,,,,,,,,,,,,,,,,,,,727.8408,734.6796,0,1,1,1,1,SoundStimuli/IWannaDanceWithSomebody_WhitneyHouston_Cover5S.wav,,,,,,,,,,,,,,,,,,,,,,,,,,,,,,,,,,,,,,,,,,,,,,,,,,,,,,,,,,
,,,,,391788,001,2024-06-17_10h54.55.895,experiment,2024.1.5,MacIntel,57.14285714,65f89b593eed885831f28113,667045947eb812cbdacbf325,66704d7d4f0346860a6b0248,,,,,,,,,,,,,,,,,,,,,,,,,,,,,,,,,,,,,,,,,,,,734.6799,735.8953,1.842519768,1.1963,0,16,16,13,1,song_indices/IWannaDanceWithSomebody_WhitneyHouston.csv,,,,,,,,,,,,,,,,,,,,,,,,,,,,,,,,,,,,,,,,,,,,,,,,
,,,,,391788,001,2024-06-17_10h54.55.895,experiment,2024.1.5,MacIntel,57.14285714,65f89b593eed885831f28113,667045947eb812cbdacbf325,66704d7d4f0346860a6b0248,,,,,,,,,,,,,,,,,,,,,,,,,,,,,,,,,,,,735.8966,742.2128,0,0,0,0,1,SoundStimuli/BridgeOverTroubledWater_SimonAndGarfunkel_Original5S.wav,,,,,,,,,,,,,,,,,,,,,,,,,,,,,,,,,,,,,,,,,,,,,,,,,,,,,,,,,,
,,,,,391788,001,2024-06-17_10h54.55.895,experiment,2024.1.5,MacIntel,57.14285714,65f89b593eed885831f28113,667045947eb812cbdacbf325,66704d7d4f0346860a6b0248,,,,,,,,,,,,,,,,,,,,,,,,,,,,,,,,,,,,742.2233,748.9123,0,1,1,1,1,SoundStimuli/BridgeOverTroubledWater_SimonAndGarfunkel_Cover5S.wav,,,,,,,,,,,,,,,,,,,,,,,,,,,,,,,,,,,,,,,,,,,,,,,,,,,,,,,,,,
,,,,,391788,001,2024-06-17_10h54.55.895,experiment,2024.1.5,MacIntel,57.14285714,65f89b593eed885831f28113,667045947eb812cbdacbf325,66704d7d4f0346860a6b0248,,,,,,,,,,,,,,,,,,,,,,,,,,,,,,,,,,,,,,,,,,,,748.9127,750.1281,4.742934051,1.193,0,17,17,1,1,song_indices/BridgeOverTroubledWater_SimonAndGarfunkel.csv,,,,,,,,,,,,,,,,,,,,,,,,,,,,,,,,,,,,,,,,,,,,,,,,
,,,,,391788,001,2024-06-17_10h54.55.895,experiment,2024.1.5,MacIntel,57.14285714,65f89b593eed885831f28113,667045947eb812cbdacbf325,66704d7d4f0346860a6b0248,,,,,,,,,,,,,,,,,,,,,,,,,,,,,,,,,,,,750.1298,756.2291,0,0,0,0,1,SoundStimuli/HeatWaves_GlassAnimals_Original5S.wav,,,,,,,,,,,,,,,,,,,,,,,,,,,,,,,,,,,,,,,,,,,,,,,,,,,,,,,,,,
,,,,,391788,001,2024-06-17_10h54.55.895,experiment,2024.1.5,MacIntel,57.14285714,65f89b593eed885831f28113,667045947eb812cbdacbf325,66704d7d4f0346860a6b0248,,,,,,,,,,,,,,,,,,,,,,,,,,,,,,,,,,,,756.2388,764.8288,0,1,1,1,1,SoundStimuli/HeatWaves_GlassAnimals_Cover5S.wav,,,,,,,,,,,,,,,,,,,,,,,,,,,,,,,,,,,,,,,,,,,,,,,,,,,,,,,,,,
,,,,,391788,001,2024-06-17_10h54.55.895,experiment,2024.1.5,MacIntel,57.14285714,65f89b593eed885831f28113,667045947eb812cbdacbf325,66704d7d4f0346860a6b0248,,,,,,,,,,,,,,,,,,,,,,,,,,,,,,,,,,,,,,,,,,,,764.8292,766.8118,4.865452557,1.9692,0,18,18,10,1,song_indices/HeatWaves_GlassAnimals.csv,,,,,,,,,,,,,,,,,,,,,,,,,,,,,,,,,,,,,,,,,,,,,,,,
,,,,,391788,001,2024-06-17_10h54.55.895,experiment,2024.1.5,MacIntel,57.14285714,65f89b593eed885831f28113,667045947eb812cbdacbf325,66704d7d4f0346860a6b0248,,,,,,,,,,,,,,,,,,,,,,,,,,,,,,,,,,,,766.8154,772.7788,0,0,0,0,1,SoundStimuli/BohemianRhapsody_Queen_Original5S.wav,,,,,,,,,,,,,,,,,,,,,,,,,,,,,,,,,,,,,,,,,,,,,,,,,,,,,,,,,,
,,,,,391788,001,2024-06-17_10h54.55.895,experiment,2024.1.5,MacIntel,57.14285714,65f89b593eed885831f28113,667045947eb812cbdacbf325,66704d7d4f0346860a6b0248,,,,,,,,,,,,,,,,,,,,,,,,,,,,,,,,,,,,772.7895,776.8623,0,1,1,1,1,SoundStimuli/BohemianRhapsody_Queen_Cover5S.wav,,,,,,,,,,,,,,,,,,,,,,,,,,,,,,,,,,,,,,,,,,,,,,,,,,,,,,,,,,
,,,,,391788,001,2024-06-17_10h54.55.895,experiment,2024.1.5,MacIntel,57.14285714,65f89b593eed885831f28113,667045947eb812cbdacbf325,66704d7d4f0346860a6b0248,,,,,,,,,,,,,,,,,,,,,,,,,,,,,,,,,,,,,,,,,,,,776.8626,778.5453,1.102172359,1.6609,0,19,19,18,1,song_indices/BohemianRhapsody_Queen.csv,,,,,,,,,,,,,,,,,,,,,,,,,,,,,,,,,,,,,,,,,,,,,,,,
,,,,,391788,001,2024-06-17_10h54.55.895,experiment,2024.1.5,MacIntel,57.14285714,65f89b593eed885831f28113,667045947eb812cbdacbf325,66704d7d4f0346860a6b0248,,,,,,,,,,,,,,,,,,,,,,,,,,,,,,,,,,,,778.547,784.7776,0,0,0,0,1,SoundStimuli/Smooth_SantanaRobThomas_Original5S.wav,,,,,,,,,,,,,,,,,,,,,,,,,,,,,,,,,,,,,,,,,,,,,,,,,,,,,,,,,,
,,,,,391788,001,2024-06-17_10h54.55.895,experiment,2024.1.5,MacIntel,57.14285714,65f89b593eed885831f28113,667045947eb812cbdacbf325,66704d7d4f0346860a6b0248,,,,,,,,,,,,,,,,,,,,,,,,,,,,,,,,,,,,784.7872,790.9121,0,1,1,1,1,SoundStimuli/Smooth_SantanaRobThomas_Cover5S.wav,,,,,,,,,,,,,,,,,,,,,,,,,,,,,,,,,,,,,,,,,,,,,,,,,,,,,,,,,,
,,,,,391788,001,2024-06-17_10h54.55.895,experiment,2024.1.5,MacIntel,57.14285714,65f89b593eed885831f28113,667045947eb812cbdacbf325,66704d7d4f0346860a6b0248,,,,,,,,,,,,,,,,,,,,,,,,,,,,,,,,,,,,,,,,,,,,790.9125,792.2784,6.983691538,1.3531,0,20,20,4,1,song_indices/Smooth_SantanaRobThomas.csv,,,,,,,,,,,,,,,,,,,,,,,,,,,,,,,,,,,,,,,,,,,,,,,,
,,,,,391788,001,2024-06-17_10h54.55.895,experiment,2024.1.5,MacIntel,57.14285714,65f89b593eed885831f28113,667045947eb812cbdacbf325,66704d7d4f0346860a6b0248,,,,,,,,,,,,,,,,,,,,,,,,,,,,,,,,,,,,792.28,798.3121,0,0,0,0,1,SoundStimuli/AnotherOneBitesTheDust_Queen_Original5S.wav,,,,,,,,,,,,,,,,,,,,,,,,,,,,,,,,,,,,,,,,,,,,,,,,,,,,,,,,,,
,,,,,391788,001,2024-06-17_10h54.55.895,experiment,2024.1.5,MacIntel,57.14285714,65f89b593eed885831f28113,667045947eb812cbdacbf325,66704d7d4f0346860a6b0248,,,,,,,,,,,,,,,,,,,,,,,,,,,,,,,,,,,,798.3216,806.4451,0,1,1,1,1,SoundStimuli/AnotherOneBitesTheDust_Queen_Cover5S.wav,,,,,,,,,,,,,,,,,,,,,,,,,,,,,,,,,,,,,,,,,,,,,,,,,,,,,,,,,,
,,,,,391788,001,2024-06-17_10h54.55.895,experiment,2024.1.5,MacIntel,57.14285714,65f89b593eed885831f28113,667045947eb812cbdacbf325,66704d7d4f0346860a6b0248,,,,,,,,,,,,,,,,,,,,,,,,,,,,,,,,,,,,,,,,,,,,806.4457,809.444,2.899320744,2.9798,0,21,21,9,1,song_indices/AnotherOneBitesTheDust_Queen.csv,,,,,,,,,,,,,,,,,,,,,,,,,,,,,,,,,,,,,,,,,,,,,,,,
,,,,,391788,001,2024-06-17_10h54.55.895,experiment,2024.1.5,MacIntel,57.14285714,65f89b593eed885831f28113,667045947eb812cbdacbf325,66704d7d4f0346860a6b0248,,,,,,,,,,,,,,,,,,,,,,,,,,,,,,,,,,,,809.4453,817.129,0,0,0,1,1,SoundStimuli/LivinOnAPrayer_BonJovi_Cover5S.wav,,,,,,,,,,,,,,,,,,,,,,,,,,,,,,,,,,,,,,,,,,,,,,,,,,,,,,,,,,
,,,,,391788,001,2024-06-17_10h54.55.895,experiment,2024.1.5,MacIntel,57.14285714,65f89b593eed885831f28113,667045947eb812cbdacbf325,66704d7d4f0346860a6b0248,,,,,,,,,,,,,,,,,,,,,,,,,,,,,,,,,,,,817.1409,823.378,0,1,1,0,1,SoundStimuli/LivinOnAPrayer_BonJovi_Original5S.wav,,,,,,,,,,,,,,,,,,,,,,,,,,,,,,,,,,,,,,,,,,,,,,,,,,,,,,,,,,
,,,,,391788,001,2024-06-17_10h54.55.895,experiment,2024.1.5,MacIntel,57.14285714,65f89b593eed885831f28113,667045947eb812cbdacbf325,66704d7d4f0346860a6b0248,,,,,,,,,,,,,,,,,,,,,,,,,,,,,,,,,,,,,,,,,,,,823.3783,824.9783,2.106262618,1.5834,0,22,22,16,1,song_indices/LivinOnAPrayer_BonJovi.csv,,,,,,,,,,,,,,,,,,,,,,,,,,,,,,,,,,,,,,,,,,,,,,,,
,,,,,391788,001,2024-06-17_10h54.55.895,experiment,2024.1.5,MacIntel,57.14285714,65f89b593eed885831f28113,667045947eb812cbdacbf325,66704d7d4f0346860a6b0248,,,,,,,,,,,,,,,,,,,,,,,,,,,,,,,,,,,,,,,,,,,,,,,,,,,,,,824.9785,910.094,space,85.1087,,0,1,1,0,1,choose_song_b1.csv,,,,,,,,,,,,,,,,,,,,,,,,,,,,,,,,,,,,,
,,,,,391788,001,2024-06-17_10h54.55.895,experiment,2024.1.5,MacIntel,57.14285714,65f89b593eed885831f28113,667045947eb812cbdacbf325,66704d7d4f0346860a6b0248,,,,,,,,,,,,,,,,,,,,,,,,,,,,,,,,,,,,910.1001,916.8439,0,0,0,0,1,SoundStimuli/PartyRockAnthem_LMFAO_Original5S.wav,,,,,,,,,,,,,,,,,,,,,,,,,,,,,,,,,,,,,,,,,,,,,,,,,,,,,,,,,,
,,,,,391788,001,2024-06-17_10h54.55.895,experiment,2024.1.5,MacIntel,57.14285714,65f89b593eed885831f28113,667045947eb812cbdacbf325,66704d7d4f0346860a6b0248,,,,,,,,,,,,,,,,,,,,,,,,,,,,,,,,,,,,916.8546,923.6282,0,1,1,1,1,SoundStimuli/PartyRockAnthem_LMFAO_Cover5S.wav,,,,,,,,,,,,,,,,,,,,,,,,,,,,,,,,,,,,,,,,,,,,,,,,,,,,,,,,,,
,,,,,391788,001,2024-06-17_10h54.55.895,experiment,2024.1.5,MacIntel,57.14285714,65f89b593eed885831f28113,667045947eb812cbdacbf325,66704d7d4f0346860a6b0248,,,,,,,,,,,,,,,,,,,,,,,,,,,,,,,,,,,,,,,,,,,,923.6289,925.0109,3.771933883,1.3681,0,0,0,2,1,song_indices/PartyRockAnthem_LMFAO.csv,,,,,,,,,,,,,,,,,,,,,,,,,,,,,,,,,,,,,,,,,,,,,,,,
,,,,,391788,001,2024-06-17_10h54.55.895,experiment,2024.1.5,MacIntel,57.14285714,65f89b593eed885831f28113,667045947eb812cbdacbf325,66704d7d4f0346860a6b0248,,,,,,,,,,,,,,,,,,,,,,,,,,,,,,,,,,,,925.0118,932.2456,0,0,0,0,1,SoundStimuli/UptownFunk_MarkRonson_Original5S.wav,,,,,,,,,,,,,,,,,,,,,,,,,,,,,,,,,,,,,,,,,,,,,,,,,,,,,,,,,,
,,,,,391788,001,2024-06-17_10h54.55.895,experiment,2024.1.5,MacIntel,57.14285714,65f89b593eed885831f28113,667045947eb812cbdacbf325,66704d7d4f0346860a6b0248,,,,,,,,,,,,,,,,,,,,,,,,,,,,,,,,,,,,932.2575,939.2618,0,1,1,1,1,SoundStimuli/UptownFunk_MarkRonson_Cover5S.wav,,,,,,,,,,,,,,,,,,,,,,,,,,,,,,,,,,,,,,,,,,,,,,,,,,,,,,,,,,
,,,,,391788,001,2024-06-17_10h54.55.895,experiment,2024.1.5,MacIntel,57.14285714,65f89b593eed885831f28113,667045947eb812cbdacbf325,66704d7d4f0346860a6b0248,,,,,,,,,,,,,,,,,,,,,,,,,,,,,,,,,,,,,,,,,,,,939.2627,943.3268,6.99678247,4.0527,0,1,1,15,1,song_indices/UptownFunk_MarkRonson.csv,,,,,,,,,,,,,,,,,,,,,,,,,,,,,,,,,,,,,,,,,,,,,,,,
,,,,,391788,001,2024-06-17_10h54.55.895,experiment,2024.1.5,MacIntel,57.14285714,65f89b593eed885831f28113,667045947eb812cbdacbf325,66704d7d4f0346860a6b0248,,,,,,,,,,,,,,,,,,,,,,,,,,,,,,,,,,,,943.3285,949.3113,0,0,0,0,1,SoundStimuli/IWalkTheLine_JohnnyCash_Original5S.wav,,,,,,,,,,,,,,,,,,,,,,,,,,,,,,,,,,,,,,,,,,,,,,,,,,,,,,,,,,
,,,,,391788,001,2024-06-17_10h54.55.895,experiment,2024.1.5,MacIntel,57.14285714,65f89b593eed885831f28113,667045947eb812cbdacbf325,66704d7d4f0346860a6b0248,,,,,,,,,,,,,,,,,,,,,,,,,,,,,,,,,,,,949.3213,956.4602,0,1,1,1,1,SoundStimuli/IWalkTheLine_JohnnyCash_Cover5S.wav,,,,,,,,,,,,,,,,,,,,,,,,,,,,,,,,,,,,,,,,,,,,,,,,,,,,,,,,,,
,,,,,391788,001,2024-06-17_10h54.55.895,experiment,2024.1.5,MacIntel,57.14285714,65f89b593eed885831f28113,667045947eb812cbdacbf325,66704d7d4f0346860a6b0248,,,,,,,,,,,,,,,,,,,,,,,,,,,,,,,,,,,,,,,,,,,,956.4607,962.828,4.621141067,6.3401,0,2,2,17,1,song_indices/IWalkTheLine_JohnnyCash.csv,,,,,,,,,,,,,,,,,,,,,,,,,,,,,,,,,,,,,,,,,,,,,,,,
,,,,,391788,001,2024-06-17_10h54.55.895,experiment,2024.1.5,MacIntel,57.14285714,65f89b593eed885831f28113,667045947eb812cbdacbf325,66704d7d4f0346860a6b0248,,,,,,,,,,,,,,,,,,,,,,,,,,,,,,,,,,,,962.8311,968.727,0,0,0,0,1,SoundStimuli/EyeOfTheTiger_Survivor_Original5S.wav,,,,,,,,,,,,,,,,,,,,,,,,,,,,,,,,,,,,,,,,,,,,,,,,,,,,,,,,,,
,,,,,391788,001,2024-06-17_10h54.55.895,experiment,2024.1.5,MacIntel,57.14285714,65f89b593eed885831f28113,667045947eb812cbdacbf325,66704d7d4f0346860a6b0248,,,,,,,,,,,,,,,,,,,,,,,,,,,,,,,,,,,,968.7382,974.8602,0,1,1,1,1,SoundStimuli/EyeOfTheTiger_Survivor_Cover5S.wav,,,,,,,,,,,,,,,,,,,,,,,,,,,,,,,,,,,,,,,,,,,,,,,,,,,,,,,,,,
,,,,,391788,001,2024-06-17_10h54.55.895,experiment,2024.1.5,MacIntel,57.14285714,65f89b593eed885831f28113,667045947eb812cbdacbf325,66704d7d4f0346860a6b0248,,,,,,,,,,,,,,,,,,,,,,,,,,,,,,,,,,,,,,,,,,,,974.8609,977.66,4.618049714,2.7753,0,3,3,11,1,song_indices/EyeOfTheTiger_Survivor.csv,,,,,,,,,,,,,,,,,,,,,,,,,,,,,,,,,,,,,,,,,,,,,,,,
,,,,,391788,001,2024-06-17_10h54.55.895,experiment,2024.1.5,MacIntel,57.14285714,65f89b593eed885831f28113,667045947eb812cbdacbf325,66704d7d4f0346860a6b0248,,,,,,,,,,,,,,,,,,,,,,,,,,,,,,,,,,,,977.6617,983.9942,0,0,0,0,1,SoundStimuli/RockWithYou_MichaelJackson_Original5S.wav,,,,,,,,,,,,,,,,,,,,,,,,,,,,,,,,,,,,,,,,,,,,,,,,,,,,,,,,,,
,,,,,391788,001,2024-06-17_10h54.55.895,experiment,2024.1.5,MacIntel,57.14285714,65f89b593eed885831f28113,667045947eb812cbdacbf325,66704d7d4f0346860a6b0248,,,,,,,,,,,,,,,,,,,,,,,,,,,,,,,,,,,,984.0048,990.0612,0,1,1,1,1,SoundStimuli/RockWithYou_MichaelJackson_Cover5S.wav,,,,,,,,,,,,,,,,,,,,,,,,,,,,,,,,,,,,,,,,,,,,,,,,,,,,,,,,,,
,,,,,391788,001,2024-06-17_10h54.55.895,experiment,2024.1.5,MacIntel,57.14285714,65f89b593eed885831f28113,667045947eb812cbdacbf325,66704d7d4f0346860a6b0248,,,,,,,,,,,,,,,,,,,,,,,,,,,,,,,,,,,,,,,,,,,,990.0616,991.4609,3.075401666,1.3728,0,4,4,16,1,song_indices/RockWithYou_MichaelJackson.csv,,,,,,,,,,,,,,,,,,,,,,,,,,,,,,,,,,,,,,,,,,,,,,,,
,,,,,391788,001,2024-06-17_10h54.55.895,experiment,2024.1.5,MacIntel,57.14285714,65f89b593eed885831f28113,667045947eb812cbdacbf325,66704d7d4f0346860a6b0248,,,,,,,,,,,,,,,,,,,,,,,,,,,,,,,,,,,,991.4628,997.6778,0,0,0,0,1,SoundStimuli/BetteDavisEyes_KimCarnes_Original5S.wav,,,,,,,,,,,,,,,,,,,,,,,,,,,,,,,,,,,,,,,,,,,,,,,,,,,,,,,,,,
,,,,,391788,001,2024-06-17_10h54.55.895,experiment,2024.1.5,MacIntel,57.14285714,65f89b593eed885831f28113,667045947eb812cbdacbf325,66704d7d4f0346860a6b0248,,,,,,,,,,,,,,,,,,,,,,,,,,,,,,,,,,,,997.6864,1003.3773,0,1,1,1,1,SoundStimuli/BetteDavisEyes_KimCarnes_Cover5S.wav,,,,,,,,,,,,,,,,,,,,,,,,,,,,,,,,,,,,,,,,,,,,,,,,,,,,,,,,,,
,,,,,391788,001,2024-06-17_10h54.55.895,experiment,2024.1.5,MacIntel,57.14285714,65f89b593eed885831f28113,667045947eb812cbdacbf325,66704d7d4f0346860a6b0248,,,,,,,,,,,,,,,,,,,,,,,,,,,,,,,,,,,,,,,,,,,,1003.3776,1006.0108,3.757297275,2.6195,0,5,5,5,1,song_indices/BetteDavisEyes_KimCarnes.csv,,,,,,,,,,,,,,,,,,,,,,,,,,,,,,,,,,,,,,,,,,,,,,,,
,,,,,391788,001,2024-06-17_10h54.55.895,experiment,2024.1.5,MacIntel,57.14285714,65f89b593eed885831f28113,667045947eb812cbdacbf325,66704d7d4f0346860a6b0248,,,,,,,,,,,,,,,,,,,,,,,,,,,,,,,,,,,,1006.0126,1012.1112,0,0,0,0,1,SoundStimuli/GimmeShelter_RollingStones_Original5S.wav,,,,,,,,,,,,,,,,,,,,,,,,,,,,,,,,,,,,,,,,,,,,,,,,,,,,,,,,,,
,,,,,391788,001,2024-06-17_10h54.55.895,experiment,2024.1.5,MacIntel,57.14285714,65f89b593eed885831f28113,667045947eb812cbdacbf325,66704d7d4f0346860a6b0248,,,,,,,,,,,,,,,,,,,,,,,,,,,,,,,,,,,,1012.1218,1018.3265,0,1,1,1,1,SoundStimuli/GimmeShelter_RollingStones_Cover5S.wav,,,,,,,,,,,,,,,,,,,,,,,,,,,,,,,,,,,,,,,,,,,,,,,,,,,,,,,,,,
,,,,,391788,001,2024-06-17_10h54.55.895,experiment,2024.1.5,MacIntel,57.14285714,65f89b593eed885831f28113,667045947eb812cbdacbf325,66704d7d4f0346860a6b0248,,,,,,,,,,,,,,,,,,,,,,,,,,,,,,,,,,,,,,,,,,,,1018.3268,1022.1431,3.790481999,3.8047,0,6,6,20,1,song_indices/GimmeShelter_RollingStones.csv,,,,,,,,,,,,,,,,,,,,,,,,,,,,,,,,,,,,,,,,,,,,,,,,
,,,,,391788,001,2024-06-17_10h54.55.895,experiment,2024.1.5,MacIntel,57.14285714,65f89b593eed885831f28113,667045947eb812cbdacbf325,66704d7d4f0346860a6b0248,,,,,,,,,,,,,,,,,,,,,,,,,,,,,,,,,,,,1022.1443,1030.1269,0,0,0,1,1,SoundStimuli/TheBattleOfNewOrleans_JohnnyHorton_Cover5S.wav,,,,,,,,,,,,,,,,,,,,,,,,,,,,,,,,,,,,,,,,,,,,,,,,,,,,,,,,,,
,,,,,391788,001,2024-06-17_10h54.55.895,experiment,2024.1.5,MacIntel,57.14285714,65f89b593eed885831f28113,667045947eb812cbdacbf325,66704d7d4f0346860a6b0248,,,,,,,,,,,,,,,,,,,,,,,,,,,,,,,,,,,,1030.1378,1036.344,0,1,1,0,1,SoundStimuli/TheBattleOfNewOrleans_JohnnyHorton_Original5S.wav,,,,,,,,,,,,,,,,,,,,,,,,,,,,,,,,,,,,,,,,,,,,,,,,,,,,,,,,,,
,,,,,391788,001,2024-06-17_10h54.55.895,experiment,2024.1.5,MacIntel,57.14285714,65f89b593eed885831f28113,667045947eb812cbdacbf325,66704d7d4f0346860a6b0248,,,,,,,,,,,,,,,,,,,,,,,,,,,,,,,,,,,,,,,,,,,,1036.3442,1037.843,3.250031544,1.478,0,7,7,4,1,song_indices/TheBattleOfNewOrleans_JohnnyHorton.csv,,,,,,,,,,,,,,,,,,,,,,,,,,,,,,,,,,,,,,,,,,,,,,,,
,,,,,391788,001,2024-06-17_10h54.55.895,experiment,2024.1.5,MacIntel,57.14285714,65f89b593eed885831f28113,667045947eb812cbdacbf325,66704d7d4f0346860a6b0248,,,,,,,,,,,,,,,,,,,,,,,,,,,,,,,,,,,,1037.8447,1044.0271,0,0,0,0,1,SoundStimuli/Fallin_AliciaKeys_Original5S.wav,,,,,,,,,,,,,,,,,,,,,,,,,,,,,,,,,,,,,,,,,,,,,,,,,,,,,,,,,,
,,,,,391788,001,2024-06-17_10h54.55.895,experiment,2024.1.5,MacIntel,57.14285714,65f89b593eed885831f28113,667045947eb812cbdacbf325,66704d7d4f0346860a6b0248,,,,,,,,,,,,,,,,,,,,,,,,,,,,,,,,,,,,1044.0375,1050.4606,0,1,1,1,1,SoundStimuli/Fallin_AliciaKeys_Cover5S.wav,,,,,,,,,,,,,,,,,,,,,,,,,,,,,,,,,,,,,,,,,,,,,,,,,,,,,,,,,,
,,,,,391788,001,2024-06-17_10h54.55.895,experiment,2024.1.5,MacIntel,57.14285714,65f89b593eed885831f28113,667045947eb812cbdacbf325,66704d7d4f0346860a6b0248,,,,,,,,,,,,,,,,,,,,,,,,,,,,,,,,,,,,,,,,,,,,1050.4609,1053.0099,3.340122392,2.5366,0,8,8,12,1,song_indices/Fallin_AliciaKeys.csv,,,,,,,,,,,,,,,,,,,,,,,,,,,,,,,,,,,,,,,,,,,,,,,,
,,,,,391788,001,2024-06-17_10h54.55.895,experiment,2024.1.5,MacIntel,57.14285714,65f89b593eed885831f28113,667045947eb812cbdacbf325,66704d7d4f0346860a6b0248,,,,,,,,,,,,,,,,,,,,,,,,,,,,,,,,,,,,1053.0113,1058.7938,0,0,0,1,1,SoundStimuli/SmellsLikeTeenSpirit_Nirvana_Cover5S.wav,,,,,,,,,,,,,,,,,,,,,,,,,,,,,,,,,,,,,,,,,,,,,,,,,,,,,,,,,,
,,,,,391788,001,2024-06-17_10h54.55.895,experiment,2024.1.5,MacIntel,57.14285714,65f89b593eed885831f28113,667045947eb812cbdacbf325,66704d7d4f0346860a6b0248,,,,,,,,,,,,,,,,,,,,,,,,,,,,,,,,,,,,1058.8057,1065.0094,0,1,1,0,1,SoundStimuli/SmellsLikeTeenSpirit_Nirvana_Original5S.wav,,,,,,,,,,,,,,,,,,,,,,,,,,,,,,,,,,,,,,,,,,,,,,,,,,,,,,,,,,
,,,,,391788,001,2024-06-17_10h54.55.895,experiment,2024.1.5,MacIntel,57.14285714,65f89b593eed885831f28113,667045947eb812cbdacbf325,66704d7d4f0346860a6b0248,,,,,,,,,,,,,,,,,,,,,,,,,,,,,,,,,,,,,,,,,,,,1065.0097,1069.1265,6.917732167,4.0942,0,9,9,8,1,song_indices/SmellsLikeTeenSpirit_Nirvana.csv,,,,,,,,,,,,,,,,,,,,,,,,,,,,,,,,,,,,,,,,,,,,,,,,
,,,,,391788,001,2024-06-17_10h54.55.895,experiment,2024.1.5,MacIntel,57.14285714,65f89b593eed885831f28113,667045947eb812cbdacbf325,66704d7d4f0346860a6b0248,,,,,,,,,,,,,,,,,,,,,,,,,,,,,,,,,,,,1069.1293,1076.4939,0,0,0,0,1,SoundStimuli/Happy_PharellWilliams_Original5S.wav,,,,,,,,,,,,,,,,,,,,,,,,,,,,,,,,,,,,,,,,,,,,,,,,,,,,,,,,,,
,,,,,391788,001,2024-06-17_10h54.55.895,experiment,2024.1.5,MacIntel,57.14285714,65f89b593eed885831f28113,667045947eb812cbdacbf325,66704d7d4f0346860a6b0248,,,,,,,,,,,,,,,,,,,,,,,,,,,,,,,,,,,,1076.5054,1083.8609,0,1,1,1,1,SoundStimuli/Happy_PharellWilliams_Cover5S.wav,,,,,,,,,,,,,,,,,,,,,,,,,,,,,,,,,,,,,,,,,,,,,,,,,,,,,,,,,,
,,,,,391788,001,2024-06-17_10h54.55.895,experiment,2024.1.5,MacIntel,57.14285714,65f89b593eed885831f28113,667045947eb812cbdacbf325,66704d7d4f0346860a6b0248,,,,,,,,,,,,,,,,,,,,,,,,,,,,,,,,,,,,,,,,,,,,1083.8613,1084.9436,6.003511945,1.0661,0,10,10,7,1,song_indices/Happy_PharellWilliams.csv,,,,,,,,,,,,,,,,,,,,,,,,,,,,,,,,,,,,,,,,,,,,,,,,
,,,,,391788,001,2024-06-17_10h54.55.895,experiment,2024.1.5,MacIntel,57.14285714,65f89b593eed885831f28113,667045947eb812cbdacbf325,66704d7d4f0346860a6b0248,,,,,,,,,,,,,,,,,,,,,,,,,,,,,,,,,,,,1084.945,1091.4103,0,0,0,0,1,SoundStimuli/ShapeofYou_EdSheeran_Original5S.wav,,,,,,,,,,,,,,,,,,,,,,,,,,,,,,,,,,,,,,,,,,,,,,,,,,,,,,,,,,
,,,,,391788,001,2024-06-17_10h54.55.895,experiment,2024.1.5,MacIntel,57.14285714,65f89b593eed885831f28113,667045947eb812cbdacbf325,66704d7d4f0346860a6b0248,,,,,,,,,,,,,,,,,,,,,,,,,,,,,,,,,,,,1091.4201,1097.7269,0,1,1,1,1,SoundStimuli/ShapeofYou_EdSheeran_Cover5S.wav,,,,,,,,,,,,,,,,,,,,,,,,,,,,,,,,,,,,,,,,,,,,,,,,,,,,,,,,,,
,,,,,391788,001,2024-06-17_10h54.55.895,experiment,2024.1.5,MacIntel,57.14285714,65f89b593eed885831f28113,667045947eb812cbdacbf325,66704d7d4f0346860a6b0248,,,,,,,,,,,,,,,,,,,,,,,,,,,,,,,,,,,,,,,,,,,,1097.7277,1099.8601,5.016297948,2.1218,0,11,11,21,1,song_indices/ShapeofYou_EdSheeran.csv,,,,,,,,,,,,,,,,,,,,,,,,,,,,,,,,,,,,,,,,,,,,,,,,
,,,,,391788,001,2024-06-17_10h54.55.895,experiment,2024.1.5,MacIntel,57.14285714,65f89b593eed885831f28113,667045947eb812cbdacbf325,66704d7d4f0346860a6b0248,,,,,,,,,,,,,,,,,,,,,,,,,,,,,,,,,,,,1099.8617,1106.1937,0,0,0,1,1,SoundStimuli/Stronger_KanyeWest_Cover5S.wav,,,,,,,,,,,,,,,,,,,,,,,,,,,,,,,,,,,,,,,,,,,,,,,,,,,,,,,,,,
,,,,,391788,001,2024-06-17_10h54.55.895,experiment,2024.1.5,MacIntel,57.14285714,65f89b593eed885831f28113,667045947eb812cbdacbf325,66704d7d4f0346860a6b0248,,,,,,,,,,,,,,,,,,,,,,,,,,,,,,,,,,,,1106.203,1112.2599,0,1,1,0,1,SoundStimuli/Stronger_KanyeWest_Original5S.wav,,,,,,,,,,,,,,,,,,,,,,,,,,,,,,,,,,,,,,,,,,,,,,,,,,,,,,,,,,
,,,,,391788,001,2024-06-17_10h54.55.895,experiment,2024.1.5,MacIntel,57.14285714,65f89b593eed885831f28113,667045947eb812cbdacbf325,66704d7d4f0346860a6b0248,,,,,,,,,,,,,,,,,,,,,,,,,,,,,,,,,,,,,,,,,,,,1112.2602,1114.51,1.046212567,2.2303,0,12,12,9,1,song_indices/Stronger_KanyeWest.csv,,,,,,,,,,,,,,,,,,,,,,,,,,,,,,,,,,,,,,,,,,,,,,,,
,,,,,391788,001,2024-06-17_10h54.55.895,experiment,2024.1.5,MacIntel,57.14285714,65f89b593eed885831f28113,667045947eb812cbdacbf325,66704d7d4f0346860a6b0248,,,,,,,,,,,,,,,,,,,,,,,,,,,,,,,,,,,,1114.5116,1120.726,0,0,0,1,1,SoundStimuli/NoOne_AliciaKeys_Cover5S.wav,,,,,,,,,,,,,,,,,,,,,,,,,,,,,,,,,,,,,,,,,,,,,,,,,,,,,,,,,,
,,,,,391788,001,2024-06-17_10h54.55.895,experiment,2024.1.5,MacIntel,57.14285714,65f89b593eed885831f28113,667045947eb812cbdacbf325,66704d7d4f0346860a6b0248,,,,,,,,,,,,,,,,,,,,,,,,,,,,,,,,,,,,1120.7363,1128.4592,0,1,1,0,1,SoundStimuli/NoOne_AliciaKeys_Original5S.wav,,,,,,,,,,,,,,,,,,,,,,,,,,,,,,,,,,,,,,,,,,,,,,,,,,,,,,,,,,
,,,,,391788,001,2024-06-17_10h54.55.895,experiment,2024.1.5,MacIntel,57.14285714,65f89b593eed885831f28113,667045947eb812cbdacbf325,66704d7d4f0346860a6b0248,,,,,,,,,,,,,,,,,,,,,,,,,,,,,,,,,,,,,,,,,,,,1128.4595,1129.4945,2.908373991,1.0229,0,13,13,19,1,song_indices/NoOne_AliciaKeys.csv,,,,,,,,,,,,,,,,,,,,,,,,,,,,,,,,,,,,,,,,,,,,,,,,
,,,,,391788,001,2024-06-17_10h54.55.895,experiment,2024.1.5,MacIntel,57.14285714,65f89b593eed885831f28113,667045947eb812cbdacbf325,66704d7d4f0346860a6b0248,,,,,,,,,,,,,,,,,,,,,,,,,,,,,,,,,,,,1129.4967,1135.4437,0,0,0,1,1,SoundStimuli/TheBoyIsMine_BrandyMonica_Cover5S.wav,,,,,,,,,,,,,,,,,,,,,,,,,,,,,,,,,,,,,,,,,,,,,,,,,,,,,,,,,,
,,,,,391788,001,2024-06-17_10h54.55.895,experiment,2024.1.5,MacIntel,57.14285714,65f89b593eed885831f28113,667045947eb812cbdacbf325,66704d7d4f0346860a6b0248,,,,,,,,,,,,,,,,,,,,,,,,,,,,,,,,,,,,1135.4543,1141.66,0,1,1,0,1,SoundStimuli/TheBoyIsMine_BrandyMonica_Original5S.wav,,,,,,,,,,,,,,,,,,,,,,,,,,,,,,,,,,,,,,,,,,,,,,,,,,,,,,,,,,
,,,,,391788,001,2024-06-17_10h54.55.895,experiment,2024.1.5,MacIntel,57.14285714,65f89b593eed885831f28113,667045947eb812cbdacbf325,66704d7d4f0346860a6b0248,,,,,,,,,,,,,,,,,,,,,,,,,,,,,,,,,,,,,,,,,,,,1141.6603,1143.5934,6.903253281,1.9124,0,14,14,6,1,song_indices/TheBoyIsMine_BrandyMonica.csv,,,,,,,,,,,,,,,,,,,,,,,,,,,,,,,,,,,,,,,,,,,,,,,,
,,,,,391788,001,2024-06-17_10h54.55.895,experiment,2024.1.5,MacIntel,57.14285714,65f89b593eed885831f28113,667045947eb812cbdacbf325,66704d7d4f0346860a6b0248,,,,,,,,,,,,,,,,,,,,,,,,,,,,,,,,,,,,1143.5951,1149.526,0,0,0,0,1,SoundStimuli/StandByMe_BenEKing_Original5S.wav,,,,,,,,,,,,,,,,,,,,,,,,,,,,,,,,,,,,,,,,,,,,,,,,,,,,,,,,,,
,,,,,391788,001,2024-06-17_10h54.55.895,experiment,2024.1.5,MacIntel,57.14285714,65f89b593eed885831f28113,667045947eb812cbdacbf325,66704d7d4f0346860a6b0248,,,,,,,,,,,,,,,,,,,,,,,,,,,,,,,,,,,,1149.5463,1155.5758,0,1,1,1,1,SoundStimuli/StandByMe_BenEKing_Cover5S.wav,,,,,,,,,,,,,,,,,,,,,,,,,,,,,,,,,,,,,,,,,,,,,,,,,,,,,,,,,,
,,,,,391788,001,2024-06-17_10h54.55.895,experiment,2024.1.5,MacIntel,57.14285714,65f89b593eed885831f28113,667045947eb812cbdacbf325,66704d7d4f0346860a6b0248,,,,,,,,,,,,,,,,,,,,,,,,,,,,,,,,,,,,,,,,,,,,1155.5762,1156.6434,2.704944061,1.0437,0,15,15,1,1,song_indices/StandByMe_BenEKing.csv,,,,,,,,,,,,,,,,,,,,,,,,,,,,,,,,,,,,,,,,,,,,,,,,
,,,,,391788,001,2024-06-17_10h54.55.895,experiment,2024.1.5,MacIntel,57.14285714,65f89b593eed885831f28113,667045947eb812cbdacbf325,66704d7d4f0346860a6b0248,,,,,,,,,,,,,,,,,,,,,,,,,,,,,,,,,,,,1156.6453,1162.9429,0,0,0,0,1,SoundStimuli/HeyYa_Outkast_Original5S.wav,,,,,,,,,,,,,,,,,,,,,,,,,,,,,,,,,,,,,,,,,,,,,,,,,,,,,,,,,,
,,,,,391788,001,2024-06-17_10h54.55.895,experiment,2024.1.5,MacIntel,57.14285714,65f89b593eed885831f28113,667045947eb812cbdacbf325,66704d7d4f0346860a6b0248,,,,,,,,,,,,,,,,,,,,,,,,,,,,,,,,,,,,1162.954,1171.8603,0,1,1,1,1,SoundStimuli/HeyYa_Outkast_Cover5S.wav,,,,,,,,,,,,,,,,,,,,,,,,,,,,,,,,,,,,,,,,,,,,,,,,,,,,,,,,,,
,,,,,391788,001,2024-06-17_10h54.55.895,experiment,2024.1.5,MacIntel,57.14285714,65f89b593eed885831f28113,667045947eb812cbdacbf325,66704d7d4f0346860a6b0248,,,,,,,,,,,,,,,,,,,,,,,,,,,,,,,,,,,,,,,,,,,,1171.8607,1173.3258,2.350037853,1.4427,0,16,16,22,1,song_indices/HeyYa_Outkast.csv,,,,,,,,,,,,,,,,,,,,,,,,,,,,,,,,,,,,,,,,,,,,,,,,
,,,,,391788,001,2024-06-17_10h54.55.895,experiment,2024.1.5,MacIntel,57.14285714,65f89b593eed885831f28113,667045947eb812cbdacbf325,66704d7d4f0346860a6b0248,,,,,,,,,,,,,,,,,,,,,,,,,,,,,,,,,,,,1173.3278,1179.1765,0,0,0,1,1,SoundStimuli/IWillAlwaysLoveYou_WhitneyHouston_Cover5S.wav,,,,,,,,,,,,,,,,,,,,,,,,,,,,,,,,,,,,,,,,,,,,,,,,,,,,,,,,,,
,,,,,391788,001,2024-06-17_10h54.55.895,experiment,2024.1.5,MacIntel,57.14285714,65f89b593eed885831f28113,667045947eb812cbdacbf325,66704d7d4f0346860a6b0248,,,,,,,,,,,,,,,,,,,,,,,,,,,,,,,,,,,,1179.1814,1185.5601,0,1,1,0,1,SoundStimuli/IWillAlwaysLoveYou_WhitneyHouston_Original5S.wav,,,,,,,,,,,,,,,,,,,,,,,,,,,,,,,,,,,,,,,,,,,,,,,,,,,,,,,,,,
,,,,,391788,001,2024-06-17_10h54.55.895,experiment,2024.1.5,MacIntel,57.14285714,65f89b593eed885831f28113,667045947eb812cbdacbf325,66704d7d4f0346860a6b0248,,,,,,,,,,,,,,,,,,,,,,,,,,,,,,,,,,,,,,,,,,,,1185.5605,1187.0929,6.933725185,1.5224,0,17,17,10,1,song_indices/IWillAlwaysLoveYou_WhitneyHouston.csv,,,,,,,,,,,,,,,,,,,,,,,,,,,,,,,,,,,,,,,,,,,,,,,,
,,,,,391788,001,2024-06-17_10h54.55.895,experiment,2024.1.5,MacIntel,57.14285714,65f89b593eed885831f28113,667045947eb812cbdacbf325,66704d7d4f0346860a6b0248,,,,,,,,,,,,,,,,,,,,,,,,,,,,,,,,,,,,1187.0939,1193.643,0,0,0,0,1,SoundStimuli/CrazyInLove_BeyonceFtJayZ_Original5S.wav,,,,,,,,,,,,,,,,,,,,,,,,,,,,,,,,,,,,,,,,,,,,,,,,,,,,,,,,,,
,,,,,391788,001,2024-06-17_10h54.55.895,experiment,2024.1.5,MacIntel,57.14285714,65f89b593eed885831f28113,667045947eb812cbdacbf325,66704d7d4f0346860a6b0248,,,,,,,,,,,,,,,,,,,,,,,,,,,,,,,,,,,,1193.654,1203.8935,0,1,1,1,1,SoundStimuli/CrazyInLove_BeyonceFtJayZ_Cover5S.wav,,,,,,,,,,,,,,,,,,,,,,,,,,,,,,,,,,,,,,,,,,,,,,,,,,,,,,,,,,
,,,,,391788,001,2024-06-17_10h54.55.895,experiment,2024.1.5,MacIntel,57.14285714,65f89b593eed885831f28113,667045947eb812cbdacbf325,66704d7d4f0346860a6b0248,,,,,,,,,,,,,,,,,,,,,,,,,,,,,,,,,,,,,,,,,,,,1203.8941,1204.6764,3.052058799,0.7543,0,18,18,3,1,song_indices/CrazyInLove_BeyonceFtJayZ.csv,,,,,,,,,,,,,,,,,,,,,,,,,,,,,,,,,,,,,,,,,,,,,,,,
,,,,,391788,001,2024-06-17_10h54.55.895,experiment,2024.1.5,MacIntel,57.14285714,65f89b593eed885831f28113,667045947eb812cbdacbf325,66704d7d4f0346860a6b0248,,,,,,,,,,,,,,,,,,,,,,,,,,,,,,,,,,,,1204.6774,1210.8095,0,0,0,1,1,SoundStimuli/NoScrubs_TLC_Cover5S.wav,,,,,,,,,,,,,,,,,,,,,,,,,,,,,,,,,,,,,,,,,,,,,,,,,,,,,,,,,,
,,,,,391788,001,2024-06-17_10h54.55.895,experiment,2024.1.5,MacIntel,57.14285714,65f89b593eed885831f28113,667045947eb812cbdacbf325,66704d7d4f0346860a6b0248,,,,,,,,,,,,,,,,,,,,,,,,,,,,,,,,,,,,1210.8143,1217.0096,0,1,1,0,1,SoundStimuli/NoScrubs_TLC_Original5S.wav,,,,,,,,,,,,,,,,,,,,,,,,,,,,,,,,,,,,,,,,,,,,,,,,,,,,,,,,,,
,,,,,391788,001,2024-06-17_10h54.55.895,experiment,2024.1.5,MacIntel,57.14285714,65f89b593eed885831f28113,667045947eb812cbdacbf325,66704d7d4f0346860a6b0248,,,,,,,,,,,,,,,,,,,,,,,,,,,,,,,,,,,,,,,,,,,,1217.0099,1220.3928,4.964060397,3.3659,0,19,19,14,1,song_indices/NoScrubs_TLC.csv,,,,,,,,,,,,,,,,,,,,,,,,,,,,,,,,,,,,,,,,,,,,,,,,
,,,,,391788,001,2024-06-17_10h54.55.895,experiment,2024.1.5,MacIntel,57.14285714,65f89b593eed885831f28113,667045947eb812cbdacbf325,66704d7d4f0346860a6b0248,,,,,,,,,,,,,,,,,,,,,,,,,,,,,,,,,,,,1220.3935,1226.4768,0,0,0,0,1,SoundStimuli/GetUrFreakOn_MissyElliot_Original5S.wav,,,,,,,,,,,,,,,,,,,,,,,,,,,,,,,,,,,,,,,,,,,,,,,,,,,,,,,,,,
,,,,,391788,001,2024-06-17_10h54.55.895,experiment,2024.1.5,MacIntel,57.14285714,65f89b593eed885831f28113,667045947eb812cbdacbf325,66704d7d4f0346860a6b0248,,,,,,,,,,,,,,,,,,,,,,,,,,,,,,,,,,,,1226.4872,1233.0597,0,1,1,1,1,SoundStimuli/GetUrFreakOn_MissyElliot_Cover5S.wav,,,,,,,,,,,,,,,,,,,,,,,,,,,,,,,,,,,,,,,,,,,,,,,,,,,,,,,,,,
,,,,,391788,001,2024-06-17_10h54.55.895,experiment,2024.1.5,MacIntel,57.14285714,65f89b593eed885831f28113,667045947eb812cbdacbf325,66704d7d4f0346860a6b0248,,,,,,,,,,,,,,,,,,,,,,,,,,,,,,,,,,,,,,,,,,,,1233.0599,1234.5596,2.750998906,1.4807,0,20,20,18,1,song_indices/GetUrFreakOn_MissyElliot.csv,,,,,,,,,,,,,,,,,,,,,,,,,,,,,,,,,,,,,,,,,,,,,,,,
,,,,,391788,001,2024-06-17_10h54.55.895,experiment,2024.1.5,MacIntel,57.14285714,65f89b593eed885831f28113,667045947eb812cbdacbf325,66704d7d4f0346860a6b0248,,,,,,,,,,,,,,,,,,,,,,,,,,,,,,,,,,,,1234.5615,1240.6266,0,0,0,0,1,SoundStimuli/GoodGollyMissMolly_LittleRichard_Original5S.wav,,,,,,,,,,,,,,,,,,,,,,,,,,,,,,,,,,,,,,,,,,,,,,,,,,,,,,,,,,
,,,,,391788,001,2024-06-17_10h54.55.895,experiment,2024.1.5,MacIntel,57.14285714,65f89b593eed885831f28113,667045947eb812cbdacbf325,66704d7d4f0346860a6b0248,,,,,,,,,,,,,,,,,,,,,,,,,,,,,,,,,,,,1240.637,1246.9916,0,1,1,1,1,SoundStimuli/GoodGollyMissMolly_LittleRichard_Cover5S.wav,,,,,,,,,,,,,,,,,,,,,,,,,,,,,,,,,,,,,,,,,,,,,,,,,,,,,,,,,,
,,,,,391788,001,2024-06-17_10h54.55.895,experiment,2024.1.5,MacIntel,57.14285714,65f89b593eed885831f28113,667045947eb812cbdacbf325,66704d7d4f0346860a6b0248,,,,,,,,,,,,,,,,,,,,,,,,,,,,,,,,,,,,,,,,,,,,1246.9917,1248.7763,2.094149563,1.7665,0,21,21,0,1,song_indices/GoodGollyMissMolly_LittleRichard.csv,,,,,,,,,,,,,,,,,,,,,,,,,,,,,,,,,,,,,,,,,,,,,,,,
,,,,,391788,001,2024-06-17_10h54.55.895,experiment,2024.1.5,MacIntel,57.14285714,65f89b593eed885831f28113,667045947eb812cbdacbf325,66704d7d4f0346860a6b0248,,,,,,,,,,,,,,,,,,,,,,,,,,,,,,,,,,,,1248.7784,1255.0269,0,0,0,1,1,SoundStimuli/ItsAllInTheGame_TommyEdwards_Cover5S.wav,,,,,,,,,,,,,,,,,,,,,,,,,,,,,,,,,,,,,,,,,,,,,,,,,,,,,,,,,,
,,,,,391788,001,2024-06-17_10h54.55.895,experiment,2024.1.5,MacIntel,57.14285714,65f89b593eed885831f28113,667045947eb812cbdacbf325,66704d7d4f0346860a6b0248,,,,,,,,,,,,,,,,,,,,,,,,,,,,,,,,,,,,1255.0374,1261.2919,0,1,1,0,1,SoundStimuli/ItsAllInTheGame_TommyEdwards_Original5S.wav,,,,,,,,,,,,,,,,,,,,,,,,,,,,,,,,,,,,,,,,,,,,,,,,,,,,,,,,,,
,,,,,391788,001,2024-06-17_10h54.55.895,experiment,2024.1.5,MacIntel,57.14285714,65f89b593eed885831f28113,667045947eb812cbdacbf325,66704d7d4f0346860a6b0248,,,,,,,,,,,,,,,,,,,,,,,,,,,,,,,,,,,,,,,,,,,,1261.2922,1263.1925,2.537096231,1.8812,0,22,22,13,1,song_indices/ItsAllInTheGame_TommyEdwards.csv,,,,,,,,,,,,,,,,,,,,,,,,,,,,,,,,,,,,,,,,,,,,,,,,
,,,,,391788,001,2024-06-17_10h54.55.895,experiment,2024.1.5,MacIntel,57.14285714,65f89b593eed885831f28113,667045947eb812cbdacbf325,66704d7d4f0346860a6b0248,,,,,,,,,,,,,,,,,,,,,,,,,,,,,,,,,,,,,,,,,,,,,,,,,,,,,,1263.1926,1263.1928,,,,0,2,2,1,1,choose_song_b2.csv,,,,,,,,,,,,,,,,,,,,,,,,,,,,,,,,,,,,,
,,,,,391788,001,2024-06-17_10h54.55.895,experiment,2024.1.5,MacIntel,57.14285714,65f89b593eed885831f28113,667045947eb812cbdacbf325,66704d7d4f0346860a6b0248,,,,,,,,,,,,,,,,,,,,,,,,,,,,,,,,,,,,,,,,,,,,,,,,,,,,,,,,,,,,,,,,,48,Item 4,"I'm a percussionist that went to college for music. I've been playing percussion since I was 7. I started out on piano for that and played for about 5 years.
",Item 4,"Apple Music, YouTube",4,6,Driving and at work when I need to concentrate.,Sometimes,Sometimes,Sometimes,Often,Never,Never,Never,Never,Often,Rarely,Sometimes,Always,Sometimes,Sometimes,Sometimes,Often,Nothing else that I can think of.,Indie,Hip Hop and Rap,Folk Music,My likes and interests have only gotten bigger! I love finding new bands that I've missed and new bands that are just coming out with stuff. Music is a huge part of my life!,Nothing else!,0,0,0,0,1,,
,,,,,391788,001,2024-06-17_10h54.55.895,experiment,2024.1.5,MacIntel,57.14285714,65f89b593eed885831f28113,667045947eb812cbdacbf325,66704d7d4f0346860a6b0248,,,,,,,,,,,,,,,,,,,,,,,,,,,,,,,,,,,,,,,,,,,,,,,,,,,,,,,,,,,,,,,,,,,,,,,,,,,,,,,,,,,,,,,,,,,,,,,,,,,,1522.2775,1524.7415
