welcome.started,welcome.stopped,space_to_continue.keys,space_to_continue.rt,space_to_continue.duration,participant,session,date,expName,psychopyVersion,OS,frameRate,PROLIFIC_PID,STUDY_ID,SESSION_ID,consent.consent,consent.consent_recontact,consent_check.started,consent_check.stopped,calibration_ready.started,calibration_ready.stopped,cal_ready.keys,cal_ready.rt,cal_ready.duration,calibration.started,calibration.stopped,mouse.x,mouse.y,mouse.leftButton,mouse.midButton,mouse.rightButton,mouse.time,mouse.clicked_name,move_on.keys,move_on.rt,move_on.duration,instructions.started,instructions.stopped,next.keys,next.rt,next.duration,practice_trial.started,practice_trial.stopped,practice_slider.response,practice_slider.rt,ready.started,ready.stopped,key_resp.keys,key_resp.rt,key_resp.duration,play_sound.started,play_sound.stopped,trials.thisRepN,trials.thisTrialN,trials.thisN,trials.thisIndex,trials.ran,orig_or_cover,rating.started,rating.stopped,slider.response,slider.rt,songs.thisRepN,songs.thisTrialN,songs.thisN,songs.thisIndex,songs.ran,song_id,short_break.started,short_break.stopped,space_to_move_on.keys,space_to_move_on.rt,space_to_move_on.duration,blocks.thisRepN,blocks.thisTrialN,blocks.thisN,blocks.thisIndex,blocks.ran,block,survey.age,survey.musician,survey.music_making,survey.listen_time,survey.medium,survey.music_seeking,survey.music_choice,survey.activities,survey.question1.A cappella,survey.question1.Reggae,survey.question1.Ambient,survey.question1.Hip hop,survey.question1.Pop,survey.question1.Alternative rock,survey.question1.Jazz,survey.question1.Folk/indie,survey.question1.Disco,survey.question1.Classical,survey.question1.Latin,survey.question1.R&B,survey.question1.Country,survey.question1.Classic rock,survey.question1.Electronic (EDM),survey.question1.Metal,survey.other_genres,survey.genres_ranked.text1,survey.genres_ranked.text2,survey.genres_ranked.text3,survey.habit_change,experiment.thisRepN,experiment.thisTrialN,experiment.thisN,experiment.thisIndex,experiment.ran,goodbye.started,goodbye.stopped
0.0002,1.144,space,1.1152,,399922,001,2024-06-14_12h30.14.629,experiment,2024.1.5,MacIntel,60.24096386,62fd19522ad91588ac9881e7,666b5f73dbba3f0cd916b177,666c6fe063916772c9816e34,,,,,,,,,,,,,,,,,,,,,,,,,,,,,,,,,,,,,,,,,,,,,,,,,,,,,,,,,,,,,,,,,,,,,,,,,,,,,,,,,,,,,,,,,,,,,,,,,,,,
,,,,,399922,001,2024-06-14_12h30.14.629,experiment,2024.1.5,MacIntel,60.24096386,62fd19522ad91588ac9881e7,666b5f73dbba3f0cd916b177,666c6fe063916772c9816e34,yes,no,,,,,,,,,,,,,,,,,,,,,,,,,,,,,,,,,,,,,,,,,,,,,,,,,,,,,,,,,,,,,,,,,,,,,,,,,,,,,,,,,,,,,,,,,,,,,,,,,,
,,,,,399922,001,2024-06-14_12h30.14.629,experiment,2024.1.5,MacIntel,60.24096386,62fd19522ad91588ac9881e7,666b5f73dbba3f0cd916b177,666c6fe063916772c9816e34,,,15.8286,15.8288,,,,,,,,,,,,,,,,,,,,,,,,,,,,,,,,,,,,,,,,,,,,,,,,,,,,,,,,,,,,,,,,,,,,,,,,,,,,,,,,,,,,,,,,,,,,,,,,
,,,,,399922,001,2024-06-14_12h30.14.629,experiment,2024.1.5,MacIntel,60.24096386,62fd19522ad91588ac9881e7,666b5f73dbba3f0cd916b177,666c6fe063916772c9816e34,,,,,15.8305,17.062,space,1.1963,,17.0622,56.9609,"[-0.013420213971819197,-0.013313402448381697,-0.02876804896763393,-0.038005283900669644]","[-0.4309138706752232,-0.44067317417689733,-0.4428037370954241,-0.4137180873325893]","[1,1,1,1]","[0,0,0,0]","[0,0,0,0]","[7.484800000011923,32.49590000003577,35.74490000003576,37.045600000023846]","[""play_button"",""play_button"",""play_button""]",right,29.8687,,56.9612,70.6265,space,13.6498,,70.6267,85.8764,6.063259888,15.238,85.8766,87.7263,space,1.8351,,87.7454,93.9441,0,0,0,0,1,SoundStimuli/Dilemma_NellyKellyRowland_Original5S.wav,,,,,,,,,,,,,,,,,,,,,,,,,,,,,,,,,,,,,,,,,,,,,,,,,,,,,,,,,
,,,,,399922,001,2024-06-14_12h30.14.629,experiment,2024.1.5,MacIntel,60.24096386,62fd19522ad91588ac9881e7,666b5f73dbba3f0cd916b177,666c6fe063916772c9816e34,,,,,,,,,,,,,,,,,,,,,,,,,,,,,,,,,,,,93.9544,100.9436,0,1,1,1,1,SoundStimuli/Dilemma_NellyKellyRowland_Cover5S.wav,,,,,,,,,,,,,,,,,,,,,,,,,,,,,,,,,,,,,,,,,,,,,,,,,,,,,,,,,
,,,,,399922,001,2024-06-14_12h30.14.629,experiment,2024.1.5,MacIntel,60.24096386,62fd19522ad91588ac9881e7,666b5f73dbba3f0cd916b177,666c6fe063916772c9816e34,,,,,,,,,,,,,,,,,,,,,,,,,,,,,,,,,,,,,,,,,,,,100.9541,102.6266,5.015694536,1.6695,0,0,0,2,1,song_indices/Dilemma_NellyKellyRowland.csv,,,,,,,,,,,,,,,,,,,,,,,,,,,,,,,,,,,,,,,,,,,,,,,
,,,,,399922,001,2024-06-14_12h30.14.629,experiment,2024.1.5,MacIntel,60.24096386,62fd19522ad91588ac9881e7,666b5f73dbba3f0cd916b177,666c6fe063916772c9816e34,,,,,,,,,,,,,,,,,,,,,,,,,,,,,,,,,,,,102.6276,108.6425,0,0,0,1,1,SoundStimuli/TheSign_AceOfBase_Cover5S.wav,,,,,,,,,,,,,,,,,,,,,,,,,,,,,,,,,,,,,,,,,,,,,,,,,,,,,,,,,
,,,,,399922,001,2024-06-14_12h30.14.629,experiment,2024.1.5,MacIntel,60.24096386,62fd19522ad91588ac9881e7,666b5f73dbba3f0cd916b177,666c6fe063916772c9816e34,,,,,,,,,,,,,,,,,,,,,,,,,,,,,,,,,,,,108.6512,114.8102,0,1,1,0,1,SoundStimuli/TheSign_AceOfBase_Original5S.wav,,,,,,,,,,,,,,,,,,,,,,,,,,,,,,,,,,,,,,,,,,,,,,,,,,,,,,,,,
,,,,,399922,001,2024-06-14_12h30.14.629,experiment,2024.1.5,MacIntel,60.24096386,62fd19522ad91588ac9881e7,666b5f73dbba3f0cd916b177,666c6fe063916772c9816e34,,,,,,,,,,,,,,,,,,,,,,,,,,,,,,,,,,,,,,,,,,,,114.8105,117.56,6.427569144,2.737,0,1,1,5,1,song_indices/TheSign_AceOfBase.csv,,,,,,,,,,,,,,,,,,,,,,,,,,,,,,,,,,,,,,,,,,,,,,,
,,,,,399922,001,2024-06-14_12h30.14.629,experiment,2024.1.5,MacIntel,60.24096386,62fd19522ad91588ac9881e7,666b5f73dbba3f0cd916b177,666c6fe063916772c9816e34,,,,,,,,,,,,,,,,,,,,,,,,,,,,,,,,,,,,117.5613,122.8599,0,0,0,1,1,SoundStimuli/Superstition_StevieWonder_Cover5S.wav,,,,,,,,,,,,,,,,,,,,,,,,,,,,,,,,,,,,,,,,,,,,,,,,,,,,,,,,,
,,,,,399922,001,2024-06-14_12h30.14.629,experiment,2024.1.5,MacIntel,60.24096386,62fd19522ad91588ac9881e7,666b5f73dbba3f0cd916b177,666c6fe063916772c9816e34,,,,,,,,,,,,,,,,,,,,,,,,,,,,,,,,,,,,122.87,129.0098,0,1,1,0,1,SoundStimuli/Superstition_StevieWonder_Original5S.wav,,,,,,,,,,,,,,,,,,,,,,,,,,,,,,,,,,,,,,,,,,,,,,,,,,,,,,,,,
,,,,,399922,001,2024-06-14_12h30.14.629,experiment,2024.1.5,MacIntel,60.24096386,62fd19522ad91588ac9881e7,666b5f73dbba3f0cd916b177,666c6fe063916772c9816e34,,,,,,,,,,,,,,,,,,,,,,,,,,,,,,,,,,,,,,,,,,,,129.01,130.4755,6.996356201,1.453,0,2,2,15,1,song_indices/Superstition_StevieWonder.csv,,,,,,,,,,,,,,,,,,,,,,,,,,,,,,,,,,,,,,,,,,,,,,,
,,,,,399922,001,2024-06-14_12h30.14.629,experiment,2024.1.5,MacIntel,60.24096386,62fd19522ad91588ac9881e7,666b5f73dbba3f0cd916b177,666c6fe063916772c9816e34,,,,,,,,,,,,,,,,,,,,,,,,,,,,,,,,,,,,130.476,136.5757,0,0,0,0,1,SoundStimuli/ComeAndGetYourLove_Redbone_Original5S.wav,,,,,,,,,,,,,,,,,,,,,,,,,,,,,,,,,,,,,,,,,,,,,,,,,,,,,,,,,
,,,,,399922,001,2024-06-14_12h30.14.629,experiment,2024.1.5,MacIntel,60.24096386,62fd19522ad91588ac9881e7,666b5f73dbba3f0cd916b177,666c6fe063916772c9816e34,,,,,,,,,,,,,,,,,,,,,,,,,,,,,,,,,,,,136.5862,143.6429,0,1,1,1,1,SoundStimuli/ComeAndGetYourLove_Redbone_Cover5S.wav,,,,,,,,,,,,,,,,,,,,,,,,,,,,,,,,,,,,,,,,,,,,,,,,,,,,,,,,,
,,,,,399922,001,2024-06-14_12h30.14.629,experiment,2024.1.5,MacIntel,60.24096386,62fd19522ad91588ac9881e7,666b5f73dbba3f0cd916b177,666c6fe063916772c9816e34,,,,,,,,,,,,,,,,,,,,,,,,,,,,,,,,,,,,,,,,,,,,143.643,144.7751,6.517604719,1.1223,0,3,3,22,1,song_indices/ComeAndGetYourLove_Redbone.csv,,,,,,,,,,,,,,,,,,,,,,,,,,,,,,,,,,,,,,,,,,,,,,,
,,,,,399922,001,2024-06-14_12h30.14.629,experiment,2024.1.5,MacIntel,60.24096386,62fd19522ad91588ac9881e7,666b5f73dbba3f0cd916b177,666c6fe063916772c9816e34,,,,,,,,,,,,,,,,,,,,,,,,,,,,,,,,,,,,144.7759,151.5253,0,0,0,0,1,SoundStimuli/BlurredLines_RobinThicke_Original5S.wav,,,,,,,,,,,,,,,,,,,,,,,,,,,,,,,,,,,,,,,,,,,,,,,,,,,,,,,,,
,,,,,399922,001,2024-06-14_12h30.14.629,experiment,2024.1.5,MacIntel,60.24096386,62fd19522ad91588ac9881e7,666b5f73dbba3f0cd916b177,666c6fe063916772c9816e34,,,,,,,,,,,,,,,,,,,,,,,,,,,,,,,,,,,,151.5355,158.6252,0,1,1,1,1,SoundStimuli/BlurredLines_RobinThicke_Cover5S.wav,,,,,,,,,,,,,,,,,,,,,,,,,,,,,,,,,,,,,,,,,,,,,,,,,,,,,,,,,
,,,,,399922,001,2024-06-14_12h30.14.629,experiment,2024.1.5,MacIntel,60.24096386,62fd19522ad91588ac9881e7,666b5f73dbba3f0cd916b177,666c6fe063916772c9816e34,,,,,,,,,,,,,,,,,,,,,,,,,,,,,,,,,,,,,,,,,,,,158.6254,160.1755,6.527790615,1.5378,0,4,4,9,1,song_indices/BlurredLines_RobinThicke.csv,,,,,,,,,,,,,,,,,,,,,,,,,,,,,,,,,,,,,,,,,,,,,,,
,,,,,399922,001,2024-06-14_12h30.14.629,experiment,2024.1.5,MacIntel,60.24096386,62fd19522ad91588ac9881e7,666b5f73dbba3f0cd916b177,666c6fe063916772c9816e34,,,,,,,,,,,,,,,,,,,,,,,,,,,,,,,,,,,,160.1764,167.0255,0,0,0,1,1,SoundStimuli/PokerFace_LadyGaga_Cover5S.wav,,,,,,,,,,,,,,,,,,,,,,,,,,,,,,,,,,,,,,,,,,,,,,,,,,,,,,,,,
,,,,,399922,001,2024-06-14_12h30.14.629,experiment,2024.1.5,MacIntel,60.24096386,62fd19522ad91588ac9881e7,666b5f73dbba3f0cd916b177,666c6fe063916772c9816e34,,,,,,,,,,,,,,,,,,,,,,,,,,,,,,,,,,,,167.0352,174.0423,0,1,1,0,1,SoundStimuli/PokerFace_LadyGaga_Original5S.wav,,,,,,,,,,,,,,,,,,,,,,,,,,,,,,,,,,,,,,,,,,,,,,,,,,,,,,,,,
,,,,,399922,001,2024-06-14_12h30.14.629,experiment,2024.1.5,MacIntel,60.24096386,62fd19522ad91588ac9881e7,666b5f73dbba3f0cd916b177,666c6fe063916772c9816e34,,,,,,,,,,,,,,,,,,,,,,,,,,,,,,,,,,,,,,,,,,,,174.0425,175.4747,6.428518023,1.4202,0,5,5,23,1,song_indices/PokerFace_LadyGaga.csv,,,,,,,,,,,,,,,,,,,,,,,,,,,,,,,,,,,,,,,,,,,,,,,
,,,,,399922,001,2024-06-14_12h30.14.629,experiment,2024.1.5,MacIntel,60.24096386,62fd19522ad91588ac9881e7,666b5f73dbba3f0cd916b177,666c6fe063916772c9816e34,,,,,,,,,,,,,,,,,,,,,,,,,,,,,,,,,,,,175.4756,181.1924,0,0,0,1,1,SoundStimuli/Levitating_DuaLipa_Cover5S.wav,,,,,,,,,,,,,,,,,,,,,,,,,,,,,,,,,,,,,,,,,,,,,,,,,,,,,,,,,
,,,,,399922,001,2024-06-14_12h30.14.629,experiment,2024.1.5,MacIntel,60.24096386,62fd19522ad91588ac9881e7,666b5f73dbba3f0cd916b177,666c6fe063916772c9816e34,,,,,,,,,,,,,,,,,,,,,,,,,,,,,,,,,,,,181.2027,187.2093,0,1,1,0,1,SoundStimuli/Levitating_DuaLipa_Original5S.wav,,,,,,,,,,,,,,,,,,,,,,,,,,,,,,,,,,,,,,,,,,,,,,,,,,,,,,,,,
,,,,,399922,001,2024-06-14_12h30.14.629,experiment,2024.1.5,MacIntel,60.24096386,62fd19522ad91588ac9881e7,666b5f73dbba3f0cd916b177,666c6fe063916772c9816e34,,,,,,,,,,,,,,,,,,,,,,,,,,,,,,,,,,,,,,,,,,,,187.2095,189.0746,6.544219753,1.8525,0,6,6,10,1,song_indices/Levitating_DuaLipa.csv,,,,,,,,,,,,,,,,,,,,,,,,,,,,,,,,,,,,,,,,,,,,,,,
,,,,,399922,001,2024-06-14_12h30.14.629,experiment,2024.1.5,MacIntel,60.24096386,62fd19522ad91588ac9881e7,666b5f73dbba3f0cd916b177,666c6fe063916772c9816e34,,,,,,,,,,,,,,,,,,,,,,,,,,,,,,,,,,,,189.0754,194.9423,0,0,0,0,1,SoundStimuli/Irreplaceable_Beyonce_Original5S.wav,,,,,,,,,,,,,,,,,,,,,,,,,,,,,,,,,,,,,,,,,,,,,,,,,,,,,,,,,
,,,,,399922,001,2024-06-14_12h30.14.629,experiment,2024.1.5,MacIntel,60.24096386,62fd19522ad91588ac9881e7,666b5f73dbba3f0cd916b177,666c6fe063916772c9816e34,,,,,,,,,,,,,,,,,,,,,,,,,,,,,,,,,,,,194.9527,200.8592,0,1,1,1,1,SoundStimuli/Irreplaceable_Beyonce_Cover5S.wav,,,,,,,,,,,,,,,,,,,,,,,,,,,,,,,,,,,,,,,,,,,,,,,,,,,,,,,,,
,,,,,399922,001,2024-06-14_12h30.14.629,experiment,2024.1.5,MacIntel,60.24096386,62fd19522ad91588ac9881e7,666b5f73dbba3f0cd916b177,666c6fe063916772c9816e34,,,,,,,,,,,,,,,,,,,,,,,,,,,,,,,,,,,,,,,,,,,,200.8594,201.8579,6.998525347,0.9862,0,7,7,19,1,song_indices/Irreplaceable_Beyonce.csv,,,,,,,,,,,,,,,,,,,,,,,,,,,,,,,,,,,,,,,,,,,,,,,
,,,,,399922,001,2024-06-14_12h30.14.629,experiment,2024.1.5,MacIntel,60.24096386,62fd19522ad91588ac9881e7,666b5f73dbba3f0cd916b177,666c6fe063916772c9816e34,,,,,,,,,,,,,,,,,,,,,,,,,,,,,,,,,,,,201.8586,208.2422,0,0,0,0,1,SoundStimuli/FlashdanceWhatAFeeling_IreneCara_Original5S.wav,,,,,,,,,,,,,,,,,,,,,,,,,,,,,,,,,,,,,,,,,,,,,,,,,,,,,,,,,
,,,,,399922,001,2024-06-14_12h30.14.629,experiment,2024.1.5,MacIntel,60.24096386,62fd19522ad91588ac9881e7,666b5f73dbba3f0cd916b177,666c6fe063916772c9816e34,,,,,,,,,,,,,,,,,,,,,,,,,,,,,,,,,,,,208.2526,215.5249,0,1,1,1,1,SoundStimuli/FlashdanceWhatAFeeling_IreneCara_Cover5S.wav,,,,,,,,,,,,,,,,,,,,,,,,,,,,,,,,,,,,,,,,,,,,,,,,,,,,,,,,,
,,,,,399922,001,2024-06-14_12h30.14.629,experiment,2024.1.5,MacIntel,60.24096386,62fd19522ad91588ac9881e7,666b5f73dbba3f0cd916b177,666c6fe063916772c9816e34,,,,,,,,,,,,,,,,,,,,,,,,,,,,,,,,,,,,,,,,,,,,215.525,216.6244,6.99616721,1.0889,0,8,8,18,1,song_indices/FlashdanceWhatAFeeling_IreneCara.csv,,,,,,,,,,,,,,,,,,,,,,,,,,,,,,,,,,,,,,,,,,,,,,,
,,,,,399922,001,2024-06-14_12h30.14.629,experiment,2024.1.5,MacIntel,60.24096386,62fd19522ad91588ac9881e7,666b5f73dbba3f0cd916b177,666c6fe063916772c9816e34,,,,,,,,,,,,,,,,,,,,,,,,,,,,,,,,,,,,216.6252,222.8419,0,0,0,0,1,SoundStimuli/TikTok_Kesha_Original5S.wav,,,,,,,,,,,,,,,,,,,,,,,,,,,,,,,,,,,,,,,,,,,,,,,,,,,,,,,,,
,,,,,399922,001,2024-06-14_12h30.14.629,experiment,2024.1.5,MacIntel,60.24096386,62fd19522ad91588ac9881e7,666b5f73dbba3f0cd916b177,666c6fe063916772c9816e34,,,,,,,,,,,,,,,,,,,,,,,,,,,,,,,,,,,,222.8516,230.3744,0,1,1,1,1,SoundStimuli/TikTok_Kesha_Cover5S.wav,,,,,,,,,,,,,,,,,,,,,,,,,,,,,,,,,,,,,,,,,,,,,,,,,,,,,,,,,
,,,,,399922,001,2024-06-14_12h30.14.629,experiment,2024.1.5,MacIntel,60.24096386,62fd19522ad91588ac9881e7,666b5f73dbba3f0cd916b177,666c6fe063916772c9816e34,,,,,,,,,,,,,,,,,,,,,,,,,,,,,,,,,,,,,,,,,,,,230.3745,232.6575,6.917066956,2.2707,0,9,9,3,1,song_indices/TikTok_Kesha.csv,,,,,,,,,,,,,,,,,,,,,,,,,,,,,,,,,,,,,,,,,,,,,,,
,,,,,399922,001,2024-06-14_12h30.14.629,experiment,2024.1.5,MacIntel,60.24096386,62fd19522ad91588ac9881e7,666b5f73dbba3f0cd916b177,666c6fe063916772c9816e34,,,,,,,,,,,,,,,,,,,,,,,,,,,,,,,,,,,,232.6582,238.6918,0,0,0,0,1,SoundStimuli/HowDoILive_LeAnnRimes_Original5S.wav,,,,,,,,,,,,,,,,,,,,,,,,,,,,,,,,,,,,,,,,,,,,,,,,,,,,,,,,,
,,,,,399922,001,2024-06-14_12h30.14.629,experiment,2024.1.5,MacIntel,60.24096386,62fd19522ad91588ac9881e7,666b5f73dbba3f0cd916b177,666c6fe063916772c9816e34,,,,,,,,,,,,,,,,,,,,,,,,,,,,,,,,,,,,238.7013,244.1749,0,1,1,1,1,SoundStimuli/HowDoILive_LeAnnRimes_Cover5S.wav,,,,,,,,,,,,,,,,,,,,,,,,,,,,,,,,,,,,,,,,,,,,,,,,,,,,,,,,,
,,,,,399922,001,2024-06-14_12h30.14.629,experiment,2024.1.5,MacIntel,60.24096386,62fd19522ad91588ac9881e7,666b5f73dbba3f0cd916b177,666c6fe063916772c9816e34,,,,,,,,,,,,,,,,,,,,,,,,,,,,,,,,,,,,,,,,,,,,244.1752,247.8413,6.981382751,3.6519,0,10,10,17,1,song_indices/HowDoILive_LeAnnRimes.csv,,,,,,,,,,,,,,,,,,,,,,,,,,,,,,,,,,,,,,,,,,,,,,,
,,,,,399922,001,2024-06-14_12h30.14.629,experiment,2024.1.5,MacIntel,60.24096386,62fd19522ad91588ac9881e7,666b5f73dbba3f0cd916b177,666c6fe063916772c9816e34,,,,,,,,,,,,,,,,,,,,,,,,,,,,,,,,,,,,247.8419,254.0417,0,0,0,0,1,SoundStimuli/SaveYourTears_TheWeekndArianaGrande_Original5S.wav,,,,,,,,,,,,,,,,,,,,,,,,,,,,,,,,,,,,,,,,,,,,,,,,,,,,,,,,,
,,,,,399922,001,2024-06-14_12h30.14.629,experiment,2024.1.5,MacIntel,60.24096386,62fd19522ad91588ac9881e7,666b5f73dbba3f0cd916b177,666c6fe063916772c9816e34,,,,,,,,,,,,,,,,,,,,,,,,,,,,,,,,,,,,254.052,259.9413,0,1,1,1,1,SoundStimuli/SaveYourTears_TheWeekndArianaGrande_Cover5S.wav,,,,,,,,,,,,,,,,,,,,,,,,,,,,,,,,,,,,,,,,,,,,,,,,,,,,,,,,,
,,,,,399922,001,2024-06-14_12h30.14.629,experiment,2024.1.5,MacIntel,60.24096386,62fd19522ad91588ac9881e7,666b5f73dbba3f0cd916b177,666c6fe063916772c9816e34,,,,,,,,,,,,,,,,,,,,,,,,,,,,,,,,,,,,,,,,,,,,259.9414,262.107,6.278216553,2.1541,0,11,11,12,1,song_indices/SaveYourTears_TheWeekndArianaGrande.csv,,,,,,,,,,,,,,,,,,,,,,,,,,,,,,,,,,,,,,,,,,,,,,,
,,,,,399922,001,2024-06-14_12h30.14.629,experiment,2024.1.5,MacIntel,60.24096386,62fd19522ad91588ac9881e7,666b5f73dbba3f0cd916b177,666c6fe063916772c9816e34,,,,,,,,,,,,,,,,,,,,,,,,,,,,,,,,,,,,262.1076,268.5739,0,0,0,1,1,SoundStimuli/Weak_SWV_Cover5S.wav,,,,,,,,,,,,,,,,,,,,,,,,,,,,,,,,,,,,,,,,,,,,,,,,,,,,,,,,,
,,,,,399922,001,2024-06-14_12h30.14.629,experiment,2024.1.5,MacIntel,60.24096386,62fd19522ad91588ac9881e7,666b5f73dbba3f0cd916b177,666c6fe063916772c9816e34,,,,,,,,,,,,,,,,,,,,,,,,,,,,,,,,,,,,268.5841,274.6574,0,1,1,0,1,SoundStimuli/Weak_SWV_Original5S.wav,,,,,,,,,,,,,,,,,,,,,,,,,,,,,,,,,,,,,,,,,,,,,,,,,,,,,,,,,
,,,,,399922,001,2024-06-14_12h30.14.629,experiment,2024.1.5,MacIntel,60.24096386,62fd19522ad91588ac9881e7,666b5f73dbba3f0cd916b177,666c6fe063916772c9816e34,,,,,,,,,,,,,,,,,,,,,,,,,,,,,,,,,,,,,,,,,,,,274.6575,277.2238,6.102490888,2.5552,0,12,12,6,1,song_indices/Weak_SWV.csv,,,,,,,,,,,,,,,,,,,,,,,,,,,,,,,,,,,,,,,,,,,,,,,
,,,,,399922,001,2024-06-14_12h30.14.629,experiment,2024.1.5,MacIntel,60.24096386,62fd19522ad91588ac9881e7,666b5f73dbba3f0cd916b177,666c6fe063916772c9816e34,,,,,,,,,,,,,,,,,,,,,,,,,,,,,,,,,,,,277.2245,283.3413,0,0,0,0,1,SoundStimuli/JoyToTheWorld_ThreeDogNight_Original5S.wav,,,,,,,,,,,,,,,,,,,,,,,,,,,,,,,,,,,,,,,,,,,,,,,,,,,,,,,,,
,,,,,399922,001,2024-06-14_12h30.14.629,experiment,2024.1.5,MacIntel,60.24096386,62fd19522ad91588ac9881e7,666b5f73dbba3f0cd916b177,666c6fe063916772c9816e34,,,,,,,,,,,,,,,,,,,,,,,,,,,,,,,,,,,,283.3517,288.4738,0,1,1,1,1,SoundStimuli/JoyToTheWorld_ThreeDogNight_Cover5S.wav,,,,,,,,,,,,,,,,,,,,,,,,,,,,,,,,,,,,,,,,,,,,,,,,,,,,,,,,,
,,,,,399922,001,2024-06-14_12h30.14.629,experiment,2024.1.5,MacIntel,60.24096386,62fd19522ad91588ac9881e7,666b5f73dbba3f0cd916b177,666c6fe063916772c9816e34,,,,,,,,,,,,,,,,,,,,,,,,,,,,,,,,,,,,,,,,,,,,288.4739,289.9572,5.984813581,1.4717,0,13,13,8,1,song_indices/JoyToTheWorld_ThreeDogNight.csv,,,,,,,,,,,,,,,,,,,,,,,,,,,,,,,,,,,,,,,,,,,,,,,
,,,,,399922,001,2024-06-14_12h30.14.629,experiment,2024.1.5,MacIntel,60.24096386,62fd19522ad91588ac9881e7,666b5f73dbba3f0cd916b177,666c6fe063916772c9816e34,,,,,,,,,,,,,,,,,,,,,,,,,,,,,,,,,,,,289.9579,297.3738,0,0,0,0,1,SoundStimuli/Kiss_Prince_Original5S.wav,,,,,,,,,,,,,,,,,,,,,,,,,,,,,,,,,,,,,,,,,,,,,,,,,,,,,,,,,
,,,,,399922,001,2024-06-14_12h30.14.629,experiment,2024.1.5,MacIntel,60.24096386,62fd19522ad91588ac9881e7,666b5f73dbba3f0cd916b177,666c6fe063916772c9816e34,,,,,,,,,,,,,,,,,,,,,,,,,,,,,,,,,,,,297.3845,303.6571,0,1,1,1,1,SoundStimuli/Kiss_Prince_Cover5S.wav,,,,,,,,,,,,,,,,,,,,,,,,,,,,,,,,,,,,,,,,,,,,,,,,,,,,,,,,,
,,,,,399922,001,2024-06-14_12h30.14.629,experiment,2024.1.5,MacIntel,60.24096386,62fd19522ad91588ac9881e7,666b5f73dbba3f0cd916b177,666c6fe063916772c9816e34,,,,,,,,,,,,,,,,,,,,,,,,,,,,,,,,,,,,,,,,,,,,303.6573,305.9908,5.956774902,2.3201,0,14,14,14,1,song_indices/Kiss_Prince.csv,,,,,,,,,,,,,,,,,,,,,,,,,,,,,,,,,,,,,,,,,,,,,,,
,,,,,399922,001,2024-06-14_12h30.14.629,experiment,2024.1.5,MacIntel,60.24096386,62fd19522ad91588ac9881e7,666b5f73dbba3f0cd916b177,666c6fe063916772c9816e34,,,,,,,,,,,,,,,,,,,,,,,,,,,,,,,,,,,,305.9914,311.5079,0,0,0,1,1,SoundStimuli/LeFreak_Chic_Cover5S.wav,,,,,,,,,,,,,,,,,,,,,,,,,,,,,,,,,,,,,,,,,,,,,,,,,,,,,,,,,
,,,,,399922,001,2024-06-14_12h30.14.629,experiment,2024.1.5,MacIntel,60.24096386,62fd19522ad91588ac9881e7,666b5f73dbba3f0cd916b177,666c6fe063916772c9816e34,,,,,,,,,,,,,,,,,,,,,,,,,,,,,,,,,,,,311.5182,317.5407,0,1,1,0,1,SoundStimuli/LeFreak_Chic_Original5S.wav,,,,,,,,,,,,,,,,,,,,,,,,,,,,,,,,,,,,,,,,,,,,,,,,,,,,,,,,,
,,,,,399922,001,2024-06-14_12h30.14.629,experiment,2024.1.5,MacIntel,60.24096386,62fd19522ad91588ac9881e7,666b5f73dbba3f0cd916b177,666c6fe063916772c9816e34,,,,,,,,,,,,,,,,,,,,,,,,,,,,,,,,,,,,,,,,,,,,317.5408,319.8898,6.331806946,2.3381,0,15,15,11,1,song_indices/LeFreak_Chic.csv,,,,,,,,,,,,,,,,,,,,,,,,,,,,,,,,,,,,,,,,,,,,,,,
,,,,,399922,001,2024-06-14_12h30.14.629,experiment,2024.1.5,MacIntel,60.24096386,62fd19522ad91588ac9881e7,666b5f73dbba3f0cd916b177,666c6fe063916772c9816e34,,,,,,,,,,,,,,,,,,,,,,,,,,,,,,,,,,,,319.8905,325.8237,0,0,0,0,1,SoundStimuli/Respect_ArethaFranklin_Original5S.wav,,,,,,,,,,,,,,,,,,,,,,,,,,,,,,,,,,,,,,,,,,,,,,,,,,,,,,,,,
,,,,,399922,001,2024-06-14_12h30.14.629,experiment,2024.1.5,MacIntel,60.24096386,62fd19522ad91588ac9881e7,666b5f73dbba3f0cd916b177,666c6fe063916772c9816e34,,,,,,,,,,,,,,,,,,,,,,,,,,,,,,,,,,,,325.8336,331.89,0,1,1,1,1,SoundStimuli/Respect_ArethaFranklin_Cover5S.wav,,,,,,,,,,,,,,,,,,,,,,,,,,,,,,,,,,,,,,,,,,,,,,,,,,,,,,,,,
,,,,,399922,001,2024-06-14_12h30.14.629,experiment,2024.1.5,MacIntel,60.24096386,62fd19522ad91588ac9881e7,666b5f73dbba3f0cd916b177,666c6fe063916772c9816e34,,,,,,,,,,,,,,,,,,,,,,,,,,,,,,,,,,,,,,,,,,,,331.8901,333.1236,5.738248989,1.2213,0,16,16,0,1,song_indices/Respect_ArethaFranklin.csv,,,,,,,,,,,,,,,,,,,,,,,,,,,,,,,,,,,,,,,,,,,,,,,
,,,,,399922,001,2024-06-14_12h30.14.629,experiment,2024.1.5,MacIntel,60.24096386,62fd19522ad91588ac9881e7,666b5f73dbba3f0cd916b177,666c6fe063916772c9816e34,,,,,,,,,,,,,,,,,,,,,,,,,,,,,,,,,,,,333.1242,339.2406,0,0,0,1,1,SoundStimuli/TossinAndTurnin_BobbyLewis_Cover5S.wav,,,,,,,,,,,,,,,,,,,,,,,,,,,,,,,,,,,,,,,,,,,,,,,,,,,,,,,,,
,,,,,399922,001,2024-06-14_12h30.14.629,experiment,2024.1.5,MacIntel,60.24096386,62fd19522ad91588ac9881e7,666b5f73dbba3f0cd916b177,666c6fe063916772c9816e34,,,,,,,,,,,,,,,,,,,,,,,,,,,,,,,,,,,,339.2508,345.3068,0,1,1,0,1,SoundStimuli/TossinAndTurnin_BobbyLewis_Original5S.wav,,,,,,,,,,,,,,,,,,,,,,,,,,,,,,,,,,,,,,,,,,,,,,,,,,,,,,,,,
,,,,,399922,001,2024-06-14_12h30.14.629,experiment,2024.1.5,MacIntel,60.24096386,62fd19522ad91588ac9881e7,666b5f73dbba3f0cd916b177,666c6fe063916772c9816e34,,,,,,,,,,,,,,,,,,,,,,,,,,,,,,,,,,,,,,,,,,,,345.3068,346.3063,5.664890398,0.9899,0,17,17,13,1,song_indices/TossinAndTurnin_BobbyLewis.csv,,,,,,,,,,,,,,,,,,,,,,,,,,,,,,,,,,,,,,,,,,,,,,,
,,,,,399922,001,2024-06-14_12h30.14.629,experiment,2024.1.5,MacIntel,60.24096386,62fd19522ad91588ac9881e7,666b5f73dbba3f0cd916b177,666c6fe063916772c9816e34,,,,,,,,,,,,,,,,,,,,,,,,,,,,,,,,,,,,346.3068,354.1238,0,0,0,1,1,SoundStimuli/Dreams_FleetwoodMac_Cover5S.wav,,,,,,,,,,,,,,,,,,,,,,,,,,,,,,,,,,,,,,,,,,,,,,,,,,,,,,,,,
,,,,,399922,001,2024-06-14_12h30.14.629,experiment,2024.1.5,MacIntel,60.24096386,62fd19522ad91588ac9881e7,666b5f73dbba3f0cd916b177,666c6fe063916772c9816e34,,,,,,,,,,,,,,,,,,,,,,,,,,,,,,,,,,,,354.1348,360.6403,0,1,1,0,1,SoundStimuli/Dreams_FleetwoodMac_Original5S.wav,,,,,,,,,,,,,,,,,,,,,,,,,,,,,,,,,,,,,,,,,,,,,,,,,,,,,,,,,
,,,,,399922,001,2024-06-14_12h30.14.629,experiment,2024.1.5,MacIntel,60.24096386,62fd19522ad91588ac9881e7,666b5f73dbba3f0cd916b177,666c6fe063916772c9816e34,,,,,,,,,,,,,,,,,,,,,,,,,,,,,,,,,,,,,,,,,,,,360.6405,363.0901,6.390099226,2.4359,0,18,18,1,1,song_indices/Dreams_FleetwoodMac.csv,,,,,,,,,,,,,,,,,,,,,,,,,,,,,,,,,,,,,,,,,,,,,,,
,,,,,399922,001,2024-06-14_12h30.14.629,experiment,2024.1.5,MacIntel,60.24096386,62fd19522ad91588ac9881e7,666b5f73dbba3f0cd916b177,666c6fe063916772c9816e34,,,,,,,,,,,,,,,,,,,,,,,,,,,,,,,,,,,,363.0908,369.889,0,0,0,1,1,SoundStimuli/BlindingLights_TheWeeknd_Cover5S.wav,,,,,,,,,,,,,,,,,,,,,,,,,,,,,,,,,,,,,,,,,,,,,,,,,,,,,,,,,
,,,,,399922,001,2024-06-14_12h30.14.629,experiment,2024.1.5,MacIntel,60.24096386,62fd19522ad91588ac9881e7,666b5f73dbba3f0cd916b177,666c6fe063916772c9816e34,,,,,,,,,,,,,,,,,,,,,,,,,,,,,,,,,,,,369.8967,376.3897,0,1,1,0,1,SoundStimuli/BlindingLights_TheWeeknd_Original5S.wav,,,,,,,,,,,,,,,,,,,,,,,,,,,,,,,,,,,,,,,,,,,,,,,,,,,,,,,,,
,,,,,399922,001,2024-06-14_12h30.14.629,experiment,2024.1.5,MacIntel,60.24096386,62fd19522ad91588ac9881e7,666b5f73dbba3f0cd916b177,666c6fe063916772c9816e34,,,,,,,,,,,,,,,,,,,,,,,,,,,,,,,,,,,,,,,,,,,,376.3897,377.5235,6.857017517,1.1236,0,19,19,21,1,song_indices/BlindingLights_TheWeeknd.csv,,,,,,,,,,,,,,,,,,,,,,,,,,,,,,,,,,,,,,,,,,,,,,,
,,,,,399922,001,2024-06-14_12h30.14.629,experiment,2024.1.5,MacIntel,60.24096386,62fd19522ad91588ac9881e7,666b5f73dbba3f0cd916b177,666c6fe063916772c9816e34,,,,,,,,,,,,,,,,,,,,,,,,,,,,,,,,,,,,377.5244,383.6225,0,0,0,0,1,SoundStimuli/UnbreakMyHeart_ToniBraxton_Original5S.wav,,,,,,,,,,,,,,,,,,,,,,,,,,,,,,,,,,,,,,,,,,,,,,,,,,,,,,,,,
,,,,,399922,001,2024-06-14_12h30.14.629,experiment,2024.1.5,MacIntel,60.24096386,62fd19522ad91588ac9881e7,666b5f73dbba3f0cd916b177,666c6fe063916772c9816e34,,,,,,,,,,,,,,,,,,,,,,,,,,,,,,,,,,,,383.6329,387.6056,0,1,1,1,1,SoundStimuli/UnbreakMyHeart_ToniBraxton_Cover5S.wav,,,,,,,,,,,,,,,,,,,,,,,,,,,,,,,,,,,,,,,,,,,,,,,,,,,,,,,,,
,,,,,399922,001,2024-06-14_12h30.14.629,experiment,2024.1.5,MacIntel,60.24096386,62fd19522ad91588ac9881e7,666b5f73dbba3f0cd916b177,666c6fe063916772c9816e34,,,,,,,,,,,,,,,,,,,,,,,,,,,,,,,,,,,,,,,,,,,,387.6058,390.2898,5.621733093,2.6716,0,20,20,16,1,song_indices/UnbreakMyHeart_ToniBraxton.csv,,,,,,,,,,,,,,,,,,,,,,,,,,,,,,,,,,,,,,,,,,,,,,,
,,,,,399922,001,2024-06-14_12h30.14.629,experiment,2024.1.5,MacIntel,60.24096386,62fd19522ad91588ac9881e7,666b5f73dbba3f0cd916b177,666c6fe063916772c9816e34,,,,,,,,,,,,,,,,,,,,,,,,,,,,,,,,,,,,390.2902,397.0888,0,0,0,1,1,SoundStimuli/SomebodyThatIUsedtoKnow_Gotye_Cover5S.wav,,,,,,,,,,,,,,,,,,,,,,,,,,,,,,,,,,,,,,,,,,,,,,,,,,,,,,,,,
,,,,,399922,001,2024-06-14_12h30.14.629,experiment,2024.1.5,MacIntel,60.24096386,62fd19522ad91588ac9881e7,666b5f73dbba3f0cd916b177,666c6fe063916772c9816e34,,,,,,,,,,,,,,,,,,,,,,,,,,,,,,,,,,,,397.0975,404.3227,0,1,1,0,1,SoundStimuli/SomebodyThatIUsedtoKnow_Gotye_Original5S.wav,,,,,,,,,,,,,,,,,,,,,,,,,,,,,,,,,,,,,,,,,,,,,,,,,,,,,,,,,
,,,,,399922,001,2024-06-14_12h30.14.629,experiment,2024.1.5,MacIntel,60.24096386,62fd19522ad91588ac9881e7,666b5f73dbba3f0cd916b177,666c6fe063916772c9816e34,,,,,,,,,,,,,,,,,,,,,,,,,,,,,,,,,,,,,,,,,,,,404.3228,406.1067,6.423024205,1.7706,0,21,21,7,1,song_indices/SomebodyThatIUsedtoKnow_Gotye.csv,,,,,,,,,,,,,,,,,,,,,,,,,,,,,,,,,,,,,,,,,,,,,,,
,,,,,399922,001,2024-06-14_12h30.14.629,experiment,2024.1.5,MacIntel,60.24096386,62fd19522ad91588ac9881e7,666b5f73dbba3f0cd916b177,666c6fe063916772c9816e34,,,,,,,,,,,,,,,,,,,,,,,,,,,,,,,,,,,,406.1076,412.1889,0,0,0,0,1,SoundStimuli/YouLightUpMyLife_DebbyBoone_Original5S.wav,,,,,,,,,,,,,,,,,,,,,,,,,,,,,,,,,,,,,,,,,,,,,,,,,,,,,,,,,
,,,,,399922,001,2024-06-14_12h30.14.629,experiment,2024.1.5,MacIntel,60.24096386,62fd19522ad91588ac9881e7,666b5f73dbba3f0cd916b177,666c6fe063916772c9816e34,,,,,,,,,,,,,,,,,,,,,,,,,,,,,,,,,,,,412.1987,418.6395,0,1,1,1,1,SoundStimuli/YouLightUpMyLife_DebbyBoone_Cover5S.wav,,,,,,,,,,,,,,,,,,,,,,,,,,,,,,,,,,,,,,,,,,,,,,,,,,,,,,,,,
,,,,,399922,001,2024-06-14_12h30.14.629,experiment,2024.1.5,MacIntel,60.24096386,62fd19522ad91588ac9881e7,666b5f73dbba3f0cd916b177,666c6fe063916772c9816e34,,,,,,,,,,,,,,,,,,,,,,,,,,,,,,,,,,,,,,,,,,,,418.6397,419.722,6.999164254,1.0738,0,22,22,4,1,song_indices/YouLightUpMyLife_DebbyBoone.csv,,,,,,,,,,,,,,,,,,,,,,,,,,,,,,,,,,,,,,,,,,,,,,,
,,,,,399922,001,2024-06-14_12h30.14.629,experiment,2024.1.5,MacIntel,60.24096386,62fd19522ad91588ac9881e7,666b5f73dbba3f0cd916b177,666c6fe063916772c9816e34,,,,,,,,,,,,,,,,,,,,,,,,,,,,,,,,,,,,419.7226,426.006,0,0,0,0,1,SoundStimuli/LetsGetItOn_MarvinGaye_Original5S.wav,,,,,,,,,,,,,,,,,,,,,,,,,,,,,,,,,,,,,,,,,,,,,,,,,,,,,,,,,
,,,,,399922,001,2024-06-14_12h30.14.629,experiment,2024.1.5,MacIntel,60.24096386,62fd19522ad91588ac9881e7,666b5f73dbba3f0cd916b177,666c6fe063916772c9816e34,,,,,,,,,,,,,,,,,,,,,,,,,,,,,,,,,,,,426.0163,432.6564,0,1,1,1,1,SoundStimuli/LetsGetItOn_MarvinGaye_Cover5S.wav,,,,,,,,,,,,,,,,,,,,,,,,,,,,,,,,,,,,,,,,,,,,,,,,,,,,,,,,,
,,,,,399922,001,2024-06-14_12h30.14.629,experiment,2024.1.5,MacIntel,60.24096386,62fd19522ad91588ac9881e7,666b5f73dbba3f0cd916b177,666c6fe063916772c9816e34,,,,,,,,,,,,,,,,,,,,,,,,,,,,,,,,,,,,,,,,,,,,432.6565,434.5061,5.895025199,1.8365,0,23,23,20,1,song_indices/LetsGetItOn_MarvinGaye.csv,,,,,,,,,,,,,,,,,,,,,,,,,,,,,,,,,,,,,,,,,,,,,,,
,,,,,399922,001,2024-06-14_12h30.14.629,experiment,2024.1.5,MacIntel,60.24096386,62fd19522ad91588ac9881e7,666b5f73dbba3f0cd916b177,666c6fe063916772c9816e34,,,,,,,,,,,,,,,,,,,,,,,,,,,,,,,,,,,,,,,,,,,,,,,,,,,,,,434.5066,442.8465,space,8.3295,,0,0,0,2,1,choose_song_b3.csv,,,,,,,,,,,,,,,,,,,,,,,,,,,,,,,,,,,,
,,,,,399922,001,2024-06-14_12h30.14.629,experiment,2024.1.5,MacIntel,60.24096386,62fd19522ad91588ac9881e7,666b5f73dbba3f0cd916b177,666c6fe063916772c9816e34,,,,,,,,,,,,,,,,,,,,,,,,,,,,,,,,,,,,442.848,448.9387,0,0,0,0,1,SoundStimuli/HeatWaves_GlassAnimals_Original5S.wav,,,,,,,,,,,,,,,,,,,,,,,,,,,,,,,,,,,,,,,,,,,,,,,,,,,,,,,,,
,,,,,399922,001,2024-06-14_12h30.14.629,experiment,2024.1.5,MacIntel,60.24096386,62fd19522ad91588ac9881e7,666b5f73dbba3f0cd916b177,666c6fe063916772c9816e34,,,,,,,,,,,,,,,,,,,,,,,,,,,,,,,,,,,,448.9484,457.5385,0,1,1,1,1,SoundStimuli/HeatWaves_GlassAnimals_Cover5S.wav,,,,,,,,,,,,,,,,,,,,,,,,,,,,,,,,,,,,,,,,,,,,,,,,,,,,,,,,,
,,,,,399922,001,2024-06-14_12h30.14.629,experiment,2024.1.5,MacIntel,60.24096386,62fd19522ad91588ac9881e7,666b5f73dbba3f0cd916b177,666c6fe063916772c9816e34,,,,,,,,,,,,,,,,,,,,,,,,,,,,,,,,,,,,,,,,,,,,457.5385,459.056,6.519268363,1.5054,0,0,0,10,1,song_indices/HeatWaves_GlassAnimals.csv,,,,,,,,,,,,,,,,,,,,,,,,,,,,,,,,,,,,,,,,,,,,,,,
,,,,,399922,001,2024-06-14_12h30.14.629,experiment,2024.1.5,MacIntel,60.24096386,62fd19522ad91588ac9881e7,666b5f73dbba3f0cd916b177,666c6fe063916772c9816e34,,,,,,,,,,,,,,,,,,,,,,,,,,,,,,,,,,,,459.0571,465.0883,0,0,0,0,1,SoundStimuli/StayinAlive_BeeGees_Original5S.wav,,,,,,,,,,,,,,,,,,,,,,,,,,,,,,,,,,,,,,,,,,,,,,,,,,,,,,,,,
,,,,,399922,001,2024-06-14_12h30.14.629,experiment,2024.1.5,MacIntel,60.24096386,62fd19522ad91588ac9881e7,666b5f73dbba3f0cd916b177,666c6fe063916772c9816e34,,,,,,,,,,,,,,,,,,,,,,,,,,,,,,,,,,,,465.0967,470.9386,0,1,1,1,1,SoundStimuli/StayinAlive_BeeGees_Cover5S.wav,,,,,,,,,,,,,,,,,,,,,,,,,,,,,,,,,,,,,,,,,,,,,,,,,,,,,,,,,
,,,,,399922,001,2024-06-14_12h30.14.629,experiment,2024.1.5,MacIntel,60.24096386,62fd19522ad91588ac9881e7,666b5f73dbba3f0cd916b177,666c6fe063916772c9816e34,,,,,,,,,,,,,,,,,,,,,,,,,,,,,,,,,,,,,,,,,,,,470.9387,472.4883,6.947744315,1.5393,0,1,1,2,1,song_indices/StayinAlive_BeeGees.csv,,,,,,,,,,,,,,,,,,,,,,,,,,,,,,,,,,,,,,,,,,,,,,,
,,,,,399922,001,2024-06-14_12h30.14.629,experiment,2024.1.5,MacIntel,60.24096386,62fd19522ad91588ac9881e7,666b5f73dbba3f0cd916b177,666c6fe063916772c9816e34,,,,,,,,,,,,,,,,,,,,,,,,,,,,,,,,,,,,472.4889,478.7389,0,0,0,0,1,SoundStimuli/LivinOnAPrayer_BonJovi_Original5S.wav,,,,,,,,,,,,,,,,,,,,,,,,,,,,,,,,,,,,,,,,,,,,,,,,,,,,,,,,,
,,,,,399922,001,2024-06-14_12h30.14.629,experiment,2024.1.5,MacIntel,60.24096386,62fd19522ad91588ac9881e7,666b5f73dbba3f0cd916b177,666c6fe063916772c9816e34,,,,,,,,,,,,,,,,,,,,,,,,,,,,,,,,,,,,478.7483,486.4216,0,1,1,1,1,SoundStimuli/LivinOnAPrayer_BonJovi_Cover5S.wav,,,,,,,,,,,,,,,,,,,,,,,,,,,,,,,,,,,,,,,,,,,,,,,,,,,,,,,,,
,,,,,399922,001,2024-06-14_12h30.14.629,experiment,2024.1.5,MacIntel,60.24096386,62fd19522ad91588ac9881e7,666b5f73dbba3f0cd916b177,666c6fe063916772c9816e34,,,,,,,,,,,,,,,,,,,,,,,,,,,,,,,,,,,,,,,,,,,,486.4217,488.2044,5.517023577,1.7711,0,2,2,16,1,song_indices/LivinOnAPrayer_BonJovi.csv,,,,,,,,,,,,,,,,,,,,,,,,,,,,,,,,,,,,,,,,,,,,,,,
,,,,,399922,001,2024-06-14_12h30.14.629,experiment,2024.1.5,MacIntel,60.24096386,62fd19522ad91588ac9881e7,666b5f73dbba3f0cd916b177,666c6fe063916772c9816e34,,,,,,,,,,,,,,,,,,,,,,,,,,,,,,,,,,,,488.2049,494.3881,0,0,0,0,1,SoundStimuli/LikeAPrayer_Madonna_Original5S.wav,,,,,,,,,,,,,,,,,,,,,,,,,,,,,,,,,,,,,,,,,,,,,,,,,,,,,,,,,
,,,,,399922,001,2024-06-14_12h30.14.629,experiment,2024.1.5,MacIntel,60.24096386,62fd19522ad91588ac9881e7,666b5f73dbba3f0cd916b177,666c6fe063916772c9816e34,,,,,,,,,,,,,,,,,,,,,,,,,,,,,,,,,,,,494.3972,500.6056,0,1,1,1,1,SoundStimuli/LikeAPrayer_Madonna_Cover5S.wav,,,,,,,,,,,,,,,,,,,,,,,,,,,,,,,,,,,,,,,,,,,,,,,,,,,,,,,,,
,,,,,399922,001,2024-06-14_12h30.14.629,experiment,2024.1.5,MacIntel,60.24096386,62fd19522ad91588ac9881e7,666b5f73dbba3f0cd916b177,666c6fe063916772c9816e34,,,,,,,,,,,,,,,,,,,,,,,,,,,,,,,,,,,,,,,,,,,,500.6057,501.7381,6.241959708,1.1194,0,3,3,7,1,song_indices/LikeAPrayer_Madonna.csv,,,,,,,,,,,,,,,,,,,,,,,,,,,,,,,,,,,,,,,,,,,,,,,
,,,,,399922,001,2024-06-14_12h30.14.629,experiment,2024.1.5,MacIntel,60.24096386,62fd19522ad91588ac9881e7,666b5f73dbba3f0cd916b177,666c6fe063916772c9816e34,,,,,,,,,,,,,,,,,,,,,,,,,,,,,,,,,,,,501.7386,507.7056,0,0,0,0,1,SoundStimuli/BohemianRhapsody_Queen_Original5S.wav,,,,,,,,,,,,,,,,,,,,,,,,,,,,,,,,,,,,,,,,,,,,,,,,,,,,,,,,,
,,,,,399922,001,2024-06-14_12h30.14.629,experiment,2024.1.5,MacIntel,60.24096386,62fd19522ad91588ac9881e7,666b5f73dbba3f0cd916b177,666c6fe063916772c9816e34,,,,,,,,,,,,,,,,,,,,,,,,,,,,,,,,,,,,507.7156,511.7885,0,1,1,1,1,SoundStimuli/BohemianRhapsody_Queen_Cover5S.wav,,,,,,,,,,,,,,,,,,,,,,,,,,,,,,,,,,,,,,,,,,,,,,,,,,,,,,,,,
,,,,,399922,001,2024-06-14_12h30.14.629,experiment,2024.1.5,MacIntel,60.24096386,62fd19522ad91588ac9881e7,666b5f73dbba3f0cd916b177,666c6fe063916772c9816e34,,,,,,,,,,,,,,,,,,,,,,,,,,,,,,,,,,,,,,,,,,,,511.7886,514.0553,5.152833339,2.2557,0,4,4,18,1,song_indices/BohemianRhapsody_Queen.csv,,,,,,,,,,,,,,,,,,,,,,,,,,,,,,,,,,,,,,,,,,,,,,,
,,,,,399922,001,2024-06-14_12h30.14.629,experiment,2024.1.5,MacIntel,60.24096386,62fd19522ad91588ac9881e7,666b5f73dbba3f0cd916b177,666c6fe063916772c9816e34,,,,,,,,,,,,,,,,,,,,,,,,,,,,,,,,,,,,514.0565,520.3211,0,0,0,1,1,SoundStimuli/MackTheKnife_BobbyDarin_Cover5S.wav,,,,,,,,,,,,,,,,,,,,,,,,,,,,,,,,,,,,,,,,,,,,,,,,,,,,,,,,,
,,,,,399922,001,2024-06-14_12h30.14.629,experiment,2024.1.5,MacIntel,60.24096386,62fd19522ad91588ac9881e7,666b5f73dbba3f0cd916b177,666c6fe063916772c9816e34,,,,,,,,,,,,,,,,,,,,,,,,,,,,,,,,,,,,520.3312,526.4713,0,1,1,0,1,SoundStimuli/MackTheKnife_BobbyDarin_Original5S.wav,,,,,,,,,,,,,,,,,,,,,,,,,,,,,,,,,,,,,,,,,,,,,,,,,,,,,,,,,
,,,,,399922,001,2024-06-14_12h30.14.629,experiment,2024.1.5,MacIntel,60.24096386,62fd19522ad91588ac9881e7,666b5f73dbba3f0cd916b177,666c6fe063916772c9816e34,,,,,,,,,,,,,,,,,,,,,,,,,,,,,,,,,,,,,,,,,,,,526.4714,527.6219,4.484955488,1.1373,0,5,5,21,1,song_indices/MackTheKnife_BobbyDarin.csv,,,,,,,,,,,,,,,,,,,,,,,,,,,,,,,,,,,,,,,,,,,,,,,
,,,,,399922,001,2024-06-14_12h30.14.629,experiment,2024.1.5,MacIntel,60.24096386,62fd19522ad91588ac9881e7,666b5f73dbba3f0cd916b177,666c6fe063916772c9816e34,,,,,,,,,,,,,,,,,,,,,,,,,,,,,,,,,,,,527.6228,534.1882,0,0,0,0,1,SoundStimuli/Despacito_LuisFonsiDaddyYankee_Original5S.wav,,,,,,,,,,,,,,,,,,,,,,,,,,,,,,,,,,,,,,,,,,,,,,,,,,,,,,,,,
,,,,,399922,001,2024-06-14_12h30.14.629,experiment,2024.1.5,MacIntel,60.24096386,62fd19522ad91588ac9881e7,666b5f73dbba3f0cd916b177,666c6fe063916772c9816e34,,,,,,,,,,,,,,,,,,,,,,,,,,,,,,,,,,,,534.1965,540.7719,0,1,1,1,1,SoundStimuli/Despacito_LuisFonsiDaddyYankee_Cover5S.wav,,,,,,,,,,,,,,,,,,,,,,,,,,,,,,,,,,,,,,,,,,,,,,,,,,,,,,,,,
,,,,,399922,001,2024-06-14_12h30.14.629,experiment,2024.1.5,MacIntel,60.24096386,62fd19522ad91588ac9881e7,666b5f73dbba3f0cd916b177,666c6fe063916772c9816e34,,,,,,,,,,,,,,,,,,,,,,,,,,,,,,,,,,,,,,,,,,,,540.7721,542.721,5.535066005,1.9358,0,6,6,11,1,song_indices/Despacito_LuisFonsiDaddyYankee.csv,,,,,,,,,,,,,,,,,,,,,,,,,,,,,,,,,,,,,,,,,,,,,,,
,,,,,399922,001,2024-06-14_12h30.14.629,experiment,2024.1.5,MacIntel,60.24096386,62fd19522ad91588ac9881e7,666b5f73dbba3f0cd916b177,666c6fe063916772c9816e34,,,,,,,,,,,,,,,,,,,,,,,,,,,,,,,,,,,,542.7219,548.855,0,0,0,1,1,SoundStimuli/Smooth_SantanaRobThomas_Cover5S.wav,,,,,,,,,,,,,,,,,,,,,,,,,,,,,,,,,,,,,,,,,,,,,,,,,,,,,,,,,
,,,,,399922,001,2024-06-14_12h30.14.629,experiment,2024.1.5,MacIntel,60.24096386,62fd19522ad91588ac9881e7,666b5f73dbba3f0cd916b177,666c6fe063916772c9816e34,,,,,,,,,,,,,,,,,,,,,,,,,,,,,,,,,,,,548.8653,555.0709,0,1,1,0,1,SoundStimuli/Smooth_SantanaRobThomas_Original5S.wav,,,,,,,,,,,,,,,,,,,,,,,,,,,,,,,,,,,,,,,,,,,,,,,,,,,,,,,,,
,,,,,399922,001,2024-06-14_12h30.14.629,experiment,2024.1.5,MacIntel,60.24096386,62fd19522ad91588ac9881e7,666b5f73dbba3f0cd916b177,666c6fe063916772c9816e34,,,,,,,,,,,,,,,,,,,,,,,,,,,,,,,,,,,,,,,,,,,,555.0711,556.7041,6.306886945,1.6218,0,7,7,4,1,song_indices/Smooth_SantanaRobThomas.csv,,,,,,,,,,,,,,,,,,,,,,,,,,,,,,,,,,,,,,,,,,,,,,,
,,,,,399922,001,2024-06-14_12h30.14.629,experiment,2024.1.5,MacIntel,60.24096386,62fd19522ad91588ac9881e7,666b5f73dbba3f0cd916b177,666c6fe063916772c9816e34,,,,,,,,,,,,,,,,,,,,,,,,,,,,,,,,,,,,556.7046,563.4047,0,0,0,1,1,SoundStimuli/BridgeOverTroubledWater_SimonAndGarfunkel_Cover5S.wav,,,,,,,,,,,,,,,,,,,,,,,,,,,,,,,,,,,,,,,,,,,,,,,,,,,,,,,,,
,,,,,399922,001,2024-06-14_12h30.14.629,experiment,2024.1.5,MacIntel,60.24096386,62fd19522ad91588ac9881e7,666b5f73dbba3f0cd916b177,666c6fe063916772c9816e34,,,,,,,,,,,,,,,,,,,,,,,,,,,,,,,,,,,,563.4151,569.7206,0,1,1,0,1,SoundStimuli/BridgeOverTroubledWater_SimonAndGarfunkel_Original5S.wav,,,,,,,,,,,,,,,,,,,,,,,,,,,,,,,,,,,,,,,,,,,,,,,,,,,,,,,,,
,,,,,399922,001,2024-06-14_12h30.14.629,experiment,2024.1.5,MacIntel,60.24096386,62fd19522ad91588ac9881e7,666b5f73dbba3f0cd916b177,666c6fe063916772c9816e34,,,,,,,,,,,,,,,,,,,,,,,,,,,,,,,,,,,,,,,,,,,,569.7209,570.5547,4.227965001,0.8201,0,8,8,1,1,song_indices/BridgeOverTroubledWater_SimonAndGarfunkel.csv,,,,,,,,,,,,,,,,,,,,,,,,,,,,,,,,,,,,,,,,,,,,,,,
,,,,,399922,001,2024-06-14_12h30.14.629,experiment,2024.1.5,MacIntel,60.24096386,62fd19522ad91588ac9881e7,666b5f73dbba3f0cd916b177,666c6fe063916772c9816e34,,,,,,,,,,,,,,,,,,,,,,,,,,,,,,,,,,,,570.5557,577.9377,0,0,0,0,1,SoundStimuli/OldTownRoad_LilNasX_Original5S.wav,,,,,,,,,,,,,,,,,,,,,,,,,,,,,,,,,,,,,,,,,,,,,,,,,,,,,,,,,
,,,,,399922,001,2024-06-14_12h30.14.629,experiment,2024.1.5,MacIntel,60.24096386,62fd19522ad91588ac9881e7,666b5f73dbba3f0cd916b177,666c6fe063916772c9816e34,,,,,,,,,,,,,,,,,,,,,,,,,,,,,,,,,,,,577.9466,584.4537,0,1,1,1,1,SoundStimuli/OldTownRoad_LilNasX_Cover5S.wav,,,,,,,,,,,,,,,,,,,,,,,,,,,,,,,,,,,,,,,,,,,,,,,,,,,,,,,,,
,,,,,399922,001,2024-06-14_12h30.14.629,experiment,2024.1.5,MacIntel,60.24096386,62fd19522ad91588ac9881e7,666b5f73dbba3f0cd916b177,666c6fe063916772c9816e34,,,,,,,,,,,,,,,,,,,,,,,,,,,,,,,,,,,,,,,,,,,,584.4539,585.5712,5.66121521,1.1041,0,9,9,20,1,song_indices/OldTownRoad_LilNasX.csv,,,,,,,,,,,,,,,,,,,,,,,,,,,,,,,,,,,,,,,,,,,,,,,
,,,,,399922,001,2024-06-14_12h30.14.629,experiment,2024.1.5,MacIntel,60.24096386,62fd19522ad91588ac9881e7,666b5f73dbba3f0cd916b177,666c6fe063916772c9816e34,,,,,,,,,,,,,,,,,,,,,,,,,,,,,,,,,,,,585.5722,589.9713,0,0,0,1,1,SoundStimuli/LikeARollingStone_BobDylan_Cover5S.wav,,,,,,,,,,,,,,,,,,,,,,,,,,,,,,,,,,,,,,,,,,,,,,,,,,,,,,,,,
,,,,,399922,001,2024-06-14_12h30.14.629,experiment,2024.1.5,MacIntel,60.24096386,62fd19522ad91588ac9881e7,666b5f73dbba3f0cd916b177,666c6fe063916772c9816e34,,,,,,,,,,,,,,,,,,,,,,,,,,,,,,,,,,,,589.9821,596.1213,0,1,1,0,1,SoundStimuli/LikeARollingStone_BobDylan_Original5S.wav,,,,,,,,,,,,,,,,,,,,,,,,,,,,,,,,,,,,,,,,,,,,,,,,,,,,,,,,,
,,,,,399922,001,2024-06-14_12h30.14.629,experiment,2024.1.5,MacIntel,60.24096386,62fd19522ad91588ac9881e7,666b5f73dbba3f0cd916b177,666c6fe063916772c9816e34,,,,,,,,,,,,,,,,,,,,,,,,,,,,,,,,,,,,,,,,,,,,596.1214,597.4032,4.296932002,1.2692,0,10,10,12,1,song_indices/LikeARollingStone_BobDylan.csv,,,,,,,,,,,,,,,,,,,,,,,,,,,,,,,,,,,,,,,,,,,,,,,
,,,,,399922,001,2024-06-14_12h30.14.629,experiment,2024.1.5,MacIntel,60.24096386,62fd19522ad91588ac9881e7,666b5f73dbba3f0cd916b177,666c6fe063916772c9816e34,,,,,,,,,,,,,,,,,,,,,,,,,,,,,,,,,,,,597.4039,603.4364,0,0,0,1,1,SoundStimuli/IWantToHoldYourHand_TheBeatles_Cover5S.wav,,,,,,,,,,,,,,,,,,,,,,,,,,,,,,,,,,,,,,,,,,,,,,,,,,,,,,,,,
,,,,,399922,001,2024-06-14_12h30.14.629,experiment,2024.1.5,MacIntel,60.24096386,62fd19522ad91588ac9881e7,666b5f73dbba3f0cd916b177,666c6fe063916772c9816e34,,,,,,,,,,,,,,,,,,,,,,,,,,,,,,,,,,,,603.445,609.2373,0,1,1,0,1,SoundStimuli/IWantToHoldYourHand_TheBeatles_Original5S.wav,,,,,,,,,,,,,,,,,,,,,,,,,,,,,,,,,,,,,,,,,,,,,,,,,,,,,,,,,
,,,,,399922,001,2024-06-14_12h30.14.629,experiment,2024.1.5,MacIntel,60.24096386,62fd19522ad91588ac9881e7,666b5f73dbba3f0cd916b177,666c6fe063916772c9816e34,,,,,,,,,,,,,,,,,,,,,,,,,,,,,,,,,,,,,,,,,,,,609.2374,610.1374,3.580847059,0.889,0,11,11,19,1,song_indices/IWantToHoldYourHand_TheBeatles.csv,,,,,,,,,,,,,,,,,,,,,,,,,,,,,,,,,,,,,,,,,,,,,,,
,,,,,399922,001,2024-06-14_12h30.14.629,experiment,2024.1.5,MacIntel,60.24096386,62fd19522ad91588ac9881e7,666b5f73dbba3f0cd916b177,666c6fe063916772c9816e34,,,,,,,,,,,,,,,,,,,,,,,,,,,,,,,,,,,,610.1378,616.5867,0,0,0,0,1,SoundStimuli/BadDay_DanielPowter_Original5S.wav,,,,,,,,,,,,,,,,,,,,,,,,,,,,,,,,,,,,,,,,,,,,,,,,,,,,,,,,,
,,,,,399922,001,2024-06-14_12h30.14.629,experiment,2024.1.5,MacIntel,60.24096386,62fd19522ad91588ac9881e7,666b5f73dbba3f0cd916b177,666c6fe063916772c9816e34,,,,,,,,,,,,,,,,,,,,,,,,,,,,,,,,,,,,616.5952,624.0867,0,1,1,1,1,SoundStimuli/BadDay_DanielPowter_Cover5S.wav,,,,,,,,,,,,,,,,,,,,,,,,,,,,,,,,,,,,,,,,,,,,,,,,,,,,,,,,,
,,,,,399922,001,2024-06-14_12h30.14.629,experiment,2024.1.5,MacIntel,60.24096386,62fd19522ad91588ac9881e7,666b5f73dbba3f0cd916b177,666c6fe063916772c9816e34,,,,,,,,,,,,,,,,,,,,,,,,,,,,,,,,,,,,,,,,,,,,624.0868,626.4363,5.172584534,2.3379,0,12,12,22,1,song_indices/BadDay_DanielPowter.csv,,,,,,,,,,,,,,,,,,,,,,,,,,,,,,,,,,,,,,,,,,,,,,,
,,,,,399922,001,2024-06-14_12h30.14.629,experiment,2024.1.5,MacIntel,60.24096386,62fd19522ad91588ac9881e7,666b5f73dbba3f0cd916b177,666c6fe063916772c9816e34,,,,,,,,,,,,,,,,,,,,,,,,,,,,,,,,,,,,626.4367,634.5704,0,0,0,1,1,SoundStimuli/AnotherOneBitesTheDust_Queen_Cover5S.wav,,,,,,,,,,,,,,,,,,,,,,,,,,,,,,,,,,,,,,,,,,,,,,,,,,,,,,,,,
,,,,,399922,001,2024-06-14_12h30.14.629,experiment,2024.1.5,MacIntel,60.24096386,62fd19522ad91588ac9881e7,666b5f73dbba3f0cd916b177,666c6fe063916772c9816e34,,,,,,,,,,,,,,,,,,,,,,,,,,,,,,,,,,,,634.5812,640.6205,0,1,1,0,1,SoundStimuli/AnotherOneBitesTheDust_Queen_Original5S.wav,,,,,,,,,,,,,,,,,,,,,,,,,,,,,,,,,,,,,,,,,,,,,,,,,,,,,,,,,
,,,,,399922,001,2024-06-14_12h30.14.629,experiment,2024.1.5,MacIntel,60.24096386,62fd19522ad91588ac9881e7,666b5f73dbba3f0cd916b177,666c6fe063916772c9816e34,,,,,,,,,,,,,,,,,,,,,,,,,,,,,,,,,,,,,,,,,,,,640.6207,642.0529,4.719982474,1.4199,0,13,13,9,1,song_indices/AnotherOneBitesTheDust_Queen.csv,,,,,,,,,,,,,,,,,,,,,,,,,,,,,,,,,,,,,,,,,,,,,,,
,,,,,399922,001,2024-06-14_12h30.14.629,experiment,2024.1.5,MacIntel,60.24096386,62fd19522ad91588ac9881e7,666b5f73dbba3f0cd916b177,666c6fe063916772c9816e34,,,,,,,,,,,,,,,,,,,,,,,,,,,,,,,,,,,,642.0535,647.9869,0,0,0,1,1,SoundStimuli/IllMakeLoveToYou_BoyzIIMen_Cover5S.wav,,,,,,,,,,,,,,,,,,,,,,,,,,,,,,,,,,,,,,,,,,,,,,,,,,,,,,,,,
,,,,,399922,001,2024-06-14_12h30.14.629,experiment,2024.1.5,MacIntel,60.24096386,62fd19522ad91588ac9881e7,666b5f73dbba3f0cd916b177,666c6fe063916772c9816e34,,,,,,,,,,,,,,,,,,,,,,,,,,,,,,,,,,,,647.9948,654.0697,0,1,1,0,1,SoundStimuli/IllMakeLoveToYou_BoyzIIMen_Original5S.wav,,,,,,,,,,,,,,,,,,,,,,,,,,,,,,,,,,,,,,,,,,,,,,,,,,,,,,,,,
,,,,,399922,001,2024-06-14_12h30.14.629,experiment,2024.1.5,MacIntel,60.24096386,62fd19522ad91588ac9881e7,666b5f73dbba3f0cd916b177,666c6fe063916772c9816e34,,,,,,,,,,,,,,,,,,,,,,,,,,,,,,,,,,,,,,,,,,,,654.07,657.8705,6.217878723,3.7901,0,14,14,6,1,song_indices/IllMakeLoveToYou_BoyzIIMen.csv,,,,,,,,,,,,,,,,,,,,,,,,,,,,,,,,,,,,,,,,,,,,,,,
,,,,,399922,001,2024-06-14_12h30.14.629,experiment,2024.1.5,MacIntel,60.24096386,62fd19522ad91588ac9881e7,666b5f73dbba3f0cd916b177,666c6fe063916772c9816e34,,,,,,,,,,,,,,,,,,,,,,,,,,,,,,,,,,,,657.8709,664.2699,0,0,0,0,1,SoundStimuli/MyGirl_TheTemptations_Original5S.wav,,,,,,,,,,,,,,,,,,,,,,,,,,,,,,,,,,,,,,,,,,,,,,,,,,,,,,,,,
,,,,,399922,001,2024-06-14_12h30.14.629,experiment,2024.1.5,MacIntel,60.24096386,62fd19522ad91588ac9881e7,666b5f73dbba3f0cd916b177,666c6fe063916772c9816e34,,,,,,,,,,,,,,,,,,,,,,,,,,,,,,,,,,,,664.2809,671.9361,0,1,1,1,1,SoundStimuli/MyGirl_TheTemptations_Cover5S.wav,,,,,,,,,,,,,,,,,,,,,,,,,,,,,,,,,,,,,,,,,,,,,,,,,,,,,,,,,
,,,,,399922,001,2024-06-14_12h30.14.629,experiment,2024.1.5,MacIntel,60.24096386,62fd19522ad91588ac9881e7,666b5f73dbba3f0cd916b177,666c6fe063916772c9816e34,,,,,,,,,,,,,,,,,,,,,,,,,,,,,,,,,,,,,,,,,,,,671.9363,673.3197,4.2144407,1.371,0,15,15,15,1,song_indices/MyGirl_TheTemptations.csv,,,,,,,,,,,,,,,,,,,,,,,,,,,,,,,,,,,,,,,,,,,,,,,
,,,,,399922,001,2024-06-14_12h30.14.629,experiment,2024.1.5,MacIntel,60.24096386,62fd19522ad91588ac9881e7,666b5f73dbba3f0cd916b177,666c6fe063916772c9816e34,,,,,,,,,,,,,,,,,,,,,,,,,,,,,,,,,,,,673.3209,678.9203,0,0,0,0,1,SoundStimuli/IWannaDanceWithSomebody_WhitneyHouston_Original5S.wav,,,,,,,,,,,,,,,,,,,,,,,,,,,,,,,,,,,,,,,,,,,,,,,,,,,,,,,,,
,,,,,399922,001,2024-06-14_12h30.14.629,experiment,2024.1.5,MacIntel,60.24096386,62fd19522ad91588ac9881e7,666b5f73dbba3f0cd916b177,666c6fe063916772c9816e34,,,,,,,,,,,,,,,,,,,,,,,,,,,,,,,,,,,,678.931,685.7702,0,1,1,1,1,SoundStimuli/IWannaDanceWithSomebody_WhitneyHouston_Cover5S.wav,,,,,,,,,,,,,,,,,,,,,,,,,,,,,,,,,,,,,,,,,,,,,,,,,,,,,,,,,
,,,,,399922,001,2024-06-14_12h30.14.629,experiment,2024.1.5,MacIntel,60.24096386,62fd19522ad91588ac9881e7,666b5f73dbba3f0cd916b177,666c6fe063916772c9816e34,,,,,,,,,,,,,,,,,,,,,,,,,,,,,,,,,,,,,,,,,,,,685.7704,686.9026,3.832394082,1.119,0,16,16,13,1,song_indices/IWannaDanceWithSomebody_WhitneyHouston.csv,,,,,,,,,,,,,,,,,,,,,,,,,,,,,,,,,,,,,,,,,,,,,,,
,,,,,399922,001,2024-06-14_12h30.14.629,experiment,2024.1.5,MacIntel,60.24096386,62fd19522ad91588ac9881e7,666b5f73dbba3f0cd916b177,666c6fe063916772c9816e34,,,,,,,,,,,,,,,,,,,,,,,,,,,,,,,,,,,,686.9033,693.7702,0,0,0,1,1,SoundStimuli/GodOnlyKnows_TheBeachBoys_Cover5S.wav,,,,,,,,,,,,,,,,,,,,,,,,,,,,,,,,,,,,,,,,,,,,,,,,,,,,,,,,,
,,,,,399922,001,2024-06-14_12h30.14.629,experiment,2024.1.5,MacIntel,60.24096386,62fd19522ad91588ac9881e7,666b5f73dbba3f0cd916b177,666c6fe063916772c9816e34,,,,,,,,,,,,,,,,,,,,,,,,,,,,,,,,,,,,693.7806,700.0195,0,1,1,0,1,SoundStimuli/GodOnlyKnows_TheBeachBoys_Original5S.wav,,,,,,,,,,,,,,,,,,,,,,,,,,,,,,,,,,,,,,,,,,,,,,,,,,,,,,,,,
,,,,,399922,001,2024-06-14_12h30.14.629,experiment,2024.1.5,MacIntel,60.24096386,62fd19522ad91588ac9881e7,666b5f73dbba3f0cd916b177,666c6fe063916772c9816e34,,,,,,,,,,,,,,,,,,,,,,,,,,,,,,,,,,,,,,,,,,,,700.0196,702.286,5.302186584,2.2532,0,17,17,8,1,song_indices/GodOnlyKnows_TheBeachBoys.csv,,,,,,,,,,,,,,,,,,,,,,,,,,,,,,,,,,,,,,,,,,,,,,,
,,,,,399922,001,2024-06-14_12h30.14.629,experiment,2024.1.5,MacIntel,60.24096386,62fd19522ad91588ac9881e7,666b5f73dbba3f0cd916b177,666c6fe063916772c9816e34,,,,,,,,,,,,,,,,,,,,,,,,,,,,,,,,,,,,702.2865,708.5861,0,0,0,0,1,SoundStimuli/Mood_24kGoldnianndior_Original5S.wav,,,,,,,,,,,,,,,,,,,,,,,,,,,,,,,,,,,,,,,,,,,,,,,,,,,,,,,,,
,,,,,399922,001,2024-06-14_12h30.14.629,experiment,2024.1.5,MacIntel,60.24096386,62fd19522ad91588ac9881e7,666b5f73dbba3f0cd916b177,666c6fe063916772c9816e34,,,,,,,,,,,,,,,,,,,,,,,,,,,,,,,,,,,,708.5952,716.8862,0,1,1,1,1,SoundStimuli/Mood_24kGoldnianndior_Cover5S.wav,,,,,,,,,,,,,,,,,,,,,,,,,,,,,,,,,,,,,,,,,,,,,,,,,,,,,,,,,
,,,,,399922,001,2024-06-14_12h30.14.629,experiment,2024.1.5,MacIntel,60.24096386,62fd19522ad91588ac9881e7,666b5f73dbba3f0cd916b177,666c6fe063916772c9816e34,,,,,,,,,,,,,,,,,,,,,,,,,,,,,,,,,,,,,,,,,,,,716.8863,717.9198,4.827547128,1.0227,0,18,18,5,1,song_indices/Mood_24kGoldnianndior.csv,,,,,,,,,,,,,,,,,,,,,,,,,,,,,,,,,,,,,,,,,,,,,,,
,,,,,399922,001,2024-06-14_12h30.14.629,experiment,2024.1.5,MacIntel,60.24096386,62fd19522ad91588ac9881e7,666b5f73dbba3f0cd916b177,666c6fe063916772c9816e34,,,,,,,,,,,,,,,,,,,,,,,,,,,,,,,,,,,,717.9207,726.786,0,0,0,0,1,SoundStimuli/Perfect_EdSheeran_Original5S.wav,,,,,,,,,,,,,,,,,,,,,,,,,,,,,,,,,,,,,,,,,,,,,,,,,,,,,,,,,
,,,,,399922,001,2024-06-14_12h30.14.629,experiment,2024.1.5,MacIntel,60.24096386,62fd19522ad91588ac9881e7,666b5f73dbba3f0cd916b177,666c6fe063916772c9816e34,,,,,,,,,,,,,,,,,,,,,,,,,,,,,,,,,,,,726.7954,735.0524,0,1,1,1,1,SoundStimuli/Perfect_EdSheeran_Cover5S.wav,,,,,,,,,,,,,,,,,,,,,,,,,,,,,,,,,,,,,,,,,,,,,,,,,,,,,,,,,
,,,,,399922,001,2024-06-14_12h30.14.629,experiment,2024.1.5,MacIntel,60.24096386,62fd19522ad91588ac9881e7,666b5f73dbba3f0cd916b177,666c6fe063916772c9816e34,,,,,,,,,,,,,,,,,,,,,,,,,,,,,,,,,,,,,,,,,,,,735.0525,737.1695,5.735637774,2.1035,0,19,19,0,1,song_indices/Perfect_EdSheeran.csv,,,,,,,,,,,,,,,,,,,,,,,,,,,,,,,,,,,,,,,,,,,,,,,
,,,,,399922,001,2024-06-14_12h30.14.629,experiment,2024.1.5,MacIntel,60.24096386,62fd19522ad91588ac9881e7,666b5f73dbba3f0cd916b177,666c6fe063916772c9816e34,,,,,,,,,,,,,,,,,,,,,,,,,,,,,,,,,,,,737.1705,743.5188,0,0,0,0,1,SoundStimuli/EndlessLove_DianaRossLionelRichie_Original5S.wav,,,,,,,,,,,,,,,,,,,,,,,,,,,,,,,,,,,,,,,,,,,,,,,,,,,,,,,,,
,,,,,399922,001,2024-06-14_12h30.14.629,experiment,2024.1.5,MacIntel,60.24096386,62fd19522ad91588ac9881e7,666b5f73dbba3f0cd916b177,666c6fe063916772c9816e34,,,,,,,,,,,,,,,,,,,,,,,,,,,,,,,,,,,,743.5294,751.0197,0,1,1,1,1,SoundStimuli/EndlessLove_DianaRossLionelRichie_Cover5S.wav,,,,,,,,,,,,,,,,,,,,,,,,,,,,,,,,,,,,,,,,,,,,,,,,,,,,,,,,,
,,,,,399922,001,2024-06-14_12h30.14.629,experiment,2024.1.5,MacIntel,60.24096386,62fd19522ad91588ac9881e7,666b5f73dbba3f0cd916b177,666c6fe063916772c9816e34,,,,,,,,,,,,,,,,,,,,,,,,,,,,,,,,,,,,,,,,,,,,751.0201,752.5194,5.261967468,1.486,0,20,20,3,1,song_indices/EndlessLove_DianaRossLionelRichie.csv,,,,,,,,,,,,,,,,,,,,,,,,,,,,,,,,,,,,,,,,,,,,,,,
,,,,,399922,001,2024-06-14_12h30.14.629,experiment,2024.1.5,MacIntel,60.24096386,62fd19522ad91588ac9881e7,666b5f73dbba3f0cd916b177,666c6fe063916772c9816e34,,,,,,,,,,,,,,,,,,,,,,,,,,,,,,,,,,,,752.5203,759.5527,0,0,0,1,1,SoundStimuli/StrawberryFieldsForever_TheBeatles_Cover5S.wav,,,,,,,,,,,,,,,,,,,,,,,,,,,,,,,,,,,,,,,,,,,,,,,,,,,,,,,,,
,,,,,399922,001,2024-06-14_12h30.14.629,experiment,2024.1.5,MacIntel,60.24096386,62fd19522ad91588ac9881e7,666b5f73dbba3f0cd916b177,666c6fe063916772c9816e34,,,,,,,,,,,,,,,,,,,,,,,,,,,,,,,,,,,,759.5631,765.6848,0,1,1,0,1,SoundStimuli/StrawberryFieldsForever_TheBeatles_Original5S.wav,,,,,,,,,,,,,,,,,,,,,,,,,,,,,,,,,,,,,,,,,,,,,,,,,,,,,,,,,
,,,,,399922,001,2024-06-14_12h30.14.629,experiment,2024.1.5,MacIntel,60.24096386,62fd19522ad91588ac9881e7,666b5f73dbba3f0cd916b177,666c6fe063916772c9816e34,,,,,,,,,,,,,,,,,,,,,,,,,,,,,,,,,,,,,,,,,,,,765.6849,766.9346,4.816428048,1.2408,0,21,21,14,1,song_indices/StrawberryFieldsForever_TheBeatles.csv,,,,,,,,,,,,,,,,,,,,,,,,,,,,,,,,,,,,,,,,,,,,,,,
,,,,,399922,001,2024-06-14_12h30.14.629,experiment,2024.1.5,MacIntel,60.24096386,62fd19522ad91588ac9881e7,666b5f73dbba3f0cd916b177,666c6fe063916772c9816e34,,,,,,,,,,,,,,,,,,,,,,,,,,,,,,,,,,,,766.9355,771.6518,0,0,0,1,1,SoundStimuli/AChangeIsGonnaCome_SamCooke_Cover5S.wav,,,,,,,,,,,,,,,,,,,,,,,,,,,,,,,,,,,,,,,,,,,,,,,,,,,,,,,,,
,,,,,399922,001,2024-06-14_12h30.14.629,experiment,2024.1.5,MacIntel,60.24096386,62fd19522ad91588ac9881e7,666b5f73dbba3f0cd916b177,666c6fe063916772c9816e34,,,,,,,,,,,,,,,,,,,,,,,,,,,,,,,,,,,,771.6621,777.7011,0,1,1,0,1,SoundStimuli/AChangeIsGonnaCome_SamCooke_Original5S.wav,,,,,,,,,,,,,,,,,,,,,,,,,,,,,,,,,,,,,,,,,,,,,,,,,,,,,,,,,
,,,,,399922,001,2024-06-14_12h30.14.629,experiment,2024.1.5,MacIntel,60.24096386,62fd19522ad91588ac9881e7,666b5f73dbba3f0cd916b177,666c6fe063916772c9816e34,,,,,,,,,,,,,,,,,,,,,,,,,,,,,,,,,,,,,,,,,,,,777.7013,780.2925,4.958579363,2.5763,0,22,22,17,1,song_indices/AChangeIsGonnaCome_SamCooke.csv,,,,,,,,,,,,,,,,,,,,,,,,,,,,,,,,,,,,,,,,,,,,,,,
,,,,,399922,001,2024-06-14_12h30.14.629,experiment,2024.1.5,MacIntel,60.24096386,62fd19522ad91588ac9881e7,666b5f73dbba3f0cd916b177,666c6fe063916772c9816e34,,,,,,,,,,,,,,,,,,,,,,,,,,,,,,,,,,,,,,,,,,,,,,,,,,,,,,780.2926,792.8845,space,12.581,,0,1,1,0,1,choose_song_b1.csv,,,,,,,,,,,,,,,,,,,,,,,,,,,,,,,,,,,,
,,,,,399922,001,2024-06-14_12h30.14.629,experiment,2024.1.5,MacIntel,60.24096386,62fd19522ad91588ac9881e7,666b5f73dbba3f0cd916b177,666c6fe063916772c9816e34,,,,,,,,,,,,,,,,,,,,,,,,,,,,,,,,,,,,792.8951,798.8181,0,0,0,0,1,SoundStimuli/StandByMe_BenEKing_Original5S.wav,,,,,,,,,,,,,,,,,,,,,,,,,,,,,,,,,,,,,,,,,,,,,,,,,,,,,,,,,
,,,,,399922,001,2024-06-14_12h30.14.629,experiment,2024.1.5,MacIntel,60.24096386,62fd19522ad91588ac9881e7,666b5f73dbba3f0cd916b177,666c6fe063916772c9816e34,,,,,,,,,,,,,,,,,,,,,,,,,,,,,,,,,,,,798.8284,804.8514,0,1,1,1,1,SoundStimuli/StandByMe_BenEKing_Cover5S.wav,,,,,,,,,,,,,,,,,,,,,,,,,,,,,,,,,,,,,,,,,,,,,,,,,,,,,,,,,
,,,,,399922,001,2024-06-14_12h30.14.629,experiment,2024.1.5,MacIntel,60.24096386,62fd19522ad91588ac9881e7,666b5f73dbba3f0cd916b177,666c6fe063916772c9816e34,,,,,,,,,,,,,,,,,,,,,,,,,,,,,,,,,,,,,,,,,,,,804.8515,806.6351,5.173446437,1.7707,0,0,0,1,1,song_indices/StandByMe_BenEKing.csv,,,,,,,,,,,,,,,,,,,,,,,,,,,,,,,,,,,,,,,,,,,,,,,
,,,,,399922,001,2024-06-14_12h30.14.629,experiment,2024.1.5,MacIntel,60.24096386,62fd19522ad91588ac9881e7,666b5f73dbba3f0cd916b177,666c6fe063916772c9816e34,,,,,,,,,,,,,,,,,,,,,,,,,,,,,,,,,,,,806.6356,816.8841,0,0,0,1,1,SoundStimuli/CrazyInLove_BeyonceFtJayZ_Cover5S.wav,,,,,,,,,,,,,,,,,,,,,,,,,,,,,,,,,,,,,,,,,,,,,,,,,,,,,,,,,
,,,,,399922,001,2024-06-14_12h30.14.629,experiment,2024.1.5,MacIntel,60.24096386,62fd19522ad91588ac9881e7,666b5f73dbba3f0cd916b177,666c6fe063916772c9816e34,,,,,,,,,,,,,,,,,,,,,,,,,,,,,,,,,,,,816.8937,823.4339,0,1,1,0,1,SoundStimuli/CrazyInLove_BeyonceFtJayZ_Original5S.wav,,,,,,,,,,,,,,,,,,,,,,,,,,,,,,,,,,,,,,,,,,,,,,,,,,,,,,,,,
,,,,,399922,001,2024-06-14_12h30.14.629,experiment,2024.1.5,MacIntel,60.24096386,62fd19522ad91588ac9881e7,666b5f73dbba3f0cd916b177,666c6fe063916772c9816e34,,,,,,,,,,,,,,,,,,,,,,,,,,,,,,,,,,,,,,,,,,,,823.434,828.6672,5.280722046,5.2255,0,1,1,3,1,song_indices/CrazyInLove_BeyonceFtJayZ.csv,,,,,,,,,,,,,,,,,,,,,,,,,,,,,,,,,,,,,,,,,,,,,,,
,,,,,399922,001,2024-06-14_12h30.14.629,experiment,2024.1.5,MacIntel,60.24096386,62fd19522ad91588ac9881e7,666b5f73dbba3f0cd916b177,666c6fe063916772c9816e34,,,,,,,,,,,,,,,,,,,,,,,,,,,,,,,,,,,,828.6683,834.5177,0,0,0,1,1,SoundStimuli/IWillAlwaysLoveYou_WhitneyHouston_Cover5S.wav,,,,,,,,,,,,,,,,,,,,,,,,,,,,,,,,,,,,,,,,,,,,,,,,,,,,,,,,,
,,,,,399922,001,2024-06-14_12h30.14.629,experiment,2024.1.5,MacIntel,60.24096386,62fd19522ad91588ac9881e7,666b5f73dbba3f0cd916b177,666c6fe063916772c9816e34,,,,,,,,,,,,,,,,,,,,,,,,,,,,,,,,,,,,834.5244,840.9009,0,1,1,0,1,SoundStimuli/IWillAlwaysLoveYou_WhitneyHouston_Original5S.wav,,,,,,,,,,,,,,,,,,,,,,,,,,,,,,,,,,,,,,,,,,,,,,,,,,,,,,,,,
,,,,,399922,001,2024-06-14_12h30.14.629,experiment,2024.1.5,MacIntel,60.24096386,62fd19522ad91588ac9881e7,666b5f73dbba3f0cd916b177,666c6fe063916772c9816e34,,,,,,,,,,,,,,,,,,,,,,,,,,,,,,,,,,,,,,,,,,,,840.901,841.7674,6.96663099,0.8572,0,2,2,10,1,song_indices/IWillAlwaysLoveYou_WhitneyHouston.csv,,,,,,,,,,,,,,,,,,,,,,,,,,,,,,,,,,,,,,,,,,,,,,,
,,,,,399922,001,2024-06-14_12h30.14.629,experiment,2024.1.5,MacIntel,60.24096386,62fd19522ad91588ac9881e7,666b5f73dbba3f0cd916b177,666c6fe063916772c9816e34,,,,,,,,,,,,,,,,,,,,,,,,,,,,,,,,,,,,841.7679,847.8505,0,0,0,0,1,SoundStimuli/GetUrFreakOn_MissyElliot_Original5S.wav,,,,,,,,,,,,,,,,,,,,,,,,,,,,,,,,,,,,,,,,,,,,,,,,,,,,,,,,,
,,,,,399922,001,2024-06-14_12h30.14.629,experiment,2024.1.5,MacIntel,60.24096386,62fd19522ad91588ac9881e7,666b5f73dbba3f0cd916b177,666c6fe063916772c9816e34,,,,,,,,,,,,,,,,,,,,,,,,,,,,,,,,,,,,847.8568,854.4344,0,1,1,1,1,SoundStimuli/GetUrFreakOn_MissyElliot_Cover5S.wav,,,,,,,,,,,,,,,,,,,,,,,,,,,,,,,,,,,,,,,,,,,,,,,,,,,,,,,,,
,,,,,399922,001,2024-06-14_12h30.14.629,experiment,2024.1.5,MacIntel,60.24096386,62fd19522ad91588ac9881e7,666b5f73dbba3f0cd916b177,666c6fe063916772c9816e34,,,,,,,,,,,,,,,,,,,,,,,,,,,,,,,,,,,,,,,,,,,,854.4345,857.1364,6.342529079,2.6916,0,3,3,18,1,song_indices/GetUrFreakOn_MissyElliot.csv,,,,,,,,,,,,,,,,,,,,,,,,,,,,,,,,,,,,,,,,,,,,,,,
,,,,,399922,001,2024-06-14_12h30.14.629,experiment,2024.1.5,MacIntel,60.24096386,62fd19522ad91588ac9881e7,666b5f73dbba3f0cd916b177,666c6fe063916772c9816e34,,,,,,,,,,,,,,,,,,,,,,,,,,,,,,,,,,,,857.1369,863.3516,0,0,0,0,1,SoundStimuli/SmellsLikeTeenSpirit_Nirvana_Original5S.wav,,,,,,,,,,,,,,,,,,,,,,,,,,,,,,,,,,,,,,,,,,,,,,,,,,,,,,,,,
,,,,,399922,001,2024-06-14_12h30.14.629,experiment,2024.1.5,MacIntel,60.24096386,62fd19522ad91588ac9881e7,666b5f73dbba3f0cd916b177,666c6fe063916772c9816e34,,,,,,,,,,,,,,,,,,,,,,,,,,,,,,,,,,,,863.3619,869.1338,0,1,1,1,1,SoundStimuli/SmellsLikeTeenSpirit_Nirvana_Cover5S.wav,,,,,,,,,,,,,,,,,,,,,,,,,,,,,,,,,,,,,,,,,,,,,,,,,,,,,,,,,
,,,,,399922,001,2024-06-14_12h30.14.629,experiment,2024.1.5,MacIntel,60.24096386,62fd19522ad91588ac9881e7,666b5f73dbba3f0cd916b177,666c6fe063916772c9816e34,,,,,,,,,,,,,,,,,,,,,,,,,,,,,,,,,,,,,,,,,,,,869.1338,870.5677,6.970255824,1.421,0,4,4,8,1,song_indices/SmellsLikeTeenSpirit_Nirvana.csv,,,,,,,,,,,,,,,,,,,,,,,,,,,,,,,,,,,,,,,,,,,,,,,
,,,,,399922,001,2024-06-14_12h30.14.629,experiment,2024.1.5,MacIntel,60.24096386,62fd19522ad91588ac9881e7,666b5f73dbba3f0cd916b177,666c6fe063916772c9816e34,,,,,,,,,,,,,,,,,,,,,,,,,,,,,,,,,,,,870.5684,877.3515,0,0,0,1,1,SoundStimuli/PartyRockAnthem_LMFAO_Cover5S.wav,,,,,,,,,,,,,,,,,,,,,,,,,,,,,,,,,,,,,,,,,,,,,,,,,,,,,,,,,
,,,,,399922,001,2024-06-14_12h30.14.629,experiment,2024.1.5,MacIntel,60.24096386,62fd19522ad91588ac9881e7,666b5f73dbba3f0cd916b177,666c6fe063916772c9816e34,,,,,,,,,,,,,,,,,,,,,,,,,,,,,,,,,,,,877.3619,884.1005,0,1,1,0,1,SoundStimuli/PartyRockAnthem_LMFAO_Original5S.wav,,,,,,,,,,,,,,,,,,,,,,,,,,,,,,,,,,,,,,,,,,,,,,,,,,,,,,,,,
,,,,,399922,001,2024-06-14_12h30.14.629,experiment,2024.1.5,MacIntel,60.24096386,62fd19522ad91588ac9881e7,666b5f73dbba3f0cd916b177,666c6fe063916772c9816e34,,,,,,,,,,,,,,,,,,,,,,,,,,,,,,,,,,,,,,,,,,,,884.1006,885.7845,6.492800467,1.6641,0,5,5,2,1,song_indices/PartyRockAnthem_LMFAO.csv,,,,,,,,,,,,,,,,,,,,,,,,,,,,,,,,,,,,,,,,,,,,,,,
,,,,,399922,001,2024-06-14_12h30.14.629,experiment,2024.1.5,MacIntel,60.24096386,62fd19522ad91588ac9881e7,666b5f73dbba3f0cd916b177,666c6fe063916772c9816e34,,,,,,,,,,,,,,,,,,,,,,,,,,,,,,,,,,,,885.7852,892.0006,0,0,0,1,1,SoundStimuli/GimmeShelter_RollingStones_Cover5S.wav,,,,,,,,,,,,,,,,,,,,,,,,,,,,,,,,,,,,,,,,,,,,,,,,,,,,,,,,,
,,,,,399922,001,2024-06-14_12h30.14.629,experiment,2024.1.5,MacIntel,60.24096386,62fd19522ad91588ac9881e7,666b5f73dbba3f0cd916b177,666c6fe063916772c9816e34,,,,,,,,,,,,,,,,,,,,,,,,,,,,,,,,,,,,892.011,898.1002,0,1,1,0,1,SoundStimuli/GimmeShelter_RollingStones_Original5S.wav,,,,,,,,,,,,,,,,,,,,,,,,,,,,,,,,,,,,,,,,,,,,,,,,,,,,,,,,,
,,,,,399922,001,2024-06-14_12h30.14.629,experiment,2024.1.5,MacIntel,60.24096386,62fd19522ad91588ac9881e7,666b5f73dbba3f0cd916b177,666c6fe063916772c9816e34,,,,,,,,,,,,,,,,,,,,,,,,,,,,,,,,,,,,,,,,,,,,898.1003,900.1176,5.774461365,2.0054,0,6,6,20,1,song_indices/GimmeShelter_RollingStones.csv,,,,,,,,,,,,,,,,,,,,,,,,,,,,,,,,,,,,,,,,,,,,,,,
,,,,,399922,001,2024-06-14_12h30.14.629,experiment,2024.1.5,MacIntel,60.24096386,62fd19522ad91588ac9881e7,666b5f73dbba3f0cd916b177,666c6fe063916772c9816e34,,,,,,,,,,,,,,,,,,,,,,,,,,,,,,,,,,,,900.1184,906.2502,0,0,0,1,1,SoundStimuli/NoScrubs_TLC_Cover5S.wav,,,,,,,,,,,,,,,,,,,,,,,,,,,,,,,,,,,,,,,,,,,,,,,,,,,,,,,,,
,,,,,399922,001,2024-06-14_12h30.14.629,experiment,2024.1.5,MacIntel,60.24096386,62fd19522ad91588ac9881e7,666b5f73dbba3f0cd916b177,666c6fe063916772c9816e34,,,,,,,,,,,,,,,,,,,,,,,,,,,,,,,,,,,,906.2608,912.4507,0,1,1,0,1,SoundStimuli/NoScrubs_TLC_Original5S.wav,,,,,,,,,,,,,,,,,,,,,,,,,,,,,,,,,,,,,,,,,,,,,,,,,,,,,,,,,
,,,,,399922,001,2024-06-14_12h30.14.629,experiment,2024.1.5,MacIntel,60.24096386,62fd19522ad91588ac9881e7,666b5f73dbba3f0cd916b177,666c6fe063916772c9816e34,,,,,,,,,,,,,,,,,,,,,,,,,,,,,,,,,,,,,,,,,,,,912.4509,914.4508,6.244178554,1.9863,0,7,7,14,1,song_indices/NoScrubs_TLC.csv,,,,,,,,,,,,,,,,,,,,,,,,,,,,,,,,,,,,,,,,,,,,,,,
,,,,,399922,001,2024-06-14_12h30.14.629,experiment,2024.1.5,MacIntel,60.24096386,62fd19522ad91588ac9881e7,666b5f73dbba3f0cd916b177,666c6fe063916772c9816e34,,,,,,,,,,,,,,,,,,,,,,,,,,,,,,,,,,,,914.4514,920.5173,0,0,0,0,1,SoundStimuli/GoodGollyMissMolly_LittleRichard_Original5S.wav,,,,,,,,,,,,,,,,,,,,,,,,,,,,,,,,,,,,,,,,,,,,,,,,,,,,,,,,,
,,,,,399922,001,2024-06-14_12h30.14.629,experiment,2024.1.5,MacIntel,60.24096386,62fd19522ad91588ac9881e7,666b5f73dbba3f0cd916b177,666c6fe063916772c9816e34,,,,,,,,,,,,,,,,,,,,,,,,,,,,,,,,,,,,920.528,926.8829,0,1,1,1,1,SoundStimuli/GoodGollyMissMolly_LittleRichard_Cover5S.wav,,,,,,,,,,,,,,,,,,,,,,,,,,,,,,,,,,,,,,,,,,,,,,,,,,,,,,,,,
,,,,,399922,001,2024-06-14_12h30.14.629,experiment,2024.1.5,MacIntel,60.24096386,62fd19522ad91588ac9881e7,666b5f73dbba3f0cd916b177,666c6fe063916772c9816e34,,,,,,,,,,,,,,,,,,,,,,,,,,,,,,,,,,,,,,,,,,,,926.8831,929.3346,5.356103298,2.4418,0,8,8,0,1,song_indices/GoodGollyMissMolly_LittleRichard.csv,,,,,,,,,,,,,,,,,,,,,,,,,,,,,,,,,,,,,,,,,,,,,,,
,,,,,399922,001,2024-06-14_12h30.14.629,experiment,2024.1.5,MacIntel,60.24096386,62fd19522ad91588ac9881e7,666b5f73dbba3f0cd916b177,666c6fe063916772c9816e34,,,,,,,,,,,,,,,,,,,,,,,,,,,,,,,,,,,,929.3351,935.7674,0,0,0,1,1,SoundStimuli/Fallin_AliciaKeys_Cover5S.wav,,,,,,,,,,,,,,,,,,,,,,,,,,,,,,,,,,,,,,,,,,,,,,,,,,,,,,,,,
,,,,,399922,001,2024-06-14_12h30.14.629,experiment,2024.1.5,MacIntel,60.24096386,62fd19522ad91588ac9881e7,666b5f73dbba3f0cd916b177,666c6fe063916772c9816e34,,,,,,,,,,,,,,,,,,,,,,,,,,,,,,,,,,,,935.7781,941.9504,0,1,1,0,1,SoundStimuli/Fallin_AliciaKeys_Original5S.wav,,,,,,,,,,,,,,,,,,,,,,,,,,,,,,,,,,,,,,,,,,,,,,,,,,,,,,,,,
,,,,,399922,001,2024-06-14_12h30.14.629,experiment,2024.1.5,MacIntel,60.24096386,62fd19522ad91588ac9881e7,666b5f73dbba3f0cd916b177,666c6fe063916772c9816e34,,,,,,,,,,,,,,,,,,,,,,,,,,,,,,,,,,,,,,,,,,,,941.9506,943.5671,5.946875436,1.6032,0,9,9,12,1,song_indices/Fallin_AliciaKeys.csv,,,,,,,,,,,,,,,,,,,,,,,,,,,,,,,,,,,,,,,,,,,,,,,
,,,,,399922,001,2024-06-14_12h30.14.629,experiment,2024.1.5,MacIntel,60.24096386,62fd19522ad91588ac9881e7,666b5f73dbba3f0cd916b177,666c6fe063916772c9816e34,,,,,,,,,,,,,,,,,,,,,,,,,,,,,,,,,,,,943.5678,950.933,0,0,0,0,1,SoundStimuli/Happy_PharellWilliams_Original5S.wav,,,,,,,,,,,,,,,,,,,,,,,,,,,,,,,,,,,,,,,,,,,,,,,,,,,,,,,,,
,,,,,399922,001,2024-06-14_12h30.14.629,experiment,2024.1.5,MacIntel,60.24096386,62fd19522ad91588ac9881e7,666b5f73dbba3f0cd916b177,666c6fe063916772c9816e34,,,,,,,,,,,,,,,,,,,,,,,,,,,,,,,,,,,,950.9435,958.3002,0,1,1,1,1,SoundStimuli/Happy_PharellWilliams_Cover5S.wav,,,,,,,,,,,,,,,,,,,,,,,,,,,,,,,,,,,,,,,,,,,,,,,,,,,,,,,,,
,,,,,399922,001,2024-06-14_12h30.14.629,experiment,2024.1.5,MacIntel,60.24096386,62fd19522ad91588ac9881e7,666b5f73dbba3f0cd916b177,666c6fe063916772c9816e34,,,,,,,,,,,,,,,,,,,,,,,,,,,,,,,,,,,,,,,,,,,,958.3004,959.0168,6.311990356,0.7037,0,10,10,7,1,song_indices/Happy_PharellWilliams.csv,,,,,,,,,,,,,,,,,,,,,,,,,,,,,,,,,,,,,,,,,,,,,,,
,,,,,399922,001,2024-06-14_12h30.14.629,experiment,2024.1.5,MacIntel,60.24096386,62fd19522ad91588ac9881e7,666b5f73dbba3f0cd916b177,666c6fe063916772c9816e34,,,,,,,,,,,,,,,,,,,,,,,,,,,,,,,,,,,,959.0175,965.2506,0,0,0,1,1,SoundStimuli/ItsAllInTheGame_TommyEdwards_Cover5S.wav,,,,,,,,,,,,,,,,,,,,,,,,,,,,,,,,,,,,,,,,,,,,,,,,,,,,,,,,,
,,,,,399922,001,2024-06-14_12h30.14.629,experiment,2024.1.5,MacIntel,60.24096386,62fd19522ad91588ac9881e7,666b5f73dbba3f0cd916b177,666c6fe063916772c9816e34,,,,,,,,,,,,,,,,,,,,,,,,,,,,,,,,,,,,965.2607,971.517,0,1,1,0,1,SoundStimuli/ItsAllInTheGame_TommyEdwards_Original5S.wav,,,,,,,,,,,,,,,,,,,,,,,,,,,,,,,,,,,,,,,,,,,,,,,,,,,,,,,,,
,,,,,399922,001,2024-06-14_12h30.14.629,experiment,2024.1.5,MacIntel,60.24096386,62fd19522ad91588ac9881e7,666b5f73dbba3f0cd916b177,666c6fe063916772c9816e34,,,,,,,,,,,,,,,,,,,,,,,,,,,,,,,,,,,,,,,,,,,,971.5172,972.3659,6.554219273,0.8382,0,11,11,13,1,song_indices/ItsAllInTheGame_TommyEdwards.csv,,,,,,,,,,,,,,,,,,,,,,,,,,,,,,,,,,,,,,,,,,,,,,,
,,,,,399922,001,2024-06-14_12h30.14.629,experiment,2024.1.5,MacIntel,60.24096386,62fd19522ad91588ac9881e7,666b5f73dbba3f0cd916b177,666c6fe063916772c9816e34,,,,,,,,,,,,,,,,,,,,,,,,,,,,,,,,,,,,972.3666,978.4167,0,0,0,1,1,SoundStimuli/RockWithYou_MichaelJackson_Cover5S.wav,,,,,,,,,,,,,,,,,,,,,,,,,,,,,,,,,,,,,,,,,,,,,,,,,,,,,,,,,
,,,,,399922,001,2024-06-14_12h30.14.629,experiment,2024.1.5,MacIntel,60.24096386,62fd19522ad91588ac9881e7,666b5f73dbba3f0cd916b177,666c6fe063916772c9816e34,,,,,,,,,,,,,,,,,,,,,,,,,,,,,,,,,,,,978.4268,984.7502,0,1,1,0,1,SoundStimuli/RockWithYou_MichaelJackson_Original5S.wav,,,,,,,,,,,,,,,,,,,,,,,,,,,,,,,,,,,,,,,,,,,,,,,,,,,,,,,,,
,,,,,399922,001,2024-06-14_12h30.14.629,experiment,2024.1.5,MacIntel,60.24096386,62fd19522ad91588ac9881e7,666b5f73dbba3f0cd916b177,666c6fe063916772c9816e34,,,,,,,,,,,,,,,,,,,,,,,,,,,,,,,,,,,,,,,,,,,,984.7504,986.3823,6.14049312,1.6197,0,12,12,16,1,song_indices/RockWithYou_MichaelJackson.csv,,,,,,,,,,,,,,,,,,,,,,,,,,,,,,,,,,,,,,,,,,,,,,,
,,,,,399922,001,2024-06-14_12h30.14.629,experiment,2024.1.5,MacIntel,60.24096386,62fd19522ad91588ac9881e7,666b5f73dbba3f0cd916b177,666c6fe063916772c9816e34,,,,,,,,,,,,,,,,,,,,,,,,,,,,,,,,,,,,986.383,992.683,0,0,0,0,1,SoundStimuli/HeyYa_Outkast_Original5S.wav,,,,,,,,,,,,,,,,,,,,,,,,,,,,,,,,,,,,,,,,,,,,,,,,,,,,,,,,,
,,,,,399922,001,2024-06-14_12h30.14.629,experiment,2024.1.5,MacIntel,60.24096386,62fd19522ad91588ac9881e7,666b5f73dbba3f0cd916b177,666c6fe063916772c9816e34,,,,,,,,,,,,,,,,,,,,,,,,,,,,,,,,,,,,992.6925,1001.5998,0,1,1,1,1,SoundStimuli/HeyYa_Outkast_Cover5S.wav,,,,,,,,,,,,,,,,,,,,,,,,,,,,,,,,,,,,,,,,,,,,,,,,,,,,,,,,,
,,,,,399922,001,2024-06-14_12h30.14.629,experiment,2024.1.5,MacIntel,60.24096386,62fd19522ad91588ac9881e7,666b5f73dbba3f0cd916b177,666c6fe063916772c9816e34,,,,,,,,,,,,,,,,,,,,,,,,,,,,,,,,,,,,,,,,,,,,1001.5998,1002.666,5.561658151,1.0546,0,13,13,22,1,song_indices/HeyYa_Outkast.csv,,,,,,,,,,,,,,,,,,,,,,,,,,,,,,,,,,,,,,,,,,,,,,,
,,,,,399922,001,2024-06-14_12h30.14.629,experiment,2024.1.5,MacIntel,60.24096386,62fd19522ad91588ac9881e7,666b5f73dbba3f0cd916b177,666c6fe063916772c9816e34,,,,,,,,,,,,,,,,,,,,,,,,,,,,,,,,,,,,1002.6668,1008.5663,0,0,0,0,1,SoundStimuli/EyeOfTheTiger_Survivor_Original5S.wav,,,,,,,,,,,,,,,,,,,,,,,,,,,,,,,,,,,,,,,,,,,,,,,,,,,,,,,,,
,,,,,399922,001,2024-06-14_12h30.14.629,experiment,2024.1.5,MacIntel,60.24096386,62fd19522ad91588ac9881e7,666b5f73dbba3f0cd916b177,666c6fe063916772c9816e34,,,,,,,,,,,,,,,,,,,,,,,,,,,,,,,,,,,,1008.5771,1014.6997,0,1,1,1,1,SoundStimuli/EyeOfTheTiger_Survivor_Cover5S.wav,,,,,,,,,,,,,,,,,,,,,,,,,,,,,,,,,,,,,,,,,,,,,,,,,,,,,,,,,
,,,,,399922,001,2024-06-14_12h30.14.629,experiment,2024.1.5,MacIntel,60.24096386,62fd19522ad91588ac9881e7,666b5f73dbba3f0cd916b177,666c6fe063916772c9816e34,,,,,,,,,,,,,,,,,,,,,,,,,,,,,,,,,,,,,,,,,,,,1014.6998,1016.5495,6.027842058,1.8362,0,14,14,11,1,song_indices/EyeOfTheTiger_Survivor.csv,,,,,,,,,,,,,,,,,,,,,,,,,,,,,,,,,,,,,,,,,,,,,,,
,,,,,399922,001,2024-06-14_12h30.14.629,experiment,2024.1.5,MacIntel,60.24096386,62fd19522ad91588ac9881e7,666b5f73dbba3f0cd916b177,666c6fe063916772c9816e34,,,,,,,,,,,,,,,,,,,,,,,,,,,,,,,,,,,,1016.5502,1024.5319,0,0,0,1,1,SoundStimuli/TheBattleOfNewOrleans_JohnnyHorton_Cover5S.wav,,,,,,,,,,,,,,,,,,,,,,,,,,,,,,,,,,,,,,,,,,,,,,,,,,,,,,,,,
,,,,,399922,001,2024-06-14_12h30.14.629,experiment,2024.1.5,MacIntel,60.24096386,62fd19522ad91588ac9881e7,666b5f73dbba3f0cd916b177,666c6fe063916772c9816e34,,,,,,,,,,,,,,,,,,,,,,,,,,,,,,,,,,,,1024.542,1030.7492,0,1,1,0,1,SoundStimuli/TheBattleOfNewOrleans_JohnnyHorton_Original5S.wav,,,,,,,,,,,,,,,,,,,,,,,,,,,,,,,,,,,,,,,,,,,,,,,,,,,,,,,,,
,,,,,399922,001,2024-06-14_12h30.14.629,experiment,2024.1.5,MacIntel,60.24096386,62fd19522ad91588ac9881e7,666b5f73dbba3f0cd916b177,666c6fe063916772c9816e34,,,,,,,,,,,,,,,,,,,,,,,,,,,,,,,,,,,,,,,,,,,,1030.7493,1033.2816,5.857122367,2.5199,0,15,15,4,1,song_indices/TheBattleOfNewOrleans_JohnnyHorton.csv,,,,,,,,,,,,,,,,,,,,,,,,,,,,,,,,,,,,,,,,,,,,,,,
,,,,,399922,001,2024-06-14_12h30.14.629,experiment,2024.1.5,MacIntel,60.24096386,62fd19522ad91588ac9881e7,666b5f73dbba3f0cd916b177,666c6fe063916772c9816e34,,,,,,,,,,,,,,,,,,,,,,,,,,,,,,,,,,,,1033.2823,1039.5989,0,0,0,1,1,SoundStimuli/ShapeofYou_EdSheeran_Cover5S.wav,,,,,,,,,,,,,,,,,,,,,,,,,,,,,,,,,,,,,,,,,,,,,,,,,,,,,,,,,
,,,,,399922,001,2024-06-14_12h30.14.629,experiment,2024.1.5,MacIntel,60.24096386,62fd19522ad91588ac9881e7,666b5f73dbba3f0cd916b177,666c6fe063916772c9816e34,,,,,,,,,,,,,,,,,,,,,,,,,,,,,,,,,,,,1039.609,1046.0659,0,1,1,0,1,SoundStimuli/ShapeofYou_EdSheeran_Original5S.wav,,,,,,,,,,,,,,,,,,,,,,,,,,,,,,,,,,,,,,,,,,,,,,,,,,,,,,,,,
,,,,,399922,001,2024-06-14_12h30.14.629,experiment,2024.1.5,MacIntel,60.24096386,62fd19522ad91588ac9881e7,666b5f73dbba3f0cd916b177,666c6fe063916772c9816e34,,,,,,,,,,,,,,,,,,,,,,,,,,,,,,,,,,,,,,,,,,,,1046.0661,1048.8492,5.694363185,2.7697,0,16,16,21,1,song_indices/ShapeofYou_EdSheeran.csv,,,,,,,,,,,,,,,,,,,,,,,,,,,,,,,,,,,,,,,,,,,,,,,
,,,,,399922,001,2024-06-14_12h30.14.629,experiment,2024.1.5,MacIntel,60.24096386,62fd19522ad91588ac9881e7,666b5f73dbba3f0cd916b177,666c6fe063916772c9816e34,,,,,,,,,,,,,,,,,,,,,,,,,,,,,,,,,,,,1048.85,1054.9161,0,0,0,0,1,SoundStimuli/Stronger_KanyeWest_Original5S.wav,,,,,,,,,,,,,,,,,,,,,,,,,,,,,,,,,,,,,,,,,,,,,,,,,,,,,,,,,
,,,,,399922,001,2024-06-14_12h30.14.629,experiment,2024.1.5,MacIntel,60.24096386,62fd19522ad91588ac9881e7,666b5f73dbba3f0cd916b177,666c6fe063916772c9816e34,,,,,,,,,,,,,,,,,,,,,,,,,,,,,,,,,,,,1054.9268,1061.2493,0,1,1,1,1,SoundStimuli/Stronger_KanyeWest_Cover5S.wav,,,,,,,,,,,,,,,,,,,,,,,,,,,,,,,,,,,,,,,,,,,,,,,,,,,,,,,,,
,,,,,399922,001,2024-06-14_12h30.14.629,experiment,2024.1.5,MacIntel,60.24096386,62fd19522ad91588ac9881e7,666b5f73dbba3f0cd916b177,666c6fe063916772c9816e34,,,,,,,,,,,,,,,,,,,,,,,,,,,,,,,,,,,,,,,,,,,,1061.2495,1062.3486,5.203664725,1.0882,0,17,17,9,1,song_indices/Stronger_KanyeWest.csv,,,,,,,,,,,,,,,,,,,,,,,,,,,,,,,,,,,,,,,,,,,,,,,
,,,,,399922,001,2024-06-14_12h30.14.629,experiment,2024.1.5,MacIntel,60.24096386,62fd19522ad91588ac9881e7,666b5f73dbba3f0cd916b177,666c6fe063916772c9816e34,,,,,,,,,,,,,,,,,,,,,,,,,,,,,,,,,,,,1062.3492,1068.5653,0,0,0,0,1,SoundStimuli/BetteDavisEyes_KimCarnes_Original5S.wav,,,,,,,,,,,,,,,,,,,,,,,,,,,,,,,,,,,,,,,,,,,,,,,,,,,,,,,,,
,,,,,399922,001,2024-06-14_12h30.14.629,experiment,2024.1.5,MacIntel,60.24096386,62fd19522ad91588ac9881e7,666b5f73dbba3f0cd916b177,666c6fe063916772c9816e34,,,,,,,,,,,,,,,,,,,,,,,,,,,,,,,,,,,,1068.5757,1074.2662,0,1,1,1,1,SoundStimuli/BetteDavisEyes_KimCarnes_Cover5S.wav,,,,,,,,,,,,,,,,,,,,,,,,,,,,,,,,,,,,,,,,,,,,,,,,,,,,,,,,,
,,,,,399922,001,2024-06-14_12h30.14.629,experiment,2024.1.5,MacIntel,60.24096386,62fd19522ad91588ac9881e7,666b5f73dbba3f0cd916b177,666c6fe063916772c9816e34,,,,,,,,,,,,,,,,,,,,,,,,,,,,,,,,,,,,,,,,,,,,1074.2664,1075.0152,5.166583252,0.7358,0,18,18,5,1,song_indices/BetteDavisEyes_KimCarnes.csv,,,,,,,,,,,,,,,,,,,,,,,,,,,,,,,,,,,,,,,,,,,,,,,
,,,,,399922,001,2024-06-14_12h30.14.629,experiment,2024.1.5,MacIntel,60.24096386,62fd19522ad91588ac9881e7,666b5f73dbba3f0cd916b177,666c6fe063916772c9816e34,,,,,,,,,,,,,,,,,,,,,,,,,,,,,,,,,,,,1075.0161,1081.2317,0,0,0,0,1,SoundStimuli/TheBoyIsMine_BrandyMonica_Original5S.wav,,,,,,,,,,,,,,,,,,,,,,,,,,,,,,,,,,,,,,,,,,,,,,,,,,,,,,,,,
,,,,,399922,001,2024-06-14_12h30.14.629,experiment,2024.1.5,MacIntel,60.24096386,62fd19522ad91588ac9881e7,666b5f73dbba3f0cd916b177,666c6fe063916772c9816e34,,,,,,,,,,,,,,,,,,,,,,,,,,,,,,,,,,,,1081.2415,1087.1813,0,1,1,1,1,SoundStimuli/TheBoyIsMine_BrandyMonica_Cover5S.wav,,,,,,,,,,,,,,,,,,,,,,,,,,,,,,,,,,,,,,,,,,,,,,,,,,,,,,,,,
,,,,,399922,001,2024-06-14_12h30.14.629,experiment,2024.1.5,MacIntel,60.24096386,62fd19522ad91588ac9881e7,666b5f73dbba3f0cd916b177,666c6fe063916772c9816e34,,,,,,,,,,,,,,,,,,,,,,,,,,,,,,,,,,,,,,,,,,,,1087.1814,1088.3979,6.438554818,1.205,0,19,19,6,1,song_indices/TheBoyIsMine_BrandyMonica.csv,,,,,,,,,,,,,,,,,,,,,,,,,,,,,,,,,,,,,,,,,,,,,,,
,,,,,399922,001,2024-06-14_12h30.14.629,experiment,2024.1.5,MacIntel,60.24096386,62fd19522ad91588ac9881e7,666b5f73dbba3f0cd916b177,666c6fe063916772c9816e34,,,,,,,,,,,,,,,,,,,,,,,,,,,,,,,,,,,,1088.3986,1095.6156,0,0,0,0,1,SoundStimuli/UptownFunk_MarkRonson_Original5S.wav,,,,,,,,,,,,,,,,,,,,,,,,,,,,,,,,,,,,,,,,,,,,,,,,,,,,,,,,,
,,,,,399922,001,2024-06-14_12h30.14.629,experiment,2024.1.5,MacIntel,60.24096386,62fd19522ad91588ac9881e7,666b5f73dbba3f0cd916b177,666c6fe063916772c9816e34,,,,,,,,,,,,,,,,,,,,,,,,,,,,,,,,,,,,1095.6262,1102.6312,0,1,1,1,1,SoundStimuli/UptownFunk_MarkRonson_Cover5S.wav,,,,,,,,,,,,,,,,,,,,,,,,,,,,,,,,,,,,,,,,,,,,,,,,,,,,,,,,,
,,,,,399922,001,2024-06-14_12h30.14.629,experiment,2024.1.5,MacIntel,60.24096386,62fd19522ad91588ac9881e7,666b5f73dbba3f0cd916b177,666c6fe063916772c9816e34,,,,,,,,,,,,,,,,,,,,,,,,,,,,,,,,,,,,,,,,,,,,1102.6313,1104.4652,6.695197405,1.8218,0,20,20,15,1,song_indices/UptownFunk_MarkRonson.csv,,,,,,,,,,,,,,,,,,,,,,,,,,,,,,,,,,,,,,,,,,,,,,,
,,,,,399922,001,2024-06-14_12h30.14.629,experiment,2024.1.5,MacIntel,60.24096386,62fd19522ad91588ac9881e7,666b5f73dbba3f0cd916b177,666c6fe063916772c9816e34,,,,,,,,,,,,,,,,,,,,,,,,,,,,,,,,,,,,1104.4659,1112.1988,0,0,0,0,1,SoundStimuli/NoOne_AliciaKeys_Original5S.wav,,,,,,,,,,,,,,,,,,,,,,,,,,,,,,,,,,,,,,,,,,,,,,,,,,,,,,,,,
,,,,,399922,001,2024-06-14_12h30.14.629,experiment,2024.1.5,MacIntel,60.24096386,62fd19522ad91588ac9881e7,666b5f73dbba3f0cd916b177,666c6fe063916772c9816e34,,,,,,,,,,,,,,,,,,,,,,,,,,,,,,,,,,,,1112.2093,1118.4153,0,1,1,1,1,SoundStimuli/NoOne_AliciaKeys_Cover5S.wav,,,,,,,,,,,,,,,,,,,,,,,,,,,,,,,,,,,,,,,,,,,,,,,,,,,,,,,,,
,,,,,399922,001,2024-06-14_12h30.14.629,experiment,2024.1.5,MacIntel,60.24096386,62fd19522ad91588ac9881e7,666b5f73dbba3f0cd916b177,666c6fe063916772c9816e34,,,,,,,,,,,,,,,,,,,,,,,,,,,,,,,,,,,,,,,,,,,,1118.4156,1120.9817,6.108664158,2.5528,0,21,21,19,1,song_indices/NoOne_AliciaKeys.csv,,,,,,,,,,,,,,,,,,,,,,,,,,,,,,,,,,,,,,,,,,,,,,,
,,,,,399922,001,2024-06-14_12h30.14.629,experiment,2024.1.5,MacIntel,60.24096386,62fd19522ad91588ac9881e7,666b5f73dbba3f0cd916b177,666c6fe063916772c9816e34,,,,,,,,,,,,,,,,,,,,,,,,,,,,,,,,,,,,1120.9823,1126.9649,0,0,0,0,1,SoundStimuli/IWalkTheLine_JohnnyCash_Original5S.wav,,,,,,,,,,,,,,,,,,,,,,,,,,,,,,,,,,,,,,,,,,,,,,,,,,,,,,,,,
,,,,,399922,001,2024-06-14_12h30.14.629,experiment,2024.1.5,MacIntel,60.24096386,62fd19522ad91588ac9881e7,666b5f73dbba3f0cd916b177,666c6fe063916772c9816e34,,,,,,,,,,,,,,,,,,,,,,,,,,,,,,,,,,,,1126.9742,1134.1152,0,1,1,1,1,SoundStimuli/IWalkTheLine_JohnnyCash_Cover5S.wav,,,,,,,,,,,,,,,,,,,,,,,,,,,,,,,,,,,,,,,,,,,,,,,,,,,,,,,,,
,,,,,399922,001,2024-06-14_12h30.14.629,experiment,2024.1.5,MacIntel,60.24096386,62fd19522ad91588ac9881e7,666b5f73dbba3f0cd916b177,666c6fe063916772c9816e34,,,,,,,,,,,,,,,,,,,,,,,,,,,,,,,,,,,,,,,,,,,,1134.1154,1135.1141,3.86142055,0.9886,0,22,22,17,1,song_indices/IWalkTheLine_JohnnyCash.csv,,,,,,,,,,,,,,,,,,,,,,,,,,,,,,,,,,,,,,,,,,,,,,,
,,,,,399922,001,2024-06-14_12h30.14.629,experiment,2024.1.5,MacIntel,60.24096386,62fd19522ad91588ac9881e7,666b5f73dbba3f0cd916b177,666c6fe063916772c9816e34,,,,,,,,,,,,,,,,,,,,,,,,,,,,,,,,,,,,,,,,,,,,,,,,,,,,,,1135.1141,1135.1143,,,,0,2,2,1,1,choose_song_b2.csv,,,,,,,,,,,,,,,,,,,,,,,,,,,,,,,,,,,,
,,,,,399922,001,2024-06-14_12h30.14.629,experiment,2024.1.5,MacIntel,60.24096386,62fd19522ad91588ac9881e7,666b5f73dbba3f0cd916b177,666c6fe063916772c9816e34,,,,,,,,,,,,,,,,,,,,,,,,,,,,,,,,,,,,,,,,,,,,,,,,,,,,,,,,,,,,,,,,,24,Item 1,Not a musician,Item 3,Apple Music,5,7,"Studying, gaming, before , relaxing",Never,Often,Sometimes,Always,Always,Never,Often,Never,Never,Never,Rarely,Always,Never,Never,Rarely,Never,House,R&B,Hip Hop,Pop,"Not really, I still like the same songs that I did as a teenager (most of them)",0,0,0,0,1,,
,,,,,399922,001,2024-06-14_12h30.14.629,experiment,2024.1.5,MacIntel,60.24096386,62fd19522ad91588ac9881e7,666b5f73dbba3f0cd916b177,666c6fe063916772c9816e34,,,,,,,,,,,,,,,,,,,,,,,,,,,,,,,,,,,,,,,,,,,,,,,,,,,,,,,,,,,,,,,,,,,,,,,,,,,,,,,,,,,,,,,,,,,,,,,,,,,1299.7582,1301.2466
