welcome.started,welcome.stopped,space_to_continue.keys,space_to_continue.rt,space_to_continue.duration,participant,session,date,expName,psychopyVersion,OS,frameRate,PROLIFIC_PID,STUDY_ID,SESSION_ID,consent.consent,consent.consent_recontact,consent_check.started,consent_check.stopped,calibration_ready.started,calibration_ready.stopped,cal_ready.keys,cal_ready.rt,cal_ready.duration,calibration.started,calibration.stopped,mouse.x,mouse.y,mouse.leftButton,mouse.midButton,mouse.rightButton,mouse.time,mouse.clicked_name,move_on.keys,move_on.rt,move_on.duration,instructions.started,instructions.stopped,next.keys,next.rt,next.duration,practice_trial.started,practice_trial.stopped,practice_slider.response,practice_slider.rt,ready.started,ready.stopped,key_resp.keys,key_resp.rt,key_resp.duration,play_sound.started,play_sound.stopped,trials.thisRepN,trials.thisTrialN,trials.thisN,trials.thisIndex,trials.ran,orig_or_cover,rating.started,rating.stopped,slider.response,slider.rt,songs.thisRepN,songs.thisTrialN,songs.thisN,songs.thisIndex,songs.ran,song_id,short_break.started,short_break.stopped,space_to_move_on.keys,space_to_move_on.rt,space_to_move_on.duration,blocks.thisRepN,blocks.thisTrialN,blocks.thisN,blocks.thisIndex,blocks.ran,block,survey.age,survey.musician,survey.music_making,survey.listen_time,survey.medium,survey.music_seeking,survey.music_choice,survey.activities,survey.question1.Folk/indie,survey.question1.R&B,survey.question1.Classical,survey.question1.Latin,survey.question1.Pop,survey.question1.A cappella,survey.question1.Metal,survey.question1.Classic rock,survey.question1.Alternative rock,survey.question1.Reggae,survey.question1.Country,survey.question1.Jazz,survey.question1.Ambient,survey.question1.Hip hop,survey.question1.Disco,survey.question1.Electronic (EDM),survey.other_genres,survey.genres_ranked.text1,survey.genres_ranked.text2,survey.genres_ranked.text3,survey.habit_change,survey.habits,experiment.thisRepN,experiment.thisTrialN,experiment.thisN,experiment.thisIndex,experiment.ran,goodbye.started,goodbye.stopped
0.0001,1.2903,space,1.2738,,418264,001,2024-06-14_11h20.10.541,experiment,2024.1.5,MacIntel,59.88023952,664614c87025e6f51aae8ea4,666b5f73dbba3f0cd916b177,666c6d8d33aa95ee79c11bc5,,,,,,,,,,,,,,,,,,,,,,,,,,,,,,,,,,,,,,,,,,,,,,,,,,,,,,,,,,,,,,,,,,,,,,,,,,,,,,,,,,,,,,,,,,,,,,,,,,,,,
,,,,,418264,001,2024-06-14_11h20.10.541,experiment,2024.1.5,MacIntel,59.88023952,664614c87025e6f51aae8ea4,666b5f73dbba3f0cd916b177,666c6d8d33aa95ee79c11bc5,yes,yes,,,,,,,,,,,,,,,,,,,,,,,,,,,,,,,,,,,,,,,,,,,,,,,,,,,,,,,,,,,,,,,,,,,,,,,,,,,,,,,,,,,,,,,,,,,,,,,,,,,
,,,,,418264,001,2024-06-14_11h20.10.541,experiment,2024.1.5,MacIntel,59.88023952,664614c87025e6f51aae8ea4,666b5f73dbba3f0cd916b177,666c6d8d33aa95ee79c11bc5,,,13.8205,13.8208,,,,,,,,,,,,,,,,,,,,,,,,,,,,,,,,,,,,,,,,,,,,,,,,,,,,,,,,,,,,,,,,,,,,,,,,,,,,,,,,,,,,,,,,,,,,,,,,,
,,,,,418264,001,2024-06-14_11h20.10.541,experiment,2024.1.5,MacIntel,59.88023952,664614c87025e6f51aae8ea4,666b5f73dbba3f0cd916b177,666c6d8d33aa95ee79c11bc5,,,,,13.8236,54.2946,space,40.4423,,54.2948,70.9098,"[-0.0057855902777777775,-0.0018663194444444445]","[-0.42617621527777777,-0.4263237847222222]","[1,1]","[0,0]","[0,0]","[3.2149000000357546,15.198300000011926]","[""play_button"",""play_button""]",right,6.5857,,70.919,77.794,space,6.8509,,77.7942,92.4774,5.997473958,14.6691,92.4778,93.5108,space,1.0138,,93.5299,99.6618,0,0,0,1,1,SoundStimuli/NoScrubs_TLC_Cover5S.wav,,,,,,,,,,,,,,,,,,,,,,,,,,,,,,,,,,,,,,,,,,,,,,,,,,,,,,,,,,
,,,,,418264,001,2024-06-14_11h20.10.541,experiment,2024.1.5,MacIntel,59.88023952,664614c87025e6f51aae8ea4,666b5f73dbba3f0cd916b177,666c6d8d33aa95ee79c11bc5,,,,,,,,,,,,,,,,,,,,,,,,,,,,,,,,,,,,99.6623,105.8611,0,1,1,0,1,SoundStimuli/NoScrubs_TLC_Original5S.wav,,,,,,,,,,,,,,,,,,,,,,,,,,,,,,,,,,,,,,,,,,,,,,,,,,,,,,,,,,
,,,,,418264,001,2024-06-14_11h20.10.541,experiment,2024.1.5,MacIntel,59.88023952,664614c87025e6f51aae8ea4,666b5f73dbba3f0cd916b177,666c6d8d33aa95ee79c11bc5,,,,,,,,,,,,,,,,,,,,,,,,,,,,,,,,,,,,,,,,,,,,105.8721,108.9947,6.980208333,3.1206,0,0,0,14,1,song_indices/NoScrubs_TLC.csv,,,,,,,,,,,,,,,,,,,,,,,,,,,,,,,,,,,,,,,,,,,,,,,,
,,,,,418264,001,2024-06-14_11h20.10.541,experiment,2024.1.5,MacIntel,59.88023952,664614c87025e6f51aae8ea4,666b5f73dbba3f0cd916b177,666c6d8d33aa95ee79c11bc5,,,,,,,,,,,,,,,,,,,,,,,,,,,,,,,,,,,,108.9959,115.3281,0,0,0,1,1,SoundStimuli/Stronger_KanyeWest_Cover5S.wav,,,,,,,,,,,,,,,,,,,,,,,,,,,,,,,,,,,,,,,,,,,,,,,,,,,,,,,,,,
,,,,,418264,001,2024-06-14_11h20.10.541,experiment,2024.1.5,MacIntel,59.88023952,664614c87025e6f51aae8ea4,666b5f73dbba3f0cd916b177,666c6d8d33aa95ee79c11bc5,,,,,,,,,,,,,,,,,,,,,,,,,,,,,,,,,,,,115.3387,121.394,0,1,1,0,1,SoundStimuli/Stronger_KanyeWest_Original5S.wav,,,,,,,,,,,,,,,,,,,,,,,,,,,,,,,,,,,,,,,,,,,,,,,,,,,,,,,,,,
,,,,,418264,001,2024-06-14_11h20.10.541,experiment,2024.1.5,MacIntel,59.88023952,664614c87025e6f51aae8ea4,666b5f73dbba3f0cd916b177,666c6d8d33aa95ee79c11bc5,,,,,,,,,,,,,,,,,,,,,,,,,,,,,,,,,,,,,,,,,,,,121.3941,123.4771,4.016692708,2.0611,0,1,1,9,1,song_indices/Stronger_KanyeWest.csv,,,,,,,,,,,,,,,,,,,,,,,,,,,,,,,,,,,,,,,,,,,,,,,,
,,,,,418264,001,2024-06-14_11h20.10.541,experiment,2024.1.5,MacIntel,59.88023952,664614c87025e6f51aae8ea4,666b5f73dbba3f0cd916b177,666c6d8d33aa95ee79c11bc5,,,,,,,,,,,,,,,,,,,,,,,,,,,,,,,,,,,,123.4783,129.7784,0,0,0,0,1,SoundStimuli/HeyYa_Outkast_Original5S.wav,,,,,,,,,,,,,,,,,,,,,,,,,,,,,,,,,,,,,,,,,,,,,,,,,,,,,,,,,,
,,,,,418264,001,2024-06-14_11h20.10.541,experiment,2024.1.5,MacIntel,59.88023952,664614c87025e6f51aae8ea4,666b5f73dbba3f0cd916b177,666c6d8d33aa95ee79c11bc5,,,,,,,,,,,,,,,,,,,,,,,,,,,,,,,,,,,,129.7895,138.6957,0,1,1,1,1,SoundStimuli/HeyYa_Outkast_Cover5S.wav,,,,,,,,,,,,,,,,,,,,,,,,,,,,,,,,,,,,,,,,,,,,,,,,,,,,,,,,,,
,,,,,418264,001,2024-06-14_11h20.10.541,experiment,2024.1.5,MacIntel,59.88023952,664614c87025e6f51aae8ea4,666b5f73dbba3f0cd916b177,666c6d8d33aa95ee79c11bc5,,,,,,,,,,,,,,,,,,,,,,,,,,,,,,,,,,,,,,,,,,,,138.696,140.5788,2.042473958,1.8689,0,2,2,22,1,song_indices/HeyYa_Outkast.csv,,,,,,,,,,,,,,,,,,,,,,,,,,,,,,,,,,,,,,,,,,,,,,,,
,,,,,418264,001,2024-06-14_11h20.10.541,experiment,2024.1.5,MacIntel,59.88023952,664614c87025e6f51aae8ea4,666b5f73dbba3f0cd916b177,666c6d8d33aa95ee79c11bc5,,,,,,,,,,,,,,,,,,,,,,,,,,,,,,,,,,,,140.58,146.7961,0,0,0,0,1,SoundStimuli/TheBoyIsMine_BrandyMonica_Original5S.wav,,,,,,,,,,,,,,,,,,,,,,,,,,,,,,,,,,,,,,,,,,,,,,,,,,,,,,,,,,
,,,,,418264,001,2024-06-14_11h20.10.541,experiment,2024.1.5,MacIntel,59.88023952,664614c87025e6f51aae8ea4,666b5f73dbba3f0cd916b177,666c6d8d33aa95ee79c11bc5,,,,,,,,,,,,,,,,,,,,,,,,,,,,,,,,,,,,146.8082,152.7464,0,1,1,1,1,SoundStimuli/TheBoyIsMine_BrandyMonica_Cover5S.wav,,,,,,,,,,,,,,,,,,,,,,,,,,,,,,,,,,,,,,,,,,,,,,,,,,,,,,,,,,
,,,,,418264,001,2024-06-14_11h20.10.541,experiment,2024.1.5,MacIntel,59.88023952,664614c87025e6f51aae8ea4,666b5f73dbba3f0cd916b177,666c6d8d33aa95ee79c11bc5,,,,,,,,,,,,,,,,,,,,,,,,,,,,,,,,,,,,,,,,,,,,152.7467,153.8291,6.869166667,1.0594,0,3,3,6,1,song_indices/TheBoyIsMine_BrandyMonica.csv,,,,,,,,,,,,,,,,,,,,,,,,,,,,,,,,,,,,,,,,,,,,,,,,
,,,,,418264,001,2024-06-14_11h20.10.541,experiment,2024.1.5,MacIntel,59.88023952,664614c87025e6f51aae8ea4,666b5f73dbba3f0cd916b177,666c6d8d33aa95ee79c11bc5,,,,,,,,,,,,,,,,,,,,,,,,,,,,,,,,,,,,153.8298,159.8129,0,0,0,0,1,SoundStimuli/IWalkTheLine_JohnnyCash_Original5S.wav,,,,,,,,,,,,,,,,,,,,,,,,,,,,,,,,,,,,,,,,,,,,,,,,,,,,,,,,,,
,,,,,418264,001,2024-06-14_11h20.10.541,experiment,2024.1.5,MacIntel,59.88023952,664614c87025e6f51aae8ea4,666b5f73dbba3f0cd916b177,666c6d8d33aa95ee79c11bc5,,,,,,,,,,,,,,,,,,,,,,,,,,,,,,,,,,,,159.8217,166.9633,0,1,1,1,1,SoundStimuli/IWalkTheLine_JohnnyCash_Cover5S.wav,,,,,,,,,,,,,,,,,,,,,,,,,,,,,,,,,,,,,,,,,,,,,,,,,,,,,,,,,,
,,,,,418264,001,2024-06-14_11h20.10.541,experiment,2024.1.5,MacIntel,59.88023952,664614c87025e6f51aae8ea4,666b5f73dbba3f0cd916b177,666c6d8d33aa95ee79c11bc5,,,,,,,,,,,,,,,,,,,,,,,,,,,,,,,,,,,,,,,,,,,,166.9634,167.5797,4.55296875,0.6081,0,4,4,17,1,song_indices/IWalkTheLine_JohnnyCash.csv,,,,,,,,,,,,,,,,,,,,,,,,,,,,,,,,,,,,,,,,,,,,,,,,
,,,,,418264,001,2024-06-14_11h20.10.541,experiment,2024.1.5,MacIntel,59.88023952,664614c87025e6f51aae8ea4,666b5f73dbba3f0cd916b177,666c6d8d33aa95ee79c11bc5,,,,,,,,,,,,,,,,,,,,,,,,,,,,,,,,,,,,167.58,173.7968,0,0,0,0,1,SoundStimuli/BetteDavisEyes_KimCarnes_Original5S.wav,,,,,,,,,,,,,,,,,,,,,,,,,,,,,,,,,,,,,,,,,,,,,,,,,,,,,,,,,,
,,,,,418264,001,2024-06-14_11h20.10.541,experiment,2024.1.5,MacIntel,59.88023952,664614c87025e6f51aae8ea4,666b5f73dbba3f0cd916b177,666c6d8d33aa95ee79c11bc5,,,,,,,,,,,,,,,,,,,,,,,,,,,,,,,,,,,,173.8046,179.4971,0,1,1,1,1,SoundStimuli/BetteDavisEyes_KimCarnes_Cover5S.wav,,,,,,,,,,,,,,,,,,,,,,,,,,,,,,,,,,,,,,,,,,,,,,,,,,,,,,,,,,
,,,,,418264,001,2024-06-14_11h20.10.541,experiment,2024.1.5,MacIntel,59.88023952,664614c87025e6f51aae8ea4,666b5f73dbba3f0cd916b177,666c6d8d33aa95ee79c11bc5,,,,,,,,,,,,,,,,,,,,,,,,,,,,,,,,,,,,,,,,,,,,179.4973,180.1137,4.997161458,0.6033,0,5,5,5,1,song_indices/BetteDavisEyes_KimCarnes.csv,,,,,,,,,,,,,,,,,,,,,,,,,,,,,,,,,,,,,,,,,,,,,,,,
,,,,,418264,001,2024-06-14_11h20.10.541,experiment,2024.1.5,MacIntel,59.88023952,664614c87025e6f51aae8ea4,666b5f73dbba3f0cd916b177,666c6d8d33aa95ee79c11bc5,,,,,,,,,,,,,,,,,,,,,,,,,,,,,,,,,,,,180.1148,186.3474,0,0,0,1,1,SoundStimuli/ItsAllInTheGame_TommyEdwards_Cover5S.wav,,,,,,,,,,,,,,,,,,,,,,,,,,,,,,,,,,,,,,,,,,,,,,,,,,,,,,,,,,
,,,,,418264,001,2024-06-14_11h20.10.541,experiment,2024.1.5,MacIntel,59.88023952,664614c87025e6f51aae8ea4,666b5f73dbba3f0cd916b177,666c6d8d33aa95ee79c11bc5,,,,,,,,,,,,,,,,,,,,,,,,,,,,,,,,,,,,186.3571,192.6142,0,1,1,0,1,SoundStimuli/ItsAllInTheGame_TommyEdwards_Original5S.wav,,,,,,,,,,,,,,,,,,,,,,,,,,,,,,,,,,,,,,,,,,,,,,,,,,,,,,,,,,
,,,,,418264,001,2024-06-14_11h20.10.541,experiment,2024.1.5,MacIntel,59.88023952,664614c87025e6f51aae8ea4,666b5f73dbba3f0cd916b177,666c6d8d33aa95ee79c11bc5,,,,,,,,,,,,,,,,,,,,,,,,,,,,,,,,,,,,,,,,,,,,192.6143,195.064,5.651458333,2.4369,0,6,6,13,1,song_indices/ItsAllInTheGame_TommyEdwards.csv,,,,,,,,,,,,,,,,,,,,,,,,,,,,,,,,,,,,,,,,,,,,,,,,
,,,,,418264,001,2024-06-14_11h20.10.541,experiment,2024.1.5,MacIntel,59.88023952,664614c87025e6f51aae8ea4,666b5f73dbba3f0cd916b177,666c6d8d33aa95ee79c11bc5,,,,,,,,,,,,,,,,,,,,,,,,,,,,,,,,,,,,195.065,205.3144,0,0,0,1,1,SoundStimuli/CrazyInLove_BeyonceFtJayZ_Cover5S.wav,,,,,,,,,,,,,,,,,,,,,,,,,,,,,,,,,,,,,,,,,,,,,,,,,,,,,,,,,,
,,,,,418264,001,2024-06-14_11h20.10.541,experiment,2024.1.5,MacIntel,59.88023952,664614c87025e6f51aae8ea4,666b5f73dbba3f0cd916b177,666c6d8d33aa95ee79c11bc5,,,,,,,,,,,,,,,,,,,,,,,,,,,,,,,,,,,,205.3212,211.865,0,1,1,0,1,SoundStimuli/CrazyInLove_BeyonceFtJayZ_Original5S.wav,,,,,,,,,,,,,,,,,,,,,,,,,,,,,,,,,,,,,,,,,,,,,,,,,,,,,,,,,,
,,,,,418264,001,2024-06-14_11h20.10.541,experiment,2024.1.5,MacIntel,59.88023952,664614c87025e6f51aae8ea4,666b5f73dbba3f0cd916b177,666c6d8d33aa95ee79c11bc5,,,,,,,,,,,,,,,,,,,,,,,,,,,,,,,,,,,,,,,,,,,,211.8653,215.3142,4.987135417,3.4372,0,7,7,3,1,song_indices/CrazyInLove_BeyonceFtJayZ.csv,,,,,,,,,,,,,,,,,,,,,,,,,,,,,,,,,,,,,,,,,,,,,,,,
,,,,,418264,001,2024-06-14_11h20.10.541,experiment,2024.1.5,MacIntel,59.88023952,664614c87025e6f51aae8ea4,666b5f73dbba3f0cd916b177,666c6d8d33aa95ee79c11bc5,,,,,,,,,,,,,,,,,,,,,,,,,,,,,,,,,,,,215.3152,221.4983,0,0,0,0,1,SoundStimuli/Fallin_AliciaKeys_Original5S.wav,,,,,,,,,,,,,,,,,,,,,,,,,,,,,,,,,,,,,,,,,,,,,,,,,,,,,,,,,,
,,,,,418264,001,2024-06-14_11h20.10.541,experiment,2024.1.5,MacIntel,59.88023952,664614c87025e6f51aae8ea4,666b5f73dbba3f0cd916b177,666c6d8d33aa95ee79c11bc5,,,,,,,,,,,,,,,,,,,,,,,,,,,,,,,,,,,,221.5041,227.9316,0,1,1,1,1,SoundStimuli/Fallin_AliciaKeys_Cover5S.wav,,,,,,,,,,,,,,,,,,,,,,,,,,,,,,,,,,,,,,,,,,,,,,,,,,,,,,,,,,
,,,,,418264,001,2024-06-14_11h20.10.541,experiment,2024.1.5,MacIntel,59.88023952,664614c87025e6f51aae8ea4,666b5f73dbba3f0cd916b177,666c6d8d33aa95ee79c11bc5,,,,,,,,,,,,,,,,,,,,,,,,,,,,,,,,,,,,,,,,,,,,227.9319,228.7987,5.990130208,0.8538,0,8,8,12,1,song_indices/Fallin_AliciaKeys.csv,,,,,,,,,,,,,,,,,,,,,,,,,,,,,,,,,,,,,,,,,,,,,,,,
,,,,,418264,001,2024-06-14_11h20.10.541,experiment,2024.1.5,MacIntel,59.88023952,664614c87025e6f51aae8ea4,666b5f73dbba3f0cd916b177,666c6d8d33aa95ee79c11bc5,,,,,,,,,,,,,,,,,,,,,,,,,,,,,,,,,,,,228.7995,236.0326,0,0,0,0,1,SoundStimuli/UptownFunk_MarkRonson_Original5S.wav,,,,,,,,,,,,,,,,,,,,,,,,,,,,,,,,,,,,,,,,,,,,,,,,,,,,,,,,,,
,,,,,418264,001,2024-06-14_11h20.10.541,experiment,2024.1.5,MacIntel,59.88023952,664614c87025e6f51aae8ea4,666b5f73dbba3f0cd916b177,666c6d8d33aa95ee79c11bc5,,,,,,,,,,,,,,,,,,,,,,,,,,,,,,,,,,,,236.0416,243.0494,0,1,1,1,1,SoundStimuli/UptownFunk_MarkRonson_Cover5S.wav,,,,,,,,,,,,,,,,,,,,,,,,,,,,,,,,,,,,,,,,,,,,,,,,,,,,,,,,,,
,,,,,418264,001,2024-06-14_11h20.10.541,experiment,2024.1.5,MacIntel,59.88023952,664614c87025e6f51aae8ea4,666b5f73dbba3f0cd916b177,666c6d8d33aa95ee79c11bc5,,,,,,,,,,,,,,,,,,,,,,,,,,,,,,,,,,,,,,,,,,,,243.0496,245.5155,6.96609375,2.4439,0,9,9,15,1,song_indices/UptownFunk_MarkRonson.csv,,,,,,,,,,,,,,,,,,,,,,,,,,,,,,,,,,,,,,,,,,,,,,,,
,,,,,418264,001,2024-06-14_11h20.10.541,experiment,2024.1.5,MacIntel,59.88023952,664614c87025e6f51aae8ea4,666b5f73dbba3f0cd916b177,666c6d8d33aa95ee79c11bc5,,,,,,,,,,,,,,,,,,,,,,,,,,,,,,,,,,,,245.5165,253.4989,0,0,0,1,1,SoundStimuli/TheBattleOfNewOrleans_JohnnyHorton_Cover5S.wav,,,,,,,,,,,,,,,,,,,,,,,,,,,,,,,,,,,,,,,,,,,,,,,,,,,,,,,,,,
,,,,,418264,001,2024-06-14_11h20.10.541,experiment,2024.1.5,MacIntel,59.88023952,664614c87025e6f51aae8ea4,666b5f73dbba3f0cd916b177,666c6d8d33aa95ee79c11bc5,,,,,,,,,,,,,,,,,,,,,,,,,,,,,,,,,,,,253.5113,259.7166,0,1,1,0,1,SoundStimuli/TheBattleOfNewOrleans_JohnnyHorton_Original5S.wav,,,,,,,,,,,,,,,,,,,,,,,,,,,,,,,,,,,,,,,,,,,,,,,,,,,,,,,,,,
,,,,,418264,001,2024-06-14_11h20.10.541,experiment,2024.1.5,MacIntel,59.88023952,664614c87025e6f51aae8ea4,666b5f73dbba3f0cd916b177,666c6d8d33aa95ee79c11bc5,,,,,,,,,,,,,,,,,,,,,,,,,,,,,,,,,,,,,,,,,,,,259.7167,260.6667,2.561875,0.9264,0,10,10,4,1,song_indices/TheBattleOfNewOrleans_JohnnyHorton.csv,,,,,,,,,,,,,,,,,,,,,,,,,,,,,,,,,,,,,,,,,,,,,,,,
,,,,,418264,001,2024-06-14_11h20.10.541,experiment,2024.1.5,MacIntel,59.88023952,664614c87025e6f51aae8ea4,666b5f73dbba3f0cd916b177,666c6d8d33aa95ee79c11bc5,,,,,,,,,,,,,,,,,,,,,,,,,,,,,,,,,,,,260.6678,268.0338,0,0,0,0,1,SoundStimuli/Happy_PharellWilliams_Original5S.wav,,,,,,,,,,,,,,,,,,,,,,,,,,,,,,,,,,,,,,,,,,,,,,,,,,,,,,,,,,
,,,,,418264,001,2024-06-14_11h20.10.541,experiment,2024.1.5,MacIntel,59.88023952,664614c87025e6f51aae8ea4,666b5f73dbba3f0cd916b177,666c6d8d33aa95ee79c11bc5,,,,,,,,,,,,,,,,,,,,,,,,,,,,,,,,,,,,268.0464,275.4006,0,1,1,1,1,SoundStimuli/Happy_PharellWilliams_Cover5S.wav,,,,,,,,,,,,,,,,,,,,,,,,,,,,,,,,,,,,,,,,,,,,,,,,,,,,,,,,,,
,,,,,418264,001,2024-06-14_11h20.10.541,experiment,2024.1.5,MacIntel,59.88023952,664614c87025e6f51aae8ea4,666b5f73dbba3f0cd916b177,666c6d8d33aa95ee79c11bc5,,,,,,,,,,,,,,,,,,,,,,,,,,,,,,,,,,,,,,,,,,,,275.4007,276.3171,5.541223958,0.9061,0,11,11,7,1,song_indices/Happy_PharellWilliams.csv,,,,,,,,,,,,,,,,,,,,,,,,,,,,,,,,,,,,,,,,,,,,,,,,
,,,,,418264,001,2024-06-14_11h20.10.541,experiment,2024.1.5,MacIntel,59.88023952,664614c87025e6f51aae8ea4,666b5f73dbba3f0cd916b177,666c6d8d33aa95ee79c11bc5,,,,,,,,,,,,,,,,,,,,,,,,,,,,,,,,,,,,276.3179,282.3858,0,0,0,1,1,SoundStimuli/RockWithYou_MichaelJackson_Cover5S.wav,,,,,,,,,,,,,,,,,,,,,,,,,,,,,,,,,,,,,,,,,,,,,,,,,,,,,,,,,,
,,,,,418264,001,2024-06-14_11h20.10.541,experiment,2024.1.5,MacIntel,59.88023952,664614c87025e6f51aae8ea4,666b5f73dbba3f0cd916b177,666c6d8d33aa95ee79c11bc5,,,,,,,,,,,,,,,,,,,,,,,,,,,,,,,,,,,,282.3904,288.7177,0,1,1,0,1,SoundStimuli/RockWithYou_MichaelJackson_Original5S.wav,,,,,,,,,,,,,,,,,,,,,,,,,,,,,,,,,,,,,,,,,,,,,,,,,,,,,,,,,,
,,,,,418264,001,2024-06-14_11h20.10.541,experiment,2024.1.5,MacIntel,59.88023952,664614c87025e6f51aae8ea4,666b5f73dbba3f0cd916b177,666c6d8d33aa95ee79c11bc5,,,,,,,,,,,,,,,,,,,,,,,,,,,,,,,,,,,,,,,,,,,,288.7179,289.7675,4.329765625,1.0381,0,12,12,16,1,song_indices/RockWithYou_MichaelJackson.csv,,,,,,,,,,,,,,,,,,,,,,,,,,,,,,,,,,,,,,,,,,,,,,,,
,,,,,418264,001,2024-06-14_11h20.10.541,experiment,2024.1.5,MacIntel,59.88023952,664614c87025e6f51aae8ea4,666b5f73dbba3f0cd916b177,666c6d8d33aa95ee79c11bc5,,,,,,,,,,,,,,,,,,,,,,,,,,,,,,,,,,,,289.7683,295.5339,0,0,0,1,1,SoundStimuli/SmellsLikeTeenSpirit_Nirvana_Cover5S.wav,,,,,,,,,,,,,,,,,,,,,,,,,,,,,,,,,,,,,,,,,,,,,,,,,,,,,,,,,,
,,,,,418264,001,2024-06-14_11h20.10.541,experiment,2024.1.5,MacIntel,59.88023952,664614c87025e6f51aae8ea4,666b5f73dbba3f0cd916b177,666c6d8d33aa95ee79c11bc5,,,,,,,,,,,,,,,,,,,,,,,,,,,,,,,,,,,,295.5441,301.7508,0,1,1,0,1,SoundStimuli/SmellsLikeTeenSpirit_Nirvana_Original5S.wav,,,,,,,,,,,,,,,,,,,,,,,,,,,,,,,,,,,,,,,,,,,,,,,,,,,,,,,,,,
,,,,,418264,001,2024-06-14_11h20.10.541,experiment,2024.1.5,MacIntel,59.88023952,664614c87025e6f51aae8ea4,666b5f73dbba3f0cd916b177,666c6d8d33aa95ee79c11bc5,,,,,,,,,,,,,,,,,,,,,,,,,,,,,,,,,,,,,,,,,,,,301.751,302.9509,6.953255208,1.1868,0,13,13,8,1,song_indices/SmellsLikeTeenSpirit_Nirvana.csv,,,,,,,,,,,,,,,,,,,,,,,,,,,,,,,,,,,,,,,,,,,,,,,,
,,,,,418264,001,2024-06-14_11h20.10.541,experiment,2024.1.5,MacIntel,59.88023952,664614c87025e6f51aae8ea4,666b5f73dbba3f0cd916b177,666c6d8d33aa95ee79c11bc5,,,,,,,,,,,,,,,,,,,,,,,,,,,,,,,,,,,,302.9518,309.2687,0,0,0,1,1,SoundStimuli/ShapeofYou_EdSheeran_Cover5S.wav,,,,,,,,,,,,,,,,,,,,,,,,,,,,,,,,,,,,,,,,,,,,,,,,,,,,,,,,,,
,,,,,418264,001,2024-06-14_11h20.10.541,experiment,2024.1.5,MacIntel,59.88023952,664614c87025e6f51aae8ea4,666b5f73dbba3f0cd916b177,666c6d8d33aa95ee79c11bc5,,,,,,,,,,,,,,,,,,,,,,,,,,,,,,,,,,,,309.2805,315.735,0,1,1,0,1,SoundStimuli/ShapeofYou_EdSheeran_Original5S.wav,,,,,,,,,,,,,,,,,,,,,,,,,,,,,,,,,,,,,,,,,,,,,,,,,,,,,,,,,,
,,,,,418264,001,2024-06-14_11h20.10.541,experiment,2024.1.5,MacIntel,59.88023952,664614c87025e6f51aae8ea4,666b5f73dbba3f0cd916b177,666c6d8d33aa95ee79c11bc5,,,,,,,,,,,,,,,,,,,,,,,,,,,,,,,,,,,,,,,,,,,,315.7351,316.9685,3.533125,1.2234,0,14,14,21,1,song_indices/ShapeofYou_EdSheeran.csv,,,,,,,,,,,,,,,,,,,,,,,,,,,,,,,,,,,,,,,,,,,,,,,,
,,,,,418264,001,2024-06-14_11h20.10.541,experiment,2024.1.5,MacIntel,59.88023952,664614c87025e6f51aae8ea4,666b5f73dbba3f0cd916b177,666c6d8d33aa95ee79c11bc5,,,,,,,,,,,,,,,,,,,,,,,,,,,,,,,,,,,,316.969,323.1859,0,0,0,1,1,SoundStimuli/NoOne_AliciaKeys_Cover5S.wav,,,,,,,,,,,,,,,,,,,,,,,,,,,,,,,,,,,,,,,,,,,,,,,,,,,,,,,,,,
,,,,,418264,001,2024-06-14_11h20.10.541,experiment,2024.1.5,MacIntel,59.88023952,664614c87025e6f51aae8ea4,666b5f73dbba3f0cd916b177,666c6d8d33aa95ee79c11bc5,,,,,,,,,,,,,,,,,,,,,,,,,,,,,,,,,,,,323.1966,330.9181,0,1,1,0,1,SoundStimuli/NoOne_AliciaKeys_Original5S.wav,,,,,,,,,,,,,,,,,,,,,,,,,,,,,,,,,,,,,,,,,,,,,,,,,,,,,,,,,,
,,,,,418264,001,2024-06-14_11h20.10.541,experiment,2024.1.5,MacIntel,59.88023952,664614c87025e6f51aae8ea4,666b5f73dbba3f0cd916b177,666c6d8d33aa95ee79c11bc5,,,,,,,,,,,,,,,,,,,,,,,,,,,,,,,,,,,,,,,,,,,,330.9183,331.6028,2.939713542,0.6615,0,15,15,19,1,song_indices/NoOne_AliciaKeys.csv,,,,,,,,,,,,,,,,,,,,,,,,,,,,,,,,,,,,,,,,,,,,,,,,
,,,,,418264,001,2024-06-14_11h20.10.541,experiment,2024.1.5,MacIntel,59.88023952,664614c87025e6f51aae8ea4,666b5f73dbba3f0cd916b177,666c6d8d33aa95ee79c11bc5,,,,,,,,,,,,,,,,,,,,,,,,,,,,,,,,,,,,331.6042,337.6698,0,0,0,0,1,SoundStimuli/GoodGollyMissMolly_LittleRichard_Original5S.wav,,,,,,,,,,,,,,,,,,,,,,,,,,,,,,,,,,,,,,,,,,,,,,,,,,,,,,,,,,
,,,,,418264,001,2024-06-14_11h20.10.541,experiment,2024.1.5,MacIntel,59.88023952,664614c87025e6f51aae8ea4,666b5f73dbba3f0cd916b177,666c6d8d33aa95ee79c11bc5,,,,,,,,,,,,,,,,,,,,,,,,,,,,,,,,,,,,337.681,344.0366,0,1,1,1,1,SoundStimuli/GoodGollyMissMolly_LittleRichard_Cover5S.wav,,,,,,,,,,,,,,,,,,,,,,,,,,,,,,,,,,,,,,,,,,,,,,,,,,,,,,,,,,
,,,,,418264,001,2024-06-14_11h20.10.541,experiment,2024.1.5,MacIntel,59.88023952,664614c87025e6f51aae8ea4,666b5f73dbba3f0cd916b177,666c6d8d33aa95ee79c11bc5,,,,,,,,,,,,,,,,,,,,,,,,,,,,,,,,,,,,,,,,,,,,344.0368,345.1024,5.579479167,1.0428,0,16,16,0,1,song_indices/GoodGollyMissMolly_LittleRichard.csv,,,,,,,,,,,,,,,,,,,,,,,,,,,,,,,,,,,,,,,,,,,,,,,,
,,,,,418264,001,2024-06-14_11h20.10.541,experiment,2024.1.5,MacIntel,59.88023952,664614c87025e6f51aae8ea4,666b5f73dbba3f0cd916b177,666c6d8d33aa95ee79c11bc5,,,,,,,,,,,,,,,,,,,,,,,,,,,,,,,,,,,,345.1034,351.6868,0,0,0,1,1,SoundStimuli/GetUrFreakOn_MissyElliot_Cover5S.wav,,,,,,,,,,,,,,,,,,,,,,,,,,,,,,,,,,,,,,,,,,,,,,,,,,,,,,,,,,
,,,,,418264,001,2024-06-14_11h20.10.541,experiment,2024.1.5,MacIntel,59.88023952,664614c87025e6f51aae8ea4,666b5f73dbba3f0cd916b177,666c6d8d33aa95ee79c11bc5,,,,,,,,,,,,,,,,,,,,,,,,,,,,,,,,,,,,351.6985,357.7703,0,1,1,0,1,SoundStimuli/GetUrFreakOn_MissyElliot_Original5S.wav,,,,,,,,,,,,,,,,,,,,,,,,,,,,,,,,,,,,,,,,,,,,,,,,,,,,,,,,,,
,,,,,418264,001,2024-06-14_11h20.10.541,experiment,2024.1.5,MacIntel,59.88023952,664614c87025e6f51aae8ea4,666b5f73dbba3f0cd916b177,666c6d8d33aa95ee79c11bc5,,,,,,,,,,,,,,,,,,,,,,,,,,,,,,,,,,,,,,,,,,,,357.7704,358.37,3.738151042,0.5871,0,17,17,18,1,song_indices/GetUrFreakOn_MissyElliot.csv,,,,,,,,,,,,,,,,,,,,,,,,,,,,,,,,,,,,,,,,,,,,,,,,
,,,,,418264,001,2024-06-14_11h20.10.541,experiment,2024.1.5,MacIntel,59.88023952,664614c87025e6f51aae8ea4,666b5f73dbba3f0cd916b177,666c6d8d33aa95ee79c11bc5,,,,,,,,,,,,,,,,,,,,,,,,,,,,,,,,,,,,358.371,364.2705,0,0,0,0,1,SoundStimuli/EyeOfTheTiger_Survivor_Original5S.wav,,,,,,,,,,,,,,,,,,,,,,,,,,,,,,,,,,,,,,,,,,,,,,,,,,,,,,,,,,
,,,,,418264,001,2024-06-14_11h20.10.541,experiment,2024.1.5,MacIntel,59.88023952,664614c87025e6f51aae8ea4,666b5f73dbba3f0cd916b177,666c6d8d33aa95ee79c11bc5,,,,,,,,,,,,,,,,,,,,,,,,,,,,,,,,,,,,364.2805,370.4029,0,1,1,1,1,SoundStimuli/EyeOfTheTiger_Survivor_Cover5S.wav,,,,,,,,,,,,,,,,,,,,,,,,,,,,,,,,,,,,,,,,,,,,,,,,,,,,,,,,,,
,,,,,418264,001,2024-06-14_11h20.10.541,experiment,2024.1.5,MacIntel,59.88023952,664614c87025e6f51aae8ea4,666b5f73dbba3f0cd916b177,666c6d8d33aa95ee79c11bc5,,,,,,,,,,,,,,,,,,,,,,,,,,,,,,,,,,,,,,,,,,,,370.4031,371.0707,5.591354167,0.655,0,18,18,11,1,song_indices/EyeOfTheTiger_Survivor.csv,,,,,,,,,,,,,,,,,,,,,,,,,,,,,,,,,,,,,,,,,,,,,,,,
,,,,,418264,001,2024-06-14_11h20.10.541,experiment,2024.1.5,MacIntel,59.88023952,664614c87025e6f51aae8ea4,666b5f73dbba3f0cd916b177,666c6d8d33aa95ee79c11bc5,,,,,,,,,,,,,,,,,,,,,,,,,,,,,,,,,,,,371.0716,377.4542,0,0,0,0,1,SoundStimuli/IWillAlwaysLoveYou_WhitneyHouston_Original5S.wav,,,,,,,,,,,,,,,,,,,,,,,,,,,,,,,,,,,,,,,,,,,,,,,,,,,,,,,,,,
,,,,,418264,001,2024-06-14_11h20.10.541,experiment,2024.1.5,MacIntel,59.88023952,664614c87025e6f51aae8ea4,666b5f73dbba3f0cd916b177,666c6d8d33aa95ee79c11bc5,,,,,,,,,,,,,,,,,,,,,,,,,,,,,,,,,,,,377.4652,383.3051,0,1,1,1,1,SoundStimuli/IWillAlwaysLoveYou_WhitneyHouston_Cover5S.wav,,,,,,,,,,,,,,,,,,,,,,,,,,,,,,,,,,,,,,,,,,,,,,,,,,,,,,,,,,
,,,,,418264,001,2024-06-14_11h20.10.541,experiment,2024.1.5,MacIntel,59.88023952,664614c87025e6f51aae8ea4,666b5f73dbba3f0cd916b177,666c6d8d33aa95ee79c11bc5,,,,,,,,,,,,,,,,,,,,,,,,,,,,,,,,,,,,,,,,,,,,383.3053,384.1711,6.951875,0.8536,0,19,19,10,1,song_indices/IWillAlwaysLoveYou_WhitneyHouston.csv,,,,,,,,,,,,,,,,,,,,,,,,,,,,,,,,,,,,,,,,,,,,,,,,
,,,,,418264,001,2024-06-14_11h20.10.541,experiment,2024.1.5,MacIntel,59.88023952,664614c87025e6f51aae8ea4,666b5f73dbba3f0cd916b177,666c6d8d33aa95ee79c11bc5,,,,,,,,,,,,,,,,,,,,,,,,,,,,,,,,,,,,384.1718,390.9551,0,0,0,1,1,SoundStimuli/PartyRockAnthem_LMFAO_Cover5S.wav,,,,,,,,,,,,,,,,,,,,,,,,,,,,,,,,,,,,,,,,,,,,,,,,,,,,,,,,,,
,,,,,418264,001,2024-06-14_11h20.10.541,experiment,2024.1.5,MacIntel,59.88023952,664614c87025e6f51aae8ea4,666b5f73dbba3f0cd916b177,666c6d8d33aa95ee79c11bc5,,,,,,,,,,,,,,,,,,,,,,,,,,,,,,,,,,,,390.9659,397.7044,0,1,1,0,1,SoundStimuli/PartyRockAnthem_LMFAO_Original5S.wav,,,,,,,,,,,,,,,,,,,,,,,,,,,,,,,,,,,,,,,,,,,,,,,,,,,,,,,,,,
,,,,,418264,001,2024-06-14_11h20.10.541,experiment,2024.1.5,MacIntel,59.88023952,664614c87025e6f51aae8ea4,666b5f73dbba3f0cd916b177,666c6d8d33aa95ee79c11bc5,,,,,,,,,,,,,,,,,,,,,,,,,,,,,,,,,,,,,,,,,,,,397.7045,398.2218,4.4721875,0.5049,0,20,20,2,1,song_indices/PartyRockAnthem_LMFAO.csv,,,,,,,,,,,,,,,,,,,,,,,,,,,,,,,,,,,,,,,,,,,,,,,,
,,,,,418264,001,2024-06-14_11h20.10.541,experiment,2024.1.5,MacIntel,59.88023952,664614c87025e6f51aae8ea4,666b5f73dbba3f0cd916b177,666c6d8d33aa95ee79c11bc5,,,,,,,,,,,,,,,,,,,,,,,,,,,,,,,,,,,,398.2229,404.1548,0,0,0,0,1,SoundStimuli/StandByMe_BenEKing_Original5S.wav,,,,,,,,,,,,,,,,,,,,,,,,,,,,,,,,,,,,,,,,,,,,,,,,,,,,,,,,,,
,,,,,418264,001,2024-06-14_11h20.10.541,experiment,2024.1.5,MacIntel,59.88023952,664614c87025e6f51aae8ea4,666b5f73dbba3f0cd916b177,666c6d8d33aa95ee79c11bc5,,,,,,,,,,,,,,,,,,,,,,,,,,,,,,,,,,,,404.1659,410.1889,0,1,1,1,1,SoundStimuli/StandByMe_BenEKing_Cover5S.wav,,,,,,,,,,,,,,,,,,,,,,,,,,,,,,,,,,,,,,,,,,,,,,,,,,,,,,,,,,
,,,,,418264,001,2024-06-14_11h20.10.541,experiment,2024.1.5,MacIntel,59.88023952,664614c87025e6f51aae8ea4,666b5f73dbba3f0cd916b177,666c6d8d33aa95ee79c11bc5,,,,,,,,,,,,,,,,,,,,,,,,,,,,,,,,,,,,,,,,,,,,410.1891,411.2379,2.000052083,1.0368,0,21,21,1,1,song_indices/StandByMe_BenEKing.csv,,,,,,,,,,,,,,,,,,,,,,,,,,,,,,,,,,,,,,,,,,,,,,,,
,,,,,418264,001,2024-06-14_11h20.10.541,experiment,2024.1.5,MacIntel,59.88023952,664614c87025e6f51aae8ea4,666b5f73dbba3f0cd916b177,666c6d8d33aa95ee79c11bc5,,,,,,,,,,,,,,,,,,,,,,,,,,,,,,,,,,,,411.2389,417.3229,0,0,0,0,1,SoundStimuli/GimmeShelter_RollingStones_Original5S.wav,,,,,,,,,,,,,,,,,,,,,,,,,,,,,,,,,,,,,,,,,,,,,,,,,,,,,,,,,,
,,,,,418264,001,2024-06-14_11h20.10.541,experiment,2024.1.5,MacIntel,59.88023952,664614c87025e6f51aae8ea4,666b5f73dbba3f0cd916b177,666c6d8d33aa95ee79c11bc5,,,,,,,,,,,,,,,,,,,,,,,,,,,,,,,,,,,,417.3354,423.5396,0,1,1,1,1,SoundStimuli/GimmeShelter_RollingStones_Cover5S.wav,,,,,,,,,,,,,,,,,,,,,,,,,,,,,,,,,,,,,,,,,,,,,,,,,,,,,,,,,,
,,,,,418264,001,2024-06-14_11h20.10.541,experiment,2024.1.5,MacIntel,59.88023952,664614c87025e6f51aae8ea4,666b5f73dbba3f0cd916b177,666c6d8d33aa95ee79c11bc5,,,,,,,,,,,,,,,,,,,,,,,,,,,,,,,,,,,,,,,,,,,,423.5399,424.3727,2.962317708,0.8214,0,22,22,20,1,song_indices/GimmeShelter_RollingStones.csv,,,,,,,,,,,,,,,,,,,,,,,,,,,,,,,,,,,,,,,,,,,,,,,,
,,,,,418264,001,2024-06-14_11h20.10.541,experiment,2024.1.5,MacIntel,59.88023952,664614c87025e6f51aae8ea4,666b5f73dbba3f0cd916b177,666c6d8d33aa95ee79c11bc5,,,,,,,,,,,,,,,,,,,,,,,,,,,,,,,,,,,,,,,,,,,,,,,,,,,,,,424.3746,427.6733,space,3.2898,,0,0,0,1,1,choose_song_b2.csv,,,,,,,,,,,,,,,,,,,,,,,,,,,,,,,,,,,,,
,,,,,418264,001,2024-06-14_11h20.10.541,experiment,2024.1.5,MacIntel,59.88023952,664614c87025e6f51aae8ea4,666b5f73dbba3f0cd916b177,666c6d8d33aa95ee79c11bc5,,,,,,,,,,,,,,,,,,,,,,,,,,,,,,,,,,,,427.6746,433.74,0,0,0,0,1,SoundStimuli/TossinAndTurnin_BobbyLewis_Original5S.wav,,,,,,,,,,,,,,,,,,,,,,,,,,,,,,,,,,,,,,,,,,,,,,,,,,,,,,,,,,
,,,,,418264,001,2024-06-14_11h20.10.541,experiment,2024.1.5,MacIntel,59.88023952,664614c87025e6f51aae8ea4,666b5f73dbba3f0cd916b177,666c6d8d33aa95ee79c11bc5,,,,,,,,,,,,,,,,,,,,,,,,,,,,,,,,,,,,433.7503,439.8556,0,1,1,1,1,SoundStimuli/TossinAndTurnin_BobbyLewis_Cover5S.wav,,,,,,,,,,,,,,,,,,,,,,,,,,,,,,,,,,,,,,,,,,,,,,,,,,,,,,,,,,
,,,,,418264,001,2024-06-14_11h20.10.541,experiment,2024.1.5,MacIntel,59.88023952,664614c87025e6f51aae8ea4,666b5f73dbba3f0cd916b177,666c6d8d33aa95ee79c11bc5,,,,,,,,,,,,,,,,,,,,,,,,,,,,,,,,,,,,,,,,,,,,439.8556,440.4898,2.138932292,0.6194,0,0,0,13,1,song_indices/TossinAndTurnin_BobbyLewis.csv,,,,,,,,,,,,,,,,,,,,,,,,,,,,,,,,,,,,,,,,,,,,,,,,
,,,,,418264,001,2024-06-14_11h20.10.541,experiment,2024.1.5,MacIntel,59.88023952,664614c87025e6f51aae8ea4,666b5f73dbba3f0cd916b177,666c6d8d33aa95ee79c11bc5,,,,,,,,,,,,,,,,,,,,,,,,,,,,,,,,,,,,440.4902,446.0072,0,0,0,1,1,SoundStimuli/LeFreak_Chic_Cover5S.wav,,,,,,,,,,,,,,,,,,,,,,,,,,,,,,,,,,,,,,,,,,,,,,,,,,,,,,,,,,
,,,,,418264,001,2024-06-14_11h20.10.541,experiment,2024.1.5,MacIntel,59.88023952,664614c87025e6f51aae8ea4,666b5f73dbba3f0cd916b177,666c6d8d33aa95ee79c11bc5,,,,,,,,,,,,,,,,,,,,,,,,,,,,,,,,,,,,446.0196,452.0406,0,1,1,0,1,SoundStimuli/LeFreak_Chic_Original5S.wav,,,,,,,,,,,,,,,,,,,,,,,,,,,,,,,,,,,,,,,,,,,,,,,,,,,,,,,,,,
,,,,,418264,001,2024-06-14_11h20.10.541,experiment,2024.1.5,MacIntel,59.88023952,664614c87025e6f51aae8ea4,666b5f73dbba3f0cd916b177,666c6d8d33aa95ee79c11bc5,,,,,,,,,,,,,,,,,,,,,,,,,,,,,,,,,,,,,,,,,,,,452.0407,452.9406,5.676614583,0.8786,0,1,1,11,1,song_indices/LeFreak_Chic.csv,,,,,,,,,,,,,,,,,,,,,,,,,,,,,,,,,,,,,,,,,,,,,,,,
,,,,,418264,001,2024-06-14_11h20.10.541,experiment,2024.1.5,MacIntel,59.88023952,664614c87025e6f51aae8ea4,666b5f73dbba3f0cd916b177,666c6d8d33aa95ee79c11bc5,,,,,,,,,,,,,,,,,,,,,,,,,,,,,,,,,,,,452.9417,458.8241,0,0,0,0,1,SoundStimuli/Irreplaceable_Beyonce_Original5S.wav,,,,,,,,,,,,,,,,,,,,,,,,,,,,,,,,,,,,,,,,,,,,,,,,,,,,,,,,,,
,,,,,418264,001,2024-06-14_11h20.10.541,experiment,2024.1.5,MacIntel,59.88023952,664614c87025e6f51aae8ea4,666b5f73dbba3f0cd916b177,666c6d8d33aa95ee79c11bc5,,,,,,,,,,,,,,,,,,,,,,,,,,,,,,,,,,,,458.8342,464.7404,0,1,1,1,1,SoundStimuli/Irreplaceable_Beyonce_Cover5S.wav,,,,,,,,,,,,,,,,,,,,,,,,,,,,,,,,,,,,,,,,,,,,,,,,,,,,,,,,,,
,,,,,418264,001,2024-06-14_11h20.10.541,experiment,2024.1.5,MacIntel,59.88023952,664614c87025e6f51aae8ea4,666b5f73dbba3f0cd916b177,666c6d8d33aa95ee79c11bc5,,,,,,,,,,,,,,,,,,,,,,,,,,,,,,,,,,,,,,,,,,,,464.7406,466.8411,4.033489583,2.088,0,2,2,19,1,song_indices/Irreplaceable_Beyonce.csv,,,,,,,,,,,,,,,,,,,,,,,,,,,,,,,,,,,,,,,,,,,,,,,,
,,,,,418264,001,2024-06-14_11h20.10.541,experiment,2024.1.5,MacIntel,59.88023952,664614c87025e6f51aae8ea4,666b5f73dbba3f0cd916b177,666c6d8d33aa95ee79c11bc5,,,,,,,,,,,,,,,,,,,,,,,,,,,,,,,,,,,,466.8423,473.8416,0,0,0,1,1,SoundStimuli/Dilemma_NellyKellyRowland_Cover5S.wav,,,,,,,,,,,,,,,,,,,,,,,,,,,,,,,,,,,,,,,,,,,,,,,,,,,,,,,,,,
,,,,,418264,001,2024-06-14_11h20.10.541,experiment,2024.1.5,MacIntel,59.88023952,664614c87025e6f51aae8ea4,666b5f73dbba3f0cd916b177,666c6d8d33aa95ee79c11bc5,,,,,,,,,,,,,,,,,,,,,,,,,,,,,,,,,,,,473.8552,480.0407,0,1,1,0,1,SoundStimuli/Dilemma_NellyKellyRowland_Original5S.wav,,,,,,,,,,,,,,,,,,,,,,,,,,,,,,,,,,,,,,,,,,,,,,,,,,,,,,,,,,
,,,,,418264,001,2024-06-14_11h20.10.541,experiment,2024.1.5,MacIntel,59.88023952,664614c87025e6f51aae8ea4,666b5f73dbba3f0cd916b177,666c6d8d33aa95ee79c11bc5,,,,,,,,,,,,,,,,,,,,,,,,,,,,,,,,,,,,,,,,,,,,480.0409,480.8082,1.018333333,0.7541,0,3,3,2,1,song_indices/Dilemma_NellyKellyRowland.csv,,,,,,,,,,,,,,,,,,,,,,,,,,,,,,,,,,,,,,,,,,,,,,,,
,,,,,418264,001,2024-06-14_11h20.10.541,experiment,2024.1.5,MacIntel,59.88023952,664614c87025e6f51aae8ea4,666b5f73dbba3f0cd916b177,666c6d8d33aa95ee79c11bc5,,,,,,,,,,,,,,,,,,,,,,,,,,,,,,,,,,,,480.8091,486.5253,0,0,0,1,1,SoundStimuli/Levitating_DuaLipa_Cover5S.wav,,,,,,,,,,,,,,,,,,,,,,,,,,,,,,,,,,,,,,,,,,,,,,,,,,,,,,,,,,
,,,,,418264,001,2024-06-14_11h20.10.541,experiment,2024.1.5,MacIntel,59.88023952,664614c87025e6f51aae8ea4,666b5f73dbba3f0cd916b177,666c6d8d33aa95ee79c11bc5,,,,,,,,,,,,,,,,,,,,,,,,,,,,,,,,,,,,486.5354,492.5423,0,1,1,0,1,SoundStimuli/Levitating_DuaLipa_Original5S.wav,,,,,,,,,,,,,,,,,,,,,,,,,,,,,,,,,,,,,,,,,,,,,,,,,,,,,,,,,,
,,,,,418264,001,2024-06-14_11h20.10.541,experiment,2024.1.5,MacIntel,59.88023952,664614c87025e6f51aae8ea4,666b5f73dbba3f0cd916b177,666c6d8d33aa95ee79c11bc5,,,,,,,,,,,,,,,,,,,,,,,,,,,,,,,,,,,,,,,,,,,,492.5424,493.2084,2.206484375,0.6534,0,4,4,10,1,song_indices/Levitating_DuaLipa.csv,,,,,,,,,,,,,,,,,,,,,,,,,,,,,,,,,,,,,,,,,,,,,,,,
,,,,,418264,001,2024-06-14_11h20.10.541,experiment,2024.1.5,MacIntel,59.88023952,664614c87025e6f51aae8ea4,666b5f73dbba3f0cd916b177,666c6d8d33aa95ee79c11bc5,,,,,,,,,,,,,,,,,,,,,,,,,,,,,,,,,,,,493.209,501.0418,0,0,0,1,1,SoundStimuli/Dreams_FleetwoodMac_Cover5S.wav,,,,,,,,,,,,,,,,,,,,,,,,,,,,,,,,,,,,,,,,,,,,,,,,,,,,,,,,,,
,,,,,418264,001,2024-06-14_11h20.10.541,experiment,2024.1.5,MacIntel,59.88023952,664614c87025e6f51aae8ea4,666b5f73dbba3f0cd916b177,666c6d8d33aa95ee79c11bc5,,,,,,,,,,,,,,,,,,,,,,,,,,,,,,,,,,,,501.0522,507.5586,0,1,1,0,1,SoundStimuli/Dreams_FleetwoodMac_Original5S.wav,,,,,,,,,,,,,,,,,,,,,,,,,,,,,,,,,,,,,,,,,,,,,,,,,,,,,,,,,,
,,,,,418264,001,2024-06-14_11h20.10.541,experiment,2024.1.5,MacIntel,59.88023952,664614c87025e6f51aae8ea4,666b5f73dbba3f0cd916b177,666c6d8d33aa95ee79c11bc5,,,,,,,,,,,,,,,,,,,,,,,,,,,,,,,,,,,,,,,,,,,,507.5589,508.6091,1.030651042,1.0265,0,5,5,1,1,song_indices/Dreams_FleetwoodMac.csv,,,,,,,,,,,,,,,,,,,,,,,,,,,,,,,,,,,,,,,,,,,,,,,,
,,,,,418264,001,2024-06-14_11h20.10.541,experiment,2024.1.5,MacIntel,59.88023952,664614c87025e6f51aae8ea4,666b5f73dbba3f0cd916b177,666c6d8d33aa95ee79c11bc5,,,,,,,,,,,,,,,,,,,,,,,,,,,,,,,,,,,,508.6106,514.693,0,0,0,0,1,SoundStimuli/YouLightUpMyLife_DebbyBoone_Original5S.wav,,,,,,,,,,,,,,,,,,,,,,,,,,,,,,,,,,,,,,,,,,,,,,,,,,,,,,,,,,
,,,,,418264,001,2024-06-14_11h20.10.541,experiment,2024.1.5,MacIntel,59.88023952,664614c87025e6f51aae8ea4,666b5f73dbba3f0cd916b177,666c6d8d33aa95ee79c11bc5,,,,,,,,,,,,,,,,,,,,,,,,,,,,,,,,,,,,514.7049,521.1422,0,1,1,1,1,SoundStimuli/YouLightUpMyLife_DebbyBoone_Cover5S.wav,,,,,,,,,,,,,,,,,,,,,,,,,,,,,,,,,,,,,,,,,,,,,,,,,,,,,,,,,,
,,,,,418264,001,2024-06-14_11h20.10.541,experiment,2024.1.5,MacIntel,59.88023952,664614c87025e6f51aae8ea4,666b5f73dbba3f0cd916b177,666c6d8d33aa95ee79c11bc5,,,,,,,,,,,,,,,,,,,,,,,,,,,,,,,,,,,,,,,,,,,,521.1423,521.7763,4.964609375,0.6204,0,6,6,4,1,song_indices/YouLightUpMyLife_DebbyBoone.csv,,,,,,,,,,,,,,,,,,,,,,,,,,,,,,,,,,,,,,,,,,,,,,,,
,,,,,418264,001,2024-06-14_11h20.10.541,experiment,2024.1.5,MacIntel,59.88023952,664614c87025e6f51aae8ea4,666b5f73dbba3f0cd916b177,666c6d8d33aa95ee79c11bc5,,,,,,,,,,,,,,,,,,,,,,,,,,,,,,,,,,,,521.7773,527.9258,0,0,0,0,1,SoundStimuli/Superstition_StevieWonder_Original5S.wav,,,,,,,,,,,,,,,,,,,,,,,,,,,,,,,,,,,,,,,,,,,,,,,,,,,,,,,,,,
,,,,,418264,001,2024-06-14_11h20.10.541,experiment,2024.1.5,MacIntel,59.88023952,664614c87025e6f51aae8ea4,666b5f73dbba3f0cd916b177,666c6d8d33aa95ee79c11bc5,,,,,,,,,,,,,,,,,,,,,,,,,,,,,,,,,,,,527.9373,533.2436,0,1,1,1,1,SoundStimuli/Superstition_StevieWonder_Cover5S.wav,,,,,,,,,,,,,,,,,,,,,,,,,,,,,,,,,,,,,,,,,,,,,,,,,,,,,,,,,,
,,,,,418264,001,2024-06-14_11h20.10.541,experiment,2024.1.5,MacIntel,59.88023952,664614c87025e6f51aae8ea4,666b5f73dbba3f0cd916b177,666c6d8d33aa95ee79c11bc5,,,,,,,,,,,,,,,,,,,,,,,,,,,,,,,,,,,,,,,,,,,,533.2437,534.1935,2.938697917,0.938,0,7,7,15,1,song_indices/Superstition_StevieWonder.csv,,,,,,,,,,,,,,,,,,,,,,,,,,,,,,,,,,,,,,,,,,,,,,,,
,,,,,418264,001,2024-06-14_11h20.10.541,experiment,2024.1.5,MacIntel,59.88023952,664614c87025e6f51aae8ea4,666b5f73dbba3f0cd916b177,666c6d8d33aa95ee79c11bc5,,,,,,,,,,,,,,,,,,,,,,,,,,,,,,,,,,,,534.1945,540.4102,0,0,0,0,1,SoundStimuli/TikTok_Kesha_Original5S.wav,,,,,,,,,,,,,,,,,,,,,,,,,,,,,,,,,,,,,,,,,,,,,,,,,,,,,,,,,,
,,,,,418264,001,2024-06-14_11h20.10.541,experiment,2024.1.5,MacIntel,59.88023952,664614c87025e6f51aae8ea4,666b5f73dbba3f0cd916b177,666c6d8d33aa95ee79c11bc5,,,,,,,,,,,,,,,,,,,,,,,,,,,,,,,,,,,,540.4208,547.9441,0,1,1,1,1,SoundStimuli/TikTok_Kesha_Cover5S.wav,,,,,,,,,,,,,,,,,,,,,,,,,,,,,,,,,,,,,,,,,,,,,,,,,,,,,,,,,,
,,,,,418264,001,2024-06-14_11h20.10.541,experiment,2024.1.5,MacIntel,59.88023952,664614c87025e6f51aae8ea4,666b5f73dbba3f0cd916b177,666c6d8d33aa95ee79c11bc5,,,,,,,,,,,,,,,,,,,,,,,,,,,,,,,,,,,,,,,,,,,,547.9442,548.9274,2.736640625,0.9712,0,8,8,3,1,song_indices/TikTok_Kesha.csv,,,,,,,,,,,,,,,,,,,,,,,,,,,,,,,,,,,,,,,,,,,,,,,,
,,,,,418264,001,2024-06-14_11h20.10.541,experiment,2024.1.5,MacIntel,59.88023952,664614c87025e6f51aae8ea4,666b5f73dbba3f0cd916b177,666c6d8d33aa95ee79c11bc5,,,,,,,,,,,,,,,,,,,,,,,,,,,,,,,,,,,,548.9281,555.2279,0,0,0,0,1,SoundStimuli/LetsGetItOn_MarvinGaye_Original5S.wav,,,,,,,,,,,,,,,,,,,,,,,,,,,,,,,,,,,,,,,,,,,,,,,,,,,,,,,,,,
,,,,,418264,001,2024-06-14_11h20.10.541,experiment,2024.1.5,MacIntel,59.88023952,664614c87025e6f51aae8ea4,666b5f73dbba3f0cd916b177,666c6d8d33aa95ee79c11bc5,,,,,,,,,,,,,,,,,,,,,,,,,,,,,,,,,,,,555.2399,561.8768,0,1,1,1,1,SoundStimuli/LetsGetItOn_MarvinGaye_Cover5S.wav,,,,,,,,,,,,,,,,,,,,,,,,,,,,,,,,,,,,,,,,,,,,,,,,,,,,,,,,,,
,,,,,418264,001,2024-06-14_11h20.10.541,experiment,2024.1.5,MacIntel,59.88023952,664614c87025e6f51aae8ea4,666b5f73dbba3f0cd916b177,666c6d8d33aa95ee79c11bc5,,,,,,,,,,,,,,,,,,,,,,,,,,,,,,,,,,,,,,,,,,,,561.8769,563.8947,3.06078125,2.0047,0,9,9,20,1,song_indices/LetsGetItOn_MarvinGaye.csv,,,,,,,,,,,,,,,,,,,,,,,,,,,,,,,,,,,,,,,,,,,,,,,,
,,,,,418264,001,2024-06-14_11h20.10.541,experiment,2024.1.5,MacIntel,59.88023952,664614c87025e6f51aae8ea4,666b5f73dbba3f0cd916b177,666c6d8d33aa95ee79c11bc5,,,,,,,,,,,,,,,,,,,,,,,,,,,,,,,,,,,,563.8956,569.3774,0,0,0,1,1,SoundStimuli/HowDoILive_LeAnnRimes_Cover5S.wav,,,,,,,,,,,,,,,,,,,,,,,,,,,,,,,,,,,,,,,,,,,,,,,,,,,,,,,,,,
,,,,,418264,001,2024-06-14_11h20.10.541,experiment,2024.1.5,MacIntel,59.88023952,664614c87025e6f51aae8ea4,666b5f73dbba3f0cd916b177,666c6d8d33aa95ee79c11bc5,,,,,,,,,,,,,,,,,,,,,,,,,,,,,,,,,,,,569.3883,575.411,0,1,1,0,1,SoundStimuli/HowDoILive_LeAnnRimes_Original5S.wav,,,,,,,,,,,,,,,,,,,,,,,,,,,,,,,,,,,,,,,,,,,,,,,,,,,,,,,,,,
,,,,,418264,001,2024-06-14_11h20.10.541,experiment,2024.1.5,MacIntel,59.88023952,664614c87025e6f51aae8ea4,666b5f73dbba3f0cd916b177,666c6d8d33aa95ee79c11bc5,,,,,,,,,,,,,,,,,,,,,,,,,,,,,,,,,,,,,,,,,,,,575.4112,576.1285,5.074973958,0.7059,0,10,10,17,1,song_indices/HowDoILive_LeAnnRimes.csv,,,,,,,,,,,,,,,,,,,,,,,,,,,,,,,,,,,,,,,,,,,,,,,,
,,,,,418264,001,2024-06-14_11h20.10.541,experiment,2024.1.5,MacIntel,59.88023952,664614c87025e6f51aae8ea4,666b5f73dbba3f0cd916b177,666c6d8d33aa95ee79c11bc5,,,,,,,,,,,,,,,,,,,,,,,,,,,,,,,,,,,,576.13,582.2452,0,0,0,0,1,SoundStimuli/JoyToTheWorld_ThreeDogNight_Original5S.wav,,,,,,,,,,,,,,,,,,,,,,,,,,,,,,,,,,,,,,,,,,,,,,,,,,,,,,,,,,
,,,,,418264,001,2024-06-14_11h20.10.541,experiment,2024.1.5,MacIntel,59.88023952,664614c87025e6f51aae8ea4,666b5f73dbba3f0cd916b177,666c6d8d33aa95ee79c11bc5,,,,,,,,,,,,,,,,,,,,,,,,,,,,,,,,,,,,582.2557,587.3792,0,1,1,1,1,SoundStimuli/JoyToTheWorld_ThreeDogNight_Cover5S.wav,,,,,,,,,,,,,,,,,,,,,,,,,,,,,,,,,,,,,,,,,,,,,,,,,,,,,,,,,,
,,,,,418264,001,2024-06-14_11h20.10.541,experiment,2024.1.5,MacIntel,59.88023952,664614c87025e6f51aae8ea4,666b5f73dbba3f0cd916b177,666c6d8d33aa95ee79c11bc5,,,,,,,,,,,,,,,,,,,,,,,,,,,,,,,,,,,,,,,,,,,,587.3796,588.9789,2.772161458,1.5855,0,11,11,8,1,song_indices/JoyToTheWorld_ThreeDogNight.csv,,,,,,,,,,,,,,,,,,,,,,,,,,,,,,,,,,,,,,,,,,,,,,,,
,,,,,418264,001,2024-06-14_11h20.10.541,experiment,2024.1.5,MacIntel,59.88023952,664614c87025e6f51aae8ea4,666b5f73dbba3f0cd916b177,666c6d8d33aa95ee79c11bc5,,,,,,,,,,,,,,,,,,,,,,,,,,,,,,,,,,,,588.9801,595.7794,0,0,0,1,1,SoundStimuli/BlindingLights_TheWeeknd_Cover5S.wav,,,,,,,,,,,,,,,,,,,,,,,,,,,,,,,,,,,,,,,,,,,,,,,,,,,,,,,,,,
,,,,,418264,001,2024-06-14_11h20.10.541,experiment,2024.1.5,MacIntel,59.88023952,664614c87025e6f51aae8ea4,666b5f73dbba3f0cd916b177,666c6d8d33aa95ee79c11bc5,,,,,,,,,,,,,,,,,,,,,,,,,,,,,,,,,,,,595.7895,602.2617,0,1,1,0,1,SoundStimuli/BlindingLights_TheWeeknd_Original5S.wav,,,,,,,,,,,,,,,,,,,,,,,,,,,,,,,,,,,,,,,,,,,,,,,,,,,,,,,,,,
,,,,,418264,001,2024-06-14_11h20.10.541,experiment,2024.1.5,MacIntel,59.88023952,664614c87025e6f51aae8ea4,666b5f73dbba3f0cd916b177,666c6d8d33aa95ee79c11bc5,,,,,,,,,,,,,,,,,,,,,,,,,,,,,,,,,,,,,,,,,,,,602.2618,602.8461,4.477213542,0.5717,0,12,12,21,1,song_indices/BlindingLights_TheWeeknd.csv,,,,,,,,,,,,,,,,,,,,,,,,,,,,,,,,,,,,,,,,,,,,,,,,
,,,,,418264,001,2024-06-14_11h20.10.541,experiment,2024.1.5,MacIntel,59.88023952,664614c87025e6f51aae8ea4,666b5f73dbba3f0cd916b177,666c6d8d33aa95ee79c11bc5,,,,,,,,,,,,,,,,,,,,,,,,,,,,,,,,,,,,602.8469,609.2467,0,0,0,0,1,SoundStimuli/FlashdanceWhatAFeeling_IreneCara_Original5S.wav,,,,,,,,,,,,,,,,,,,,,,,,,,,,,,,,,,,,,,,,,,,,,,,,,,,,,,,,,,
,,,,,418264,001,2024-06-14_11h20.10.541,experiment,2024.1.5,MacIntel,59.88023952,664614c87025e6f51aae8ea4,666b5f73dbba3f0cd916b177,666c6d8d33aa95ee79c11bc5,,,,,,,,,,,,,,,,,,,,,,,,,,,,,,,,,,,,609.2576,616.5299,0,1,1,1,1,SoundStimuli/FlashdanceWhatAFeeling_IreneCara_Cover5S.wav,,,,,,,,,,,,,,,,,,,,,,,,,,,,,,,,,,,,,,,,,,,,,,,,,,,,,,,,,,
,,,,,418264,001,2024-06-14_11h20.10.541,experiment,2024.1.5,MacIntel,59.88023952,664614c87025e6f51aae8ea4,666b5f73dbba3f0cd916b177,666c6d8d33aa95ee79c11bc5,,,,,,,,,,,,,,,,,,,,,,,,,,,,,,,,,,,,,,,,,,,,616.53,617.2132,5.666484375,0.6713,0,13,13,18,1,song_indices/FlashdanceWhatAFeeling_IreneCara.csv,,,,,,,,,,,,,,,,,,,,,,,,,,,,,,,,,,,,,,,,,,,,,,,,
,,,,,418264,001,2024-06-14_11h20.10.541,experiment,2024.1.5,MacIntel,59.88023952,664614c87025e6f51aae8ea4,666b5f73dbba3f0cd916b177,666c6d8d33aa95ee79c11bc5,,,,,,,,,,,,,,,,,,,,,,,,,,,,,,,,,,,,617.2142,624.0139,0,0,0,1,1,SoundStimuli/SomebodyThatIUsedtoKnow_Gotye_Cover5S.wav,,,,,,,,,,,,,,,,,,,,,,,,,,,,,,,,,,,,,,,,,,,,,,,,,,,,,,,,,,
,,,,,418264,001,2024-06-14_11h20.10.541,experiment,2024.1.5,MacIntel,59.88023952,664614c87025e6f51aae8ea4,666b5f73dbba3f0cd916b177,666c6d8d33aa95ee79c11bc5,,,,,,,,,,,,,,,,,,,,,,,,,,,,,,,,,,,,624.0241,631.2473,0,1,1,0,1,SoundStimuli/SomebodyThatIUsedtoKnow_Gotye_Original5S.wav,,,,,,,,,,,,,,,,,,,,,,,,,,,,,,,,,,,,,,,,,,,,,,,,,,,,,,,,,,
,,,,,418264,001,2024-06-14_11h20.10.541,experiment,2024.1.5,MacIntel,59.88023952,664614c87025e6f51aae8ea4,666b5f73dbba3f0cd916b177,666c6d8d33aa95ee79c11bc5,,,,,,,,,,,,,,,,,,,,,,,,,,,,,,,,,,,,,,,,,,,,631.2475,631.8471,3.819166667,0.5882,0,14,14,7,1,song_indices/SomebodyThatIUsedtoKnow_Gotye.csv,,,,,,,,,,,,,,,,,,,,,,,,,,,,,,,,,,,,,,,,,,,,,,,,
,,,,,418264,001,2024-06-14_11h20.10.541,experiment,2024.1.5,MacIntel,59.88023952,664614c87025e6f51aae8ea4,666b5f73dbba3f0cd916b177,666c6d8d33aa95ee79c11bc5,,,,,,,,,,,,,,,,,,,,,,,,,,,,,,,,,,,,631.8481,638.9145,0,0,0,1,1,SoundStimuli/ComeAndGetYourLove_Redbone_Cover5S.wav,,,,,,,,,,,,,,,,,,,,,,,,,,,,,,,,,,,,,,,,,,,,,,,,,,,,,,,,,,
,,,,,418264,001,2024-06-14_11h20.10.541,experiment,2024.1.5,MacIntel,59.88023952,664614c87025e6f51aae8ea4,666b5f73dbba3f0cd916b177,666c6d8d33aa95ee79c11bc5,,,,,,,,,,,,,,,,,,,,,,,,,,,,,,,,,,,,638.9257,645.0145,0,1,1,0,1,SoundStimuli/ComeAndGetYourLove_Redbone_Original5S.wav,,,,,,,,,,,,,,,,,,,,,,,,,,,,,,,,,,,,,,,,,,,,,,,,,,,,,,,,,,
,,,,,418264,001,2024-06-14_11h20.10.541,experiment,2024.1.5,MacIntel,59.88023952,664614c87025e6f51aae8ea4,666b5f73dbba3f0cd916b177,666c6d8d33aa95ee79c11bc5,,,,,,,,,,,,,,,,,,,,,,,,,,,,,,,,,,,,,,,,,,,,645.0148,645.7974,2.969505208,0.7722,0,15,15,22,1,song_indices/ComeAndGetYourLove_Redbone.csv,,,,,,,,,,,,,,,,,,,,,,,,,,,,,,,,,,,,,,,,,,,,,,,,
,,,,,418264,001,2024-06-14_11h20.10.541,experiment,2024.1.5,MacIntel,59.88023952,664614c87025e6f51aae8ea4,666b5f73dbba3f0cd916b177,666c6d8d33aa95ee79c11bc5,,,,,,,,,,,,,,,,,,,,,,,,,,,,,,,,,,,,645.7986,651.8648,0,0,0,1,1,SoundStimuli/Respect_ArethaFranklin_Cover5S.wav,,,,,,,,,,,,,,,,,,,,,,,,,,,,,,,,,,,,,,,,,,,,,,,,,,,,,,,,,,
,,,,,418264,001,2024-06-14_11h20.10.541,experiment,2024.1.5,MacIntel,59.88023952,664614c87025e6f51aae8ea4,666b5f73dbba3f0cd916b177,666c6d8d33aa95ee79c11bc5,,,,,,,,,,,,,,,,,,,,,,,,,,,,,,,,,,,,651.8747,657.7986,0,1,1,0,1,SoundStimuli/Respect_ArethaFranklin_Original5S.wav,,,,,,,,,,,,,,,,,,,,,,,,,,,,,,,,,,,,,,,,,,,,,,,,,,,,,,,,,,
,,,,,418264,001,2024-06-14_11h20.10.541,experiment,2024.1.5,MacIntel,59.88023952,664614c87025e6f51aae8ea4,666b5f73dbba3f0cd916b177,666c6d8d33aa95ee79c11bc5,,,,,,,,,,,,,,,,,,,,,,,,,,,,,,,,,,,,,,,,,,,,657.7987,659.3311,1.038359375,1.5217,0,16,16,0,1,song_indices/Respect_ArethaFranklin.csv,,,,,,,,,,,,,,,,,,,,,,,,,,,,,,,,,,,,,,,,,,,,,,,,
,,,,,418264,001,2024-06-14_11h20.10.541,experiment,2024.1.5,MacIntel,59.88023952,664614c87025e6f51aae8ea4,666b5f73dbba3f0cd916b177,666c6d8d33aa95ee79c11bc5,,,,,,,,,,,,,,,,,,,,,,,,,,,,,,,,,,,,659.332,666.182,0,0,0,1,1,SoundStimuli/PokerFace_LadyGaga_Cover5S.wav,,,,,,,,,,,,,,,,,,,,,,,,,,,,,,,,,,,,,,,,,,,,,,,,,,,,,,,,,,
,,,,,418264,001,2024-06-14_11h20.10.541,experiment,2024.1.5,MacIntel,59.88023952,664614c87025e6f51aae8ea4,666b5f73dbba3f0cd916b177,666c6d8d33aa95ee79c11bc5,,,,,,,,,,,,,,,,,,,,,,,,,,,,,,,,,,,,666.1922,673.199,0,1,1,0,1,SoundStimuli/PokerFace_LadyGaga_Original5S.wav,,,,,,,,,,,,,,,,,,,,,,,,,,,,,,,,,,,,,,,,,,,,,,,,,,,,,,,,,,
,,,,,418264,001,2024-06-14_11h20.10.541,experiment,2024.1.5,MacIntel,59.88023952,664614c87025e6f51aae8ea4,666b5f73dbba3f0cd916b177,666c6d8d33aa95ee79c11bc5,,,,,,,,,,,,,,,,,,,,,,,,,,,,,,,,,,,,,,,,,,,,673.1992,673.9154,2.800807292,0.7049,0,17,17,23,1,song_indices/PokerFace_LadyGaga.csv,,,,,,,,,,,,,,,,,,,,,,,,,,,,,,,,,,,,,,,,,,,,,,,,
,,,,,418264,001,2024-06-14_11h20.10.541,experiment,2024.1.5,MacIntel,59.88023952,664614c87025e6f51aae8ea4,666b5f73dbba3f0cd916b177,666c6d8d33aa95ee79c11bc5,,,,,,,,,,,,,,,,,,,,,,,,,,,,,,,,,,,,673.9164,680.1154,0,0,0,0,1,SoundStimuli/SaveYourTears_TheWeekndArianaGrande_Original5S.wav,,,,,,,,,,,,,,,,,,,,,,,,,,,,,,,,,,,,,,,,,,,,,,,,,,,,,,,,,,
,,,,,418264,001,2024-06-14_11h20.10.541,experiment,2024.1.5,MacIntel,59.88023952,664614c87025e6f51aae8ea4,666b5f73dbba3f0cd916b177,666c6d8d33aa95ee79c11bc5,,,,,,,,,,,,,,,,,,,,,,,,,,,,,,,,,,,,680.125,686.0163,0,1,1,1,1,SoundStimuli/SaveYourTears_TheWeekndArianaGrande_Cover5S.wav,,,,,,,,,,,,,,,,,,,,,,,,,,,,,,,,,,,,,,,,,,,,,,,,,,,,,,,,,,
,,,,,418264,001,2024-06-14_11h20.10.541,experiment,2024.1.5,MacIntel,59.88023952,664614c87025e6f51aae8ea4,666b5f73dbba3f0cd916b177,666c6d8d33aa95ee79c11bc5,,,,,,,,,,,,,,,,,,,,,,,,,,,,,,,,,,,,,,,,,,,,686.0166,686.9498,1.448411458,0.9089,0,18,18,12,1,song_indices/SaveYourTears_TheWeekndArianaGrande.csv,,,,,,,,,,,,,,,,,,,,,,,,,,,,,,,,,,,,,,,,,,,,,,,,
,,,,,418264,001,2024-06-14_11h20.10.541,experiment,2024.1.5,MacIntel,59.88023952,664614c87025e6f51aae8ea4,666b5f73dbba3f0cd916b177,666c6d8d33aa95ee79c11bc5,,,,,,,,,,,,,,,,,,,,,,,,,,,,,,,,,,,,686.9508,694.3831,0,0,0,0,1,SoundStimuli/Kiss_Prince_Original5S.wav,,,,,,,,,,,,,,,,,,,,,,,,,,,,,,,,,,,,,,,,,,,,,,,,,,,,,,,,,,
,,,,,418264,001,2024-06-14_11h20.10.541,experiment,2024.1.5,MacIntel,59.88023952,664614c87025e6f51aae8ea4,666b5f73dbba3f0cd916b177,666c6d8d33aa95ee79c11bc5,,,,,,,,,,,,,,,,,,,,,,,,,,,,,,,,,,,,694.392,700.6666,0,1,1,1,1,SoundStimuli/Kiss_Prince_Cover5S.wav,,,,,,,,,,,,,,,,,,,,,,,,,,,,,,,,,,,,,,,,,,,,,,,,,,,,,,,,,,
,,,,,418264,001,2024-06-14_11h20.10.541,experiment,2024.1.5,MacIntel,59.88023952,664614c87025e6f51aae8ea4,666b5f73dbba3f0cd916b177,666c6d8d33aa95ee79c11bc5,,,,,,,,,,,,,,,,,,,,,,,,,,,,,,,,,,,,,,,,,,,,700.6668,701.7329,1.401171875,1.0538,0,19,19,14,1,song_indices/Kiss_Prince.csv,,,,,,,,,,,,,,,,,,,,,,,,,,,,,,,,,,,,,,,,,,,,,,,,
,,,,,418264,001,2024-06-14_11h20.10.541,experiment,2024.1.5,MacIntel,59.88023952,664614c87025e6f51aae8ea4,666b5f73dbba3f0cd916b177,666c6d8d33aa95ee79c11bc5,,,,,,,,,,,,,,,,,,,,,,,,,,,,,,,,,,,,701.7335,707.9003,0,0,0,0,1,SoundStimuli/TheSign_AceOfBase_Original5S.wav,,,,,,,,,,,,,,,,,,,,,,,,,,,,,,,,,,,,,,,,,,,,,,,,,,,,,,,,,,
,,,,,418264,001,2024-06-14_11h20.10.541,experiment,2024.1.5,MacIntel,59.88023952,664614c87025e6f51aae8ea4,666b5f73dbba3f0cd916b177,666c6d8d33aa95ee79c11bc5,,,,,,,,,,,,,,,,,,,,,,,,,,,,,,,,,,,,707.9118,713.917,0,1,1,1,1,SoundStimuli/TheSign_AceOfBase_Cover5S.wav,,,,,,,,,,,,,,,,,,,,,,,,,,,,,,,,,,,,,,,,,,,,,,,,,,,,,,,,,,
,,,,,418264,001,2024-06-14_11h20.10.541,experiment,2024.1.5,MacIntel,59.88023952,664614c87025e6f51aae8ea4,666b5f73dbba3f0cd916b177,666c6d8d33aa95ee79c11bc5,,,,,,,,,,,,,,,,,,,,,,,,,,,,,,,,,,,,,,,,,,,,713.9172,714.6667,5.177057292,0.7363,0,20,20,5,1,song_indices/TheSign_AceOfBase.csv,,,,,,,,,,,,,,,,,,,,,,,,,,,,,,,,,,,,,,,,,,,,,,,,
,,,,,418264,001,2024-06-14_11h20.10.541,experiment,2024.1.5,MacIntel,59.88023952,664614c87025e6f51aae8ea4,666b5f73dbba3f0cd916b177,666c6d8d33aa95ee79c11bc5,,,,,,,,,,,,,,,,,,,,,,,,,,,,,,,,,,,,714.6674,720.7676,0,0,0,0,1,SoundStimuli/UnbreakMyHeart_ToniBraxton_Original5S.wav,,,,,,,,,,,,,,,,,,,,,,,,,,,,,,,,,,,,,,,,,,,,,,,,,,,,,,,,,,
,,,,,418264,001,2024-06-14_11h20.10.541,experiment,2024.1.5,MacIntel,59.88023952,664614c87025e6f51aae8ea4,666b5f73dbba3f0cd916b177,666c6d8d33aa95ee79c11bc5,,,,,,,,,,,,,,,,,,,,,,,,,,,,,,,,,,,,720.7791,724.751,0,1,1,1,1,SoundStimuli/UnbreakMyHeart_ToniBraxton_Cover5S.wav,,,,,,,,,,,,,,,,,,,,,,,,,,,,,,,,,,,,,,,,,,,,,,,,,,,,,,,,,,
,,,,,418264,001,2024-06-14_11h20.10.541,experiment,2024.1.5,MacIntel,59.88023952,664614c87025e6f51aae8ea4,666b5f73dbba3f0cd916b177,666c6d8d33aa95ee79c11bc5,,,,,,,,,,,,,,,,,,,,,,,,,,,,,,,,,,,,,,,,,,,,724.7512,729.6174,4.218567708,4.8523,0,21,21,16,1,song_indices/UnbreakMyHeart_ToniBraxton.csv,,,,,,,,,,,,,,,,,,,,,,,,,,,,,,,,,,,,,,,,,,,,,,,,
,,,,,418264,001,2024-06-14_11h20.10.541,experiment,2024.1.5,MacIntel,59.88023952,664614c87025e6f51aae8ea4,666b5f73dbba3f0cd916b177,666c6d8d33aa95ee79c11bc5,,,,,,,,,,,,,,,,,,,,,,,,,,,,,,,,,,,,729.6185,736.1011,0,0,0,1,1,SoundStimuli/Weak_SWV_Cover5S.wav,,,,,,,,,,,,,,,,,,,,,,,,,,,,,,,,,,,,,,,,,,,,,,,,,,,,,,,,,,
,,,,,418264,001,2024-06-14_11h20.10.541,experiment,2024.1.5,MacIntel,59.88023952,664614c87025e6f51aae8ea4,666b5f73dbba3f0cd916b177,666c6d8d33aa95ee79c11bc5,,,,,,,,,,,,,,,,,,,,,,,,,,,,,,,,,,,,736.1106,742.1847,0,1,1,0,1,SoundStimuli/Weak_SWV_Original5S.wav,,,,,,,,,,,,,,,,,,,,,,,,,,,,,,,,,,,,,,,,,,,,,,,,,,,,,,,,,,
,,,,,418264,001,2024-06-14_11h20.10.541,experiment,2024.1.5,MacIntel,59.88023952,664614c87025e6f51aae8ea4,666b5f73dbba3f0cd916b177,666c6d8d33aa95ee79c11bc5,,,,,,,,,,,,,,,,,,,,,,,,,,,,,,,,,,,,,,,,,,,,742.1849,742.9348,1.482135417,0.7389,0,22,22,6,1,song_indices/Weak_SWV.csv,,,,,,,,,,,,,,,,,,,,,,,,,,,,,,,,,,,,,,,,,,,,,,,,
,,,,,418264,001,2024-06-14_11h20.10.541,experiment,2024.1.5,MacIntel,59.88023952,664614c87025e6f51aae8ea4,666b5f73dbba3f0cd916b177,666c6d8d33aa95ee79c11bc5,,,,,,,,,,,,,,,,,,,,,,,,,,,,,,,,,,,,742.9356,749.7019,0,0,0,0,1,SoundStimuli/BlurredLines_RobinThicke_Original5S.wav,,,,,,,,,,,,,,,,,,,,,,,,,,,,,,,,,,,,,,,,,,,,,,,,,,,,,,,,,,
,,,,,418264,001,2024-06-14_11h20.10.541,experiment,2024.1.5,MacIntel,59.88023952,664614c87025e6f51aae8ea4,666b5f73dbba3f0cd916b177,666c6d8d33aa95ee79c11bc5,,,,,,,,,,,,,,,,,,,,,,,,,,,,,,,,,,,,749.7126,756.8019,0,1,1,1,1,SoundStimuli/BlurredLines_RobinThicke_Cover5S.wav,,,,,,,,,,,,,,,,,,,,,,,,,,,,,,,,,,,,,,,,,,,,,,,,,,,,,,,,,,
,,,,,418264,001,2024-06-14_11h20.10.541,experiment,2024.1.5,MacIntel,59.88023952,664614c87025e6f51aae8ea4,666b5f73dbba3f0cd916b177,666c6d8d33aa95ee79c11bc5,,,,,,,,,,,,,,,,,,,,,,,,,,,,,,,,,,,,,,,,,,,,756.802,758.0853,3.899088542,1.2716,0,23,23,9,1,song_indices/BlurredLines_RobinThicke.csv,,,,,,,,,,,,,,,,,,,,,,,,,,,,,,,,,,,,,,,,,,,,,,,,
,,,,,418264,001,2024-06-14_11h20.10.541,experiment,2024.1.5,MacIntel,59.88023952,664614c87025e6f51aae8ea4,666b5f73dbba3f0cd916b177,666c6d8d33aa95ee79c11bc5,,,,,,,,,,,,,,,,,,,,,,,,,,,,,,,,,,,,,,,,,,,,,,,,,,,,,,758.0855,805.4038,space,47.3028,,0,1,1,2,1,choose_song_b3.csv,,,,,,,,,,,,,,,,,,,,,,,,,,,,,,,,,,,,,
,,,,,418264,001,2024-06-14_11h20.10.541,experiment,2024.1.5,MacIntel,59.88023952,664614c87025e6f51aae8ea4,666b5f73dbba3f0cd916b177,666c6d8d33aa95ee79c11bc5,,,,,,,,,,,,,,,,,,,,,,,,,,,,,,,,,,,,805.4129,812.9044,0,0,0,1,1,SoundStimuli/BadDay_DanielPowter_Cover5S.wav,,,,,,,,,,,,,,,,,,,,,,,,,,,,,,,,,,,,,,,,,,,,,,,,,,,,,,,,,,
,,,,,418264,001,2024-06-14_11h20.10.541,experiment,2024.1.5,MacIntel,59.88023952,664614c87025e6f51aae8ea4,666b5f73dbba3f0cd916b177,666c6d8d33aa95ee79c11bc5,,,,,,,,,,,,,,,,,,,,,,,,,,,,,,,,,,,,812.9172,819.3541,0,1,1,0,1,SoundStimuli/BadDay_DanielPowter_Original5S.wav,,,,,,,,,,,,,,,,,,,,,,,,,,,,,,,,,,,,,,,,,,,,,,,,,,,,,,,,,,
,,,,,418264,001,2024-06-14_11h20.10.541,experiment,2024.1.5,MacIntel,59.88023952,664614c87025e6f51aae8ea4,666b5f73dbba3f0cd916b177,666c6d8d33aa95ee79c11bc5,,,,,,,,,,,,,,,,,,,,,,,,,,,,,,,,,,,,,,,,,,,,819.3541,820.1042,3.4375,0.7377,0,0,0,22,1,song_indices/BadDay_DanielPowter.csv,,,,,,,,,,,,,,,,,,,,,,,,,,,,,,,,,,,,,,,,,,,,,,,,
,,,,,418264,001,2024-06-14_11h20.10.541,experiment,2024.1.5,MacIntel,59.88023952,664614c87025e6f51aae8ea4,666b5f73dbba3f0cd916b177,666c6d8d33aa95ee79c11bc5,,,,,,,,,,,,,,,,,,,,,,,,,,,,,,,,,,,,820.1051,827.7881,0,0,0,1,1,SoundStimuli/LivinOnAPrayer_BonJovi_Cover5S.wav,,,,,,,,,,,,,,,,,,,,,,,,,,,,,,,,,,,,,,,,,,,,,,,,,,,,,,,,,,
,,,,,418264,001,2024-06-14_11h20.10.541,experiment,2024.1.5,MacIntel,59.88023952,664614c87025e6f51aae8ea4,666b5f73dbba3f0cd916b177,666c6d8d33aa95ee79c11bc5,,,,,,,,,,,,,,,,,,,,,,,,,,,,,,,,,,,,827.8011,834.0388,0,1,1,0,1,SoundStimuli/LivinOnAPrayer_BonJovi_Original5S.wav,,,,,,,,,,,,,,,,,,,,,,,,,,,,,,,,,,,,,,,,,,,,,,,,,,,,,,,,,,
,,,,,418264,001,2024-06-14_11h20.10.541,experiment,2024.1.5,MacIntel,59.88023952,664614c87025e6f51aae8ea4,666b5f73dbba3f0cd916b177,666c6d8d33aa95ee79c11bc5,,,,,,,,,,,,,,,,,,,,,,,,,,,,,,,,,,,,,,,,,,,,834.0394,835.0379,3.4375,0.985,0,1,1,16,1,song_indices/LivinOnAPrayer_BonJovi.csv,,,,,,,,,,,,,,,,,,,,,,,,,,,,,,,,,,,,,,,,,,,,,,,,
,,,,,418264,001,2024-06-14_11h20.10.541,experiment,2024.1.5,MacIntel,59.88023952,664614c87025e6f51aae8ea4,666b5f73dbba3f0cd916b177,666c6d8d33aa95ee79c11bc5,,,,,,,,,,,,,,,,,,,,,,,,,,,,,,,,,,,,835.0387,841.072,0,0,0,1,1,SoundStimuli/IWantToHoldYourHand_TheBeatles_Cover5S.wav,,,,,,,,,,,,,,,,,,,,,,,,,,,,,,,,,,,,,,,,,,,,,,,,,,,,,,,,,,
,,,,,418264,001,2024-06-14_11h20.10.541,experiment,2024.1.5,MacIntel,59.88023952,664614c87025e6f51aae8ea4,666b5f73dbba3f0cd916b177,666c6d8d33aa95ee79c11bc5,,,,,,,,,,,,,,,,,,,,,,,,,,,,,,,,,,,,841.0824,846.872,0,1,1,0,1,SoundStimuli/IWantToHoldYourHand_TheBeatles_Original5S.wav,,,,,,,,,,,,,,,,,,,,,,,,,,,,,,,,,,,,,,,,,,,,,,,,,,,,,,,,,,
,,,,,418264,001,2024-06-14_11h20.10.541,experiment,2024.1.5,MacIntel,59.88023952,664614c87025e6f51aae8ea4,666b5f73dbba3f0cd916b177,666c6d8d33aa95ee79c11bc5,,,,,,,,,,,,,,,,,,,,,,,,,,,,,,,,,,,,,,,,,,,,846.8722,847.9715,1.731432292,1.0884,0,2,2,19,1,song_indices/IWantToHoldYourHand_TheBeatles.csv,,,,,,,,,,,,,,,,,,,,,,,,,,,,,,,,,,,,,,,,,,,,,,,,
,,,,,418264,001,2024-06-14_11h20.10.541,experiment,2024.1.5,MacIntel,59.88023952,664614c87025e6f51aae8ea4,666b5f73dbba3f0cd916b177,666c6d8d33aa95ee79c11bc5,,,,,,,,,,,,,,,,,,,,,,,,,,,,,,,,,,,,847.9723,854.1226,0,0,0,0,1,SoundStimuli/LikeARollingStone_BobDylan_Original5S.wav,,,,,,,,,,,,,,,,,,,,,,,,,,,,,,,,,,,,,,,,,,,,,,,,,,,,,,,,,,
,,,,,418264,001,2024-06-14_11h20.10.541,experiment,2024.1.5,MacIntel,59.88023952,664614c87025e6f51aae8ea4,666b5f73dbba3f0cd916b177,666c6d8d33aa95ee79c11bc5,,,,,,,,,,,,,,,,,,,,,,,,,,,,,,,,,,,,854.1343,858.5227,0,1,1,1,1,SoundStimuli/LikeARollingStone_BobDylan_Cover5S.wav,,,,,,,,,,,,,,,,,,,,,,,,,,,,,,,,,,,,,,,,,,,,,,,,,,,,,,,,,,
,,,,,418264,001,2024-06-14_11h20.10.541,experiment,2024.1.5,MacIntel,59.88023952,664614c87025e6f51aae8ea4,666b5f73dbba3f0cd916b177,666c6d8d33aa95ee79c11bc5,,,,,,,,,,,,,,,,,,,,,,,,,,,,,,,,,,,,,,,,,,,,858.5229,861.0889,1.022005208,2.5549,0,3,3,12,1,song_indices/LikeARollingStone_BobDylan.csv,,,,,,,,,,,,,,,,,,,,,,,,,,,,,,,,,,,,,,,,,,,,,,,,
,,,,,418264,001,2024-06-14_11h20.10.541,experiment,2024.1.5,MacIntel,59.88023952,664614c87025e6f51aae8ea4,666b5f73dbba3f0cd916b177,666c6d8d33aa95ee79c11bc5,,,,,,,,,,,,,,,,,,,,,,,,,,,,,,,,,,,,861.0894,867.2897,0,0,0,0,1,SoundStimuli/Smooth_SantanaRobThomas_Original5S.wav,,,,,,,,,,,,,,,,,,,,,,,,,,,,,,,,,,,,,,,,,,,,,,,,,,,,,,,,,,
,,,,,418264,001,2024-06-14_11h20.10.541,experiment,2024.1.5,MacIntel,59.88023952,664614c87025e6f51aae8ea4,666b5f73dbba3f0cd916b177,666c6d8d33aa95ee79c11bc5,,,,,,,,,,,,,,,,,,,,,,,,,,,,,,,,,,,,867.3008,875.9232,0,1,1,1,1,SoundStimuli/Smooth_SantanaRobThomas_Cover5S.wav,,,,,,,,,,,,,,,,,,,,,,,,,,,,,,,,,,,,,,,,,,,,,,,,,,,,,,,,,,
,,,,,418264,001,2024-06-14_11h20.10.541,experiment,2024.1.5,MacIntel,59.88023952,664614c87025e6f51aae8ea4,666b5f73dbba3f0cd916b177,666c6d8d33aa95ee79c11bc5,,,,,,,,,,,,,,,,,,,,,,,,,,,,,,,,,,,,,,,,,,,,875.9234,877.7233,5.987369792,1.7905,0,4,4,4,1,song_indices/Smooth_SantanaRobThomas.csv,,,,,,,,,,,,,,,,,,,,,,,,,,,,,,,,,,,,,,,,,,,,,,,,
,,,,,418264,001,2024-06-14_11h20.10.541,experiment,2024.1.5,MacIntel,59.88023952,664614c87025e6f51aae8ea4,666b5f73dbba3f0cd916b177,666c6d8d33aa95ee79c11bc5,,,,,,,,,,,,,,,,,,,,,,,,,,,,,,,,,,,,877.7245,883.9736,0,0,0,0,1,SoundStimuli/GodOnlyKnows_TheBeachBoys_Original5S.wav,,,,,,,,,,,,,,,,,,,,,,,,,,,,,,,,,,,,,,,,,,,,,,,,,,,,,,,,,,
,,,,,418264,001,2024-06-14_11h20.10.541,experiment,2024.1.5,MacIntel,59.88023952,664614c87025e6f51aae8ea4,666b5f73dbba3f0cd916b177,666c6d8d33aa95ee79c11bc5,,,,,,,,,,,,,,,,,,,,,,,,,,,,,,,,,,,,883.9845,890.8405,0,1,1,1,1,SoundStimuli/GodOnlyKnows_TheBeachBoys_Cover5S.wav,,,,,,,,,,,,,,,,,,,,,,,,,,,,,,,,,,,,,,,,,,,,,,,,,,,,,,,,,,
,,,,,418264,001,2024-06-14_11h20.10.541,experiment,2024.1.5,MacIntel,59.88023952,664614c87025e6f51aae8ea4,666b5f73dbba3f0cd916b177,666c6d8d33aa95ee79c11bc5,,,,,,,,,,,,,,,,,,,,,,,,,,,,,,,,,,,,,,,,,,,,890.8407,891.4071,3.199869792,0.5566,0,5,5,8,1,song_indices/GodOnlyKnows_TheBeachBoys.csv,,,,,,,,,,,,,,,,,,,,,,,,,,,,,,,,,,,,,,,,,,,,,,,,
,,,,,418264,001,2024-06-14_11h20.10.541,experiment,2024.1.5,MacIntel,59.88023952,664614c87025e6f51aae8ea4,666b5f73dbba3f0cd916b177,666c6d8d33aa95ee79c11bc5,,,,,,,,,,,,,,,,,,,,,,,,,,,,,,,,,,,,891.4092,896.1242,0,0,0,1,1,SoundStimuli/AChangeIsGonnaCome_SamCooke_Cover5S.wav,,,,,,,,,,,,,,,,,,,,,,,,,,,,,,,,,,,,,,,,,,,,,,,,,,,,,,,,,,
,,,,,418264,001,2024-06-14_11h20.10.541,experiment,2024.1.5,MacIntel,59.88023952,664614c87025e6f51aae8ea4,666b5f73dbba3f0cd916b177,666c6d8d33aa95ee79c11bc5,,,,,,,,,,,,,,,,,,,,,,,,,,,,,,,,,,,,896.137,902.1576,0,1,1,0,1,SoundStimuli/AChangeIsGonnaCome_SamCooke_Original5S.wav,,,,,,,,,,,,,,,,,,,,,,,,,,,,,,,,,,,,,,,,,,,,,,,,,,,,,,,,,,
,,,,,418264,001,2024-06-14_11h20.10.541,experiment,2024.1.5,MacIntel,59.88023952,664614c87025e6f51aae8ea4,666b5f73dbba3f0cd916b177,666c6d8d33aa95ee79c11bc5,,,,,,,,,,,,,,,,,,,,,,,,,,,,,,,,,,,,,,,,,,,,902.1579,902.5572,6.065807292,0.3888,0,6,6,17,1,song_indices/AChangeIsGonnaCome_SamCooke.csv,,,,,,,,,,,,,,,,,,,,,,,,,,,,,,,,,,,,,,,,,,,,,,,,
,,,,,418264,001,2024-06-14_11h20.10.541,experiment,2024.1.5,MacIntel,59.88023952,664614c87025e6f51aae8ea4,666b5f73dbba3f0cd916b177,666c6d8d33aa95ee79c11bc5,,,,,,,,,,,,,,,,,,,,,,,,,,,,,,,,,,,,902.5578,908.6579,0,0,0,0,1,SoundStimuli/HeatWaves_GlassAnimals_Original5S.wav,,,,,,,,,,,,,,,,,,,,,,,,,,,,,,,,,,,,,,,,,,,,,,,,,,,,,,,,,,
,,,,,418264,001,2024-06-14_11h20.10.541,experiment,2024.1.5,MacIntel,59.88023952,664614c87025e6f51aae8ea4,666b5f73dbba3f0cd916b177,666c6d8d33aa95ee79c11bc5,,,,,,,,,,,,,,,,,,,,,,,,,,,,,,,,,,,,908.6686,917.2582,0,1,1,1,1,SoundStimuli/HeatWaves_GlassAnimals_Cover5S.wav,,,,,,,,,,,,,,,,,,,,,,,,,,,,,,,,,,,,,,,,,,,,,,,,,,,,,,,,,,
,,,,,418264,001,2024-06-14_11h20.10.541,experiment,2024.1.5,MacIntel,59.88023952,664614c87025e6f51aae8ea4,666b5f73dbba3f0cd916b177,666c6d8d33aa95ee79c11bc5,,,,,,,,,,,,,,,,,,,,,,,,,,,,,,,,,,,,,,,,,,,,917.2584,918.4078,4.926145833,1.1338,0,7,7,10,1,song_indices/HeatWaves_GlassAnimals.csv,,,,,,,,,,,,,,,,,,,,,,,,,,,,,,,,,,,,,,,,,,,,,,,,
,,,,,418264,001,2024-06-14_11h20.10.541,experiment,2024.1.5,MacIntel,59.88023952,664614c87025e6f51aae8ea4,666b5f73dbba3f0cd916b177,666c6d8d33aa95ee79c11bc5,,,,,,,,,,,,,,,,,,,,,,,,,,,,,,,,,,,,918.4085,924.7084,0,0,0,0,1,SoundStimuli/Mood_24kGoldnianndior_Original5S.wav,,,,,,,,,,,,,,,,,,,,,,,,,,,,,,,,,,,,,,,,,,,,,,,,,,,,,,,,,,
,,,,,418264,001,2024-06-14_11h20.10.541,experiment,2024.1.5,MacIntel,59.88023952,664614c87025e6f51aae8ea4,666b5f73dbba3f0cd916b177,666c6d8d33aa95ee79c11bc5,,,,,,,,,,,,,,,,,,,,,,,,,,,,,,,,,,,,924.72,933.0089,0,1,1,1,1,SoundStimuli/Mood_24kGoldnianndior_Cover5S.wav,,,,,,,,,,,,,,,,,,,,,,,,,,,,,,,,,,,,,,,,,,,,,,,,,,,,,,,,,,
,,,,,418264,001,2024-06-14_11h20.10.541,experiment,2024.1.5,MacIntel,59.88023952,664614c87025e6f51aae8ea4,666b5f73dbba3f0cd916b177,666c6d8d33aa95ee79c11bc5,,,,,,,,,,,,,,,,,,,,,,,,,,,,,,,,,,,,,,,,,,,,933.0092,933.9585,1.810755208,0.9388,0,8,8,5,1,song_indices/Mood_24kGoldnianndior.csv,,,,,,,,,,,,,,,,,,,,,,,,,,,,,,,,,,,,,,,,,,,,,,,,
,,,,,418264,001,2024-06-14_11h20.10.541,experiment,2024.1.5,MacIntel,59.88023952,664614c87025e6f51aae8ea4,666b5f73dbba3f0cd916b177,666c6d8d33aa95ee79c11bc5,,,,,,,,,,,,,,,,,,,,,,,,,,,,,,,,,,,,933.9596,941.342,0,0,0,0,1,SoundStimuli/OldTownRoad_LilNasX_Original5S.wav,,,,,,,,,,,,,,,,,,,,,,,,,,,,,,,,,,,,,,,,,,,,,,,,,,,,,,,,,,
,,,,,418264,001,2024-06-14_11h20.10.541,experiment,2024.1.5,MacIntel,59.88023952,664614c87025e6f51aae8ea4,666b5f73dbba3f0cd916b177,666c6d8d33aa95ee79c11bc5,,,,,,,,,,,,,,,,,,,,,,,,,,,,,,,,,,,,941.3498,947.8594,0,1,1,1,1,SoundStimuli/OldTownRoad_LilNasX_Cover5S.wav,,,,,,,,,,,,,,,,,,,,,,,,,,,,,,,,,,,,,,,,,,,,,,,,,,,,,,,,,,
,,,,,418264,001,2024-06-14_11h20.10.541,experiment,2024.1.5,MacIntel,59.88023952,664614c87025e6f51aae8ea4,666b5f73dbba3f0cd916b177,666c6d8d33aa95ee79c11bc5,,,,,,,,,,,,,,,,,,,,,,,,,,,,,,,,,,,,,,,,,,,,947.8595,948.6425,5.969270833,0.7709,0,9,9,20,1,song_indices/OldTownRoad_LilNasX.csv,,,,,,,,,,,,,,,,,,,,,,,,,,,,,,,,,,,,,,,,,,,,,,,,
,,,,,418264,001,2024-06-14_11h20.10.541,experiment,2024.1.5,MacIntel,59.88023952,664614c87025e6f51aae8ea4,666b5f73dbba3f0cd916b177,666c6d8d33aa95ee79c11bc5,,,,,,,,,,,,,,,,,,,,,,,,,,,,,,,,,,,,948.6437,954.676,0,0,0,0,1,SoundStimuli/AnotherOneBitesTheDust_Queen_Original5S.wav,,,,,,,,,,,,,,,,,,,,,,,,,,,,,,,,,,,,,,,,,,,,,,,,,,,,,,,,,,
,,,,,418264,001,2024-06-14_11h20.10.541,experiment,2024.1.5,MacIntel,59.88023952,664614c87025e6f51aae8ea4,666b5f73dbba3f0cd916b177,666c6d8d33aa95ee79c11bc5,,,,,,,,,,,,,,,,,,,,,,,,,,,,,,,,,,,,954.6851,962.8096,0,1,1,1,1,SoundStimuli/AnotherOneBitesTheDust_Queen_Cover5S.wav,,,,,,,,,,,,,,,,,,,,,,,,,,,,,,,,,,,,,,,,,,,,,,,,,,,,,,,,,,
,,,,,418264,001,2024-06-14_11h20.10.541,experiment,2024.1.5,MacIntel,59.88023952,664614c87025e6f51aae8ea4,666b5f73dbba3f0cd916b177,666c6d8d33aa95ee79c11bc5,,,,,,,,,,,,,,,,,,,,,,,,,,,,,,,,,,,,,,,,,,,,962.81,963.2763,3.343151042,0.4484,0,10,10,9,1,song_indices/AnotherOneBitesTheDust_Queen.csv,,,,,,,,,,,,,,,,,,,,,,,,,,,,,,,,,,,,,,,,,,,,,,,,
,,,,,418264,001,2024-06-14_11h20.10.541,experiment,2024.1.5,MacIntel,59.88023952,664614c87025e6f51aae8ea4,666b5f73dbba3f0cd916b177,666c6d8d33aa95ee79c11bc5,,,,,,,,,,,,,,,,,,,,,,,,,,,,,,,,,,,,963.2774,971.5431,0,0,0,1,1,SoundStimuli/Perfect_EdSheeran_Cover5S.wav,,,,,,,,,,,,,,,,,,,,,,,,,,,,,,,,,,,,,,,,,,,,,,,,,,,,,,,,,,
,,,,,418264,001,2024-06-14_11h20.10.541,experiment,2024.1.5,MacIntel,59.88023952,664614c87025e6f51aae8ea4,666b5f73dbba3f0cd916b177,666c6d8d33aa95ee79c11bc5,,,,,,,,,,,,,,,,,,,,,,,,,,,,,,,,,,,,971.5495,980.3939,0,1,1,0,1,SoundStimuli/Perfect_EdSheeran_Original5S.wav,,,,,,,,,,,,,,,,,,,,,,,,,,,,,,,,,,,,,,,,,,,,,,,,,,,,,,,,,,
,,,,,418264,001,2024-06-14_11h20.10.541,experiment,2024.1.5,MacIntel,59.88023952,664614c87025e6f51aae8ea4,666b5f73dbba3f0cd916b177,666c6d8d33aa95ee79c11bc5,,,,,,,,,,,,,,,,,,,,,,,,,,,,,,,,,,,,,,,,,,,,980.3941,981.2269,5.633489583,0.8218,0,11,11,0,1,song_indices/Perfect_EdSheeran.csv,,,,,,,,,,,,,,,,,,,,,,,,,,,,,,,,,,,,,,,,,,,,,,,,
,,,,,418264,001,2024-06-14_11h20.10.541,experiment,2024.1.5,MacIntel,59.88023952,664614c87025e6f51aae8ea4,666b5f73dbba3f0cd916b177,666c6d8d33aa95ee79c11bc5,,,,,,,,,,,,,,,,,,,,,,,,,,,,,,,,,,,,981.2282,987.8108,0,0,0,1,1,SoundStimuli/Despacito_LuisFonsiDaddyYankee_Cover5S.wav,,,,,,,,,,,,,,,,,,,,,,,,,,,,,,,,,,,,,,,,,,,,,,,,,,,,,,,,,,
,,,,,418264,001,2024-06-14_11h20.10.541,experiment,2024.1.5,MacIntel,59.88023952,664614c87025e6f51aae8ea4,666b5f73dbba3f0cd916b177,666c6d8d33aa95ee79c11bc5,,,,,,,,,,,,,,,,,,,,,,,,,,,,,,,,,,,,987.8217,994.3778,0,1,1,0,1,SoundStimuli/Despacito_LuisFonsiDaddyYankee_Original5S.wav,,,,,,,,,,,,,,,,,,,,,,,,,,,,,,,,,,,,,,,,,,,,,,,,,,,,,,,,,,
,,,,,418264,001,2024-06-14_11h20.10.541,experiment,2024.1.5,MacIntel,59.88023952,664614c87025e6f51aae8ea4,666b5f73dbba3f0cd916b177,666c6d8d33aa95ee79c11bc5,,,,,,,,,,,,,,,,,,,,,,,,,,,,,,,,,,,,,,,,,,,,994.378,995.3107,6.435,0.9064,0,12,12,11,1,song_indices/Despacito_LuisFonsiDaddyYankee.csv,,,,,,,,,,,,,,,,,,,,,,,,,,,,,,,,,,,,,,,,,,,,,,,,
,,,,,418264,001,2024-06-14_11h20.10.541,experiment,2024.1.5,MacIntel,59.88023952,664614c87025e6f51aae8ea4,666b5f73dbba3f0cd916b177,666c6d8d33aa95ee79c11bc5,,,,,,,,,,,,,,,,,,,,,,,,,,,,,,,,,,,,995.3112,1001.7111,0,0,0,0,1,SoundStimuli/MyGirl_TheTemptations_Original5S.wav,,,,,,,,,,,,,,,,,,,,,,,,,,,,,,,,,,,,,,,,,,,,,,,,,,,,,,,,,,
,,,,,418264,001,2024-06-14_11h20.10.541,experiment,2024.1.5,MacIntel,59.88023952,664614c87025e6f51aae8ea4,666b5f73dbba3f0cd916b177,666c6d8d33aa95ee79c11bc5,,,,,,,,,,,,,,,,,,,,,,,,,,,,,,,,,,,,1001.7164,1009.3781,0,1,1,1,1,SoundStimuli/MyGirl_TheTemptations_Cover5S.wav,,,,,,,,,,,,,,,,,,,,,,,,,,,,,,,,,,,,,,,,,,,,,,,,,,,,,,,,,,
,,,,,418264,001,2024-06-14_11h20.10.541,experiment,2024.1.5,MacIntel,59.88023952,664614c87025e6f51aae8ea4,666b5f73dbba3f0cd916b177,666c6d8d33aa95ee79c11bc5,,,,,,,,,,,,,,,,,,,,,,,,,,,,,,,,,,,,,,,,,,,,1009.3782,1010.1615,4.026380208,0.7723,0,13,13,15,1,song_indices/MyGirl_TheTemptations.csv,,,,,,,,,,,,,,,,,,,,,,,,,,,,,,,,,,,,,,,,,,,,,,,,
,,,,,418264,001,2024-06-14_11h20.10.541,experiment,2024.1.5,MacIntel,59.88023952,664614c87025e6f51aae8ea4,666b5f73dbba3f0cd916b177,666c6d8d33aa95ee79c11bc5,,,,,,,,,,,,,,,,,,,,,,,,,,,,,,,,,,,,1010.162,1016.1119,0,0,0,1,1,SoundStimuli/IllMakeLoveToYou_BoyzIIMen_Cover5S.wav,,,,,,,,,,,,,,,,,,,,,,,,,,,,,,,,,,,,,,,,,,,,,,,,,,,,,,,,,,
,,,,,418264,001,2024-06-14_11h20.10.541,experiment,2024.1.5,MacIntel,59.88023952,664614c87025e6f51aae8ea4,666b5f73dbba3f0cd916b177,666c6d8d33aa95ee79c11bc5,,,,,,,,,,,,,,,,,,,,,,,,,,,,,,,,,,,,1016.1228,1022.1953,0,1,1,0,1,SoundStimuli/IllMakeLoveToYou_BoyzIIMen_Original5S.wav,,,,,,,,,,,,,,,,,,,,,,,,,,,,,,,,,,,,,,,,,,,,,,,,,,,,,,,,,,
,,,,,418264,001,2024-06-14_11h20.10.541,experiment,2024.1.5,MacIntel,59.88023952,664614c87025e6f51aae8ea4,666b5f73dbba3f0cd916b177,666c6d8d33aa95ee79c11bc5,,,,,,,,,,,,,,,,,,,,,,,,,,,,,,,,,,,,,,,,,,,,1022.1954,1022.6624,4.844010417,0.457,0,14,14,6,1,song_indices/IllMakeLoveToYou_BoyzIIMen.csv,,,,,,,,,,,,,,,,,,,,,,,,,,,,,,,,,,,,,,,,,,,,,,,,
,,,,,418264,001,2024-06-14_11h20.10.541,experiment,2024.1.5,MacIntel,59.88023952,664614c87025e6f51aae8ea4,666b5f73dbba3f0cd916b177,666c6d8d33aa95ee79c11bc5,,,,,,,,,,,,,,,,,,,,,,,,,,,,,,,,,,,,1022.6634,1028.7958,0,0,0,0,1,SoundStimuli/StrawberryFieldsForever_TheBeatles_Original5S.wav,,,,,,,,,,,,,,,,,,,,,,,,,,,,,,,,,,,,,,,,,,,,,,,,,,,,,,,,,,
,,,,,418264,001,2024-06-14_11h20.10.541,experiment,2024.1.5,MacIntel,59.88023952,664614c87025e6f51aae8ea4,666b5f73dbba3f0cd916b177,666c6d8d33aa95ee79c11bc5,,,,,,,,,,,,,,,,,,,,,,,,,,,,,,,,,,,,1028.8059,1035.8294,0,1,1,1,1,SoundStimuli/StrawberryFieldsForever_TheBeatles_Cover5S.wav,,,,,,,,,,,,,,,,,,,,,,,,,,,,,,,,,,,,,,,,,,,,,,,,,,,,,,,,,,
,,,,,418264,001,2024-06-14_11h20.10.541,experiment,2024.1.5,MacIntel,59.88023952,664614c87025e6f51aae8ea4,666b5f73dbba3f0cd916b177,666c6d8d33aa95ee79c11bc5,,,,,,,,,,,,,,,,,,,,,,,,,,,,,,,,,,,,,,,,,,,,1035.8295,1036.379,3.468828125,0.5372,0,15,15,14,1,song_indices/StrawberryFieldsForever_TheBeatles.csv,,,,,,,,,,,,,,,,,,,,,,,,,,,,,,,,,,,,,,,,,,,,,,,,
,,,,,418264,001,2024-06-14_11h20.10.541,experiment,2024.1.5,MacIntel,59.88023952,664614c87025e6f51aae8ea4,666b5f73dbba3f0cd916b177,666c6d8d33aa95ee79c11bc5,,,,,,,,,,,,,,,,,,,,,,,,,,,,,,,,,,,,1036.3794,1042.5296,0,0,0,0,1,SoundStimuli/MackTheKnife_BobbyDarin_Original5S.wav,,,,,,,,,,,,,,,,,,,,,,,,,,,,,,,,,,,,,,,,,,,,,,,,,,,,,,,,,,
,,,,,418264,001,2024-06-14_11h20.10.541,experiment,2024.1.5,MacIntel,59.88023952,664614c87025e6f51aae8ea4,666b5f73dbba3f0cd916b177,666c6d8d33aa95ee79c11bc5,,,,,,,,,,,,,,,,,,,,,,,,,,,,,,,,,,,,1042.539,1048.7965,0,1,1,1,1,SoundStimuli/MackTheKnife_BobbyDarin_Cover5S.wav,,,,,,,,,,,,,,,,,,,,,,,,,,,,,,,,,,,,,,,,,,,,,,,,,,,,,,,,,,
,,,,,418264,001,2024-06-14_11h20.10.541,experiment,2024.1.5,MacIntel,59.88023952,664614c87025e6f51aae8ea4,666b5f73dbba3f0cd916b177,666c6d8d33aa95ee79c11bc5,,,,,,,,,,,,,,,,,,,,,,,,,,,,,,,,,,,,,,,,,,,,1048.7966,1049.6962,1.062890625,0.8861,0,16,16,21,1,song_indices/MackTheKnife_BobbyDarin.csv,,,,,,,,,,,,,,,,,,,,,,,,,,,,,,,,,,,,,,,,,,,,,,,,
,,,,,418264,001,2024-06-14_11h20.10.541,experiment,2024.1.5,MacIntel,59.88023952,664614c87025e6f51aae8ea4,666b5f73dbba3f0cd916b177,666c6d8d33aa95ee79c11bc5,,,,,,,,,,,,,,,,,,,,,,,,,,,,,,,,,,,,1049.697,1057.2135,0,0,0,1,1,SoundStimuli/EndlessLove_DianaRossLionelRichie_Cover5S.wav,,,,,,,,,,,,,,,,,,,,,,,,,,,,,,,,,,,,,,,,,,,,,,,,,,,,,,,,,,
,,,,,418264,001,2024-06-14_11h20.10.541,experiment,2024.1.5,MacIntel,59.88023952,664614c87025e6f51aae8ea4,666b5f73dbba3f0cd916b177,666c6d8d33aa95ee79c11bc5,,,,,,,,,,,,,,,,,,,,,,,,,,,,,,,,,,,,1057.2258,1063.5634,0,1,1,0,1,SoundStimuli/EndlessLove_DianaRossLionelRichie_Original5S.wav,,,,,,,,,,,,,,,,,,,,,,,,,,,,,,,,,,,,,,,,,,,,,,,,,,,,,,,,,,
,,,,,418264,001,2024-06-14_11h20.10.541,experiment,2024.1.5,MacIntel,59.88023952,664614c87025e6f51aae8ea4,666b5f73dbba3f0cd916b177,666c6d8d33aa95ee79c11bc5,,,,,,,,,,,,,,,,,,,,,,,,,,,,,,,,,,,,,,,,,,,,1063.5638,1065.4968,3.604270833,1.92,0,17,17,3,1,song_indices/EndlessLove_DianaRossLionelRichie.csv,,,,,,,,,,,,,,,,,,,,,,,,,,,,,,,,,,,,,,,,,,,,,,,,
,,,,,418264,001,2024-06-14_11h20.10.541,experiment,2024.1.5,MacIntel,59.88023952,664614c87025e6f51aae8ea4,666b5f73dbba3f0cd916b177,666c6d8d33aa95ee79c11bc5,,,,,,,,,,,,,,,,,,,,,,,,,,,,,,,,,,,,1065.4979,1071.5308,0,0,0,0,1,SoundStimuli/StayinAlive_BeeGees_Original5S.wav,,,,,,,,,,,,,,,,,,,,,,,,,,,,,,,,,,,,,,,,,,,,,,,,,,,,,,,,,,
,,,,,418264,001,2024-06-14_11h20.10.541,experiment,2024.1.5,MacIntel,59.88023952,664614c87025e6f51aae8ea4,666b5f73dbba3f0cd916b177,666c6d8d33aa95ee79c11bc5,,,,,,,,,,,,,,,,,,,,,,,,,,,,,,,,,,,,1071.5432,1077.364,0,1,1,1,1,SoundStimuli/StayinAlive_BeeGees_Cover5S.wav,,,,,,,,,,,,,,,,,,,,,,,,,,,,,,,,,,,,,,,,,,,,,,,,,,,,,,,,,,
,,,,,418264,001,2024-06-14_11h20.10.541,experiment,2024.1.5,MacIntel,59.88023952,664614c87025e6f51aae8ea4,666b5f73dbba3f0cd916b177,666c6d8d33aa95ee79c11bc5,,,,,,,,,,,,,,,,,,,,,,,,,,,,,,,,,,,,,,,,,,,,1077.3643,1078.1472,2.816015625,0.7698,0,18,18,2,1,song_indices/StayinAlive_BeeGees.csv,,,,,,,,,,,,,,,,,,,,,,,,,,,,,,,,,,,,,,,,,,,,,,,,
,,,,,418264,001,2024-06-14_11h20.10.541,experiment,2024.1.5,MacIntel,59.88023952,664614c87025e6f51aae8ea4,666b5f73dbba3f0cd916b177,666c6d8d33aa95ee79c11bc5,,,,,,,,,,,,,,,,,,,,,,,,,,,,,,,,,,,,1078.1479,1084.8479,0,0,0,1,1,SoundStimuli/BridgeOverTroubledWater_SimonAndGarfunkel_Cover5S.wav,,,,,,,,,,,,,,,,,,,,,,,,,,,,,,,,,,,,,,,,,,,,,,,,,,,,,,,,,,
,,,,,418264,001,2024-06-14_11h20.10.541,experiment,2024.1.5,MacIntel,59.88023952,664614c87025e6f51aae8ea4,666b5f73dbba3f0cd916b177,666c6d8d33aa95ee79c11bc5,,,,,,,,,,,,,,,,,,,,,,,,,,,,,,,,,,,,1084.8589,1091.1647,0,1,1,0,1,SoundStimuli/BridgeOverTroubledWater_SimonAndGarfunkel_Original5S.wav,,,,,,,,,,,,,,,,,,,,,,,,,,,,,,,,,,,,,,,,,,,,,,,,,,,,,,,,,,
,,,,,418264,001,2024-06-14_11h20.10.541,experiment,2024.1.5,MacIntel,59.88023952,664614c87025e6f51aae8ea4,666b5f73dbba3f0cd916b177,666c6d8d33aa95ee79c11bc5,,,,,,,,,,,,,,,,,,,,,,,,,,,,,,,,,,,,,,,,,,,,1091.1649,1091.9979,1.704947917,0.8224,0,19,19,1,1,song_indices/BridgeOverTroubledWater_SimonAndGarfunkel.csv,,,,,,,,,,,,,,,,,,,,,,,,,,,,,,,,,,,,,,,,,,,,,,,,
,,,,,418264,001,2024-06-14_11h20.10.541,experiment,2024.1.5,MacIntel,59.88023952,664614c87025e6f51aae8ea4,666b5f73dbba3f0cd916b177,666c6d8d33aa95ee79c11bc5,,,,,,,,,,,,,,,,,,,,,,,,,,,,,,,,,,,,1091.9988,1097.965,0,0,0,0,1,SoundStimuli/BohemianRhapsody_Queen_Original5S.wav,,,,,,,,,,,,,,,,,,,,,,,,,,,,,,,,,,,,,,,,,,,,,,,,,,,,,,,,,,
,,,,,418264,001,2024-06-14_11h20.10.541,experiment,2024.1.5,MacIntel,59.88023952,664614c87025e6f51aae8ea4,666b5f73dbba3f0cd916b177,666c6d8d33aa95ee79c11bc5,,,,,,,,,,,,,,,,,,,,,,,,,,,,,,,,,,,,1097.9772,1102.0485,0,1,1,1,1,SoundStimuli/BohemianRhapsody_Queen_Cover5S.wav,,,,,,,,,,,,,,,,,,,,,,,,,,,,,,,,,,,,,,,,,,,,,,,,,,,,,,,,,,
,,,,,418264,001,2024-06-14_11h20.10.541,experiment,2024.1.5,MacIntel,59.88023952,664614c87025e6f51aae8ea4,666b5f73dbba3f0cd916b177,666c6d8d33aa95ee79c11bc5,,,,,,,,,,,,,,,,,,,,,,,,,,,,,,,,,,,,,,,,,,,,1102.0486,1103.1819,1.05359375,1.1097,0,20,20,18,1,song_indices/BohemianRhapsody_Queen.csv,,,,,,,,,,,,,,,,,,,,,,,,,,,,,,,,,,,,,,,,,,,,,,,,
,,,,,418264,001,2024-06-14_11h20.10.541,experiment,2024.1.5,MacIntel,59.88023952,664614c87025e6f51aae8ea4,666b5f73dbba3f0cd916b177,666c6d8d33aa95ee79c11bc5,,,,,,,,,,,,,,,,,,,,,,,,,,,,,,,,,,,,1103.183,1108.7821,0,0,0,0,1,SoundStimuli/IWannaDanceWithSomebody_WhitneyHouston_Original5S.wav,,,,,,,,,,,,,,,,,,,,,,,,,,,,,,,,,,,,,,,,,,,,,,,,,,,,,,,,,,
,,,,,418264,001,2024-06-14_11h20.10.541,experiment,2024.1.5,MacIntel,59.88023952,664614c87025e6f51aae8ea4,666b5f73dbba3f0cd916b177,666c6d8d33aa95ee79c11bc5,,,,,,,,,,,,,,,,,,,,,,,,,,,,,,,,,,,,1108.7917,1115.6325,0,1,1,1,1,SoundStimuli/IWannaDanceWithSomebody_WhitneyHouston_Cover5S.wav,,,,,,,,,,,,,,,,,,,,,,,,,,,,,,,,,,,,,,,,,,,,,,,,,,,,,,,,,,
,,,,,418264,001,2024-06-14_11h20.10.541,experiment,2024.1.5,MacIntel,59.88023952,664614c87025e6f51aae8ea4,666b5f73dbba3f0cd916b177,666c6d8d33aa95ee79c11bc5,,,,,,,,,,,,,,,,,,,,,,,,,,,,,,,,,,,,,,,,,,,,1115.6326,1116.0821,2.119036458,0.4389,0,21,21,13,1,song_indices/IWannaDanceWithSomebody_WhitneyHouston.csv,,,,,,,,,,,,,,,,,,,,,,,,,,,,,,,,,,,,,,,,,,,,,,,,
,,,,,418264,001,2024-06-14_11h20.10.541,experiment,2024.1.5,MacIntel,59.88023952,664614c87025e6f51aae8ea4,666b5f73dbba3f0cd916b177,666c6d8d33aa95ee79c11bc5,,,,,,,,,,,,,,,,,,,,,,,,,,,,,,,,,,,,1116.083,1122.2826,0,0,0,0,1,SoundStimuli/LikeAPrayer_Madonna_Original5S.wav,,,,,,,,,,,,,,,,,,,,,,,,,,,,,,,,,,,,,,,,,,,,,,,,,,,,,,,,,,
,,,,,418264,001,2024-06-14_11h20.10.541,experiment,2024.1.5,MacIntel,59.88023952,664614c87025e6f51aae8ea4,666b5f73dbba3f0cd916b177,666c6d8d33aa95ee79c11bc5,,,,,,,,,,,,,,,,,,,,,,,,,,,,,,,,,,,,1122.2939,1128.4994,0,1,1,1,1,SoundStimuli/LikeAPrayer_Madonna_Cover5S.wav,,,,,,,,,,,,,,,,,,,,,,,,,,,,,,,,,,,,,,,,,,,,,,,,,,,,,,,,,,
,,,,,418264,001,2024-06-14_11h20.10.541,experiment,2024.1.5,MacIntel,59.88023952,664614c87025e6f51aae8ea4,666b5f73dbba3f0cd916b177,666c6d8d33aa95ee79c11bc5,,,,,,,,,,,,,,,,,,,,,,,,,,,,,,,,,,,,,,,,,,,,1128.4995,1129.0159,5.507265625,0.5054,0,22,22,7,1,song_indices/LikeAPrayer_Madonna.csv,,,,,,,,,,,,,,,,,,,,,,,,,,,,,,,,,,,,,,,,,,,,,,,,
,,,,,418264,001,2024-06-14_11h20.10.541,experiment,2024.1.5,MacIntel,59.88023952,664614c87025e6f51aae8ea4,666b5f73dbba3f0cd916b177,666c6d8d33aa95ee79c11bc5,,,,,,,,,,,,,,,,,,,,,,,,,,,,,,,,,,,,,,,,,,,,,,,,,,,,,,1129.0161,1129.0161,,,,0,2,2,0,1,choose_song_b1.csv,,,,,,,,,,,,,,,,,,,,,,,,,,,,,,,,,,,,,
,,,,,418264,001,2024-06-14_11h20.10.541,experiment,2024.1.5,MacIntel,59.88023952,664614c87025e6f51aae8ea4,666b5f73dbba3f0cd916b177,666c6d8d33aa95ee79c11bc5,,,,,,,,,,,,,,,,,,,,,,,,,,,,,,,,,,,,,,,,,,,,,,,,,,,,,,,,,,,,,,,,,28,Item 3,"Piano from ages 5-10, french horn until high school. Now I just mostly mess around on my guitar and bass, but I am not proficient at either.",Item 6,Spotify,2,7,"Play chess, work, drive, hanging out with friends, housework. Basically everything I do, I will have music on if possible.",Always,Sometimes,Sometimes,Sometimes,Often,Never,Sometimes,Sometimes,Often,Often,Sometimes,Sometimes,Sometimes,Often,Never,Never,"Anti-folk, art pop, primitive",60's Folk,Traditional Folk (mostly late 19th century - early 20th century),Modern Folk,Not really. I've always listened to a lot of music and a wide variety of music.,"I often seek out music in genres that I don't necessarily like if the album is well received or innovative. I went to my first metal show recently, mostly out of curiosity. I'd say I split my music listening 70-30 between music I truly enjoy and music exploration.",0,0,0,0,1,,
,,,,,418264,001,2024-06-14_11h20.10.541,experiment,2024.1.5,MacIntel,59.88023952,664614c87025e6f51aae8ea4,666b5f73dbba3f0cd916b177,666c6d8d33aa95ee79c11bc5,,,,,,,,,,,,,,,,,,,,,,,,,,,,,,,,,,,,,,,,,,,,,,,,,,,,,,,,,,,,,,,,,,,,,,,,,,,,,,,,,,,,,,,,,,,,,,,,,,,,1480.9307,1483.2299
