welcome.started,welcome.stopped,space_to_continue.keys,space_to_continue.rt,space_to_continue.duration,participant,session,date,expName,psychopyVersion,OS,frameRate,PROLIFIC_PID,STUDY_ID,SESSION_ID,consent.consent,consent.consent_recontact,consent_check.started,consent_check.stopped,calibration_ready.started,calibration_ready.stopped,cal_ready.keys,cal_ready.rt,cal_ready.duration,calibration.started,calibration.stopped,mouse.x,mouse.y,mouse.leftButton,mouse.midButton,mouse.rightButton,mouse.time,mouse.clicked_name,move_on.keys,move_on.rt,move_on.duration,instructions.started,instructions.stopped,next.keys,next.rt,next.duration,practice_trial.started,practice_trial.stopped,practice_slider.response,practice_slider.rt,ready.started,ready.stopped,key_resp.keys,key_resp.rt,key_resp.duration,play_sound.started,play_sound.stopped,trials.thisRepN,trials.thisTrialN,trials.thisN,trials.thisIndex,trials.ran,orig_or_cover,rating.started,rating.stopped,slider.response,slider.rt,songs.thisRepN,songs.thisTrialN,songs.thisN,songs.thisIndex,songs.ran,song_id,short_break.started,short_break.stopped,space_to_move_on.keys,space_to_move_on.rt,space_to_move_on.duration,blocks.thisRepN,blocks.thisTrialN,blocks.thisN,blocks.thisIndex,blocks.ran,block,survey.age,survey.musician,survey.music_making,survey.listen_time,survey.medium,survey.music_seeking,survey.music_choice,survey.activities,survey.question1.Jazz,survey.question1.Latin,survey.question1.Classical,survey.question1.Classic rock,survey.question1.Ambient,survey.question1.Country,survey.question1.Reggae,survey.question1.Electronic (EDM),survey.question1.Metal,survey.question1.Alternative rock,survey.question1.Folk/indie,survey.question1.A cappella,survey.question1.R&B,survey.question1.Disco,survey.question1.Hip hop,survey.question1.Pop,survey.genres_ranked.text1,survey.genres_ranked.text2,survey.genres_ranked.text3,survey.other_genres,survey.habit_change,experiment.thisRepN,experiment.thisTrialN,experiment.thisN,experiment.thisIndex,experiment.ran,goodbye.started,goodbye.stopped
0,1.683,space,1.66,,464455,001,2024-06-17_10h44.15.659,experiment,2024.1.5,Win32,60.0240096,60ff2c3d915d23318b73ae8d,667045947eb812cbdacbf325,66704b8e09e6e5797ec72f51,,,,,,,,,,,,,,,,,,,,,,,,,,,,,,,,,,,,,,,,,,,,,,,,,,,,,,,,,,,,,,,,,,,,,,,,,,,,,,,,,,,,,,,,,,,,,,,,,,,,
,,,,,464455,001,2024-06-17_10h44.15.659,experiment,2024.1.5,Win32,60.0240096,60ff2c3d915d23318b73ae8d,667045947eb812cbdacbf325,66704b8e09e6e5797ec72f51,yes,yes,,,,,,,,,,,,,,,,,,,,,,,,,,,,,,,,,,,,,,,,,,,,,,,,,,,,,,,,,,,,,,,,,,,,,,,,,,,,,,,,,,,,,,,,,,,,,,,,,,
,,,,,464455,001,2024-06-17_10h44.15.659,experiment,2024.1.5,Win32,60.0240096,60ff2c3d915d23318b73ae8d,667045947eb812cbdacbf325,66704b8e09e6e5797ec72f51,,,373.68,373.68,,,,,,,,,,,,,,,,,,,,,,,,,,,,,,,,,,,,,,,,,,,,,,,,,,,,,,,,,,,,,,,,,,,,,,,,,,,,,,,,,,,,,,,,,,,,,,,,
,,,,,464455,001,2024-06-17_10h44.15.659,experiment,2024.1.5,Win32,60.0240096,60ff2c3d915d23318b73ae8d,667045947eb812cbdacbf325,66704b8e09e6e5797ec72f51,,,,,373.681,378.11,space,4.405,,378.11,393.966,[-0.01273148148148148],[-0.45023148148148145],[1],[0],[0],[8.656000000000006],"[""play_button""]",right,5.836,,393.966,403.944,space,9.945,,403.945,421.148,2.986111111,17.191,421.148,423.747,space,2.576,,423.763,429.977,0,0,0,0,1,SoundStimuli/BetteDavisEyes_KimCarnes_Original5S.wav,,,,,,,,,,,,,,,,,,,,,,,,,,,,,,,,,,,,,,,,,,,,,,,,,,,,,,,,,
,,,,,464455,001,2024-06-17_10h44.15.659,experiment,2024.1.5,Win32,60.0240096,60ff2c3d915d23318b73ae8d,667045947eb812cbdacbf325,66704b8e09e6e5797ec72f51,,,,,,,,,,,,,,,,,,,,,,,,,,,,,,,,,,,,429.98,435.673,0,1,1,1,1,SoundStimuli/BetteDavisEyes_KimCarnes_Cover5S.wav,,,,,,,,,,,,,,,,,,,,,,,,,,,,,,,,,,,,,,,,,,,,,,,,,,,,,,,,,
,,,,,464455,001,2024-06-17_10h44.15.659,experiment,2024.1.5,Win32,60.0240096,60ff2c3d915d23318b73ae8d,667045947eb812cbdacbf325,66704b8e09e6e5797ec72f51,,,,,,,,,,,,,,,,,,,,,,,,,,,,,,,,,,,,,,,,,,,,435.674,438.22,5.965277778,2.536,0,0,0,5,1,song_indices/BetteDavisEyes_KimCarnes.csv,,,,,,,,,,,,,,,,,,,,,,,,,,,,,,,,,,,,,,,,,,,,,,,
,,,,,464455,001,2024-06-17_10h44.15.659,experiment,2024.1.5,Win32,60.0240096,60ff2c3d915d23318b73ae8d,667045947eb812cbdacbf325,66704b8e09e6e5797ec72f51,,,,,,,,,,,,,,,,,,,,,,,,,,,,,,,,,,,,438.225,445.583,0,0,0,0,1,SoundStimuli/Happy_PharellWilliams_Original5S.wav,,,,,,,,,,,,,,,,,,,,,,,,,,,,,,,,,,,,,,,,,,,,,,,,,,,,,,,,,
,,,,,464455,001,2024-06-17_10h44.15.659,experiment,2024.1.5,Win32,60.0240096,60ff2c3d915d23318b73ae8d,667045947eb812cbdacbf325,66704b8e09e6e5797ec72f51,,,,,,,,,,,,,,,,,,,,,,,,,,,,,,,,,,,,445.585,452.945,0,1,1,1,1,SoundStimuli/Happy_PharellWilliams_Cover5S.wav,,,,,,,,,,,,,,,,,,,,,,,,,,,,,,,,,,,,,,,,,,,,,,,,,,,,,,,,,
,,,,,464455,001,2024-06-17_10h44.15.659,experiment,2024.1.5,Win32,60.0240096,60ff2c3d915d23318b73ae8d,667045947eb812cbdacbf325,66704b8e09e6e5797ec72f51,,,,,,,,,,,,,,,,,,,,,,,,,,,,,,,,,,,,,,,,,,,,452.946,454.676,5.986111111,1.721,0,1,1,7,1,song_indices/Happy_PharellWilliams.csv,,,,,,,,,,,,,,,,,,,,,,,,,,,,,,,,,,,,,,,,,,,,,,,
,,,,,464455,001,2024-06-17_10h44.15.659,experiment,2024.1.5,Win32,60.0240096,60ff2c3d915d23318b73ae8d,667045947eb812cbdacbf325,66704b8e09e6e5797ec72f51,,,,,,,,,,,,,,,,,,,,,,,,,,,,,,,,,,,,454.681,460.623,0,0,0,1,1,SoundStimuli/TheBoyIsMine_BrandyMonica_Cover5S.wav,,,,,,,,,,,,,,,,,,,,,,,,,,,,,,,,,,,,,,,,,,,,,,,,,,,,,,,,,
,,,,,464455,001,2024-06-17_10h44.15.659,experiment,2024.1.5,Win32,60.0240096,60ff2c3d915d23318b73ae8d,667045947eb812cbdacbf325,66704b8e09e6e5797ec72f51,,,,,,,,,,,,,,,,,,,,,,,,,,,,,,,,,,,,460.624,466.837,0,1,1,0,1,SoundStimuli/TheBoyIsMine_BrandyMonica_Original5S.wav,,,,,,,,,,,,,,,,,,,,,,,,,,,,,,,,,,,,,,,,,,,,,,,,,,,,,,,,,
,,,,,464455,001,2024-06-17_10h44.15.659,experiment,2024.1.5,Win32,60.0240096,60ff2c3d915d23318b73ae8d,667045947eb812cbdacbf325,66704b8e09e6e5797ec72f51,,,,,,,,,,,,,,,,,,,,,,,,,,,,,,,,,,,,,,,,,,,,466.838,469.868,5.986111111,3.018,0,2,2,6,1,song_indices/TheBoyIsMine_BrandyMonica.csv,,,,,,,,,,,,,,,,,,,,,,,,,,,,,,,,,,,,,,,,,,,,,,,
,,,,,464455,001,2024-06-17_10h44.15.659,experiment,2024.1.5,Win32,60.0240096,60ff2c3d915d23318b73ae8d,667045947eb812cbdacbf325,66704b8e09e6e5797ec72f51,,,,,,,,,,,,,,,,,,,,,,,,,,,,,,,,,,,,469.873,476.097,0,0,0,1,1,SoundStimuli/NoOne_AliciaKeys_Cover5S.wav,,,,,,,,,,,,,,,,,,,,,,,,,,,,,,,,,,,,,,,,,,,,,,,,,,,,,,,,,
,,,,,464455,001,2024-06-17_10h44.15.659,experiment,2024.1.5,Win32,60.0240096,60ff2c3d915d23318b73ae8d,667045947eb812cbdacbf325,66704b8e09e6e5797ec72f51,,,,,,,,,,,,,,,,,,,,,,,,,,,,,,,,,,,,476.098,483.825,0,1,1,0,1,SoundStimuli/NoOne_AliciaKeys_Original5S.wav,,,,,,,,,,,,,,,,,,,,,,,,,,,,,,,,,,,,,,,,,,,,,,,,,,,,,,,,,
,,,,,464455,001,2024-06-17_10h44.15.659,experiment,2024.1.5,Win32,60.0240096,60ff2c3d915d23318b73ae8d,667045947eb812cbdacbf325,66704b8e09e6e5797ec72f51,,,,,,,,,,,,,,,,,,,,,,,,,,,,,,,,,,,,,,,,,,,,483.826,486.523,2.986111111,2.695,0,3,3,19,1,song_indices/NoOne_AliciaKeys.csv,,,,,,,,,,,,,,,,,,,,,,,,,,,,,,,,,,,,,,,,,,,,,,,
,,,,,464455,001,2024-06-17_10h44.15.659,experiment,2024.1.5,Win32,60.0240096,60ff2c3d915d23318b73ae8d,667045947eb812cbdacbf325,66704b8e09e6e5797ec72f51,,,,,,,,,,,,,,,,,,,,,,,,,,,,,,,,,,,,486.527,492.42,0,0,0,0,1,SoundStimuli/EyeOfTheTiger_Survivor_Original5S.wav,,,,,,,,,,,,,,,,,,,,,,,,,,,,,,,,,,,,,,,,,,,,,,,,,,,,,,,,,
,,,,,464455,001,2024-06-17_10h44.15.659,experiment,2024.1.5,Win32,60.0240096,60ff2c3d915d23318b73ae8d,667045947eb812cbdacbf325,66704b8e09e6e5797ec72f51,,,,,,,,,,,,,,,,,,,,,,,,,,,,,,,,,,,,492.421,498.549,0,1,1,1,1,SoundStimuli/EyeOfTheTiger_Survivor_Cover5S.wav,,,,,,,,,,,,,,,,,,,,,,,,,,,,,,,,,,,,,,,,,,,,,,,,,,,,,,,,,
,,,,,464455,001,2024-06-17_10h44.15.659,experiment,2024.1.5,Win32,60.0240096,60ff2c3d915d23318b73ae8d,667045947eb812cbdacbf325,66704b8e09e6e5797ec72f51,,,,,,,,,,,,,,,,,,,,,,,,,,,,,,,,,,,,,,,,,,,,498.551,500.247,5.715277778,1.689,0,4,4,11,1,song_indices/EyeOfTheTiger_Survivor.csv,,,,,,,,,,,,,,,,,,,,,,,,,,,,,,,,,,,,,,,,,,,,,,,
,,,,,464455,001,2024-06-17_10h44.15.659,experiment,2024.1.5,Win32,60.0240096,60ff2c3d915d23318b73ae8d,667045947eb812cbdacbf325,66704b8e09e6e5797ec72f51,,,,,,,,,,,,,,,,,,,,,,,,,,,,,,,,,,,,500.253,506.711,0,0,0,0,1,SoundStimuli/ShapeofYou_EdSheeran_Original5S.wav,,,,,,,,,,,,,,,,,,,,,,,,,,,,,,,,,,,,,,,,,,,,,,,,,,,,,,,,,
,,,,,464455,001,2024-06-17_10h44.15.659,experiment,2024.1.5,Win32,60.0240096,60ff2c3d915d23318b73ae8d,667045947eb812cbdacbf325,66704b8e09e6e5797ec72f51,,,,,,,,,,,,,,,,,,,,,,,,,,,,,,,,,,,,506.715,513.023,0,1,1,1,1,SoundStimuli/ShapeofYou_EdSheeran_Cover5S.wav,,,,,,,,,,,,,,,,,,,,,,,,,,,,,,,,,,,,,,,,,,,,,,,,,,,,,,,,,
,,,,,464455,001,2024-06-17_10h44.15.659,experiment,2024.1.5,Win32,60.0240096,60ff2c3d915d23318b73ae8d,667045947eb812cbdacbf325,66704b8e09e6e5797ec72f51,,,,,,,,,,,,,,,,,,,,,,,,,,,,,,,,,,,,,,,,,,,,513.024,515.387,2.979166667,2.36,0,5,5,21,1,song_indices/ShapeofYou_EdSheeran.csv,,,,,,,,,,,,,,,,,,,,,,,,,,,,,,,,,,,,,,,,,,,,,,,
,,,,,464455,001,2024-06-17_10h44.15.659,experiment,2024.1.5,Win32,60.0240096,60ff2c3d915d23318b73ae8d,667045947eb812cbdacbf325,66704b8e09e6e5797ec72f51,,,,,,,,,,,,,,,,,,,,,,,,,,,,,,,,,,,,515.391,521.452,0,0,0,0,1,SoundStimuli/Stronger_KanyeWest_Original5S.wav,,,,,,,,,,,,,,,,,,,,,,,,,,,,,,,,,,,,,,,,,,,,,,,,,,,,,,,,,
,,,,,464455,001,2024-06-17_10h44.15.659,experiment,2024.1.5,Win32,60.0240096,60ff2c3d915d23318b73ae8d,667045947eb812cbdacbf325,66704b8e09e6e5797ec72f51,,,,,,,,,,,,,,,,,,,,,,,,,,,,,,,,,,,,521.452,527.781,0,1,1,1,1,SoundStimuli/Stronger_KanyeWest_Cover5S.wav,,,,,,,,,,,,,,,,,,,,,,,,,,,,,,,,,,,,,,,,,,,,,,,,,,,,,,,,,
,,,,,464455,001,2024-06-17_10h44.15.659,experiment,2024.1.5,Win32,60.0240096,60ff2c3d915d23318b73ae8d,667045947eb812cbdacbf325,66704b8e09e6e5797ec72f51,,,,,,,,,,,,,,,,,,,,,,,,,,,,,,,,,,,,,,,,,,,,527.781,529.679,2.006944444,1.895,0,6,6,9,1,song_indices/Stronger_KanyeWest.csv,,,,,,,,,,,,,,,,,,,,,,,,,,,,,,,,,,,,,,,,,,,,,,,
,,,,,464455,001,2024-06-17_10h44.15.659,experiment,2024.1.5,Win32,60.0240096,60ff2c3d915d23318b73ae8d,667045947eb812cbdacbf325,66704b8e09e6e5797ec72f51,,,,,,,,,,,,,,,,,,,,,,,,,,,,,,,,,,,,529.682,536.459,0,0,0,1,1,SoundStimuli/PartyRockAnthem_LMFAO_Cover5S.wav,,,,,,,,,,,,,,,,,,,,,,,,,,,,,,,,,,,,,,,,,,,,,,,,,,,,,,,,,
,,,,,464455,001,2024-06-17_10h44.15.659,experiment,2024.1.5,Win32,60.0240096,60ff2c3d915d23318b73ae8d,667045947eb812cbdacbf325,66704b8e09e6e5797ec72f51,,,,,,,,,,,,,,,,,,,,,,,,,,,,,,,,,,,,536.464,543.22,0,1,1,0,1,SoundStimuli/PartyRockAnthem_LMFAO_Original5S.wav,,,,,,,,,,,,,,,,,,,,,,,,,,,,,,,,,,,,,,,,,,,,,,,,,,,,,,,,,
,,,,,464455,001,2024-06-17_10h44.15.659,experiment,2024.1.5,Win32,60.0240096,60ff2c3d915d23318b73ae8d,667045947eb812cbdacbf325,66704b8e09e6e5797ec72f51,,,,,,,,,,,,,,,,,,,,,,,,,,,,,,,,,,,,,,,,,,,,543.221,546.851,5.923611111,3.622,0,7,7,2,1,song_indices/PartyRockAnthem_LMFAO.csv,,,,,,,,,,,,,,,,,,,,,,,,,,,,,,,,,,,,,,,,,,,,,,,
,,,,,464455,001,2024-06-17_10h44.15.659,experiment,2024.1.5,Win32,60.0240096,60ff2c3d915d23318b73ae8d,667045947eb812cbdacbf325,66704b8e09e6e5797ec72f51,,,,,,,,,,,,,,,,,,,,,,,,,,,,,,,,,,,,546.856,553.048,0,0,0,0,1,SoundStimuli/NoScrubs_TLC_Original5S.wav,,,,,,,,,,,,,,,,,,,,,,,,,,,,,,,,,,,,,,,,,,,,,,,,,,,,,,,,,
,,,,,464455,001,2024-06-17_10h44.15.659,experiment,2024.1.5,Win32,60.0240096,60ff2c3d915d23318b73ae8d,667045947eb812cbdacbf325,66704b8e09e6e5797ec72f51,,,,,,,,,,,,,,,,,,,,,,,,,,,,,,,,,,,,553.05,559.178,0,1,1,1,1,SoundStimuli/NoScrubs_TLC_Cover5S.wav,,,,,,,,,,,,,,,,,,,,,,,,,,,,,,,,,,,,,,,,,,,,,,,,,,,,,,,,,
,,,,,464455,001,2024-06-17_10h44.15.659,experiment,2024.1.5,Win32,60.0240096,60ff2c3d915d23318b73ae8d,667045947eb812cbdacbf325,66704b8e09e6e5797ec72f51,,,,,,,,,,,,,,,,,,,,,,,,,,,,,,,,,,,,,,,,,,,,559.178,560.81,5.006944444,1.628,0,8,8,14,1,song_indices/NoScrubs_TLC.csv,,,,,,,,,,,,,,,,,,,,,,,,,,,,,,,,,,,,,,,,,,,,,,,
,,,,,464455,001,2024-06-17_10h44.15.659,experiment,2024.1.5,Win32,60.0240096,60ff2c3d915d23318b73ae8d,667045947eb812cbdacbf325,66704b8e09e6e5797ec72f51,,,,,,,,,,,,,,,,,,,,,,,,,,,,,,,,,,,,560.814,567.024,0,0,0,0,1,SoundStimuli/TheBattleOfNewOrleans_JohnnyHorton_Original5S.wav,,,,,,,,,,,,,,,,,,,,,,,,,,,,,,,,,,,,,,,,,,,,,,,,,,,,,,,,,
,,,,,464455,001,2024-06-17_10h44.15.659,experiment,2024.1.5,Win32,60.0240096,60ff2c3d915d23318b73ae8d,667045947eb812cbdacbf325,66704b8e09e6e5797ec72f51,,,,,,,,,,,,,,,,,,,,,,,,,,,,,,,,,,,,567.027,575.017,0,1,1,1,1,SoundStimuli/TheBattleOfNewOrleans_JohnnyHorton_Cover5S.wav,,,,,,,,,,,,,,,,,,,,,,,,,,,,,,,,,,,,,,,,,,,,,,,,,,,,,,,,,
,,,,,464455,001,2024-06-17_10h44.15.659,experiment,2024.1.5,Win32,60.0240096,60ff2c3d915d23318b73ae8d,667045947eb812cbdacbf325,66704b8e09e6e5797ec72f51,,,,,,,,,,,,,,,,,,,,,,,,,,,,,,,,,,,,,,,,,,,,575.017,578.881,2.944444444,3.855,0,9,9,4,1,song_indices/TheBattleOfNewOrleans_JohnnyHorton.csv,,,,,,,,,,,,,,,,,,,,,,,,,,,,,,,,,,,,,,,,,,,,,,,
,,,,,464455,001,2024-06-17_10h44.15.659,experiment,2024.1.5,Win32,60.0240096,60ff2c3d915d23318b73ae8d,667045947eb812cbdacbf325,66704b8e09e6e5797ec72f51,,,,,,,,,,,,,,,,,,,,,,,,,,,,,,,,,,,,578.888,585.461,0,0,0,1,1,SoundStimuli/GetUrFreakOn_MissyElliot_Cover5S.wav,,,,,,,,,,,,,,,,,,,,,,,,,,,,,,,,,,,,,,,,,,,,,,,,,,,,,,,,,
,,,,,464455,001,2024-06-17_10h44.15.659,experiment,2024.1.5,Win32,60.0240096,60ff2c3d915d23318b73ae8d,667045947eb812cbdacbf325,66704b8e09e6e5797ec72f51,,,,,,,,,,,,,,,,,,,,,,,,,,,,,,,,,,,,585.463,591.54,0,1,1,0,1,SoundStimuli/GetUrFreakOn_MissyElliot_Original5S.wav,,,,,,,,,,,,,,,,,,,,,,,,,,,,,,,,,,,,,,,,,,,,,,,,,,,,,,,,,
,,,,,464455,001,2024-06-17_10h44.15.659,experiment,2024.1.5,Win32,60.0240096,60ff2c3d915d23318b73ae8d,667045947eb812cbdacbf325,66704b8e09e6e5797ec72f51,,,,,,,,,,,,,,,,,,,,,,,,,,,,,,,,,,,,,,,,,,,,591.54,593.139,2.916666667,1.59,0,10,10,18,1,song_indices/GetUrFreakOn_MissyElliot.csv,,,,,,,,,,,,,,,,,,,,,,,,,,,,,,,,,,,,,,,,,,,,,,,
,,,,,464455,001,2024-06-17_10h44.15.659,experiment,2024.1.5,Win32,60.0240096,60ff2c3d915d23318b73ae8d,667045947eb812cbdacbf325,66704b8e09e6e5797ec72f51,,,,,,,,,,,,,,,,,,,,,,,,,,,,,,,,,,,,593.142,599.385,0,0,0,1,1,SoundStimuli/ItsAllInTheGame_TommyEdwards_Cover5S.wav,,,,,,,,,,,,,,,,,,,,,,,,,,,,,,,,,,,,,,,,,,,,,,,,,,,,,,,,,
,,,,,464455,001,2024-06-17_10h44.15.659,experiment,2024.1.5,Win32,60.0240096,60ff2c3d915d23318b73ae8d,667045947eb812cbdacbf325,66704b8e09e6e5797ec72f51,,,,,,,,,,,,,,,,,,,,,,,,,,,,,,,,,,,,599.388,605.647,0,1,1,0,1,SoundStimuli/ItsAllInTheGame_TommyEdwards_Original5S.wav,,,,,,,,,,,,,,,,,,,,,,,,,,,,,,,,,,,,,,,,,,,,,,,,,,,,,,,,,
,,,,,464455,001,2024-06-17_10h44.15.659,experiment,2024.1.5,Win32,60.0240096,60ff2c3d915d23318b73ae8d,667045947eb812cbdacbf325,66704b8e09e6e5797ec72f51,,,,,,,,,,,,,,,,,,,,,,,,,,,,,,,,,,,,,,,,,,,,605.648,607.246,4.930555556,1.592,0,11,11,13,1,song_indices/ItsAllInTheGame_TommyEdwards.csv,,,,,,,,,,,,,,,,,,,,,,,,,,,,,,,,,,,,,,,,,,,,,,,
,,,,,464455,001,2024-06-17_10h44.15.659,experiment,2024.1.5,Win32,60.0240096,60ff2c3d915d23318b73ae8d,667045947eb812cbdacbf325,66704b8e09e6e5797ec72f51,,,,,,,,,,,,,,,,,,,,,,,,,,,,,,,,,,,,607.252,613.46,0,0,0,0,1,SoundStimuli/SmellsLikeTeenSpirit_Nirvana_Original5S.wav,,,,,,,,,,,,,,,,,,,,,,,,,,,,,,,,,,,,,,,,,,,,,,,,,,,,,,,,,
,,,,,464455,001,2024-06-17_10h44.15.659,experiment,2024.1.5,Win32,60.0240096,60ff2c3d915d23318b73ae8d,667045947eb812cbdacbf325,66704b8e09e6e5797ec72f51,,,,,,,,,,,,,,,,,,,,,,,,,,,,,,,,,,,,613.46,619.238,0,1,1,1,1,SoundStimuli/SmellsLikeTeenSpirit_Nirvana_Cover5S.wav,,,,,,,,,,,,,,,,,,,,,,,,,,,,,,,,,,,,,,,,,,,,,,,,,,,,,,,,,
,,,,,464455,001,2024-06-17_10h44.15.659,experiment,2024.1.5,Win32,60.0240096,60ff2c3d915d23318b73ae8d,667045947eb812cbdacbf325,66704b8e09e6e5797ec72f51,,,,,,,,,,,,,,,,,,,,,,,,,,,,,,,,,,,,,,,,,,,,619.239,621.337,6.402777778,2.089,0,12,12,8,1,song_indices/SmellsLikeTeenSpirit_Nirvana.csv,,,,,,,,,,,,,,,,,,,,,,,,,,,,,,,,,,,,,,,,,,,,,,,
,,,,,464455,001,2024-06-17_10h44.15.659,experiment,2024.1.5,Win32,60.0240096,60ff2c3d915d23318b73ae8d,667045947eb812cbdacbf325,66704b8e09e6e5797ec72f51,,,,,,,,,,,,,,,,,,,,,,,,,,,,,,,,,,,,621.341,627.633,0,0,0,0,1,SoundStimuli/HeyYa_Outkast_Original5S.wav,,,,,,,,,,,,,,,,,,,,,,,,,,,,,,,,,,,,,,,,,,,,,,,,,,,,,,,,,
,,,,,464455,001,2024-06-17_10h44.15.659,experiment,2024.1.5,Win32,60.0240096,60ff2c3d915d23318b73ae8d,667045947eb812cbdacbf325,66704b8e09e6e5797ec72f51,,,,,,,,,,,,,,,,,,,,,,,,,,,,,,,,,,,,627.634,636.562,0,1,1,1,1,SoundStimuli/HeyYa_Outkast_Cover5S.wav,,,,,,,,,,,,,,,,,,,,,,,,,,,,,,,,,,,,,,,,,,,,,,,,,,,,,,,,,
,,,,,464455,001,2024-06-17_10h44.15.659,experiment,2024.1.5,Win32,60.0240096,60ff2c3d915d23318b73ae8d,667045947eb812cbdacbf325,66704b8e09e6e5797ec72f51,,,,,,,,,,,,,,,,,,,,,,,,,,,,,,,,,,,,,,,,,,,,636.564,640.042,1.069444444,3.473,0,13,13,22,1,song_indices/HeyYa_Outkast.csv,,,,,,,,,,,,,,,,,,,,,,,,,,,,,,,,,,,,,,,,,,,,,,,
,,,,,464455,001,2024-06-17_10h44.15.659,experiment,2024.1.5,Win32,60.0240096,60ff2c3d915d23318b73ae8d,667045947eb812cbdacbf325,66704b8e09e6e5797ec72f51,,,,,,,,,,,,,,,,,,,,,,,,,,,,,,,,,,,,640.048,647.072,0,0,0,1,1,SoundStimuli/UptownFunk_MarkRonson_Cover5S.wav,,,,,,,,,,,,,,,,,,,,,,,,,,,,,,,,,,,,,,,,,,,,,,,,,,,,,,,,,
,,,,,464455,001,2024-06-17_10h44.15.659,experiment,2024.1.5,Win32,60.0240096,60ff2c3d915d23318b73ae8d,667045947eb812cbdacbf325,66704b8e09e6e5797ec72f51,,,,,,,,,,,,,,,,,,,,,,,,,,,,,,,,,,,,647.072,654.3,0,1,1,0,1,SoundStimuli/UptownFunk_MarkRonson_Original5S.wav,,,,,,,,,,,,,,,,,,,,,,,,,,,,,,,,,,,,,,,,,,,,,,,,,,,,,,,,,
,,,,,464455,001,2024-06-17_10h44.15.659,experiment,2024.1.5,Win32,60.0240096,60ff2c3d915d23318b73ae8d,667045947eb812cbdacbf325,66704b8e09e6e5797ec72f51,,,,,,,,,,,,,,,,,,,,,,,,,,,,,,,,,,,,,,,,,,,,654.301,656.165,6.347222222,1.855,0,14,14,15,1,song_indices/UptownFunk_MarkRonson.csv,,,,,,,,,,,,,,,,,,,,,,,,,,,,,,,,,,,,,,,,,,,,,,,
,,,,,464455,001,2024-06-17_10h44.15.659,experiment,2024.1.5,Win32,60.0240096,60ff2c3d915d23318b73ae8d,667045947eb812cbdacbf325,66704b8e09e6e5797ec72f51,,,,,,,,,,,,,,,,,,,,,,,,,,,,,,,,,,,,656.169,662.095,0,0,0,0,1,SoundStimuli/StandByMe_BenEKing_Original5S.wav,,,,,,,,,,,,,,,,,,,,,,,,,,,,,,,,,,,,,,,,,,,,,,,,,,,,,,,,,
,,,,,464455,001,2024-06-17_10h44.15.659,experiment,2024.1.5,Win32,60.0240096,60ff2c3d915d23318b73ae8d,667045947eb812cbdacbf325,66704b8e09e6e5797ec72f51,,,,,,,,,,,,,,,,,,,,,,,,,,,,,,,,,,,,662.095,668.126,0,1,1,1,1,SoundStimuli/StandByMe_BenEKing_Cover5S.wav,,,,,,,,,,,,,,,,,,,,,,,,,,,,,,,,,,,,,,,,,,,,,,,,,,,,,,,,,
,,,,,464455,001,2024-06-17_10h44.15.659,experiment,2024.1.5,Win32,60.0240096,60ff2c3d915d23318b73ae8d,667045947eb812cbdacbf325,66704b8e09e6e5797ec72f51,,,,,,,,,,,,,,,,,,,,,,,,,,,,,,,,,,,,,,,,,,,,668.128,670.156,2.305555556,2.026,0,15,15,1,1,song_indices/StandByMe_BenEKing.csv,,,,,,,,,,,,,,,,,,,,,,,,,,,,,,,,,,,,,,,,,,,,,,,
,,,,,464455,001,2024-06-17_10h44.15.659,experiment,2024.1.5,Win32,60.0240096,60ff2c3d915d23318b73ae8d,667045947eb812cbdacbf325,66704b8e09e6e5797ec72f51,,,,,,,,,,,,,,,,,,,,,,,,,,,,,,,,,,,,670.161,676.519,0,0,0,1,1,SoundStimuli/GoodGollyMissMolly_LittleRichard_Cover5S.wav,,,,,,,,,,,,,,,,,,,,,,,,,,,,,,,,,,,,,,,,,,,,,,,,,,,,,,,,,
,,,,,464455,001,2024-06-17_10h44.15.659,experiment,2024.1.5,Win32,60.0240096,60ff2c3d915d23318b73ae8d,667045947eb812cbdacbf325,66704b8e09e6e5797ec72f51,,,,,,,,,,,,,,,,,,,,,,,,,,,,,,,,,,,,676.52,682.582,0,1,1,0,1,SoundStimuli/GoodGollyMissMolly_LittleRichard_Original5S.wav,,,,,,,,,,,,,,,,,,,,,,,,,,,,,,,,,,,,,,,,,,,,,,,,,,,,,,,,,
,,,,,464455,001,2024-06-17_10h44.15.659,experiment,2024.1.5,Win32,60.0240096,60ff2c3d915d23318b73ae8d,667045947eb812cbdacbf325,66704b8e09e6e5797ec72f51,,,,,,,,,,,,,,,,,,,,,,,,,,,,,,,,,,,,,,,,,,,,682.583,684.73,2.847222222,2.139,0,16,16,0,1,song_indices/GoodGollyMissMolly_LittleRichard.csv,,,,,,,,,,,,,,,,,,,,,,,,,,,,,,,,,,,,,,,,,,,,,,,
,,,,,464455,001,2024-06-17_10h44.15.659,experiment,2024.1.5,Win32,60.0240096,60ff2c3d915d23318b73ae8d,667045947eb812cbdacbf325,66704b8e09e6e5797ec72f51,,,,,,,,,,,,,,,,,,,,,,,,,,,,,,,,,,,,684.734,690.593,0,0,0,1,1,SoundStimuli/IWillAlwaysLoveYou_WhitneyHouston_Cover5S.wav,,,,,,,,,,,,,,,,,,,,,,,,,,,,,,,,,,,,,,,,,,,,,,,,,,,,,,,,,
,,,,,464455,001,2024-06-17_10h44.15.659,experiment,2024.1.5,Win32,60.0240096,60ff2c3d915d23318b73ae8d,667045947eb812cbdacbf325,66704b8e09e6e5797ec72f51,,,,,,,,,,,,,,,,,,,,,,,,,,,,,,,,,,,,690.594,696.989,0,1,1,0,1,SoundStimuli/IWillAlwaysLoveYou_WhitneyHouston_Original5S.wav,,,,,,,,,,,,,,,,,,,,,,,,,,,,,,,,,,,,,,,,,,,,,,,,,,,,,,,,,
,,,,,464455,001,2024-06-17_10h44.15.659,experiment,2024.1.5,Win32,60.0240096,60ff2c3d915d23318b73ae8d,667045947eb812cbdacbf325,66704b8e09e6e5797ec72f51,,,,,,,,,,,,,,,,,,,,,,,,,,,,,,,,,,,,,,,,,,,,696.99,698.872,6.986111111,1.873,0,17,17,10,1,song_indices/IWillAlwaysLoveYou_WhitneyHouston.csv,,,,,,,,,,,,,,,,,,,,,,,,,,,,,,,,,,,,,,,,,,,,,,,
,,,,,464455,001,2024-06-17_10h44.15.659,experiment,2024.1.5,Win32,60.0240096,60ff2c3d915d23318b73ae8d,667045947eb812cbdacbf325,66704b8e09e6e5797ec72f51,,,,,,,,,,,,,,,,,,,,,,,,,,,,,,,,,,,,698.878,704.967,0,0,0,0,1,SoundStimuli/GimmeShelter_RollingStones_Original5S.wav,,,,,,,,,,,,,,,,,,,,,,,,,,,,,,,,,,,,,,,,,,,,,,,,,,,,,,,,,
,,,,,464455,001,2024-06-17_10h44.15.659,experiment,2024.1.5,Win32,60.0240096,60ff2c3d915d23318b73ae8d,667045947eb812cbdacbf325,66704b8e09e6e5797ec72f51,,,,,,,,,,,,,,,,,,,,,,,,,,,,,,,,,,,,704.969,711.181,0,1,1,1,1,SoundStimuli/GimmeShelter_RollingStones_Cover5S.wav,,,,,,,,,,,,,,,,,,,,,,,,,,,,,,,,,,,,,,,,,,,,,,,,,,,,,,,,,
,,,,,464455,001,2024-06-17_10h44.15.659,experiment,2024.1.5,Win32,60.0240096,60ff2c3d915d23318b73ae8d,667045947eb812cbdacbf325,66704b8e09e6e5797ec72f51,,,,,,,,,,,,,,,,,,,,,,,,,,,,,,,,,,,,,,,,,,,,711.182,713.778,2.951388889,2.594,0,18,18,20,1,song_indices/GimmeShelter_RollingStones.csv,,,,,,,,,,,,,,,,,,,,,,,,,,,,,,,,,,,,,,,,,,,,,,,
,,,,,464455,001,2024-06-17_10h44.15.659,experiment,2024.1.5,Win32,60.0240096,60ff2c3d915d23318b73ae8d,667045947eb812cbdacbf325,66704b8e09e6e5797ec72f51,,,,,,,,,,,,,,,,,,,,,,,,,,,,,,,,,,,,713.782,719.758,0,0,0,0,1,SoundStimuli/IWalkTheLine_JohnnyCash_Original5S.wav,,,,,,,,,,,,,,,,,,,,,,,,,,,,,,,,,,,,,,,,,,,,,,,,,,,,,,,,,
,,,,,464455,001,2024-06-17_10h44.15.659,experiment,2024.1.5,Win32,60.0240096,60ff2c3d915d23318b73ae8d,667045947eb812cbdacbf325,66704b8e09e6e5797ec72f51,,,,,,,,,,,,,,,,,,,,,,,,,,,,,,,,,,,,719.76,726.903,0,1,1,1,1,SoundStimuli/IWalkTheLine_JohnnyCash_Cover5S.wav,,,,,,,,,,,,,,,,,,,,,,,,,,,,,,,,,,,,,,,,,,,,,,,,,,,,,,,,,
,,,,,464455,001,2024-06-17_10h44.15.659,experiment,2024.1.5,Win32,60.0240096,60ff2c3d915d23318b73ae8d,667045947eb812cbdacbf325,66704b8e09e6e5797ec72f51,,,,,,,,,,,,,,,,,,,,,,,,,,,,,,,,,,,,,,,,,,,,726.904,728.635,2.4375,1.729,0,19,19,17,1,song_indices/IWalkTheLine_JohnnyCash.csv,,,,,,,,,,,,,,,,,,,,,,,,,,,,,,,,,,,,,,,,,,,,,,,
,,,,,464455,001,2024-06-17_10h44.15.659,experiment,2024.1.5,Win32,60.0240096,60ff2c3d915d23318b73ae8d,667045947eb812cbdacbf325,66704b8e09e6e5797ec72f51,,,,,,,,,,,,,,,,,,,,,,,,,,,,,,,,,,,,728.639,735.083,0,0,0,1,1,SoundStimuli/Fallin_AliciaKeys_Cover5S.wav,,,,,,,,,,,,,,,,,,,,,,,,,,,,,,,,,,,,,,,,,,,,,,,,,,,,,,,,,
,,,,,464455,001,2024-06-17_10h44.15.659,experiment,2024.1.5,Win32,60.0240096,60ff2c3d915d23318b73ae8d,667045947eb812cbdacbf325,66704b8e09e6e5797ec72f51,,,,,,,,,,,,,,,,,,,,,,,,,,,,,,,,,,,,735.087,741.261,0,1,1,0,1,SoundStimuli/Fallin_AliciaKeys_Original5S.wav,,,,,,,,,,,,,,,,,,,,,,,,,,,,,,,,,,,,,,,,,,,,,,,,,,,,,,,,,
,,,,,464455,001,2024-06-17_10h44.15.659,experiment,2024.1.5,Win32,60.0240096,60ff2c3d915d23318b73ae8d,667045947eb812cbdacbf325,66704b8e09e6e5797ec72f51,,,,,,,,,,,,,,,,,,,,,,,,,,,,,,,,,,,,,,,,,,,,741.262,744.725,4.569444444,3.452,0,20,20,12,1,song_indices/Fallin_AliciaKeys.csv,,,,,,,,,,,,,,,,,,,,,,,,,,,,,,,,,,,,,,,,,,,,,,,
,,,,,464455,001,2024-06-17_10h44.15.659,experiment,2024.1.5,Win32,60.0240096,60ff2c3d915d23318b73ae8d,667045947eb812cbdacbf325,66704b8e09e6e5797ec72f51,,,,,,,,,,,,,,,,,,,,,,,,,,,,,,,,,,,,744.731,751.054,0,0,0,0,1,SoundStimuli/RockWithYou_MichaelJackson_Original5S.wav,,,,,,,,,,,,,,,,,,,,,,,,,,,,,,,,,,,,,,,,,,,,,,,,,,,,,,,,,
,,,,,464455,001,2024-06-17_10h44.15.659,experiment,2024.1.5,Win32,60.0240096,60ff2c3d915d23318b73ae8d,667045947eb812cbdacbf325,66704b8e09e6e5797ec72f51,,,,,,,,,,,,,,,,,,,,,,,,,,,,,,,,,,,,751.055,757.117,0,1,1,1,1,SoundStimuli/RockWithYou_MichaelJackson_Cover5S.wav,,,,,,,,,,,,,,,,,,,,,,,,,,,,,,,,,,,,,,,,,,,,,,,,,,,,,,,,,
,,,,,464455,001,2024-06-17_10h44.15.659,experiment,2024.1.5,Win32,60.0240096,60ff2c3d915d23318b73ae8d,667045947eb812cbdacbf325,66704b8e09e6e5797ec72f51,,,,,,,,,,,,,,,,,,,,,,,,,,,,,,,,,,,,,,,,,,,,757.117,760.065,3.1875,2.939,0,21,21,16,1,song_indices/RockWithYou_MichaelJackson.csv,,,,,,,,,,,,,,,,,,,,,,,,,,,,,,,,,,,,,,,,,,,,,,,
,,,,,464455,001,2024-06-17_10h44.15.659,experiment,2024.1.5,Win32,60.0240096,60ff2c3d915d23318b73ae8d,667045947eb812cbdacbf325,66704b8e09e6e5797ec72f51,,,,,,,,,,,,,,,,,,,,,,,,,,,,,,,,,,,,760.068,770.31,0,0,0,1,1,SoundStimuli/CrazyInLove_BeyonceFtJayZ_Cover5S.wav,,,,,,,,,,,,,,,,,,,,,,,,,,,,,,,,,,,,,,,,,,,,,,,,,,,,,,,,,
,,,,,464455,001,2024-06-17_10h44.15.659,experiment,2024.1.5,Win32,60.0240096,60ff2c3d915d23318b73ae8d,667045947eb812cbdacbf325,66704b8e09e6e5797ec72f51,,,,,,,,,,,,,,,,,,,,,,,,,,,,,,,,,,,,770.315,776.855,0,1,1,0,1,SoundStimuli/CrazyInLove_BeyonceFtJayZ_Original5S.wav,,,,,,,,,,,,,,,,,,,,,,,,,,,,,,,,,,,,,,,,,,,,,,,,,,,,,,,,,
,,,,,464455,001,2024-06-17_10h44.15.659,experiment,2024.1.5,Win32,60.0240096,60ff2c3d915d23318b73ae8d,667045947eb812cbdacbf325,66704b8e09e6e5797ec72f51,,,,,,,,,,,,,,,,,,,,,,,,,,,,,,,,,,,,,,,,,,,,776.857,780.919,2.493055556,4.06,0,22,22,3,1,song_indices/CrazyInLove_BeyonceFtJayZ.csv,,,,,,,,,,,,,,,,,,,,,,,,,,,,,,,,,,,,,,,,,,,,,,,
,,,,,464455,001,2024-06-17_10h44.15.659,experiment,2024.1.5,Win32,60.0240096,60ff2c3d915d23318b73ae8d,667045947eb812cbdacbf325,66704b8e09e6e5797ec72f51,,,,,,,,,,,,,,,,,,,,,,,,,,,,,,,,,,,,,,,,,,,,,,,,,,,,,,780.919,800.09,space,19.15,,0,0,0,1,1,choose_song_b2.csv,,,,,,,,,,,,,,,,,,,,,,,,,,,,,,,,,,,,
,,,,,464455,001,2024-06-17_10h44.15.659,experiment,2024.1.5,Win32,60.0240096,60ff2c3d915d23318b73ae8d,667045947eb812cbdacbf325,66704b8e09e6e5797ec72f51,,,,,,,,,,,,,,,,,,,,,,,,,,,,,,,,,,,,800.099,807.635,0,0,0,1,1,SoundStimuli/TikTok_Kesha_Cover5S.wav,,,,,,,,,,,,,,,,,,,,,,,,,,,,,,,,,,,,,,,,,,,,,,,,,,,,,,,,,
,,,,,464455,001,2024-06-17_10h44.15.659,experiment,2024.1.5,Win32,60.0240096,60ff2c3d915d23318b73ae8d,667045947eb812cbdacbf325,66704b8e09e6e5797ec72f51,,,,,,,,,,,,,,,,,,,,,,,,,,,,,,,,,,,,807.638,813.848,0,1,1,0,1,SoundStimuli/TikTok_Kesha_Original5S.wav,,,,,,,,,,,,,,,,,,,,,,,,,,,,,,,,,,,,,,,,,,,,,,,,,,,,,,,,,
,,,,,464455,001,2024-06-17_10h44.15.659,experiment,2024.1.5,Win32,60.0240096,60ff2c3d915d23318b73ae8d,667045947eb812cbdacbf325,66704b8e09e6e5797ec72f51,,,,,,,,,,,,,,,,,,,,,,,,,,,,,,,,,,,,,,,,,,,,813.849,817.614,4.208333333,3.762,0,0,0,3,1,song_indices/TikTok_Kesha.csv,,,,,,,,,,,,,,,,,,,,,,,,,,,,,,,,,,,,,,,,,,,,,,,
,,,,,464455,001,2024-06-17_10h44.15.659,experiment,2024.1.5,Win32,60.0240096,60ff2c3d915d23318b73ae8d,667045947eb812cbdacbf325,66704b8e09e6e5797ec72f51,,,,,,,,,,,,,,,,,,,,,,,,,,,,,,,,,,,,817.616,824.891,0,0,0,1,1,SoundStimuli/FlashdanceWhatAFeeling_IreneCara_Cover5S.wav,,,,,,,,,,,,,,,,,,,,,,,,,,,,,,,,,,,,,,,,,,,,,,,,,,,,,,,,,
,,,,,464455,001,2024-06-17_10h44.15.659,experiment,2024.1.5,Win32,60.0240096,60ff2c3d915d23318b73ae8d,667045947eb812cbdacbf325,66704b8e09e6e5797ec72f51,,,,,,,,,,,,,,,,,,,,,,,,,,,,,,,,,,,,824.892,831.287,0,1,1,0,1,SoundStimuli/FlashdanceWhatAFeeling_IreneCara_Original5S.wav,,,,,,,,,,,,,,,,,,,,,,,,,,,,,,,,,,,,,,,,,,,,,,,,,,,,,,,,,
,,,,,464455,001,2024-06-17_10h44.15.659,experiment,2024.1.5,Win32,60.0240096,60ff2c3d915d23318b73ae8d,667045947eb812cbdacbf325,66704b8e09e6e5797ec72f51,,,,,,,,,,,,,,,,,,,,,,,,,,,,,,,,,,,,,,,,,,,,831.289,834.119,6.958333333,2.822,0,1,1,18,1,song_indices/FlashdanceWhatAFeeling_IreneCara.csv,,,,,,,,,,,,,,,,,,,,,,,,,,,,,,,,,,,,,,,,,,,,,,,
,,,,,464455,001,2024-06-17_10h44.15.659,experiment,2024.1.5,Win32,60.0240096,60ff2c3d915d23318b73ae8d,667045947eb812cbdacbf325,66704b8e09e6e5797ec72f51,,,,,,,,,,,,,,,,,,,,,,,,,,,,,,,,,,,,834.124,841.181,0,0,0,1,1,SoundStimuli/ComeAndGetYourLove_Redbone_Cover5S.wav,,,,,,,,,,,,,,,,,,,,,,,,,,,,,,,,,,,,,,,,,,,,,,,,,,,,,,,,,
,,,,,464455,001,2024-06-17_10h44.15.659,experiment,2024.1.5,Win32,60.0240096,60ff2c3d915d23318b73ae8d,667045947eb812cbdacbf325,66704b8e09e6e5797ec72f51,,,,,,,,,,,,,,,,,,,,,,,,,,,,,,,,,,,,841.182,847.294,0,1,1,0,1,SoundStimuli/ComeAndGetYourLove_Redbone_Original5S.wav,,,,,,,,,,,,,,,,,,,,,,,,,,,,,,,,,,,,,,,,,,,,,,,,,,,,,,,,,
,,,,,464455,001,2024-06-17_10h44.15.659,experiment,2024.1.5,Win32,60.0240096,60ff2c3d915d23318b73ae8d,667045947eb812cbdacbf325,66704b8e09e6e5797ec72f51,,,,,,,,,,,,,,,,,,,,,,,,,,,,,,,,,,,,,,,,,,,,847.295,848.593,1.034722222,1.287,0,2,2,22,1,song_indices/ComeAndGetYourLove_Redbone.csv,,,,,,,,,,,,,,,,,,,,,,,,,,,,,,,,,,,,,,,,,,,,,,,
,,,,,464455,001,2024-06-17_10h44.15.659,experiment,2024.1.5,Win32,60.0240096,60ff2c3d915d23318b73ae8d,667045947eb812cbdacbf325,66704b8e09e6e5797ec72f51,,,,,,,,,,,,,,,,,,,,,,,,,,,,,,,,,,,,848.597,854.705,0,0,0,1,1,SoundStimuli/TossinAndTurnin_BobbyLewis_Cover5S.wav,,,,,,,,,,,,,,,,,,,,,,,,,,,,,,,,,,,,,,,,,,,,,,,,,,,,,,,,,
,,,,,464455,001,2024-06-17_10h44.15.659,experiment,2024.1.5,Win32,60.0240096,60ff2c3d915d23318b73ae8d,667045947eb812cbdacbf325,66704b8e09e6e5797ec72f51,,,,,,,,,,,,,,,,,,,,,,,,,,,,,,,,,,,,854.708,860.768,0,1,1,0,1,SoundStimuli/TossinAndTurnin_BobbyLewis_Original5S.wav,,,,,,,,,,,,,,,,,,,,,,,,,,,,,,,,,,,,,,,,,,,,,,,,,,,,,,,,,
,,,,,464455,001,2024-06-17_10h44.15.659,experiment,2024.1.5,Win32,60.0240096,60ff2c3d915d23318b73ae8d,667045947eb812cbdacbf325,66704b8e09e6e5797ec72f51,,,,,,,,,,,,,,,,,,,,,,,,,,,,,,,,,,,,,,,,,,,,860.768,862.551,1.090277778,1.775,0,3,3,13,1,song_indices/TossinAndTurnin_BobbyLewis.csv,,,,,,,,,,,,,,,,,,,,,,,,,,,,,,,,,,,,,,,,,,,,,,,
,,,,,464455,001,2024-06-17_10h44.15.659,experiment,2024.1.5,Win32,60.0240096,60ff2c3d915d23318b73ae8d,667045947eb812cbdacbf325,66704b8e09e6e5797ec72f51,,,,,,,,,,,,,,,,,,,,,,,,,,,,,,,,,,,,862.554,870.395,0,0,0,1,1,SoundStimuli/Dreams_FleetwoodMac_Cover5S.wav,,,,,,,,,,,,,,,,,,,,,,,,,,,,,,,,,,,,,,,,,,,,,,,,,,,,,,,,,
,,,,,464455,001,2024-06-17_10h44.15.659,experiment,2024.1.5,Win32,60.0240096,60ff2c3d915d23318b73ae8d,667045947eb812cbdacbf325,66704b8e09e6e5797ec72f51,,,,,,,,,,,,,,,,,,,,,,,,,,,,,,,,,,,,870.4,876.908,0,1,1,0,1,SoundStimuli/Dreams_FleetwoodMac_Original5S.wav,,,,,,,,,,,,,,,,,,,,,,,,,,,,,,,,,,,,,,,,,,,,,,,,,,,,,,,,,
,,,,,464455,001,2024-06-17_10h44.15.659,experiment,2024.1.5,Win32,60.0240096,60ff2c3d915d23318b73ae8d,667045947eb812cbdacbf325,66704b8e09e6e5797ec72f51,,,,,,,,,,,,,,,,,,,,,,,,,,,,,,,,,,,,,,,,,,,,876.908,879.258,1.430555556,2.348,0,4,4,1,1,song_indices/Dreams_FleetwoodMac.csv,,,,,,,,,,,,,,,,,,,,,,,,,,,,,,,,,,,,,,,,,,,,,,,
,,,,,464455,001,2024-06-17_10h44.15.659,experiment,2024.1.5,Win32,60.0240096,60ff2c3d915d23318b73ae8d,667045947eb812cbdacbf325,66704b8e09e6e5797ec72f51,,,,,,,,,,,,,,,,,,,,,,,,,,,,,,,,,,,,879.263,886.052,0,0,0,1,1,SoundStimuli/BlindingLights_TheWeeknd_Cover5S.wav,,,,,,,,,,,,,,,,,,,,,,,,,,,,,,,,,,,,,,,,,,,,,,,,,,,,,,,,,
,,,,,464455,001,2024-06-17_10h44.15.659,experiment,2024.1.5,Win32,60.0240096,60ff2c3d915d23318b73ae8d,667045947eb812cbdacbf325,66704b8e09e6e5797ec72f51,,,,,,,,,,,,,,,,,,,,,,,,,,,,,,,,,,,,886.054,892.548,0,1,1,0,1,SoundStimuli/BlindingLights_TheWeeknd_Original5S.wav,,,,,,,,,,,,,,,,,,,,,,,,,,,,,,,,,,,,,,,,,,,,,,,,,,,,,,,,,
,,,,,464455,001,2024-06-17_10h44.15.659,experiment,2024.1.5,Win32,60.0240096,60ff2c3d915d23318b73ae8d,667045947eb812cbdacbf325,66704b8e09e6e5797ec72f51,,,,,,,,,,,,,,,,,,,,,,,,,,,,,,,,,,,,,,,,,,,,892.548,893.914,2.930555556,1.362,0,5,5,21,1,song_indices/BlindingLights_TheWeeknd.csv,,,,,,,,,,,,,,,,,,,,,,,,,,,,,,,,,,,,,,,,,,,,,,,
,,,,,464455,001,2024-06-17_10h44.15.659,experiment,2024.1.5,Win32,60.0240096,60ff2c3d915d23318b73ae8d,667045947eb812cbdacbf325,66704b8e09e6e5797ec72f51,,,,,,,,,,,,,,,,,,,,,,,,,,,,,,,,,,,,893.917,899.443,0,0,0,1,1,SoundStimuli/LeFreak_Chic_Cover5S.wav,,,,,,,,,,,,,,,,,,,,,,,,,,,,,,,,,,,,,,,,,,,,,,,,,,,,,,,,,
,,,,,464455,001,2024-06-17_10h44.15.659,experiment,2024.1.5,Win32,60.0240096,60ff2c3d915d23318b73ae8d,667045947eb812cbdacbf325,66704b8e09e6e5797ec72f51,,,,,,,,,,,,,,,,,,,,,,,,,,,,,,,,,,,,899.444,905.474,0,1,1,0,1,SoundStimuli/LeFreak_Chic_Original5S.wav,,,,,,,,,,,,,,,,,,,,,,,,,,,,,,,,,,,,,,,,,,,,,,,,,,,,,,,,,
,,,,,464455,001,2024-06-17_10h44.15.659,experiment,2024.1.5,Win32,60.0240096,60ff2c3d915d23318b73ae8d,667045947eb812cbdacbf325,66704b8e09e6e5797ec72f51,,,,,,,,,,,,,,,,,,,,,,,,,,,,,,,,,,,,,,,,,,,,905.476,907.057,4.972222222,1.576,0,6,6,11,1,song_indices/LeFreak_Chic.csv,,,,,,,,,,,,,,,,,,,,,,,,,,,,,,,,,,,,,,,,,,,,,,,
,,,,,464455,001,2024-06-17_10h44.15.659,experiment,2024.1.5,Win32,60.0240096,60ff2c3d915d23318b73ae8d,667045947eb812cbdacbf325,66704b8e09e6e5797ec72f51,,,,,,,,,,,,,,,,,,,,,,,,,,,,,,,,,,,,907.062,913.718,0,0,0,1,1,SoundStimuli/LetsGetItOn_MarvinGaye_Cover5S.wav,,,,,,,,,,,,,,,,,,,,,,,,,,,,,,,,,,,,,,,,,,,,,,,,,,,,,,,,,
,,,,,464455,001,2024-06-17_10h44.15.659,experiment,2024.1.5,Win32,60.0240096,60ff2c3d915d23318b73ae8d,667045947eb812cbdacbf325,66704b8e09e6e5797ec72f51,,,,,,,,,,,,,,,,,,,,,,,,,,,,,,,,,,,,913.719,920.013,0,1,1,0,1,SoundStimuli/LetsGetItOn_MarvinGaye_Original5S.wav,,,,,,,,,,,,,,,,,,,,,,,,,,,,,,,,,,,,,,,,,,,,,,,,,,,,,,,,,
,,,,,464455,001,2024-06-17_10h44.15.659,experiment,2024.1.5,Win32,60.0240096,60ff2c3d915d23318b73ae8d,667045947eb812cbdacbf325,66704b8e09e6e5797ec72f51,,,,,,,,,,,,,,,,,,,,,,,,,,,,,,,,,,,,,,,,,,,,920.013,921.629,1.986111111,1.61,0,7,7,20,1,song_indices/LetsGetItOn_MarvinGaye.csv,,,,,,,,,,,,,,,,,,,,,,,,,,,,,,,,,,,,,,,,,,,,,,,
,,,,,464455,001,2024-06-17_10h44.15.659,experiment,2024.1.5,Win32,60.0240096,60ff2c3d915d23318b73ae8d,667045947eb812cbdacbf325,66704b8e09e6e5797ec72f51,,,,,,,,,,,,,,,,,,,,,,,,,,,,,,,,,,,,921.633,927.742,0,0,0,0,1,SoundStimuli/JoyToTheWorld_ThreeDogNight_Original5S.wav,,,,,,,,,,,,,,,,,,,,,,,,,,,,,,,,,,,,,,,,,,,,,,,,,,,,,,,,,
,,,,,464455,001,2024-06-17_10h44.15.659,experiment,2024.1.5,Win32,60.0240096,60ff2c3d915d23318b73ae8d,667045947eb812cbdacbf325,66704b8e09e6e5797ec72f51,,,,,,,,,,,,,,,,,,,,,,,,,,,,,,,,,,,,927.744,932.872,0,1,1,1,1,SoundStimuli/JoyToTheWorld_ThreeDogNight_Cover5S.wav,,,,,,,,,,,,,,,,,,,,,,,,,,,,,,,,,,,,,,,,,,,,,,,,,,,,,,,,,
,,,,,464455,001,2024-06-17_10h44.15.659,experiment,2024.1.5,Win32,60.0240096,60ff2c3d915d23318b73ae8d,667045947eb812cbdacbf325,66704b8e09e6e5797ec72f51,,,,,,,,,,,,,,,,,,,,,,,,,,,,,,,,,,,,,,,,,,,,932.873,934.355,5.979166667,1.479,0,8,8,8,1,song_indices/JoyToTheWorld_ThreeDogNight.csv,,,,,,,,,,,,,,,,,,,,,,,,,,,,,,,,,,,,,,,,,,,,,,,
,,,,,464455,001,2024-06-17_10h44.15.659,experiment,2024.1.5,Win32,60.0240096,60ff2c3d915d23318b73ae8d,667045947eb812cbdacbf325,66704b8e09e6e5797ec72f51,,,,,,,,,,,,,,,,,,,,,,,,,,,,,,,,,,,,934.359,941.168,0,0,0,1,1,SoundStimuli/SomebodyThatIUsedtoKnow_Gotye_Cover5S.wav,,,,,,,,,,,,,,,,,,,,,,,,,,,,,,,,,,,,,,,,,,,,,,,,,,,,,,,,,
,,,,,464455,001,2024-06-17_10h44.15.659,experiment,2024.1.5,Win32,60.0240096,60ff2c3d915d23318b73ae8d,667045947eb812cbdacbf325,66704b8e09e6e5797ec72f51,,,,,,,,,,,,,,,,,,,,,,,,,,,,,,,,,,,,941.169,948.412,0,1,1,0,1,SoundStimuli/SomebodyThatIUsedtoKnow_Gotye_Original5S.wav,,,,,,,,,,,,,,,,,,,,,,,,,,,,,,,,,,,,,,,,,,,,,,,,,,,,,,,,,
,,,,,464455,001,2024-06-17_10h44.15.659,experiment,2024.1.5,Win32,60.0240096,60ff2c3d915d23318b73ae8d,667045947eb812cbdacbf325,66704b8e09e6e5797ec72f51,,,,,,,,,,,,,,,,,,,,,,,,,,,,,,,,,,,,,,,,,,,,948.412,949.661,3.138888889,1.239,0,9,9,7,1,song_indices/SomebodyThatIUsedtoKnow_Gotye.csv,,,,,,,,,,,,,,,,,,,,,,,,,,,,,,,,,,,,,,,,,,,,,,,
,,,,,464455,001,2024-06-17_10h44.15.659,experiment,2024.1.5,Win32,60.0240096,60ff2c3d915d23318b73ae8d,667045947eb812cbdacbf325,66704b8e09e6e5797ec72f51,,,,,,,,,,,,,,,,,,,,,,,,,,,,,,,,,,,,949.666,956.124,0,0,0,1,1,SoundStimuli/YouLightUpMyLife_DebbyBoone_Cover5S.wav,,,,,,,,,,,,,,,,,,,,,,,,,,,,,,,,,,,,,,,,,,,,,,,,,,,,,,,,,
,,,,,464455,001,2024-06-17_10h44.15.659,experiment,2024.1.5,Win32,60.0240096,60ff2c3d915d23318b73ae8d,667045947eb812cbdacbf325,66704b8e09e6e5797ec72f51,,,,,,,,,,,,,,,,,,,,,,,,,,,,,,,,,,,,956.125,962.204,0,1,1,0,1,SoundStimuli/YouLightUpMyLife_DebbyBoone_Original5S.wav,,,,,,,,,,,,,,,,,,,,,,,,,,,,,,,,,,,,,,,,,,,,,,,,,,,,,,,,,
,,,,,464455,001,2024-06-17_10h44.15.659,experiment,2024.1.5,Win32,60.0240096,60ff2c3d915d23318b73ae8d,667045947eb812cbdacbf325,66704b8e09e6e5797ec72f51,,,,,,,,,,,,,,,,,,,,,,,,,,,,,,,,,,,,,,,,,,,,962.205,964.203,6.875,1.989,0,10,10,4,1,song_indices/YouLightUpMyLife_DebbyBoone.csv,,,,,,,,,,,,,,,,,,,,,,,,,,,,,,,,,,,,,,,,,,,,,,,
,,,,,464455,001,2024-06-17_10h44.15.659,experiment,2024.1.5,Win32,60.0240096,60ff2c3d915d23318b73ae8d,667045947eb812cbdacbf325,66704b8e09e6e5797ec72f51,,,,,,,,,,,,,,,,,,,,,,,,,,,,,,,,,,,,964.206,970.366,0,0,0,0,1,SoundStimuli/TheSign_AceOfBase_Original5S.wav,,,,,,,,,,,,,,,,,,,,,,,,,,,,,,,,,,,,,,,,,,,,,,,,,,,,,,,,,
,,,,,464455,001,2024-06-17_10h44.15.659,experiment,2024.1.5,Win32,60.0240096,60ff2c3d915d23318b73ae8d,667045947eb812cbdacbf325,66704b8e09e6e5797ec72f51,,,,,,,,,,,,,,,,,,,,,,,,,,,,,,,,,,,,970.37,976.378,0,1,1,1,1,SoundStimuli/TheSign_AceOfBase_Cover5S.wav,,,,,,,,,,,,,,,,,,,,,,,,,,,,,,,,,,,,,,,,,,,,,,,,,,,,,,,,,
,,,,,464455,001,2024-06-17_10h44.15.659,experiment,2024.1.5,Win32,60.0240096,60ff2c3d915d23318b73ae8d,667045947eb812cbdacbf325,66704b8e09e6e5797ec72f51,,,,,,,,,,,,,,,,,,,,,,,,,,,,,,,,,,,,,,,,,,,,976.378,977.595,1.986111111,1.209,0,11,11,5,1,song_indices/TheSign_AceOfBase.csv,,,,,,,,,,,,,,,,,,,,,,,,,,,,,,,,,,,,,,,,,,,,,,,
,,,,,464455,001,2024-06-17_10h44.15.659,experiment,2024.1.5,Win32,60.0240096,60ff2c3d915d23318b73ae8d,667045947eb812cbdacbf325,66704b8e09e6e5797ec72f51,,,,,,,,,,,,,,,,,,,,,,,,,,,,,,,,,,,,977.598,983.475,0,0,0,0,1,SoundStimuli/Irreplaceable_Beyonce_Original5S.wav,,,,,,,,,,,,,,,,,,,,,,,,,,,,,,,,,,,,,,,,,,,,,,,,,,,,,,,,,
,,,,,464455,001,2024-06-17_10h44.15.659,experiment,2024.1.5,Win32,60.0240096,60ff2c3d915d23318b73ae8d,667045947eb812cbdacbf325,66704b8e09e6e5797ec72f51,,,,,,,,,,,,,,,,,,,,,,,,,,,,,,,,,,,,983.476,989.386,0,1,1,1,1,SoundStimuli/Irreplaceable_Beyonce_Cover5S.wav,,,,,,,,,,,,,,,,,,,,,,,,,,,,,,,,,,,,,,,,,,,,,,,,,,,,,,,,,
,,,,,464455,001,2024-06-17_10h44.15.659,experiment,2024.1.5,Win32,60.0240096,60ff2c3d915d23318b73ae8d,667045947eb812cbdacbf325,66704b8e09e6e5797ec72f51,,,,,,,,,,,,,,,,,,,,,,,,,,,,,,,,,,,,,,,,,,,,989.387,990.669,4.916666667,1.271,0,12,12,19,1,song_indices/Irreplaceable_Beyonce.csv,,,,,,,,,,,,,,,,,,,,,,,,,,,,,,,,,,,,,,,,,,,,,,,
,,,,,464455,001,2024-06-17_10h44.15.659,experiment,2024.1.5,Win32,60.0240096,60ff2c3d915d23318b73ae8d,667045947eb812cbdacbf325,66704b8e09e6e5797ec72f51,,,,,,,,,,,,,,,,,,,,,,,,,,,,,,,,,,,,990.672,996.948,0,0,0,1,1,SoundStimuli/Kiss_Prince_Cover5S.wav,,,,,,,,,,,,,,,,,,,,,,,,,,,,,,,,,,,,,,,,,,,,,,,,,,,,,,,,,
,,,,,464455,001,2024-06-17_10h44.15.659,experiment,2024.1.5,Win32,60.0240096,60ff2c3d915d23318b73ae8d,667045947eb812cbdacbf325,66704b8e09e6e5797ec72f51,,,,,,,,,,,,,,,,,,,,,,,,,,,,,,,,,,,,996.949,1004.378,0,1,1,0,1,SoundStimuli/Kiss_Prince_Original5S.wav,,,,,,,,,,,,,,,,,,,,,,,,,,,,,,,,,,,,,,,,,,,,,,,,,,,,,,,,,
,,,,,464455,001,2024-06-17_10h44.15.659,experiment,2024.1.5,Win32,60.0240096,60ff2c3d915d23318b73ae8d,667045947eb812cbdacbf325,66704b8e09e6e5797ec72f51,,,,,,,,,,,,,,,,,,,,,,,,,,,,,,,,,,,,,,,,,,,,1004.379,1005.993,1.006944444,1.603,0,13,13,14,1,song_indices/Kiss_Prince.csv,,,,,,,,,,,,,,,,,,,,,,,,,,,,,,,,,,,,,,,,,,,,,,,
,,,,,464455,001,2024-06-17_10h44.15.659,experiment,2024.1.5,Win32,60.0240096,60ff2c3d915d23318b73ae8d,667045947eb812cbdacbf325,66704b8e09e6e5797ec72f51,,,,,,,,,,,,,,,,,,,,,,,,,,,,,,,,,,,,1005.999,1011.705,0,0,0,1,1,SoundStimuli/Levitating_DuaLipa_Cover5S.wav,,,,,,,,,,,,,,,,,,,,,,,,,,,,,,,,,,,,,,,,,,,,,,,,,,,,,,,,,
,,,,,464455,001,2024-06-17_10h44.15.659,experiment,2024.1.5,Win32,60.0240096,60ff2c3d915d23318b73ae8d,667045947eb812cbdacbf325,66704b8e09e6e5797ec72f51,,,,,,,,,,,,,,,,,,,,,,,,,,,,,,,,,,,,1011.706,1017.719,0,1,1,0,1,SoundStimuli/Levitating_DuaLipa_Original5S.wav,,,,,,,,,,,,,,,,,,,,,,,,,,,,,,,,,,,,,,,,,,,,,,,,,,,,,,,,,
,,,,,464455,001,2024-06-17_10h44.15.659,experiment,2024.1.5,Win32,60.0240096,60ff2c3d915d23318b73ae8d,667045947eb812cbdacbf325,66704b8e09e6e5797ec72f51,,,,,,,,,,,,,,,,,,,,,,,,,,,,,,,,,,,,,,,,,,,,1017.719,1019.051,5.618055556,1.326,0,14,14,10,1,song_indices/Levitating_DuaLipa.csv,,,,,,,,,,,,,,,,,,,,,,,,,,,,,,,,,,,,,,,,,,,,,,,
,,,,,464455,001,2024-06-17_10h44.15.659,experiment,2024.1.5,Win32,60.0240096,60ff2c3d915d23318b73ae8d,667045947eb812cbdacbf325,66704b8e09e6e5797ec72f51,,,,,,,,,,,,,,,,,,,,,,,,,,,,,,,,,,,,1019.054,1025.114,0,0,0,1,1,SoundStimuli/Respect_ArethaFranklin_Cover5S.wav,,,,,,,,,,,,,,,,,,,,,,,,,,,,,,,,,,,,,,,,,,,,,,,,,,,,,,,,,
,,,,,464455,001,2024-06-17_10h44.15.659,experiment,2024.1.5,Win32,60.0240096,60ff2c3d915d23318b73ae8d,667045947eb812cbdacbf325,66704b8e09e6e5797ec72f51,,,,,,,,,,,,,,,,,,,,,,,,,,,,,,,,,,,,1025.115,1031.043,0,1,1,0,1,SoundStimuli/Respect_ArethaFranklin_Original5S.wav,,,,,,,,,,,,,,,,,,,,,,,,,,,,,,,,,,,,,,,,,,,,,,,,,,,,,,,,,
,,,,,464455,001,2024-06-17_10h44.15.659,experiment,2024.1.5,Win32,60.0240096,60ff2c3d915d23318b73ae8d,667045947eb812cbdacbf325,66704b8e09e6e5797ec72f51,,,,,,,,,,,,,,,,,,,,,,,,,,,,,,,,,,,,,,,,,,,,1031.044,1033.492,1.027777778,2.437,0,15,15,0,1,song_indices/Respect_ArethaFranklin.csv,,,,,,,,,,,,,,,,,,,,,,,,,,,,,,,,,,,,,,,,,,,,,,,
,,,,,464455,001,2024-06-17_10h44.15.659,experiment,2024.1.5,Win32,60.0240096,60ff2c3d915d23318b73ae8d,667045947eb812cbdacbf325,66704b8e09e6e5797ec72f51,,,,,,,,,,,,,,,,,,,,,,,,,,,,,,,,,,,,1033.496,1040.339,0,0,0,1,1,SoundStimuli/PokerFace_LadyGaga_Cover5S.wav,,,,,,,,,,,,,,,,,,,,,,,,,,,,,,,,,,,,,,,,,,,,,,,,,,,,,,,,,
,,,,,464455,001,2024-06-17_10h44.15.659,experiment,2024.1.5,Win32,60.0240096,60ff2c3d915d23318b73ae8d,667045947eb812cbdacbf325,66704b8e09e6e5797ec72f51,,,,,,,,,,,,,,,,,,,,,,,,,,,,,,,,,,,,1040.343,1047.366,0,1,1,0,1,SoundStimuli/PokerFace_LadyGaga_Original5S.wav,,,,,,,,,,,,,,,,,,,,,,,,,,,,,,,,,,,,,,,,,,,,,,,,,,,,,,,,,
,,,,,464455,001,2024-06-17_10h44.15.659,experiment,2024.1.5,Win32,60.0240096,60ff2c3d915d23318b73ae8d,667045947eb812cbdacbf325,66704b8e09e6e5797ec72f51,,,,,,,,,,,,,,,,,,,,,,,,,,,,,,,,,,,,,,,,,,,,1047.367,1048.931,5.236111111,1.561,0,16,16,23,1,song_indices/PokerFace_LadyGaga.csv,,,,,,,,,,,,,,,,,,,,,,,,,,,,,,,,,,,,,,,,,,,,,,,
,,,,,464455,001,2024-06-17_10h44.15.659,experiment,2024.1.5,Win32,60.0240096,60ff2c3d915d23318b73ae8d,667045947eb812cbdacbf325,66704b8e09e6e5797ec72f51,,,,,,,,,,,,,,,,,,,,,,,,,,,,,,,,,,,,1048.935,1055.044,0,0,0,0,1,SoundStimuli/UnbreakMyHeart_ToniBraxton_Original5S.wav,,,,,,,,,,,,,,,,,,,,,,,,,,,,,,,,,,,,,,,,,,,,,,,,,,,,,,,,,
,,,,,464455,001,2024-06-17_10h44.15.659,experiment,2024.1.5,Win32,60.0240096,60ff2c3d915d23318b73ae8d,667045947eb812cbdacbf325,66704b8e09e6e5797ec72f51,,,,,,,,,,,,,,,,,,,,,,,,,,,,,,,,,,,,1055.047,1059.025,0,1,1,1,1,SoundStimuli/UnbreakMyHeart_ToniBraxton_Cover5S.wav,,,,,,,,,,,,,,,,,,,,,,,,,,,,,,,,,,,,,,,,,,,,,,,,,,,,,,,,,
,,,,,464455,001,2024-06-17_10h44.15.659,experiment,2024.1.5,Win32,60.0240096,60ff2c3d915d23318b73ae8d,667045947eb812cbdacbf325,66704b8e09e6e5797ec72f51,,,,,,,,,,,,,,,,,,,,,,,,,,,,,,,,,,,,,,,,,,,,1059.025,1061.192,1.048611111,2.154,0,17,17,16,1,song_indices/UnbreakMyHeart_ToniBraxton.csv,,,,,,,,,,,,,,,,,,,,,,,,,,,,,,,,,,,,,,,,,,,,,,,
,,,,,464455,001,2024-06-17_10h44.15.659,experiment,2024.1.5,Win32,60.0240096,60ff2c3d915d23318b73ae8d,667045947eb812cbdacbf325,66704b8e09e6e5797ec72f51,,,,,,,,,,,,,,,,,,,,,,,,,,,,,,,,,,,,1061.196,1066.67,0,0,0,1,1,SoundStimuli/HowDoILive_LeAnnRimes_Cover5S.wav,,,,,,,,,,,,,,,,,,,,,,,,,,,,,,,,,,,,,,,,,,,,,,,,,,,,,,,,,
,,,,,464455,001,2024-06-17_10h44.15.659,experiment,2024.1.5,Win32,60.0240096,60ff2c3d915d23318b73ae8d,667045947eb812cbdacbf325,66704b8e09e6e5797ec72f51,,,,,,,,,,,,,,,,,,,,,,,,,,,,,,,,,,,,1066.671,1072.7,0,1,1,0,1,SoundStimuli/HowDoILive_LeAnnRimes_Original5S.wav,,,,,,,,,,,,,,,,,,,,,,,,,,,,,,,,,,,,,,,,,,,,,,,,,,,,,,,,,
,,,,,464455,001,2024-06-17_10h44.15.659,experiment,2024.1.5,Win32,60.0240096,60ff2c3d915d23318b73ae8d,667045947eb812cbdacbf325,66704b8e09e6e5797ec72f51,,,,,,,,,,,,,,,,,,,,,,,,,,,,,,,,,,,,,,,,,,,,1072.701,1073.916,4.979166667,1.208,0,18,18,17,1,song_indices/HowDoILive_LeAnnRimes.csv,,,,,,,,,,,,,,,,,,,,,,,,,,,,,,,,,,,,,,,,,,,,,,,
,,,,,464455,001,2024-06-17_10h44.15.659,experiment,2024.1.5,Win32,60.0240096,60ff2c3d915d23318b73ae8d,667045947eb812cbdacbf325,66704b8e09e6e5797ec72f51,,,,,,,,,,,,,,,,,,,,,,,,,,,,,,,,,,,,1073.921,1080.112,0,0,0,0,1,SoundStimuli/SaveYourTears_TheWeekndArianaGrande_Original5S.wav,,,,,,,,,,,,,,,,,,,,,,,,,,,,,,,,,,,,,,,,,,,,,,,,,,,,,,,,,
,,,,,464455,001,2024-06-17_10h44.15.659,experiment,2024.1.5,Win32,60.0240096,60ff2c3d915d23318b73ae8d,667045947eb812cbdacbf325,66704b8e09e6e5797ec72f51,,,,,,,,,,,,,,,,,,,,,,,,,,,,,,,,,,,,1080.112,1086.008,0,1,1,1,1,SoundStimuli/SaveYourTears_TheWeekndArianaGrande_Cover5S.wav,,,,,,,,,,,,,,,,,,,,,,,,,,,,,,,,,,,,,,,,,,,,,,,,,,,,,,,,,
,,,,,464455,001,2024-06-17_10h44.15.659,experiment,2024.1.5,Win32,60.0240096,60ff2c3d915d23318b73ae8d,667045947eb812cbdacbf325,66704b8e09e6e5797ec72f51,,,,,,,,,,,,,,,,,,,,,,,,,,,,,,,,,,,,,,,,,,,,1086.009,1088.24,5.048611111,2.222,0,19,19,12,1,song_indices/SaveYourTears_TheWeekndArianaGrande.csv,,,,,,,,,,,,,,,,,,,,,,,,,,,,,,,,,,,,,,,,,,,,,,,
,,,,,464455,001,2024-06-17_10h44.15.659,experiment,2024.1.5,Win32,60.0240096,60ff2c3d915d23318b73ae8d,667045947eb812cbdacbf325,66704b8e09e6e5797ec72f51,,,,,,,,,,,,,,,,,,,,,,,,,,,,,,,,,,,,1088.244,1095.335,0,0,0,1,1,SoundStimuli/BlurredLines_RobinThicke_Cover5S.wav,,,,,,,,,,,,,,,,,,,,,,,,,,,,,,,,,,,,,,,,,,,,,,,,,,,,,,,,,
,,,,,464455,001,2024-06-17_10h44.15.659,experiment,2024.1.5,Win32,60.0240096,60ff2c3d915d23318b73ae8d,667045947eb812cbdacbf325,66704b8e09e6e5797ec72f51,,,,,,,,,,,,,,,,,,,,,,,,,,,,,,,,,,,,1095.336,1102.1,0,1,1,0,1,SoundStimuli/BlurredLines_RobinThicke_Original5S.wav,,,,,,,,,,,,,,,,,,,,,,,,,,,,,,,,,,,,,,,,,,,,,,,,,,,,,,,,,
,,,,,464455,001,2024-06-17_10h44.15.659,experiment,2024.1.5,Win32,60.0240096,60ff2c3d915d23318b73ae8d,667045947eb812cbdacbf325,66704b8e09e6e5797ec72f51,,,,,,,,,,,,,,,,,,,,,,,,,,,,,,,,,,,,,,,,,,,,1102.1,1103.83,6,1.722,0,20,20,9,1,song_indices/BlurredLines_RobinThicke.csv,,,,,,,,,,,,,,,,,,,,,,,,,,,,,,,,,,,,,,,,,,,,,,,
,,,,,464455,001,2024-06-17_10h44.15.659,experiment,2024.1.5,Win32,60.0240096,60ff2c3d915d23318b73ae8d,667045947eb812cbdacbf325,66704b8e09e6e5797ec72f51,,,,,,,,,,,,,,,,,,,,,,,,,,,,,,,,,,,,1103.835,1110.027,0,0,0,0,1,SoundStimuli/Dilemma_NellyKellyRowland_Original5S.wav,,,,,,,,,,,,,,,,,,,,,,,,,,,,,,,,,,,,,,,,,,,,,,,,,,,,,,,,,
,,,,,464455,001,2024-06-17_10h44.15.659,experiment,2024.1.5,Win32,60.0240096,60ff2c3d915d23318b73ae8d,667045947eb812cbdacbf325,66704b8e09e6e5797ec72f51,,,,,,,,,,,,,,,,,,,,,,,,,,,,,,,,,,,,1110.028,1117.022,0,1,1,1,1,SoundStimuli/Dilemma_NellyKellyRowland_Cover5S.wav,,,,,,,,,,,,,,,,,,,,,,,,,,,,,,,,,,,,,,,,,,,,,,,,,,,,,,,,,
,,,,,464455,001,2024-06-17_10h44.15.659,experiment,2024.1.5,Win32,60.0240096,60ff2c3d915d23318b73ae8d,667045947eb812cbdacbf325,66704b8e09e6e5797ec72f51,,,,,,,,,,,,,,,,,,,,,,,,,,,,,,,,,,,,,,,,,,,,1117.023,1118.587,3,1.557,0,21,21,2,1,song_indices/Dilemma_NellyKellyRowland.csv,,,,,,,,,,,,,,,,,,,,,,,,,,,,,,,,,,,,,,,,,,,,,,,
,,,,,464455,001,2024-06-17_10h44.15.659,experiment,2024.1.5,Win32,60.0240096,60ff2c3d915d23318b73ae8d,667045947eb812cbdacbf325,66704b8e09e6e5797ec72f51,,,,,,,,,,,,,,,,,,,,,,,,,,,,,,,,,,,,1118.59,1123.9,0,0,0,1,1,SoundStimuli/Superstition_StevieWonder_Cover5S.wav,,,,,,,,,,,,,,,,,,,,,,,,,,,,,,,,,,,,,,,,,,,,,,,,,,,,,,,,,
,,,,,464455,001,2024-06-17_10h44.15.659,experiment,2024.1.5,Win32,60.0240096,60ff2c3d915d23318b73ae8d,667045947eb812cbdacbf325,66704b8e09e6e5797ec72f51,,,,,,,,,,,,,,,,,,,,,,,,,,,,,,,,,,,,1123.902,1130.047,0,1,1,0,1,SoundStimuli/Superstition_StevieWonder_Original5S.wav,,,,,,,,,,,,,,,,,,,,,,,,,,,,,,,,,,,,,,,,,,,,,,,,,,,,,,,,,
,,,,,464455,001,2024-06-17_10h44.15.659,experiment,2024.1.5,Win32,60.0240096,60ff2c3d915d23318b73ae8d,667045947eb812cbdacbf325,66704b8e09e6e5797ec72f51,,,,,,,,,,,,,,,,,,,,,,,,,,,,,,,,,,,,,,,,,,,,1130.047,1132.063,1.6875,2.011,0,22,22,15,1,song_indices/Superstition_StevieWonder.csv,,,,,,,,,,,,,,,,,,,,,,,,,,,,,,,,,,,,,,,,,,,,,,,
,,,,,464455,001,2024-06-17_10h44.15.659,experiment,2024.1.5,Win32,60.0240096,60ff2c3d915d23318b73ae8d,667045947eb812cbdacbf325,66704b8e09e6e5797ec72f51,,,,,,,,,,,,,,,,,,,,,,,,,,,,,,,,,,,,1132.066,1138.544,0,0,0,1,1,SoundStimuli/Weak_SWV_Cover5S.wav,,,,,,,,,,,,,,,,,,,,,,,,,,,,,,,,,,,,,,,,,,,,,,,,,,,,,,,,,
,,,,,464455,001,2024-06-17_10h44.15.659,experiment,2024.1.5,Win32,60.0240096,60ff2c3d915d23318b73ae8d,667045947eb812cbdacbf325,66704b8e09e6e5797ec72f51,,,,,,,,,,,,,,,,,,,,,,,,,,,,,,,,,,,,1138.546,1144.62,0,1,1,0,1,SoundStimuli/Weak_SWV_Original5S.wav,,,,,,,,,,,,,,,,,,,,,,,,,,,,,,,,,,,,,,,,,,,,,,,,,,,,,,,,,
,,,,,464455,001,2024-06-17_10h44.15.659,experiment,2024.1.5,Win32,60.0240096,60ff2c3d915d23318b73ae8d,667045947eb812cbdacbf325,66704b8e09e6e5797ec72f51,,,,,,,,,,,,,,,,,,,,,,,,,,,,,,,,,,,,,,,,,,,,1144.622,1146.669,4.819444444,2.038,0,23,23,6,1,song_indices/Weak_SWV.csv,,,,,,,,,,,,,,,,,,,,,,,,,,,,,,,,,,,,,,,,,,,,,,,
,,,,,464455,001,2024-06-17_10h44.15.659,experiment,2024.1.5,Win32,60.0240096,60ff2c3d915d23318b73ae8d,667045947eb812cbdacbf325,66704b8e09e6e5797ec72f51,,,,,,,,,,,,,,,,,,,,,,,,,,,,,,,,,,,,,,,,,,,,,,,,,,,,,,1146.669,1182.947,space,36.256,,0,1,1,2,1,choose_song_b3.csv,,,,,,,,,,,,,,,,,,,,,,,,,,,,,,,,,,,,
,,,,,464455,001,2024-06-17_10h44.15.659,experiment,2024.1.5,Win32,60.0240096,60ff2c3d915d23318b73ae8d,667045947eb812cbdacbf325,66704b8e09e6e5797ec72f51,,,,,,,,,,,,,,,,,,,,,,,,,,,,,,,,,,,,1182.956,1191.808,0,0,0,0,1,SoundStimuli/Perfect_EdSheeran_Original5S.wav,,,,,,,,,,,,,,,,,,,,,,,,,,,,,,,,,,,,,,,,,,,,,,,,,,,,,,,,,
,,,,,464455,001,2024-06-17_10h44.15.659,experiment,2024.1.5,Win32,60.0240096,60ff2c3d915d23318b73ae8d,667045947eb812cbdacbf325,66704b8e09e6e5797ec72f51,,,,,,,,,,,,,,,,,,,,,,,,,,,,,,,,,,,,1191.81,1200.069,0,1,1,1,1,SoundStimuli/Perfect_EdSheeran_Cover5S.wav,,,,,,,,,,,,,,,,,,,,,,,,,,,,,,,,,,,,,,,,,,,,,,,,,,,,,,,,,
,,,,,464455,001,2024-06-17_10h44.15.659,experiment,2024.1.5,Win32,60.0240096,60ff2c3d915d23318b73ae8d,667045947eb812cbdacbf325,66704b8e09e6e5797ec72f51,,,,,,,,,,,,,,,,,,,,,,,,,,,,,,,,,,,,,,,,,,,,1200.069,1201.352,5.986111111,1.275,0,0,0,0,1,song_indices/Perfect_EdSheeran.csv,,,,,,,,,,,,,,,,,,,,,,,,,,,,,,,,,,,,,,,,,,,,,,,
,,,,,464455,001,2024-06-17_10h44.15.659,experiment,2024.1.5,Win32,60.0240096,60ff2c3d915d23318b73ae8d,667045947eb812cbdacbf325,66704b8e09e6e5797ec72f51,,,,,,,,,,,,,,,,,,,,,,,,,,,,,,,,,,,,1201.355,1207.615,0,0,0,1,1,SoundStimuli/MackTheKnife_BobbyDarin_Cover5S.wav,,,,,,,,,,,,,,,,,,,,,,,,,,,,,,,,,,,,,,,,,,,,,,,,,,,,,,,,,
,,,,,464455,001,2024-06-17_10h44.15.659,experiment,2024.1.5,Win32,60.0240096,60ff2c3d915d23318b73ae8d,667045947eb812cbdacbf325,66704b8e09e6e5797ec72f51,,,,,,,,,,,,,,,,,,,,,,,,,,,,,,,,,,,,1207.619,1213.76,0,1,1,0,1,SoundStimuli/MackTheKnife_BobbyDarin_Original5S.wav,,,,,,,,,,,,,,,,,,,,,,,,,,,,,,,,,,,,,,,,,,,,,,,,,,,,,,,,,
,,,,,464455,001,2024-06-17_10h44.15.659,experiment,2024.1.5,Win32,60.0240096,60ff2c3d915d23318b73ae8d,667045947eb812cbdacbf325,66704b8e09e6e5797ec72f51,,,,,,,,,,,,,,,,,,,,,,,,,,,,,,,,,,,,,,,,,,,,1213.76,1215.842,1.006944444,2.077,0,1,1,21,1,song_indices/MackTheKnife_BobbyDarin.csv,,,,,,,,,,,,,,,,,,,,,,,,,,,,,,,,,,,,,,,,,,,,,,,
,,,,,464455,001,2024-06-17_10h44.15.659,experiment,2024.1.5,Win32,60.0240096,60ff2c3d915d23318b73ae8d,667045947eb812cbdacbf325,66704b8e09e6e5797ec72f51,,,,,,,,,,,,,,,,,,,,,,,,,,,,,,,,,,,,1215.846,1222.705,0,0,0,1,1,SoundStimuli/GodOnlyKnows_TheBeachBoys_Cover5S.wav,,,,,,,,,,,,,,,,,,,,,,,,,,,,,,,,,,,,,,,,,,,,,,,,,,,,,,,,,
,,,,,464455,001,2024-06-17_10h44.15.659,experiment,2024.1.5,Win32,60.0240096,60ff2c3d915d23318b73ae8d,667045947eb812cbdacbf325,66704b8e09e6e5797ec72f51,,,,,,,,,,,,,,,,,,,,,,,,,,,,,,,,,,,,1222.706,1228.95,0,1,1,0,1,SoundStimuli/GodOnlyKnows_TheBeachBoys_Original5S.wav,,,,,,,,,,,,,,,,,,,,,,,,,,,,,,,,,,,,,,,,,,,,,,,,,,,,,,,,,
,,,,,464455,001,2024-06-17_10h44.15.659,experiment,2024.1.5,Win32,60.0240096,60ff2c3d915d23318b73ae8d,667045947eb812cbdacbf325,66704b8e09e6e5797ec72f51,,,,,,,,,,,,,,,,,,,,,,,,,,,,,,,,,,,,,,,,,,,,1228.951,1230.899,4.3125,1.943,0,2,2,8,1,song_indices/GodOnlyKnows_TheBeachBoys.csv,,,,,,,,,,,,,,,,,,,,,,,,,,,,,,,,,,,,,,,,,,,,,,,
,,,,,464455,001,2024-06-17_10h44.15.659,experiment,2024.1.5,Win32,60.0240096,60ff2c3d915d23318b73ae8d,667045947eb812cbdacbf325,66704b8e09e6e5797ec72f51,,,,,,,,,,,,,,,,,,,,,,,,,,,,,,,,,,,,1230.901,1238.412,0,0,0,1,1,SoundStimuli/EndlessLove_DianaRossLionelRichie_Cover5S.wav,,,,,,,,,,,,,,,,,,,,,,,,,,,,,,,,,,,,,,,,,,,,,,,,,,,,,,,,,
,,,,,464455,001,2024-06-17_10h44.15.659,experiment,2024.1.5,Win32,60.0240096,60ff2c3d915d23318b73ae8d,667045947eb812cbdacbf325,66704b8e09e6e5797ec72f51,,,,,,,,,,,,,,,,,,,,,,,,,,,,,,,,,,,,1238.416,1244.757,0,1,1,0,1,SoundStimuli/EndlessLove_DianaRossLionelRichie_Original5S.wav,,,,,,,,,,,,,,,,,,,,,,,,,,,,,,,,,,,,,,,,,,,,,,,,,,,,,,,,,
,,,,,464455,001,2024-06-17_10h44.15.659,experiment,2024.1.5,Win32,60.0240096,60ff2c3d915d23318b73ae8d,667045947eb812cbdacbf325,66704b8e09e6e5797ec72f51,,,,,,,,,,,,,,,,,,,,,,,,,,,,,,,,,,,,,,,,,,,,1244.758,1246.023,6.8125,1.257,0,3,3,3,1,song_indices/EndlessLove_DianaRossLionelRichie.csv,,,,,,,,,,,,,,,,,,,,,,,,,,,,,,,,,,,,,,,,,,,,,,,
,,,,,464455,001,2024-06-17_10h44.15.659,experiment,2024.1.5,Win32,60.0240096,60ff2c3d915d23318b73ae8d,667045947eb812cbdacbf325,66704b8e09e6e5797ec72f51,,,,,,,,,,,,,,,,,,,,,,,,,,,,,,,,,,,,1246.027,1252.252,0,0,0,0,1,SoundStimuli/Smooth_SantanaRobThomas_Original5S.wav,,,,,,,,,,,,,,,,,,,,,,,,,,,,,,,,,,,,,,,,,,,,,,,,,,,,,,,,,
,,,,,464455,001,2024-06-17_10h44.15.659,experiment,2024.1.5,Win32,60.0240096,60ff2c3d915d23318b73ae8d,667045947eb812cbdacbf325,66704b8e09e6e5797ec72f51,,,,,,,,,,,,,,,,,,,,,,,,,,,,,,,,,,,,1252.253,1258.381,0,1,1,1,1,SoundStimuli/Smooth_SantanaRobThomas_Cover5S.wav,,,,,,,,,,,,,,,,,,,,,,,,,,,,,,,,,,,,,,,,,,,,,,,,,,,,,,,,,
,,,,,464455,001,2024-06-17_10h44.15.659,experiment,2024.1.5,Win32,60.0240096,60ff2c3d915d23318b73ae8d,667045947eb812cbdacbf325,66704b8e09e6e5797ec72f51,,,,,,,,,,,,,,,,,,,,,,,,,,,,,,,,,,,,,,,,,,,,1258.382,1259.58,6.097222222,1.191,0,4,4,4,1,song_indices/Smooth_SantanaRobThomas.csv,,,,,,,,,,,,,,,,,,,,,,,,,,,,,,,,,,,,,,,,,,,,,,,
,,,,,464455,001,2024-06-17_10h44.15.659,experiment,2024.1.5,Win32,60.0240096,60ff2c3d915d23318b73ae8d,667045947eb812cbdacbf325,66704b8e09e6e5797ec72f51,,,,,,,,,,,,,,,,,,,,,,,,,,,,,,,,,,,,1259.586,1267.243,0,0,0,1,1,SoundStimuli/MyGirl_TheTemptations_Cover5S.wav,,,,,,,,,,,,,,,,,,,,,,,,,,,,,,,,,,,,,,,,,,,,,,,,,,,,,,,,,
,,,,,464455,001,2024-06-17_10h44.15.659,experiment,2024.1.5,Win32,60.0240096,60ff2c3d915d23318b73ae8d,667045947eb812cbdacbf325,66704b8e09e6e5797ec72f51,,,,,,,,,,,,,,,,,,,,,,,,,,,,,,,,,,,,1267.246,1273.64,0,1,1,0,1,SoundStimuli/MyGirl_TheTemptations_Original5S.wav,,,,,,,,,,,,,,,,,,,,,,,,,,,,,,,,,,,,,,,,,,,,,,,,,,,,,,,,,
,,,,,464455,001,2024-06-17_10h44.15.659,experiment,2024.1.5,Win32,60.0240096,60ff2c3d915d23318b73ae8d,667045947eb812cbdacbf325,66704b8e09e6e5797ec72f51,,,,,,,,,,,,,,,,,,,,,,,,,,,,,,,,,,,,,,,,,,,,1273.641,1275.087,5.430555556,1.44,0,5,5,15,1,song_indices/MyGirl_TheTemptations.csv,,,,,,,,,,,,,,,,,,,,,,,,,,,,,,,,,,,,,,,,,,,,,,,
,,,,,464455,001,2024-06-17_10h44.15.659,experiment,2024.1.5,Win32,60.0240096,60ff2c3d915d23318b73ae8d,667045947eb812cbdacbf325,66704b8e09e6e5797ec72f51,,,,,,,,,,,,,,,,,,,,,,,,,,,,,,,,,,,,1275.094,1279.802,0,0,0,1,1,SoundStimuli/AChangeIsGonnaCome_SamCooke_Cover5S.wav,,,,,,,,,,,,,,,,,,,,,,,,,,,,,,,,,,,,,,,,,,,,,,,,,,,,,,,,,
,,,,,464455,001,2024-06-17_10h44.15.659,experiment,2024.1.5,Win32,60.0240096,60ff2c3d915d23318b73ae8d,667045947eb812cbdacbf325,66704b8e09e6e5797ec72f51,,,,,,,,,,,,,,,,,,,,,,,,,,,,,,,,,,,,1279.803,1285.847,0,1,1,0,1,SoundStimuli/AChangeIsGonnaCome_SamCooke_Original5S.wav,,,,,,,,,,,,,,,,,,,,,,,,,,,,,,,,,,,,,,,,,,,,,,,,,,,,,,,,,
,,,,,464455,001,2024-06-17_10h44.15.659,experiment,2024.1.5,Win32,60.0240096,60ff2c3d915d23318b73ae8d,667045947eb812cbdacbf325,66704b8e09e6e5797ec72f51,,,,,,,,,,,,,,,,,,,,,,,,,,,,,,,,,,,,,,,,,,,,1285.848,1287.313,6.041666667,1.457,0,6,6,17,1,song_indices/AChangeIsGonnaCome_SamCooke.csv,,,,,,,,,,,,,,,,,,,,,,,,,,,,,,,,,,,,,,,,,,,,,,,
,,,,,464455,001,2024-06-17_10h44.15.659,experiment,2024.1.5,Win32,60.0240096,60ff2c3d915d23318b73ae8d,667045947eb812cbdacbf325,66704b8e09e6e5797ec72f51,,,,,,,,,,,,,,,,,,,,,,,,,,,,,,,,,,,,1287.316,1293.775,0,0,0,0,1,SoundStimuli/BadDay_DanielPowter_Original5S.wav,,,,,,,,,,,,,,,,,,,,,,,,,,,,,,,,,,,,,,,,,,,,,,,,,,,,,,,,,
,,,,,464455,001,2024-06-17_10h44.15.659,experiment,2024.1.5,Win32,60.0240096,60ff2c3d915d23318b73ae8d,667045947eb812cbdacbf325,66704b8e09e6e5797ec72f51,,,,,,,,,,,,,,,,,,,,,,,,,,,,,,,,,,,,1293.776,1301.287,0,1,1,1,1,SoundStimuli/BadDay_DanielPowter_Cover5S.wav,,,,,,,,,,,,,,,,,,,,,,,,,,,,,,,,,,,,,,,,,,,,,,,,,,,,,,,,,
,,,,,464455,001,2024-06-17_10h44.15.659,experiment,2024.1.5,Win32,60.0240096,60ff2c3d915d23318b73ae8d,667045947eb812cbdacbf325,66704b8e09e6e5797ec72f51,,,,,,,,,,,,,,,,,,,,,,,,,,,,,,,,,,,,,,,,,,,,1301.288,1302.537,5.458333333,1.243,0,7,7,22,1,song_indices/BadDay_DanielPowter.csv,,,,,,,,,,,,,,,,,,,,,,,,,,,,,,,,,,,,,,,,,,,,,,,
,,,,,464455,001,2024-06-17_10h44.15.659,experiment,2024.1.5,Win32,60.0240096,60ff2c3d915d23318b73ae8d,667045947eb812cbdacbf325,66704b8e09e6e5797ec72f51,,,,,,,,,,,,,,,,,,,,,,,,,,,,,,,,,,,,1302.54,1308.385,0,0,0,1,1,SoundStimuli/StayinAlive_BeeGees_Cover5S.wav,,,,,,,,,,,,,,,,,,,,,,,,,,,,,,,,,,,,,,,,,,,,,,,,,,,,,,,,,
,,,,,464455,001,2024-06-17_10h44.15.659,experiment,2024.1.5,Win32,60.0240096,60ff2c3d915d23318b73ae8d,667045947eb812cbdacbf325,66704b8e09e6e5797ec72f51,,,,,,,,,,,,,,,,,,,,,,,,,,,,,,,,,,,,1308.388,1314.412,0,1,1,0,1,SoundStimuli/StayinAlive_BeeGees_Original5S.wav,,,,,,,,,,,,,,,,,,,,,,,,,,,,,,,,,,,,,,,,,,,,,,,,,,,,,,,,,
,,,,,464455,001,2024-06-17_10h44.15.659,experiment,2024.1.5,Win32,60.0240096,60ff2c3d915d23318b73ae8d,667045947eb812cbdacbf325,66704b8e09e6e5797ec72f51,,,,,,,,,,,,,,,,,,,,,,,,,,,,,,,,,,,,,,,,,,,,1314.413,1315.795,6.104166667,1.378,0,8,8,2,1,song_indices/StayinAlive_BeeGees.csv,,,,,,,,,,,,,,,,,,,,,,,,,,,,,,,,,,,,,,,,,,,,,,,
,,,,,464455,001,2024-06-17_10h44.15.659,experiment,2024.1.5,Win32,60.0240096,60ff2c3d915d23318b73ae8d,667045947eb812cbdacbf325,66704b8e09e6e5797ec72f51,,,,,,,,,,,,,,,,,,,,,,,,,,,,,,,,,,,,1315.8,1322.307,0,0,0,1,1,SoundStimuli/OldTownRoad_LilNasX_Cover5S.wav,,,,,,,,,,,,,,,,,,,,,,,,,,,,,,,,,,,,,,,,,,,,,,,,,,,,,,,,,
,,,,,464455,001,2024-06-17_10h44.15.659,experiment,2024.1.5,Win32,60.0240096,60ff2c3d915d23318b73ae8d,667045947eb812cbdacbf325,66704b8e09e6e5797ec72f51,,,,,,,,,,,,,,,,,,,,,,,,,,,,,,,,,,,,1322.31,1329.686,0,1,1,0,1,SoundStimuli/OldTownRoad_LilNasX_Original5S.wav,,,,,,,,,,,,,,,,,,,,,,,,,,,,,,,,,,,,,,,,,,,,,,,,,,,,,,,,,
,,,,,464455,001,2024-06-17_10h44.15.659,experiment,2024.1.5,Win32,60.0240096,60ff2c3d915d23318b73ae8d,667045947eb812cbdacbf325,66704b8e09e6e5797ec72f51,,,,,,,,,,,,,,,,,,,,,,,,,,,,,,,,,,,,,,,,,,,,1329.687,1331.602,2.583333333,1.906,0,9,9,20,1,song_indices/OldTownRoad_LilNasX.csv,,,,,,,,,,,,,,,,,,,,,,,,,,,,,,,,,,,,,,,,,,,,,,,
,,,,,464455,001,2024-06-17_10h44.15.659,experiment,2024.1.5,Win32,60.0240096,60ff2c3d915d23318b73ae8d,667045947eb812cbdacbf325,66704b8e09e6e5797ec72f51,,,,,,,,,,,,,,,,,,,,,,,,,,,,,,,,,,,,1331.606,1337.849,0,0,0,0,1,SoundStimuli/LivinOnAPrayer_BonJovi_Original5S.wav,,,,,,,,,,,,,,,,,,,,,,,,,,,,,,,,,,,,,,,,,,,,,,,,,,,,,,,,,
,,,,,464455,001,2024-06-17_10h44.15.659,experiment,2024.1.5,Win32,60.0240096,60ff2c3d915d23318b73ae8d,667045947eb812cbdacbf325,66704b8e09e6e5797ec72f51,,,,,,,,,,,,,,,,,,,,,,,,,,,,,,,,,,,,1337.852,1345.526,0,1,1,1,1,SoundStimuli/LivinOnAPrayer_BonJovi_Cover5S.wav,,,,,,,,,,,,,,,,,,,,,,,,,,,,,,,,,,,,,,,,,,,,,,,,,,,,,,,,,
,,,,,464455,001,2024-06-17_10h44.15.659,experiment,2024.1.5,Win32,60.0240096,60ff2c3d915d23318b73ae8d,667045947eb812cbdacbf325,66704b8e09e6e5797ec72f51,,,,,,,,,,,,,,,,,,,,,,,,,,,,,,,,,,,,,,,,,,,,1345.527,1348.008,4.236111111,2.473,0,10,10,16,1,song_indices/LivinOnAPrayer_BonJovi.csv,,,,,,,,,,,,,,,,,,,,,,,,,,,,,,,,,,,,,,,,,,,,,,,
,,,,,464455,001,2024-06-17_10h44.15.659,experiment,2024.1.5,Win32,60.0240096,60ff2c3d915d23318b73ae8d,667045947eb812cbdacbf325,66704b8e09e6e5797ec72f51,,,,,,,,,,,,,,,,,,,,,,,,,,,,,,,,,,,,1348.014,1354.171,0,0,0,0,1,SoundStimuli/LikeARollingStone_BobDylan_Original5S.wav,,,,,,,,,,,,,,,,,,,,,,,,,,,,,,,,,,,,,,,,,,,,,,,,,,,,,,,,,
,,,,,464455,001,2024-06-17_10h44.15.659,experiment,2024.1.5,Win32,60.0240096,60ff2c3d915d23318b73ae8d,667045947eb812cbdacbf325,66704b8e09e6e5797ec72f51,,,,,,,,,,,,,,,,,,,,,,,,,,,,,,,,,,,,1354.171,1358.568,0,1,1,1,1,SoundStimuli/LikeARollingStone_BobDylan_Cover5S.wav,,,,,,,,,,,,,,,,,,,,,,,,,,,,,,,,,,,,,,,,,,,,,,,,,,,,,,,,,
,,,,,464455,001,2024-06-17_10h44.15.659,experiment,2024.1.5,Win32,60.0240096,60ff2c3d915d23318b73ae8d,667045947eb812cbdacbf325,66704b8e09e6e5797ec72f51,,,,,,,,,,,,,,,,,,,,,,,,,,,,,,,,,,,,,,,,,,,,1358.568,1360.185,5.791666667,1.615,0,11,11,12,1,song_indices/LikeARollingStone_BobDylan.csv,,,,,,,,,,,,,,,,,,,,,,,,,,,,,,,,,,,,,,,,,,,,,,,
,,,,,464455,001,2024-06-17_10h44.15.659,experiment,2024.1.5,Win32,60.0240096,60ff2c3d915d23318b73ae8d,667045947eb812cbdacbf325,66704b8e09e6e5797ec72f51,,,,,,,,,,,,,,,,,,,,,,,,,,,,,,,,,,,,1360.188,1367.029,0,0,0,1,1,SoundStimuli/IWannaDanceWithSomebody_WhitneyHouston_Cover5S.wav,,,,,,,,,,,,,,,,,,,,,,,,,,,,,,,,,,,,,,,,,,,,,,,,,,,,,,,,,
,,,,,464455,001,2024-06-17_10h44.15.659,experiment,2024.1.5,Win32,60.0240096,60ff2c3d915d23318b73ae8d,667045947eb812cbdacbf325,66704b8e09e6e5797ec72f51,,,,,,,,,,,,,,,,,,,,,,,,,,,,,,,,,,,,1367.03,1372.627,0,1,1,0,1,SoundStimuli/IWannaDanceWithSomebody_WhitneyHouston_Original5S.wav,,,,,,,,,,,,,,,,,,,,,,,,,,,,,,,,,,,,,,,,,,,,,,,,,,,,,,,,,
,,,,,464455,001,2024-06-17_10h44.15.659,experiment,2024.1.5,Win32,60.0240096,60ff2c3d915d23318b73ae8d,667045947eb812cbdacbf325,66704b8e09e6e5797ec72f51,,,,,,,,,,,,,,,,,,,,,,,,,,,,,,,,,,,,,,,,,,,,1372.628,1373.724,1.0625,1.085,0,12,12,13,1,song_indices/IWannaDanceWithSomebody_WhitneyHouston.csv,,,,,,,,,,,,,,,,,,,,,,,,,,,,,,,,,,,,,,,,,,,,,,,
,,,,,464455,001,2024-06-17_10h44.15.659,experiment,2024.1.5,Win32,60.0240096,60ff2c3d915d23318b73ae8d,667045947eb812cbdacbf325,66704b8e09e6e5797ec72f51,,,,,,,,,,,,,,,,,,,,,,,,,,,,,,,,,,,,1373.729,1380.321,0,0,0,1,1,SoundStimuli/Despacito_LuisFonsiDaddyYankee_Cover5S.wav,,,,,,,,,,,,,,,,,,,,,,,,,,,,,,,,,,,,,,,,,,,,,,,,,,,,,,,,,
,,,,,464455,001,2024-06-17_10h44.15.659,experiment,2024.1.5,Win32,60.0240096,60ff2c3d915d23318b73ae8d,667045947eb812cbdacbf325,66704b8e09e6e5797ec72f51,,,,,,,,,,,,,,,,,,,,,,,,,,,,,,,,,,,,1380.323,1386.884,0,1,1,0,1,SoundStimuli/Despacito_LuisFonsiDaddyYankee_Original5S.wav,,,,,,,,,,,,,,,,,,,,,,,,,,,,,,,,,,,,,,,,,,,,,,,,,,,,,,,,,
,,,,,464455,001,2024-06-17_10h44.15.659,experiment,2024.1.5,Win32,60.0240096,60ff2c3d915d23318b73ae8d,667045947eb812cbdacbf325,66704b8e09e6e5797ec72f51,,,,,,,,,,,,,,,,,,,,,,,,,,,,,,,,,,,,,,,,,,,,1386.885,1388.415,6.972222222,1.521,0,13,13,11,1,song_indices/Despacito_LuisFonsiDaddyYankee.csv,,,,,,,,,,,,,,,,,,,,,,,,,,,,,,,,,,,,,,,,,,,,,,,
,,,,,464455,001,2024-06-17_10h44.15.659,experiment,2024.1.5,Win32,60.0240096,60ff2c3d915d23318b73ae8d,667045947eb812cbdacbf325,66704b8e09e6e5797ec72f51,,,,,,,,,,,,,,,,,,,,,,,,,,,,,,,,,,,,1388.418,1396.71,0,0,0,1,1,SoundStimuli/Mood_24kGoldnianndior_Cover5S.wav,,,,,,,,,,,,,,,,,,,,,,,,,,,,,,,,,,,,,,,,,,,,,,,,,,,,,,,,,
,,,,,464455,001,2024-06-17_10h44.15.659,experiment,2024.1.5,Win32,60.0240096,60ff2c3d915d23318b73ae8d,667045947eb812cbdacbf325,66704b8e09e6e5797ec72f51,,,,,,,,,,,,,,,,,,,,,,,,,,,,,,,,,,,,1396.712,1403.006,0,1,1,0,1,SoundStimuli/Mood_24kGoldnianndior_Original5S.wav,,,,,,,,,,,,,,,,,,,,,,,,,,,,,,,,,,,,,,,,,,,,,,,,,,,,,,,,,
,,,,,464455,001,2024-06-17_10h44.15.659,experiment,2024.1.5,Win32,60.0240096,60ff2c3d915d23318b73ae8d,667045947eb812cbdacbf325,66704b8e09e6e5797ec72f51,,,,,,,,,,,,,,,,,,,,,,,,,,,,,,,,,,,,,,,,,,,,1403.007,1404.258,5.069444444,1.24,0,14,14,5,1,song_indices/Mood_24kGoldnianndior.csv,,,,,,,,,,,,,,,,,,,,,,,,,,,,,,,,,,,,,,,,,,,,,,,
,,,,,464455,001,2024-06-17_10h44.15.659,experiment,2024.1.5,Win32,60.0240096,60ff2c3d915d23318b73ae8d,667045947eb812cbdacbf325,66704b8e09e6e5797ec72f51,,,,,,,,,,,,,,,,,,,,,,,,,,,,,,,,,,,,1404.26,1410.469,0,0,0,1,1,SoundStimuli/LikeAPrayer_Madonna_Cover5S.wav,,,,,,,,,,,,,,,,,,,,,,,,,,,,,,,,,,,,,,,,,,,,,,,,,,,,,,,,,
,,,,,464455,001,2024-06-17_10h44.15.659,experiment,2024.1.5,Win32,60.0240096,60ff2c3d915d23318b73ae8d,667045947eb812cbdacbf325,66704b8e09e6e5797ec72f51,,,,,,,,,,,,,,,,,,,,,,,,,,,,,,,,,,,,1410.47,1416.665,0,1,1,0,1,SoundStimuli/LikeAPrayer_Madonna_Original5S.wav,,,,,,,,,,,,,,,,,,,,,,,,,,,,,,,,,,,,,,,,,,,,,,,,,,,,,,,,,
,,,,,464455,001,2024-06-17_10h44.15.659,experiment,2024.1.5,Win32,60.0240096,60ff2c3d915d23318b73ae8d,667045947eb812cbdacbf325,66704b8e09e6e5797ec72f51,,,,,,,,,,,,,,,,,,,,,,,,,,,,,,,,,,,,,,,,,,,,1416.667,1418.88,5.909722222,2.203,0,15,15,7,1,song_indices/LikeAPrayer_Madonna.csv,,,,,,,,,,,,,,,,,,,,,,,,,,,,,,,,,,,,,,,,,,,,,,,
,,,,,464455,001,2024-06-17_10h44.15.659,experiment,2024.1.5,Win32,60.0240096,60ff2c3d915d23318b73ae8d,667045947eb812cbdacbf325,66704b8e09e6e5797ec72f51,,,,,,,,,,,,,,,,,,,,,,,,,,,,,,,,,,,,1418.883,1424.926,0,0,0,0,1,SoundStimuli/AnotherOneBitesTheDust_Queen_Original5S.wav,,,,,,,,,,,,,,,,,,,,,,,,,,,,,,,,,,,,,,,,,,,,,,,,,,,,,,,,,
,,,,,464455,001,2024-06-17_10h44.15.659,experiment,2024.1.5,Win32,60.0240096,60ff2c3d915d23318b73ae8d,667045947eb812cbdacbf325,66704b8e09e6e5797ec72f51,,,,,,,,,,,,,,,,,,,,,,,,,,,,,,,,,,,,1424.927,1433.054,0,1,1,1,1,SoundStimuli/AnotherOneBitesTheDust_Queen_Cover5S.wav,,,,,,,,,,,,,,,,,,,,,,,,,,,,,,,,,,,,,,,,,,,,,,,,,,,,,,,,,
,,,,,464455,001,2024-06-17_10h44.15.659,experiment,2024.1.5,Win32,60.0240096,60ff2c3d915d23318b73ae8d,667045947eb812cbdacbf325,66704b8e09e6e5797ec72f51,,,,,,,,,,,,,,,,,,,,,,,,,,,,,,,,,,,,,,,,,,,,1433.055,1434.386,1.194444444,1.322,0,16,16,9,1,song_indices/AnotherOneBitesTheDust_Queen.csv,,,,,,,,,,,,,,,,,,,,,,,,,,,,,,,,,,,,,,,,,,,,,,,
,,,,,464455,001,2024-06-17_10h44.15.659,experiment,2024.1.5,Win32,60.0240096,60ff2c3d915d23318b73ae8d,667045947eb812cbdacbf325,66704b8e09e6e5797ec72f51,,,,,,,,,,,,,,,,,,,,,,,,,,,,,,,,,,,,1434.389,1440.7,0,0,0,0,1,SoundStimuli/BridgeOverTroubledWater_SimonAndGarfunkel_Original5S.wav,,,,,,,,,,,,,,,,,,,,,,,,,,,,,,,,,,,,,,,,,,,,,,,,,,,,,,,,,
,,,,,464455,001,2024-06-17_10h44.15.659,experiment,2024.1.5,Win32,60.0240096,60ff2c3d915d23318b73ae8d,667045947eb812cbdacbf325,66704b8e09e6e5797ec72f51,,,,,,,,,,,,,,,,,,,,,,,,,,,,,,,,,,,,1440.705,1447.394,0,1,1,1,1,SoundStimuli/BridgeOverTroubledWater_SimonAndGarfunkel_Cover5S.wav,,,,,,,,,,,,,,,,,,,,,,,,,,,,,,,,,,,,,,,,,,,,,,,,,,,,,,,,,
,,,,,464455,001,2024-06-17_10h44.15.659,experiment,2024.1.5,Win32,60.0240096,60ff2c3d915d23318b73ae8d,667045947eb812cbdacbf325,66704b8e09e6e5797ec72f51,,,,,,,,,,,,,,,,,,,,,,,,,,,,,,,,,,,,,,,,,,,,1447.396,1448.795,5.513888889,1.396,0,17,17,1,1,song_indices/BridgeOverTroubledWater_SimonAndGarfunkel.csv,,,,,,,,,,,,,,,,,,,,,,,,,,,,,,,,,,,,,,,,,,,,,,,
,,,,,464455,001,2024-06-17_10h44.15.659,experiment,2024.1.5,Win32,60.0240096,60ff2c3d915d23318b73ae8d,667045947eb812cbdacbf325,66704b8e09e6e5797ec72f51,,,,,,,,,,,,,,,,,,,,,,,,,,,,,,,,,,,,1448.8,1454.873,0,0,0,0,1,SoundStimuli/IllMakeLoveToYou_BoyzIIMen_Original5S.wav,,,,,,,,,,,,,,,,,,,,,,,,,,,,,,,,,,,,,,,,,,,,,,,,,,,,,,,,,
,,,,,464455,001,2024-06-17_10h44.15.659,experiment,2024.1.5,Win32,60.0240096,60ff2c3d915d23318b73ae8d,667045947eb812cbdacbf325,66704b8e09e6e5797ec72f51,,,,,,,,,,,,,,,,,,,,,,,,,,,,,,,,,,,,1454.873,1460.82,0,1,1,1,1,SoundStimuli/IllMakeLoveToYou_BoyzIIMen_Cover5S.wav,,,,,,,,,,,,,,,,,,,,,,,,,,,,,,,,,,,,,,,,,,,,,,,,,,,,,,,,,
,,,,,464455,001,2024-06-17_10h44.15.659,experiment,2024.1.5,Win32,60.0240096,60ff2c3d915d23318b73ae8d,667045947eb812cbdacbf325,66704b8e09e6e5797ec72f51,,,,,,,,,,,,,,,,,,,,,,,,,,,,,,,,,,,,,,,,,,,,1460.82,1462.085,5.972222222,1.255,0,18,18,6,1,song_indices/IllMakeLoveToYou_BoyzIIMen.csv,,,,,,,,,,,,,,,,,,,,,,,,,,,,,,,,,,,,,,,,,,,,,,,
,,,,,464455,001,2024-06-17_10h44.15.659,experiment,2024.1.5,Win32,60.0240096,60ff2c3d915d23318b73ae8d,667045947eb812cbdacbf325,66704b8e09e6e5797ec72f51,,,,,,,,,,,,,,,,,,,,,,,,,,,,,,,,,,,,1462.089,1468.131,0,0,0,1,1,SoundStimuli/IWantToHoldYourHand_TheBeatles_Cover5S.wav,,,,,,,,,,,,,,,,,,,,,,,,,,,,,,,,,,,,,,,,,,,,,,,,,,,,,,,,,
,,,,,464455,001,2024-06-17_10h44.15.659,experiment,2024.1.5,Win32,60.0240096,60ff2c3d915d23318b73ae8d,667045947eb812cbdacbf325,66704b8e09e6e5797ec72f51,,,,,,,,,,,,,,,,,,,,,,,,,,,,,,,,,,,,1468.132,1473.929,0,1,1,0,1,SoundStimuli/IWantToHoldYourHand_TheBeatles_Original5S.wav,,,,,,,,,,,,,,,,,,,,,,,,,,,,,,,,,,,,,,,,,,,,,,,,,,,,,,,,,
,,,,,464455,001,2024-06-17_10h44.15.659,experiment,2024.1.5,Win32,60.0240096,60ff2c3d915d23318b73ae8d,667045947eb812cbdacbf325,66704b8e09e6e5797ec72f51,,,,,,,,,,,,,,,,,,,,,,,,,,,,,,,,,,,,,,,,,,,,1473.93,1476.276,1.138888889,2.343,0,19,19,19,1,song_indices/IWantToHoldYourHand_TheBeatles.csv,,,,,,,,,,,,,,,,,,,,,,,,,,,,,,,,,,,,,,,,,,,,,,,
,,,,,464455,001,2024-06-17_10h44.15.659,experiment,2024.1.5,Win32,60.0240096,60ff2c3d915d23318b73ae8d,667045947eb812cbdacbf325,66704b8e09e6e5797ec72f51,,,,,,,,,,,,,,,,,,,,,,,,,,,,,,,,,,,,1476.281,1482.239,0,0,0,0,1,SoundStimuli/BohemianRhapsody_Queen_Original5S.wav,,,,,,,,,,,,,,,,,,,,,,,,,,,,,,,,,,,,,,,,,,,,,,,,,,,,,,,,,
,,,,,464455,001,2024-06-17_10h44.15.659,experiment,2024.1.5,Win32,60.0240096,60ff2c3d915d23318b73ae8d,667045947eb812cbdacbf325,66704b8e09e6e5797ec72f51,,,,,,,,,,,,,,,,,,,,,,,,,,,,,,,,,,,,1482.24,1486.32,0,1,1,1,1,SoundStimuli/BohemianRhapsody_Queen_Cover5S.wav,,,,,,,,,,,,,,,,,,,,,,,,,,,,,,,,,,,,,,,,,,,,,,,,,,,,,,,,,
,,,,,464455,001,2024-06-17_10h44.15.659,experiment,2024.1.5,Win32,60.0240096,60ff2c3d915d23318b73ae8d,667045947eb812cbdacbf325,66704b8e09e6e5797ec72f51,,,,,,,,,,,,,,,,,,,,,,,,,,,,,,,,,,,,,,,,,,,,1486.321,1487.918,1.125,1.589,0,20,20,18,1,song_indices/BohemianRhapsody_Queen.csv,,,,,,,,,,,,,,,,,,,,,,,,,,,,,,,,,,,,,,,,,,,,,,,
,,,,,464455,001,2024-06-17_10h44.15.659,experiment,2024.1.5,Win32,60.0240096,60ff2c3d915d23318b73ae8d,667045947eb812cbdacbf325,66704b8e09e6e5797ec72f51,,,,,,,,,,,,,,,,,,,,,,,,,,,,,,,,,,,,1487.923,1494.031,0,0,0,0,1,SoundStimuli/HeatWaves_GlassAnimals_Original5S.wav,,,,,,,,,,,,,,,,,,,,,,,,,,,,,,,,,,,,,,,,,,,,,,,,,,,,,,,,,
,,,,,464455,001,2024-06-17_10h44.15.659,experiment,2024.1.5,Win32,60.0240096,60ff2c3d915d23318b73ae8d,667045947eb812cbdacbf325,66704b8e09e6e5797ec72f51,,,,,,,,,,,,,,,,,,,,,,,,,,,,,,,,,,,,1494.032,1502.627,0,1,1,1,1,SoundStimuli/HeatWaves_GlassAnimals_Cover5S.wav,,,,,,,,,,,,,,,,,,,,,,,,,,,,,,,,,,,,,,,,,,,,,,,,,,,,,,,,,
,,,,,464455,001,2024-06-17_10h44.15.659,experiment,2024.1.5,Win32,60.0240096,60ff2c3d915d23318b73ae8d,667045947eb812cbdacbf325,66704b8e09e6e5797ec72f51,,,,,,,,,,,,,,,,,,,,,,,,,,,,,,,,,,,,,,,,,,,,1502.627,1504.891,1.847222222,2.256,0,21,21,10,1,song_indices/HeatWaves_GlassAnimals.csv,,,,,,,,,,,,,,,,,,,,,,,,,,,,,,,,,,,,,,,,,,,,,,,
,,,,,464455,001,2024-06-17_10h44.15.659,experiment,2024.1.5,Win32,60.0240096,60ff2c3d915d23318b73ae8d,667045947eb812cbdacbf325,66704b8e09e6e5797ec72f51,,,,,,,,,,,,,,,,,,,,,,,,,,,,,,,,,,,,1504.895,1511.92,0,0,0,1,1,SoundStimuli/StrawberryFieldsForever_TheBeatles_Cover5S.wav,,,,,,,,,,,,,,,,,,,,,,,,,,,,,,,,,,,,,,,,,,,,,,,,,,,,,,,,,
,,,,,464455,001,2024-06-17_10h44.15.659,experiment,2024.1.5,Win32,60.0240096,60ff2c3d915d23318b73ae8d,667045947eb812cbdacbf325,66704b8e09e6e5797ec72f51,,,,,,,,,,,,,,,,,,,,,,,,,,,,,,,,,,,,1511.925,1518.05,0,1,1,0,1,SoundStimuli/StrawberryFieldsForever_TheBeatles_Original5S.wav,,,,,,,,,,,,,,,,,,,,,,,,,,,,,,,,,,,,,,,,,,,,,,,,,,,,,,,,,
,,,,,464455,001,2024-06-17_10h44.15.659,experiment,2024.1.5,Win32,60.0240096,60ff2c3d915d23318b73ae8d,667045947eb812cbdacbf325,66704b8e09e6e5797ec72f51,,,,,,,,,,,,,,,,,,,,,,,,,,,,,,,,,,,,,,,,,,,,1518.05,1520.998,2.0625,2.944,0,22,22,14,1,song_indices/StrawberryFieldsForever_TheBeatles.csv,,,,,,,,,,,,,,,,,,,,,,,,,,,,,,,,,,,,,,,,,,,,,,,
,,,,,464455,001,2024-06-17_10h44.15.659,experiment,2024.1.5,Win32,60.0240096,60ff2c3d915d23318b73ae8d,667045947eb812cbdacbf325,66704b8e09e6e5797ec72f51,,,,,,,,,,,,,,,,,,,,,,,,,,,,,,,,,,,,,,,,,,,,,,,,,,,,,,1520.998,1520.999,,,,0,2,2,0,1,choose_song_b1.csv,,,,,,,,,,,,,,,,,,,,,,,,,,,,,,,,,,,,
,,,,,464455,001,2024-06-17_10h44.15.659,experiment,2024.1.5,Win32,60.0240096,60ff2c3d915d23318b73ae8d,667045947eb812cbdacbf325,66704b8e09e6e5797ec72f51,,,,,,,,,,,,,,,,,,,,,,,,,,,,,,,,,,,,,,,,,,,,,,,,,,,,,,,,,,,,,,,,,51,Item 2,I sang in the church choir,Item 3,YouTube and RDIO,5,3,driving,Never,Never,Rarely,Sometimes,Rarely,Never,Never,Often,Rarely,Always,Often,Rarely,Rarely,Never,Often,Always,alternative rock,classic rock,emd,Trap,I listen less now as I have less time. ,0,0,0,0,1,,
,,,,,464455,001,2024-06-17_10h44.15.659,experiment,2024.1.5,Win32,60.0240096,60ff2c3d915d23318b73ae8d,667045947eb812cbdacbf325,66704b8e09e6e5797ec72f51,,,,,,,,,,,,,,,,,,,,,,,,,,,,,,,,,,,,,,,,,,,,,,,,,,,,,,,,,,,,,,,,,,,,,,,,,,,,,,,,,,,,,,,,,,,,,,,,,,,1732.859,1735.228
