welcome.started,welcome.stopped,space_to_continue.keys,space_to_continue.rt,space_to_continue.duration,participant,session,date,expName,psychopyVersion,OS,frameRate,PROLIFIC_PID,STUDY_ID,SESSION_ID,consent.consent,consent.consent_recontact,consent_check.started,consent_check.stopped,calibration_ready.started,calibration_ready.stopped,cal_ready.keys,cal_ready.rt,cal_ready.duration,calibration.started,calibration.stopped,mouse.x,mouse.y,mouse.leftButton,mouse.midButton,mouse.rightButton,mouse.time,mouse.clicked_name,move_on.keys,move_on.rt,move_on.duration,instructions.started,instructions.stopped,next.keys,next.rt,next.duration,practice_trial.started,practice_trial.stopped,practice_slider.response,practice_slider.rt,ready.started,ready.stopped,key_resp.keys,key_resp.rt,key_resp.duration,play_sound.started,play_sound.stopped,trials.thisRepN,trials.thisTrialN,trials.thisN,trials.thisIndex,trials.ran,orig_or_cover,rating.started,rating.stopped,slider.response,slider.rt,songs.thisRepN,songs.thisTrialN,songs.thisN,songs.thisIndex,songs.ran,song_id,short_break.started,short_break.stopped,space_to_move_on.keys,space_to_move_on.rt,space_to_move_on.duration,blocks.thisRepN,blocks.thisTrialN,blocks.thisN,blocks.thisIndex,blocks.ran,block,survey.age,survey.musician,survey.music_making,survey.listen_time,survey.medium,survey.music_seeking,survey.music_choice,survey.activities,survey.habit_change,survey.habits,experiment.thisRepN,experiment.thisTrialN,experiment.thisN,experiment.thisIndex,experiment.ran,goodbye.started,goodbye.stopped
0.0022,2.3051,space,2.276,,489937,001,2024-06-17_07h58.21.015,experiment,2024.1.5,Linux x86_64,60.0132029,5c90094e71f3100016181ea9,667045947eb812cbdacbf325,66704e9ee025da8cead1b81f,,,,,,,,,,,,,,,,,,,,,,,,,,,,,,,,,,,,,,,,,,,,,,,,,,,,,,,,,,,,,,,,,,,,,,,,,,,,,,,,,
,,,,,489937,001,2024-06-17_07h58.21.015,experiment,2024.1.5,Linux x86_64,60.0132029,5c90094e71f3100016181ea9,667045947eb812cbdacbf325,66704e9ee025da8cead1b81f,yes,yes,,,,,,,,,,,,,,,,,,,,,,,,,,,,,,,,,,,,,,,,,,,,,,,,,,,,,,,,,,,,,,,,,,,,,,,,,,,,,,,
,,,,,489937,001,2024-06-17_07h58.21.015,experiment,2024.1.5,Linux x86_64,60.0132029,5c90094e71f3100016181ea9,667045947eb812cbdacbf325,66704e9ee025da8cead1b81f,,,320.4086,320.4091,,,,,,,,,,,,,,,,,,,,,,,,,,,,,,,,,,,,,,,,,,,,,,,,,,,,,,,,,,,,,,,,,,,,,,,,,,,,,
,,,,,489937,001,2024-06-17_07h58.21.015,experiment,2024.1.5,Linux x86_64,60.0132029,5c90094e71f3100016181ea9,667045947eb812cbdacbf325,66704e9ee025da8cead1b81f,,,,,320.4161,434.3751,space,113.9018,,434.3756,468.2142,[-0.008261442184448242],[-0.44350504875183105],[1],[0],[0],[20.78279999999984],"[""play_button""]",right,23.8155,,468.2372,502.9256,space,34.6618,,502.9261,521.0872,4.928482056,18.1342,521.0881,523.4037,space,2.2962,,523.5206,529.6194,0,0,0,0,1,SoundStimuli/IllMakeLoveToYou_BoyzIIMen_Original5S.wav,,,,,,,,,,,,,,,,,,,,,,,,,,,,,,,,,,,,,,
,,,,,489937,001,2024-06-17_07h58.21.015,experiment,2024.1.5,Linux x86_64,60.0132029,5c90094e71f3100016181ea9,667045947eb812cbdacbf325,66704e9ee025da8cead1b81f,,,,,,,,,,,,,,,,,,,,,,,,,,,,,,,,,,,,529.6209,535.566,0,1,1,1,1,SoundStimuli/IllMakeLoveToYou_BoyzIIMen_Cover5S.wav,,,,,,,,,,,,,,,,,,,,,,,,,,,,,,,,,,,,,,
,,,,,489937,001,2024-06-17_07h58.21.015,experiment,2024.1.5,Linux x86_64,60.0132029,5c90094e71f3100016181ea9,667045947eb812cbdacbf325,66704e9ee025da8cead1b81f,,,,,,,,,,,,,,,,,,,,,,,,,,,,,,,,,,,,,,,,,,,,535.5892,537.3492,5.056496143,1.7547,0,0,0,6,1,song_indices/IllMakeLoveToYou_BoyzIIMen.csv,,,,,,,,,,,,,,,,,,,,,,,,,,,,
,,,,,489937,001,2024-06-17_07h58.21.015,experiment,2024.1.5,Linux x86_64,60.0132029,5c90094e71f3100016181ea9,667045947eb812cbdacbf325,66704e9ee025da8cead1b81f,,,,,,,,,,,,,,,,,,,,,,,,,,,,,,,,,,,,537.3541,544.7311,0,0,0,0,1,SoundStimuli/OldTownRoad_LilNasX_Original5S.wav,,,,,,,,,,,,,,,,,,,,,,,,,,,,,,,,,,,,,,
,,,,,489937,001,2024-06-17_07h58.21.015,experiment,2024.1.5,Linux x86_64,60.0132029,5c90094e71f3100016181ea9,667045947eb812cbdacbf325,66704e9ee025da8cead1b81f,,,,,,,,,,,,,,,,,,,,,,,,,,,,,,,,,,,,544.7529,551.263,0,1,1,1,1,SoundStimuli/OldTownRoad_LilNasX_Cover5S.wav,,,,,,,,,,,,,,,,,,,,,,,,,,,,,,,,,,,,,,
,,,,,489937,001,2024-06-17_07h58.21.015,experiment,2024.1.5,Linux x86_64,60.0132029,5c90094e71f3100016181ea9,667045947eb812cbdacbf325,66704e9ee025da8cead1b81f,,,,,,,,,,,,,,,,,,,,,,,,,,,,,,,,,,,,,,,,,,,,551.2634,552.2958,5.056496143,1.0075,0,1,1,20,1,song_indices/OldTownRoad_LilNasX.csv,,,,,,,,,,,,,,,,,,,,,,,,,,,,
,,,,,489937,001,2024-06-17_07h58.21.015,experiment,2024.1.5,Linux x86_64,60.0132029,5c90094e71f3100016181ea9,667045947eb812cbdacbf325,66704e9ee025da8cead1b81f,,,,,,,,,,,,,,,,,,,,,,,,,,,,,,,,,,,,552.2998,558.6115,0,0,0,0,1,SoundStimuli/BridgeOverTroubledWater_SimonAndGarfunkel_Original5S.wav,,,,,,,,,,,,,,,,,,,,,,,,,,,,,,,,,,,,,,
,,,,,489937,001,2024-06-17_07h58.21.015,experiment,2024.1.5,Linux x86_64,60.0132029,5c90094e71f3100016181ea9,667045947eb812cbdacbf325,66704e9ee025da8cead1b81f,,,,,,,,,,,,,,,,,,,,,,,,,,,,,,,,,,,,558.6329,565.3269,0,1,1,1,1,SoundStimuli/BridgeOverTroubledWater_SimonAndGarfunkel_Cover5S.wav,,,,,,,,,,,,,,,,,,,,,,,,,,,,,,,,,,,,,,
,,,,,489937,001,2024-06-17_07h58.21.015,experiment,2024.1.5,Linux x86_64,60.0132029,5c90094e71f3100016181ea9,667045947eb812cbdacbf325,66704e9ee025da8cead1b81f,,,,,,,,,,,,,,,,,,,,,,,,,,,,,,,,,,,,,,,,,,,,565.3273,567.979,3.920682907,2.6081,0,2,2,1,1,song_indices/BridgeOverTroubledWater_SimonAndGarfunkel.csv,,,,,,,,,,,,,,,,,,,,,,,,,,,,
,,,,,489937,001,2024-06-17_07h58.21.015,experiment,2024.1.5,Linux x86_64,60.0132029,5c90094e71f3100016181ea9,667045947eb812cbdacbf325,66704e9ee025da8cead1b81f,,,,,,,,,,,,,,,,,,,,,,,,,,,,,,,,,,,,567.9827,575.0083,0,0,0,1,1,SoundStimuli/StrawberryFieldsForever_TheBeatles_Cover5S.wav,,,,,,,,,,,,,,,,,,,,,,,,,,,,,,,,,,,,,,
,,,,,489937,001,2024-06-17_07h58.21.015,experiment,2024.1.5,Linux x86_64,60.0132029,5c90094e71f3100016181ea9,667045947eb812cbdacbf325,66704e9ee025da8cead1b81f,,,,,,,,,,,,,,,,,,,,,,,,,,,,,,,,,,,,575.0295,581.1571,0,1,1,0,1,SoundStimuli/StrawberryFieldsForever_TheBeatles_Original5S.wav,,,,,,,,,,,,,,,,,,,,,,,,,,,,,,,,,,,,,,
,,,,,489937,001,2024-06-17_07h58.21.015,experiment,2024.1.5,Linux x86_64,60.0132029,5c90094e71f3100016181ea9,667045947eb812cbdacbf325,66704e9ee025da8cead1b81f,,,,,,,,,,,,,,,,,,,,,,,,,,,,,,,,,,,,,,,,,,,,581.1575,583.1733,2.165173531,1.9901,0,3,3,14,1,song_indices/StrawberryFieldsForever_TheBeatles.csv,,,,,,,,,,,,,,,,,,,,,,,,,,,,
,,,,,489937,001,2024-06-17_07h58.21.015,experiment,2024.1.5,Linux x86_64,60.0132029,5c90094e71f3100016181ea9,667045947eb812cbdacbf325,66704e9ee025da8cead1b81f,,,,,,,,,,,,,,,,,,,,,,,,,,,,,,,,,,,,583.1782,590.8549,0,0,0,1,1,SoundStimuli/LivinOnAPrayer_BonJovi_Cover5S.wav,,,,,,,,,,,,,,,,,,,,,,,,,,,,,,,,,,,,,,
,,,,,489937,001,2024-06-17_07h58.21.015,experiment,2024.1.5,Linux x86_64,60.0132029,5c90094e71f3100016181ea9,667045947eb812cbdacbf325,66704e9ee025da8cead1b81f,,,,,,,,,,,,,,,,,,,,,,,,,,,,,,,,,,,,590.8775,597.1203,0,1,1,0,1,SoundStimuli/LivinOnAPrayer_BonJovi_Original5S.wav,,,,,,,,,,,,,,,,,,,,,,,,,,,,,,,,,,,,,,
,,,,,489937,001,2024-06-17_07h58.21.015,experiment,2024.1.5,Linux x86_64,60.0132029,5c90094e71f3100016181ea9,667045947eb812cbdacbf325,66704e9ee025da8cead1b81f,,,,,,,,,,,,,,,,,,,,,,,,,,,,,,,,,,,,,,,,,,,,597.1208,600.1397,1.246066093,2.9746,0,4,4,16,1,song_indices/LivinOnAPrayer_BonJovi.csv,,,,,,,,,,,,,,,,,,,,,,,,,,,,
,,,,,489937,001,2024-06-17_07h58.21.015,experiment,2024.1.5,Linux x86_64,60.0132029,5c90094e71f3100016181ea9,667045947eb812cbdacbf325,66704e9ee025da8cead1b81f,,,,,,,,,,,,,,,,,,,,,,,,,,,,,,,,,,,,600.1431,606.1022,0,0,0,0,1,SoundStimuli/BohemianRhapsody_Queen_Original5S.wav,,,,,,,,,,,,,,,,,,,,,,,,,,,,,,,,,,,,,,
,,,,,489937,001,2024-06-17_07h58.21.015,experiment,2024.1.5,Linux x86_64,60.0132029,5c90094e71f3100016181ea9,667045947eb812cbdacbf325,66704e9ee025da8cead1b81f,,,,,,,,,,,,,,,,,,,,,,,,,,,,,,,,,,,,606.1246,610.2016,0,1,1,1,1,SoundStimuli/BohemianRhapsody_Queen_Cover5S.wav,,,,,,,,,,,,,,,,,,,,,,,,,,,,,,,,,,,,,,
,,,,,489937,001,2024-06-17_07h58.21.015,experiment,2024.1.5,Linux x86_64,60.0132029,5c90094e71f3100016181ea9,667045947eb812cbdacbf325,66704e9ee025da8cead1b81f,,,,,,,,,,,,,,,,,,,,,,,,,,,,,,,,,,,,,,,,,,,,610.2021,612.4172,2.027834415,2.188,0,5,5,18,1,song_indices/BohemianRhapsody_Queen.csv,,,,,,,,,,,,,,,,,,,,,,,,,,,,
,,,,,489937,001,2024-06-17_07h58.21.015,experiment,2024.1.5,Linux x86_64,60.0132029,5c90094e71f3100016181ea9,667045947eb812cbdacbf325,66704e9ee025da8cead1b81f,,,,,,,,,,,,,,,,,,,,,,,,,,,,,,,,,,,,612.4217,617.1331,0,0,0,1,1,SoundStimuli/AChangeIsGonnaCome_SamCooke_Cover5S.wav,,,,,,,,,,,,,,,,,,,,,,,,,,,,,,,,,,,,,,
,,,,,489937,001,2024-06-17_07h58.21.015,experiment,2024.1.5,Linux x86_64,60.0132029,5c90094e71f3100016181ea9,667045947eb812cbdacbf325,66704e9ee025da8cead1b81f,,,,,,,,,,,,,,,,,,,,,,,,,,,,,,,,,,,,617.1542,623.1985,0,1,1,0,1,SoundStimuli/AChangeIsGonnaCome_SamCooke_Original5S.wav,,,,,,,,,,,,,,,,,,,,,,,,,,,,,,,,,,,,,,
,,,,,489937,001,2024-06-17_07h58.21.015,experiment,2024.1.5,Linux x86_64,60.0132029,5c90094e71f3100016181ea9,667045947eb812cbdacbf325,66704e9ee025da8cead1b81f,,,,,,,,,,,,,,,,,,,,,,,,,,,,,,,,,,,,,,,,,,,,623.1988,626.0154,2.078168154,2.7742,0,6,6,17,1,song_indices/AChangeIsGonnaCome_SamCooke.csv,,,,,,,,,,,,,,,,,,,,,,,,,,,,
,,,,,489937,001,2024-06-17_07h58.21.015,experiment,2024.1.5,Linux x86_64,60.0132029,5c90094e71f3100016181ea9,667045947eb812cbdacbf325,66704e9ee025da8cead1b81f,,,,,,,,,,,,,,,,,,,,,,,,,,,,,,,,,,,,626.0199,634.8801,0,0,0,0,1,SoundStimuli/Perfect_EdSheeran_Original5S.wav,,,,,,,,,,,,,,,,,,,,,,,,,,,,,,,,,,,,,,
,,,,,489937,001,2024-06-17_07h58.21.015,experiment,2024.1.5,Linux x86_64,60.0132029,5c90094e71f3100016181ea9,667045947eb812cbdacbf325,66704e9ee025da8cead1b81f,,,,,,,,,,,,,,,,,,,,,,,,,,,,,,,,,,,,634.9018,643.1618,0,1,1,1,1,SoundStimuli/Perfect_EdSheeran_Cover5S.wav,,,,,,,,,,,,,,,,,,,,,,,,,,,,,,,,,,,,,,
,,,,,489937,001,2024-06-17_07h58.21.015,experiment,2024.1.5,Linux x86_64,60.0132029,5c90094e71f3100016181ea9,667045947eb812cbdacbf325,66704e9ee025da8cead1b81f,,,,,,,,,,,,,,,,,,,,,,,,,,,,,,,,,,,,,,,,,,,,643.1622,645.6963,6.003162384,2.4893,0,7,7,0,1,song_indices/Perfect_EdSheeran.csv,,,,,,,,,,,,,,,,,,,,,,,,,,,,
,,,,,489937,001,2024-06-17_07h58.21.015,experiment,2024.1.5,Linux x86_64,60.0132029,5c90094e71f3100016181ea9,667045947eb812cbdacbf325,66704e9ee025da8cead1b81f,,,,,,,,,,,,,,,,,,,,,,,,,,,,,,,,,,,,645.6992,653.2092,0,0,0,1,1,SoundStimuli/EndlessLove_DianaRossLionelRichie_Cover5S.wav,,,,,,,,,,,,,,,,,,,,,,,,,,,,,,,,,,,,,,
,,,,,489937,001,2024-06-17_07h58.21.015,experiment,2024.1.5,Linux x86_64,60.0132029,5c90094e71f3100016181ea9,667045947eb812cbdacbf325,66704e9ee025da8cead1b81f,,,,,,,,,,,,,,,,,,,,,,,,,,,,,,,,,,,,653.2302,659.5746,0,1,1,0,1,SoundStimuli/EndlessLove_DianaRossLionelRichie_Original5S.wav,,,,,,,,,,,,,,,,,,,,,,,,,,,,,,,,,,,,,,
,,,,,489937,001,2024-06-17_07h58.21.015,experiment,2024.1.5,Linux x86_64,60.0132029,5c90094e71f3100016181ea9,667045947eb812cbdacbf325,66704e9ee025da8cead1b81f,,,,,,,,,,,,,,,,,,,,,,,,,,,,,,,,,,,,,,,,,,,,659.575,662.4241,4.968495846,2.8256,0,8,8,3,1,song_indices/EndlessLove_DianaRossLionelRichie.csv,,,,,,,,,,,,,,,,,,,,,,,,,,,,
,,,,,489937,001,2024-06-17_07h58.21.015,experiment,2024.1.5,Linux x86_64,60.0132029,5c90094e71f3100016181ea9,667045947eb812cbdacbf325,66704e9ee025da8cead1b81f,,,,,,,,,,,,,,,,,,,,,,,,,,,,,,,,,,,,662.4279,668.2731,0,0,0,1,1,SoundStimuli/StayinAlive_BeeGees_Cover5S.wav,,,,,,,,,,,,,,,,,,,,,,,,,,,,,,,,,,,,,,
,,,,,489937,001,2024-06-17_07h58.21.015,experiment,2024.1.5,Linux x86_64,60.0132029,5c90094e71f3100016181ea9,667045947eb812cbdacbf325,66704e9ee025da8cead1b81f,,,,,,,,,,,,,,,,,,,,,,,,,,,,,,,,,,,,668.2947,674.3218,0,1,1,0,1,SoundStimuli/StayinAlive_BeeGees_Original5S.wav,,,,,,,,,,,,,,,,,,,,,,,,,,,,,,,,,,,,,,
,,,,,489937,001,2024-06-17_07h58.21.015,experiment,2024.1.5,Linux x86_64,60.0132029,5c90094e71f3100016181ea9,667045947eb812cbdacbf325,66704e9ee025da8cead1b81f,,,,,,,,,,,,,,,,,,,,,,,,,,,,,,,,,,,,,,,,,,,,674.3222,675.8077,5.034654617,1.462,0,9,9,2,1,song_indices/StayinAlive_BeeGees.csv,,,,,,,,,,,,,,,,,,,,,,,,,,,,
,,,,,489937,001,2024-06-17_07h58.21.015,experiment,2024.1.5,Linux x86_64,60.0132029,5c90094e71f3100016181ea9,667045947eb812cbdacbf325,66704e9ee025da8cead1b81f,,,,,,,,,,,,,,,,,,,,,,,,,,,,,,,,,,,,675.8123,681.9203,0,0,0,0,1,SoundStimuli/HeatWaves_GlassAnimals_Original5S.wav,,,,,,,,,,,,,,,,,,,,,,,,,,,,,,,,,,,,,,
,,,,,489937,001,2024-06-17_07h58.21.015,experiment,2024.1.5,Linux x86_64,60.0132029,5c90094e71f3100016181ea9,667045947eb812cbdacbf325,66704e9ee025da8cead1b81f,,,,,,,,,,,,,,,,,,,,,,,,,,,,,,,,,,,,681.9412,690.5357,0,1,1,1,1,SoundStimuli/HeatWaves_GlassAnimals_Cover5S.wav,,,,,,,,,,,,,,,,,,,,,,,,,,,,,,,,,,,,,,
,,,,,489937,001,2024-06-17_07h58.21.015,experiment,2024.1.5,Linux x86_64,60.0132029,5c90094e71f3100016181ea9,667045947eb812cbdacbf325,66704e9ee025da8cead1b81f,,,,,,,,,,,,,,,,,,,,,,,,,,,,,,,,,,,,,,,,,,,,690.5362,692.718,4.00641489,2.1566,0,10,10,10,1,song_indices/HeatWaves_GlassAnimals.csv,,,,,,,,,,,,,,,,,,,,,,,,,,,,
,,,,,489937,001,2024-06-17_07h58.21.015,experiment,2024.1.5,Linux x86_64,60.0132029,5c90094e71f3100016181ea9,667045947eb812cbdacbf325,66704e9ee025da8cead1b81f,,,,,,,,,,,,,,,,,,,,,,,,,,,,,,,,,,,,692.7228,699.2841,0,0,0,0,1,SoundStimuli/Despacito_LuisFonsiDaddyYankee_Original5S.wav,,,,,,,,,,,,,,,,,,,,,,,,,,,,,,,,,,,,,,
,,,,,489937,001,2024-06-17_07h58.21.015,experiment,2024.1.5,Linux x86_64,60.0132029,5c90094e71f3100016181ea9,667045947eb812cbdacbf325,66704e9ee025da8cead1b81f,,,,,,,,,,,,,,,,,,,,,,,,,,,,,,,,,,,,699.3065,705.8822,0,1,1,1,1,SoundStimuli/Despacito_LuisFonsiDaddyYankee_Cover5S.wav,,,,,,,,,,,,,,,,,,,,,,,,,,,,,,,,,,,,,,
,,,,,489937,001,2024-06-17_07h58.21.015,experiment,2024.1.5,Linux x86_64,60.0132029,5c90094e71f3100016181ea9,667045947eb812cbdacbf325,66704e9ee025da8cead1b81f,,,,,,,,,,,,,,,,,,,,,,,,,,,,,,,,,,,,,,,,,,,,705.8827,707.2986,3.967531681,1.3911,0,11,11,11,1,song_indices/Despacito_LuisFonsiDaddyYankee.csv,,,,,,,,,,,,,,,,,,,,,,,,,,,,
,,,,,489937,001,2024-06-17_07h58.21.015,experiment,2024.1.5,Linux x86_64,60.0132029,5c90094e71f3100016181ea9,667045947eb812cbdacbf325,66704e9ee025da8cead1b81f,,,,,,,,,,,,,,,,,,,,,,,,,,,,,,,,,,,,707.3021,714.964,0,0,0,1,1,SoundStimuli/MyGirl_TheTemptations_Cover5S.wav,,,,,,,,,,,,,,,,,,,,,,,,,,,,,,,,,,,,,,
,,,,,489937,001,2024-06-17_07h58.21.015,experiment,2024.1.5,Linux x86_64,60.0132029,5c90094e71f3100016181ea9,667045947eb812cbdacbf325,66704e9ee025da8cead1b81f,,,,,,,,,,,,,,,,,,,,,,,,,,,,,,,,,,,,714.9866,721.3793,0,1,1,0,1,SoundStimuli/MyGirl_TheTemptations_Original5S.wav,,,,,,,,,,,,,,,,,,,,,,,,,,,,,,,,,,,,,,
,,,,,489937,001,2024-06-17_07h58.21.015,experiment,2024.1.5,Linux x86_64,60.0132029,5c90094e71f3100016181ea9,667045947eb812cbdacbf325,66704e9ee025da8cead1b81f,,,,,,,,,,,,,,,,,,,,,,,,,,,,,,,,,,,,,,,,,,,,721.3798,724.498,2.093285084,3.0756,0,12,12,15,1,song_indices/MyGirl_TheTemptations.csv,,,,,,,,,,,,,,,,,,,,,,,,,,,,
,,,,,489937,001,2024-06-17_07h58.21.015,experiment,2024.1.5,Linux x86_64,60.0132029,5c90094e71f3100016181ea9,667045947eb812cbdacbf325,66704e9ee025da8cead1b81f,,,,,,,,,,,,,,,,,,,,,,,,,,,,,,,,,,,,724.5007,728.8943,0,0,0,1,1,SoundStimuli/LikeARollingStone_BobDylan_Cover5S.wav,,,,,,,,,,,,,,,,,,,,,,,,,,,,,,,,,,,,,,
,,,,,489937,001,2024-06-17_07h58.21.015,experiment,2024.1.5,Linux x86_64,60.0132029,5c90094e71f3100016181ea9,667045947eb812cbdacbf325,66704e9ee025da8cead1b81f,,,,,,,,,,,,,,,,,,,,,,,,,,,,,,,,,,,,728.9153,735.0598,0,1,1,0,1,SoundStimuli/LikeARollingStone_BobDylan_Original5S.wav,,,,,,,,,,,,,,,,,,,,,,,,,,,,,,,,,,,,,,
,,,,,489937,001,2024-06-17_07h58.21.015,experiment,2024.1.5,Linux x86_64,60.0132029,5c90094e71f3100016181ea9,667045947eb812cbdacbf325,66704e9ee025da8cead1b81f,,,,,,,,,,,,,,,,,,,,,,,,,,,,,,,,,,,,,,,,,,,,735.0603,736.5106,3.010948658,1.4284,0,13,13,12,1,song_indices/LikeARollingStone_BobDylan.csv,,,,,,,,,,,,,,,,,,,,,,,,,,,,
,,,,,489937,001,2024-06-17_07h58.21.015,experiment,2024.1.5,Linux x86_64,60.0132029,5c90094e71f3100016181ea9,667045947eb812cbdacbf325,66704e9ee025da8cead1b81f,,,,,,,,,,,,,,,,,,,,,,,,,,,,,,,,,,,,736.5155,742.9583,0,0,0,0,1,SoundStimuli/BadDay_DanielPowter_Original5S.wav,,,,,,,,,,,,,,,,,,,,,,,,,,,,,,,,,,,,,,
,,,,,489937,001,2024-06-17_07h58.21.015,experiment,2024.1.5,Linux x86_64,60.0132029,5c90094e71f3100016181ea9,667045947eb812cbdacbf325,66704e9ee025da8cead1b81f,,,,,,,,,,,,,,,,,,,,,,,,,,,,,,,,,,,,742.9795,750.4901,0,1,1,1,1,SoundStimuli/BadDay_DanielPowter_Cover5S.wav,,,,,,,,,,,,,,,,,,,,,,,,,,,,,,,,,,,,,,
,,,,,489937,001,2024-06-17_07h58.21.015,experiment,2024.1.5,Linux x86_64,60.0132029,5c90094e71f3100016181ea9,667045947eb812cbdacbf325,66704e9ee025da8cead1b81f,,,,,,,,,,,,,,,,,,,,,,,,,,,,,,,,,,,,,,,,,,,,750.4905,754.1238,3.029376507,3.5898,0,14,14,22,1,song_indices/BadDay_DanielPowter.csv,,,,,,,,,,,,,,,,,,,,,,,,,,,,
,,,,,489937,001,2024-06-17_07h58.21.015,experiment,2024.1.5,Linux x86_64,60.0132029,5c90094e71f3100016181ea9,667045947eb812cbdacbf325,66704e9ee025da8cead1b81f,,,,,,,,,,,,,,,,,,,,,,,,,,,,,,,,,,,,754.1269,762.4212,0,0,0,1,1,SoundStimuli/Mood_24kGoldnianndior_Cover5S.wav,,,,,,,,,,,,,,,,,,,,,,,,,,,,,,,,,,,,,,
,,,,,489937,001,2024-06-17_07h58.21.015,experiment,2024.1.5,Linux x86_64,60.0132029,5c90094e71f3100016181ea9,667045947eb812cbdacbf325,66704e9ee025da8cead1b81f,,,,,,,,,,,,,,,,,,,,,,,,,,,,,,,,,,,,762.4433,768.7366,0,1,1,0,1,SoundStimuli/Mood_24kGoldnianndior_Original5S.wav,,,,,,,,,,,,,,,,,,,,,,,,,,,,,,,,,,,,,,
,,,,,489937,001,2024-06-17_07h58.21.015,experiment,2024.1.5,Linux x86_64,60.0132029,5c90094e71f3100016181ea9,667045947eb812cbdacbf325,66704e9ee025da8cead1b81f,,,,,,,,,,,,,,,,,,,,,,,,,,,,,,,,,,,,,,,,,,,,768.7368,775.0722,3.042527676,6.293,0,15,15,5,1,song_indices/Mood_24kGoldnianndior.csv,,,,,,,,,,,,,,,,,,,,,,,,,,,,
,,,,,489937,001,2024-06-17_07h58.21.015,experiment,2024.1.5,Linux x86_64,60.0132029,5c90094e71f3100016181ea9,667045947eb812cbdacbf325,66704e9ee025da8cead1b81f,,,,,,,,,,,,,,,,,,,,,,,,,,,,,,,,,,,,775.0747,781.1176,0,0,0,0,1,SoundStimuli/AnotherOneBitesTheDust_Queen_Original5S.wav,,,,,,,,,,,,,,,,,,,,,,,,,,,,,,,,,,,,,,
,,,,,489937,001,2024-06-17_07h58.21.015,experiment,2024.1.5,Linux x86_64,60.0132029,5c90094e71f3100016181ea9,667045947eb812cbdacbf325,66704e9ee025da8cead1b81f,,,,,,,,,,,,,,,,,,,,,,,,,,,,,,,,,,,,781.1389,789.2658,0,1,1,1,1,SoundStimuli/AnotherOneBitesTheDust_Queen_Cover5S.wav,,,,,,,,,,,,,,,,,,,,,,,,,,,,,,,,,,,,,,
,,,,,489937,001,2024-06-17_07h58.21.015,experiment,2024.1.5,Linux x86_64,60.0132029,5c90094e71f3100016181ea9,667045947eb812cbdacbf325,66704e9ee025da8cead1b81f,,,,,,,,,,,,,,,,,,,,,,,,,,,,,,,,,,,,,,,,,,,,789.2661,793.9107,2.106314898,4.5957,0,16,16,9,1,song_indices/AnotherOneBitesTheDust_Queen.csv,,,,,,,,,,,,,,,,,,,,,,,,,,,,
,,,,,489937,001,2024-06-17_07h58.21.015,experiment,2024.1.5,Linux x86_64,60.0132029,5c90094e71f3100016181ea9,667045947eb812cbdacbf325,66704e9ee025da8cead1b81f,,,,,,,,,,,,,,,,,,,,,,,,,,,,,,,,,,,,793.914,800.047,0,0,0,0,1,SoundStimuli/MackTheKnife_BobbyDarin_Original5S.wav,,,,,,,,,,,,,,,,,,,,,,,,,,,,,,,,,,,,,,
,,,,,489937,001,2024-06-17_07h58.21.015,experiment,2024.1.5,Linux x86_64,60.0132029,5c90094e71f3100016181ea9,667045947eb812cbdacbf325,66704e9ee025da8cead1b81f,,,,,,,,,,,,,,,,,,,,,,,,,,,,,,,,,,,,800.0683,806.3292,0,1,1,1,1,SoundStimuli/MackTheKnife_BobbyDarin_Cover5S.wav,,,,,,,,,,,,,,,,,,,,,,,,,,,,,,,,,,,,,,
,,,,,489937,001,2024-06-17_07h58.21.015,experiment,2024.1.5,Linux x86_64,60.0132029,5c90094e71f3100016181ea9,667045947eb812cbdacbf325,66704e9ee025da8cead1b81f,,,,,,,,,,,,,,,,,,,,,,,,,,,,,,,,,,,,,,,,,,,,806.3294,808.0622,1.021270752,1.7065,0,17,17,21,1,song_indices/MackTheKnife_BobbyDarin.csv,,,,,,,,,,,,,,,,,,,,,,,,,,,,
,,,,,489937,001,2024-06-17_07h58.21.015,experiment,2024.1.5,Linux x86_64,60.0132029,5c90094e71f3100016181ea9,667045947eb812cbdacbf325,66704e9ee025da8cead1b81f,,,,,,,,,,,,,,,,,,,,,,,,,,,,,,,,,,,,808.066,814.3109,0,0,0,0,1,SoundStimuli/GodOnlyKnows_TheBeachBoys_Original5S.wav,,,,,,,,,,,,,,,,,,,,,,,,,,,,,,,,,,,,,,
,,,,,489937,001,2024-06-17_07h58.21.015,experiment,2024.1.5,Linux x86_64,60.0132029,5c90094e71f3100016181ea9,667045947eb812cbdacbf325,66704e9ee025da8cead1b81f,,,,,,,,,,,,,,,,,,,,,,,,,,,,,,,,,,,,814.3319,821.1933,0,1,1,1,1,SoundStimuli/GodOnlyKnows_TheBeachBoys_Cover5S.wav,,,,,,,,,,,,,,,,,,,,,,,,,,,,,,,,,,,,,,
,,,,,489937,001,2024-06-17_07h58.21.015,experiment,2024.1.5,Linux x86_64,60.0132029,5c90094e71f3100016181ea9,667045947eb812cbdacbf325,66704e9ee025da8cead1b81f,,,,,,,,,,,,,,,,,,,,,,,,,,,,,,,,,,,,,,,,,,,,821.1937,823.9438,1.135092497,2.7072,0,18,18,8,1,song_indices/GodOnlyKnows_TheBeachBoys.csv,,,,,,,,,,,,,,,,,,,,,,,,,,,,
,,,,,489937,001,2024-06-17_07h58.21.015,experiment,2024.1.5,Linux x86_64,60.0132029,5c90094e71f3100016181ea9,667045947eb812cbdacbf325,66704e9ee025da8cead1b81f,,,,,,,,,,,,,,,,,,,,,,,,,,,,,,,,,,,,823.9463,830.1412,0,0,0,0,1,SoundStimuli/LikeAPrayer_Madonna_Original5S.wav,,,,,,,,,,,,,,,,,,,,,,,,,,,,,,,,,,,,,,
,,,,,489937,001,2024-06-17_07h58.21.015,experiment,2024.1.5,Linux x86_64,60.0132029,5c90094e71f3100016181ea9,667045947eb812cbdacbf325,66704e9ee025da8cead1b81f,,,,,,,,,,,,,,,,,,,,,,,,,,,,,,,,,,,,830.1623,836.3736,0,1,1,1,1,SoundStimuli/LikeAPrayer_Madonna_Cover5S.wav,,,,,,,,,,,,,,,,,,,,,,,,,,,,,,,,,,,,,,
,,,,,489937,001,2024-06-17_07h58.21.015,experiment,2024.1.5,Linux x86_64,60.0132029,5c90094e71f3100016181ea9,667045947eb812cbdacbf325,66704e9ee025da8cead1b81f,,,,,,,,,,,,,,,,,,,,,,,,,,,,,,,,,,,,,,,,,,,,836.3744,838.1063,6.894823074,1.7062,0,19,19,7,1,song_indices/LikeAPrayer_Madonna.csv,,,,,,,,,,,,,,,,,,,,,,,,,,,,
,,,,,489937,001,2024-06-17_07h58.21.015,experiment,2024.1.5,Linux x86_64,60.0132029,5c90094e71f3100016181ea9,667045947eb812cbdacbf325,66704e9ee025da8cead1b81f,,,,,,,,,,,,,,,,,,,,,,,,,,,,,,,,,,,,838.1097,844.9549,0,0,0,1,1,SoundStimuli/IWannaDanceWithSomebody_WhitneyHouston_Cover5S.wav,,,,,,,,,,,,,,,,,,,,,,,,,,,,,,,,,,,,,,
,,,,,489937,001,2024-06-17_07h58.21.015,experiment,2024.1.5,Linux x86_64,60.0132029,5c90094e71f3100016181ea9,667045947eb812cbdacbf325,66704e9ee025da8cead1b81f,,,,,,,,,,,,,,,,,,,,,,,,,,,,,,,,,,,,844.976,850.5703,0,1,1,0,1,SoundStimuli/IWannaDanceWithSomebody_WhitneyHouston_Original5S.wav,,,,,,,,,,,,,,,,,,,,,,,,,,,,,,,,,,,,,,
,,,,,489937,001,2024-06-17_07h58.21.015,experiment,2024.1.5,Linux x86_64,60.0132029,5c90094e71f3100016181ea9,667045947eb812cbdacbf325,66704e9ee025da8cead1b81f,,,,,,,,,,,,,,,,,,,,,,,,,,,,,,,,,,,,,,,,,,,,850.5708,851.8534,1.024979353,1.259,0,20,20,13,1,song_indices/IWannaDanceWithSomebody_WhitneyHouston.csv,,,,,,,,,,,,,,,,,,,,,,,,,,,,
,,,,,489937,001,2024-06-17_07h58.21.015,experiment,2024.1.5,Linux x86_64,60.0132029,5c90094e71f3100016181ea9,667045947eb812cbdacbf325,66704e9ee025da8cead1b81f,,,,,,,,,,,,,,,,,,,,,,,,,,,,,,,,,,,,851.8567,857.9023,0,0,0,1,1,SoundStimuli/IWantToHoldYourHand_TheBeatles_Cover5S.wav,,,,,,,,,,,,,,,,,,,,,,,,,,,,,,,,,,,,,,
,,,,,489937,001,2024-06-17_07h58.21.015,experiment,2024.1.5,Linux x86_64,60.0132029,5c90094e71f3100016181ea9,667045947eb812cbdacbf325,66704e9ee025da8cead1b81f,,,,,,,,,,,,,,,,,,,,,,,,,,,,,,,,,,,,857.9231,863.7178,0,1,1,0,1,SoundStimuli/IWantToHoldYourHand_TheBeatles_Original5S.wav,,,,,,,,,,,,,,,,,,,,,,,,,,,,,,,,,,,,,,
,,,,,489937,001,2024-06-17_07h58.21.015,experiment,2024.1.5,Linux x86_64,60.0132029,5c90094e71f3100016181ea9,667045947eb812cbdacbf325,66704e9ee025da8cead1b81f,,,,,,,,,,,,,,,,,,,,,,,,,,,,,,,,,,,,,,,,,,,,863.7182,866.1362,1.052015781,2.3892,0,21,21,19,1,song_indices/IWantToHoldYourHand_TheBeatles.csv,,,,,,,,,,,,,,,,,,,,,,,,,,,,
,,,,,489937,001,2024-06-17_07h58.21.015,experiment,2024.1.5,Linux x86_64,60.0132029,5c90094e71f3100016181ea9,667045947eb812cbdacbf325,66704e9ee025da8cead1b81f,,,,,,,,,,,,,,,,,,,,,,,,,,,,,,,,,,,,866.1395,872.3661,0,0,0,0,1,SoundStimuli/Smooth_SantanaRobThomas_Original5S.wav,,,,,,,,,,,,,,,,,,,,,,,,,,,,,,,,,,,,,,
,,,,,489937,001,2024-06-17_07h58.21.015,experiment,2024.1.5,Linux x86_64,60.0132029,5c90094e71f3100016181ea9,667045947eb812cbdacbf325,66704e9ee025da8cead1b81f,,,,,,,,,,,,,,,,,,,,,,,,,,,,,,,,,,,,872.387,878.515,0,1,1,1,1,SoundStimuli/Smooth_SantanaRobThomas_Cover5S.wav,,,,,,,,,,,,,,,,,,,,,,,,,,,,,,,,,,,,,,
,,,,,489937,001,2024-06-17_07h58.21.015,experiment,2024.1.5,Linux x86_64,60.0132029,5c90094e71f3100016181ea9,667045947eb812cbdacbf325,66704e9ee025da8cead1b81f,,,,,,,,,,,,,,,,,,,,,,,,,,,,,,,,,,,,,,,,,,,,878.5156,880.0815,6.95965004,1.5415,0,22,22,4,1,song_indices/Smooth_SantanaRobThomas.csv,,,,,,,,,,,,,,,,,,,,,,,,,,,,
,,,,,489937,001,2024-06-17_07h58.21.015,experiment,2024.1.5,Linux x86_64,60.0132029,5c90094e71f3100016181ea9,667045947eb812cbdacbf325,66704e9ee025da8cead1b81f,,,,,,,,,,,,,,,,,,,,,,,,,,,,,,,,,,,,,,,,,,,,,,,,,,,,,,880.0829,912.1935,space,32.0914,,0,0,0,0,1,choose_song_b1.csv,,,,,,,,,,,,,,,,,
,,,,,489937,001,2024-06-17_07h58.21.015,experiment,2024.1.5,Linux x86_64,60.0132029,5c90094e71f3100016181ea9,667045947eb812cbdacbf325,66704e9ee025da8cead1b81f,,,,,,,,,,,,,,,,,,,,,,,,,,,,,,,,,,,,912.2001,918.2572,0,0,0,1,1,SoundStimuli/RockWithYou_MichaelJackson_Cover5S.wav,,,,,,,,,,,,,,,,,,,,,,,,,,,,,,,,,,,,,,
,,,,,489937,001,2024-06-17_07h58.21.015,experiment,2024.1.5,Linux x86_64,60.0132029,5c90094e71f3100016181ea9,667045947eb812cbdacbf325,66704e9ee025da8cead1b81f,,,,,,,,,,,,,,,,,,,,,,,,,,,,,,,,,,,,918.2789,924.6058,0,1,1,0,1,SoundStimuli/RockWithYou_MichaelJackson_Original5S.wav,,,,,,,,,,,,,,,,,,,,,,,,,,,,,,,,,,,,,,
,,,,,489937,001,2024-06-17_07h58.21.015,experiment,2024.1.5,Linux x86_64,60.0132029,5c90094e71f3100016181ea9,667045947eb812cbdacbf325,66704e9ee025da8cead1b81f,,,,,,,,,,,,,,,,,,,,,,,,,,,,,,,,,,,,,,,,,,,,924.6063,926.3057,6.059686184,1.6748,0,0,0,16,1,song_indices/RockWithYou_MichaelJackson.csv,,,,,,,,,,,,,,,,,,,,,,,,,,,,
,,,,,489937,001,2024-06-17_07h58.21.015,experiment,2024.1.5,Linux x86_64,60.0132029,5c90094e71f3100016181ea9,667045947eb812cbdacbf325,66704e9ee025da8cead1b81f,,,,,,,,,,,,,,,,,,,,,,,,,,,,,,,,,,,,926.3089,932.7376,0,0,0,1,1,SoundStimuli/Fallin_AliciaKeys_Cover5S.wav,,,,,,,,,,,,,,,,,,,,,,,,,,,,,,,,,,,,,,
,,,,,489937,001,2024-06-17_07h58.21.015,experiment,2024.1.5,Linux x86_64,60.0132029,5c90094e71f3100016181ea9,667045947eb812cbdacbf325,66704e9ee025da8cead1b81f,,,,,,,,,,,,,,,,,,,,,,,,,,,,,,,,,,,,932.7624,938.9367,0,1,1,0,1,SoundStimuli/Fallin_AliciaKeys_Original5S.wav,,,,,,,,,,,,,,,,,,,,,,,,,,,,,,,,,,,,,,
,,,,,489937,001,2024-06-17_07h58.21.015,experiment,2024.1.5,Linux x86_64,60.0132029,5c90094e71f3100016181ea9,667045947eb812cbdacbf325,66704e9ee025da8cead1b81f,,,,,,,,,,,,,,,,,,,,,,,,,,,,,,,,,,,,,,,,,,,,938.937,941.0029,6.894956589,2.0405,0,1,1,12,1,song_indices/Fallin_AliciaKeys.csv,,,,,,,,,,,,,,,,,,,,,,,,,,,,
,,,,,489937,001,2024-06-17_07h58.21.015,experiment,2024.1.5,Linux x86_64,60.0132029,5c90094e71f3100016181ea9,667045947eb812cbdacbf325,66704e9ee025da8cead1b81f,,,,,,,,,,,,,,,,,,,,,,,,,,,,,,,,,,,,941.0057,947.2181,0,0,0,0,1,SoundStimuli/SmellsLikeTeenSpirit_Nirvana_Original5S.wav,,,,,,,,,,,,,,,,,,,,,,,,,,,,,,,,,,,,,,
,,,,,489937,001,2024-06-17_07h58.21.015,experiment,2024.1.5,Linux x86_64,60.0132029,5c90094e71f3100016181ea9,667045947eb812cbdacbf325,66704e9ee025da8cead1b81f,,,,,,,,,,,,,,,,,,,,,,,,,,,,,,,,,,,,947.2392,953.0172,0,1,1,1,1,SoundStimuli/SmellsLikeTeenSpirit_Nirvana_Cover5S.wav,,,,,,,,,,,,,,,,,,,,,,,,,,,,,,,,,,,,,,
,,,,,489937,001,2024-06-17_07h58.21.015,experiment,2024.1.5,Linux x86_64,60.0132029,5c90094e71f3100016181ea9,667045947eb812cbdacbf325,66704e9ee025da8cead1b81f,,,,,,,,,,,,,,,,,,,,,,,,,,,,,,,,,,,,,,,,,,,,953.0182,955.2831,6.933411598,2.239,0,2,2,8,1,song_indices/SmellsLikeTeenSpirit_Nirvana.csv,,,,,,,,,,,,,,,,,,,,,,,,,,,,
,,,,,489937,001,2024-06-17_07h58.21.015,experiment,2024.1.5,Linux x86_64,60.0132029,5c90094e71f3100016181ea9,667045947eb812cbdacbf325,66704e9ee025da8cead1b81f,,,,,,,,,,,,,,,,,,,,,,,,,,,,,,,,,,,,955.2862,961.6821,0,0,0,0,1,SoundStimuli/IWillAlwaysLoveYou_WhitneyHouston_Original5S.wav,,,,,,,,,,,,,,,,,,,,,,,,,,,,,,,,,,,,,,
,,,,,489937,001,2024-06-17_07h58.21.015,experiment,2024.1.5,Linux x86_64,60.0132029,5c90094e71f3100016181ea9,667045947eb812cbdacbf325,66704e9ee025da8cead1b81f,,,,,,,,,,,,,,,,,,,,,,,,,,,,,,,,,,,,961.7032,967.5478,0,1,1,1,1,SoundStimuli/IWillAlwaysLoveYou_WhitneyHouston_Cover5S.wav,,,,,,,,,,,,,,,,,,,,,,,,,,,,,,,,,,,,,,
,,,,,489937,001,2024-06-17_07h58.21.015,experiment,2024.1.5,Linux x86_64,60.0132029,5c90094e71f3100016181ea9,667045947eb812cbdacbf325,66704e9ee025da8cead1b81f,,,,,,,,,,,,,,,,,,,,,,,,,,,,,,,,,,,,,,,,,,,,967.5482,968.8138,6.916484833,1.2394,0,3,3,10,1,song_indices/IWillAlwaysLoveYou_WhitneyHouston.csv,,,,,,,,,,,,,,,,,,,,,,,,,,,,
,,,,,489937,001,2024-06-17_07h58.21.015,experiment,2024.1.5,Linux x86_64,60.0132029,5c90094e71f3100016181ea9,667045947eb812cbdacbf325,66704e9ee025da8cead1b81f,,,,,,,,,,,,,,,,,,,,,,,,,,,,,,,,,,,,968.8168,975.3624,0,0,0,0,1,SoundStimuli/CrazyInLove_BeyonceFtJayZ_Original5S.wav,,,,,,,,,,,,,,,,,,,,,,,,,,,,,,,,,,,,,,
,,,,,489937,001,2024-06-17_07h58.21.015,experiment,2024.1.5,Linux x86_64,60.0132029,5c90094e71f3100016181ea9,667045947eb812cbdacbf325,66704e9ee025da8cead1b81f,,,,,,,,,,,,,,,,,,,,,,,,,,,,,,,,,,,,975.3834,985.6273,0,1,1,1,1,SoundStimuli/CrazyInLove_BeyonceFtJayZ_Cover5S.wav,,,,,,,,,,,,,,,,,,,,,,,,,,,,,,,,,,,,,,
,,,,,489937,001,2024-06-17_07h58.21.015,experiment,2024.1.5,Linux x86_64,60.0132029,5c90094e71f3100016181ea9,667045947eb812cbdacbf325,66704e9ee025da8cead1b81f,,,,,,,,,,,,,,,,,,,,,,,,,,,,,,,,,,,,,,,,,,,,985.6281,988.2614,1.996945858,2.6081,0,4,4,3,1,song_indices/CrazyInLove_BeyonceFtJayZ.csv,,,,,,,,,,,,,,,,,,,,,,,,,,,,
,,,,,489937,001,2024-06-17_07h58.21.015,experiment,2024.1.5,Linux x86_64,60.0132029,5c90094e71f3100016181ea9,667045947eb812cbdacbf325,66704e9ee025da8cead1b81f,,,,,,,,,,,,,,,,,,,,,,,,,,,,,,,,,,,,988.2647,995.4088,0,0,0,1,1,SoundStimuli/IWalkTheLine_JohnnyCash_Cover5S.wav,,,,,,,,,,,,,,,,,,,,,,,,,,,,,,,,,,,,,,
,,,,,489937,001,2024-06-17_07h58.21.015,experiment,2024.1.5,Linux x86_64,60.0132029,5c90094e71f3100016181ea9,667045947eb812cbdacbf325,66704e9ee025da8cead1b81f,,,,,,,,,,,,,,,,,,,,,,,,,,,,,,,,,,,,995.4304,1001.4078,0,1,1,0,1,SoundStimuli/IWalkTheLine_JohnnyCash_Original5S.wav,,,,,,,,,,,,,,,,,,,,,,,,,,,,,,,,,,,,,,
,,,,,489937,001,2024-06-17_07h58.21.015,experiment,2024.1.5,Linux x86_64,60.0132029,5c90094e71f3100016181ea9,667045947eb812cbdacbf325,66704e9ee025da8cead1b81f,,,,,,,,,,,,,,,,,,,,,,,,,,,,,,,,,,,,,,,,,,,,1001.4082,1006.0246,1.043312073,4.569,0,5,5,17,1,song_indices/IWalkTheLine_JohnnyCash.csv,,,,,,,,,,,,,,,,,,,,,,,,,,,,
,,,,,489937,001,2024-06-17_07h58.21.015,experiment,2024.1.5,Linux x86_64,60.0132029,5c90094e71f3100016181ea9,667045947eb812cbdacbf325,66704e9ee025da8cead1b81f,,,,,,,,,,,,,,,,,,,,,,,,,,,,,,,,,,,,1006.0273,1014.9384,0,0,0,1,1,SoundStimuli/HeyYa_Outkast_Cover5S.wav,,,,,,,,,,,,,,,,,,,,,,,,,,,,,,,,,,,,,,
,,,,,489937,001,2024-06-17_07h58.21.015,experiment,2024.1.5,Linux x86_64,60.0132029,5c90094e71f3100016181ea9,667045947eb812cbdacbf325,66704e9ee025da8cead1b81f,,,,,,,,,,,,,,,,,,,,,,,,,,,,,,,,,,,,1014.9599,1021.2538,0,1,1,0,1,SoundStimuli/HeyYa_Outkast_Original5S.wav,,,,,,,,,,,,,,,,,,,,,,,,,,,,,,,,,,,,,,
,,,,,489937,001,2024-06-17_07h58.21.015,experiment,2024.1.5,Linux x86_64,60.0132029,5c90094e71f3100016181ea9,667045947eb812cbdacbf325,66704e9ee025da8cead1b81f,,,,,,,,,,,,,,,,,,,,,,,,,,,,,,,,,,,,,,,,,,,,1021.2549,1022.7881,1.020455122,1.5039,0,6,6,22,1,song_indices/HeyYa_Outkast.csv,,,,,,,,,,,,,,,,,,,,,,,,,,,,
,,,,,489937,001,2024-06-17_07h58.21.015,experiment,2024.1.5,Linux x86_64,60.0132029,5c90094e71f3100016181ea9,667045947eb812cbdacbf325,66704e9ee025da8cead1b81f,,,,,,,,,,,,,,,,,,,,,,,,,,,,,,,,,,,,1022.7921,1029.1188,0,0,0,1,1,SoundStimuli/Stronger_KanyeWest_Cover5S.wav,,,,,,,,,,,,,,,,,,,,,,,,,,,,,,,,,,,,,,
,,,,,489937,001,2024-06-17_07h58.21.015,experiment,2024.1.5,Linux x86_64,60.0132029,5c90094e71f3100016181ea9,667045947eb812cbdacbf325,66704e9ee025da8cead1b81f,,,,,,,,,,,,,,,,,,,,,,,,,,,,,,,,,,,,1029.1422,1035.2015,0,1,1,0,1,SoundStimuli/Stronger_KanyeWest_Original5S.wav,,,,,,,,,,,,,,,,,,,,,,,,,,,,,,,,,,,,,,
,,,,,489937,001,2024-06-17_07h58.21.015,experiment,2024.1.5,Linux x86_64,60.0132029,5c90094e71f3100016181ea9,667045947eb812cbdacbf325,66704e9ee025da8cead1b81f,,,,,,,,,,,,,,,,,,,,,,,,,,,,,,,,,,,,,,,,,,,,1035.2019,1039.2507,1.09196496,4.0047,0,7,7,9,1,song_indices/Stronger_KanyeWest.csv,,,,,,,,,,,,,,,,,,,,,,,,,,,,
,,,,,489937,001,2024-06-17_07h58.21.015,experiment,2024.1.5,Linux x86_64,60.0132029,5c90094e71f3100016181ea9,667045947eb812cbdacbf325,66704e9ee025da8cead1b81f,,,,,,,,,,,,,,,,,,,,,,,,,,,,,,,,,,,,1039.253,1045.3164,0,0,0,0,1,SoundStimuli/GoodGollyMissMolly_LittleRichard_Original5S.wav,,,,,,,,,,,,,,,,,,,,,,,,,,,,,,,,,,,,,,
,,,,,489937,001,2024-06-17_07h58.21.015,experiment,2024.1.5,Linux x86_64,60.0132029,5c90094e71f3100016181ea9,667045947eb812cbdacbf325,66704e9ee025da8cead1b81f,,,,,,,,,,,,,,,,,,,,,,,,,,,,,,,,,,,,1045.338,1051.6975,0,1,1,1,1,SoundStimuli/GoodGollyMissMolly_LittleRichard_Cover5S.wav,,,,,,,,,,,,,,,,,,,,,,,,,,,,,,,,,,,,,,
,,,,,489937,001,2024-06-17_07h58.21.015,experiment,2024.1.5,Linux x86_64,60.0132029,5c90094e71f3100016181ea9,667045947eb812cbdacbf325,66704e9ee025da8cead1b81f,,,,,,,,,,,,,,,,,,,,,,,,,,,,,,,,,,,,,,,,,,,,1051.6979,1053.7641,3.97164011,2.0379,0,8,8,0,1,song_indices/GoodGollyMissMolly_LittleRichard.csv,,,,,,,,,,,,,,,,,,,,,,,,,,,,
,,,,,489937,001,2024-06-17_07h58.21.015,experiment,2024.1.5,Linux x86_64,60.0132029,5c90094e71f3100016181ea9,667045947eb812cbdacbf325,66704e9ee025da8cead1b81f,,,,,,,,,,,,,,,,,,,,,,,,,,,,,,,,,,,,1053.7671,1060.5458,0,0,0,1,1,SoundStimuli/PartyRockAnthem_LMFAO_Cover5S.wav,,,,,,,,,,,,,,,,,,,,,,,,,,,,,,,,,,,,,,
,,,,,489937,001,2024-06-17_07h58.21.015,experiment,2024.1.5,Linux x86_64,60.0132029,5c90094e71f3100016181ea9,667045947eb812cbdacbf325,66704e9ee025da8cead1b81f,,,,,,,,,,,,,,,,,,,,,,,,,,,,,,,,,,,,1060.5672,1067.3112,0,1,1,0,1,SoundStimuli/PartyRockAnthem_LMFAO_Original5S.wav,,,,,,,,,,,,,,,,,,,,,,,,,,,,,,,,,,,,,,
,,,,,489937,001,2024-06-17_07h58.21.015,experiment,2024.1.5,Linux x86_64,60.0132029,5c90094e71f3100016181ea9,667045947eb812cbdacbf325,66704e9ee025da8cead1b81f,,,,,,,,,,,,,,,,,,,,,,,,,,,,,,,,,,,,,,,,,,,,1067.3116,1068.8777,4.016637802,1.5424,0,9,9,2,1,song_indices/PartyRockAnthem_LMFAO.csv,,,,,,,,,,,,,,,,,,,,,,,,,,,,
,,,,,489937,001,2024-06-17_07h58.21.015,experiment,2024.1.5,Linux x86_64,60.0132029,5c90094e71f3100016181ea9,667045947eb812cbdacbf325,66704e9ee025da8cead1b81f,,,,,,,,,,,,,,,,,,,,,,,,,,,,,,,,,,,,1068.8807,1075.1932,0,0,0,1,1,SoundStimuli/ShapeofYou_EdSheeran_Cover5S.wav,,,,,,,,,,,,,,,,,,,,,,,,,,,,,,,,,,,,,,
,,,,,489937,001,2024-06-17_07h58.21.015,experiment,2024.1.5,Linux x86_64,60.0132029,5c90094e71f3100016181ea9,667045947eb812cbdacbf325,66704e9ee025da8cead1b81f,,,,,,,,,,,,,,,,,,,,,,,,,,,,,,,,,,,,1075.2145,1081.675,0,1,1,0,1,SoundStimuli/ShapeofYou_EdSheeran_Original5S.wav,,,,,,,,,,,,,,,,,,,,,,,,,,,,,,,,,,,,,,
,,,,,489937,001,2024-06-17_07h58.21.015,experiment,2024.1.5,Linux x86_64,60.0132029,5c90094e71f3100016181ea9,667045947eb812cbdacbf325,66704e9ee025da8cead1b81f,,,,,,,,,,,,,,,,,,,,,,,,,,,,,,,,,,,,,,,,,,,,1081.6753,1083.3746,4.016637802,1.6736,0,10,10,21,1,song_indices/ShapeofYou_EdSheeran.csv,,,,,,,,,,,,,,,,,,,,,,,,,,,,
,,,,,489937,001,2024-06-17_07h58.21.015,experiment,2024.1.5,Linux x86_64,60.0132029,5c90094e71f3100016181ea9,667045947eb812cbdacbf325,66704e9ee025da8cead1b81f,,,,,,,,,,,,,,,,,,,,,,,,,,,,,,,,,,,,1083.3782,1089.5906,0,0,0,0,1,SoundStimuli/BetteDavisEyes_KimCarnes_Original5S.wav,,,,,,,,,,,,,,,,,,,,,,,,,,,,,,,,,,,,,,
,,,,,489937,001,2024-06-17_07h58.21.015,experiment,2024.1.5,Linux x86_64,60.0132029,5c90094e71f3100016181ea9,667045947eb812cbdacbf325,66704e9ee025da8cead1b81f,,,,,,,,,,,,,,,,,,,,,,,,,,,,,,,,,,,,1089.6118,1095.3057,0,1,1,1,1,SoundStimuli/BetteDavisEyes_KimCarnes_Cover5S.wav,,,,,,,,,,,,,,,,,,,,,,,,,,,,,,,,,,,,,,
,,,,,489937,001,2024-06-17_07h58.21.015,experiment,2024.1.5,Linux x86_64,60.0132029,5c90094e71f3100016181ea9,667045947eb812cbdacbf325,66704e9ee025da8cead1b81f,,,,,,,,,,,,,,,,,,,,,,,,,,,,,,,,,,,,,,,,,,,,1095.3061,1099.7256,5.079391003,4.376,0,11,11,5,1,song_indices/BetteDavisEyes_KimCarnes.csv,,,,,,,,,,,,,,,,,,,,,,,,,,,,
,,,,,489937,001,2024-06-17_07h58.21.015,experiment,2024.1.5,Linux x86_64,60.0132029,5c90094e71f3100016181ea9,667045947eb812cbdacbf325,66704e9ee025da8cead1b81f,,,,,,,,,,,,,,,,,,,,,,,,,,,,,,,,,,,,1099.728,1105.8539,0,0,0,1,1,SoundStimuli/NoScrubs_TLC_Cover5S.wav,,,,,,,,,,,,,,,,,,,,,,,,,,,,,,,,,,,,,,
,,,,,489937,001,2024-06-17_07h58.21.015,experiment,2024.1.5,Linux x86_64,60.0132029,5c90094e71f3100016181ea9,667045947eb812cbdacbf325,66704e9ee025da8cead1b81f,,,,,,,,,,,,,,,,,,,,,,,,,,,,,,,,,,,,1105.8762,1112.0691,0,1,1,0,1,SoundStimuli/NoScrubs_TLC_Original5S.wav,,,,,,,,,,,,,,,,,,,,,,,,,,,,,,,,,,,,,,
,,,,,489937,001,2024-06-17_07h58.21.015,experiment,2024.1.5,Linux x86_64,60.0132029,5c90094e71f3100016181ea9,667045947eb812cbdacbf325,66704e9ee025da8cead1b81f,,,,,,,,,,,,,,,,,,,,,,,,,,,,,,,,,,,,,,,,,,,,1112.0695,1113.7687,6.001627445,1.6734,0,12,12,14,1,song_indices/NoScrubs_TLC.csv,,,,,,,,,,,,,,,,,,,,,,,,,,,,
,,,,,489937,001,2024-06-17_07h58.21.015,experiment,2024.1.5,Linux x86_64,60.0132029,5c90094e71f3100016181ea9,667045947eb812cbdacbf325,66704e9ee025da8cead1b81f,,,,,,,,,,,,,,,,,,,,,,,,,,,,,,,,,,,,1113.772,1119.7012,0,0,0,0,1,SoundStimuli/StandByMe_BenEKing_Original5S.wav,,,,,,,,,,,,,,,,,,,,,,,,,,,,,,,,,,,,,,
,,,,,489937,001,2024-06-17_07h58.21.015,experiment,2024.1.5,Linux x86_64,60.0132029,5c90094e71f3100016181ea9,667045947eb812cbdacbf325,66704e9ee025da8cead1b81f,,,,,,,,,,,,,,,,,,,,,,,,,,,,,,,,,,,,1119.7225,1125.7498,0,1,1,1,1,SoundStimuli/StandByMe_BenEKing_Cover5S.wav,,,,,,,,,,,,,,,,,,,,,,,,,,,,,,,,,,,,,,
,,,,,489937,001,2024-06-17_07h58.21.015,experiment,2024.1.5,Linux x86_64,60.0132029,5c90094e71f3100016181ea9,667045947eb812cbdacbf325,66704e9ee025da8cead1b81f,,,,,,,,,,,,,,,,,,,,,,,,,,,,,,,,,,,,,,,,,,,,1125.7501,1127.833,4.032232761,2.04,0,13,13,1,1,song_indices/StandByMe_BenEKing.csv,,,,,,,,,,,,,,,,,,,,,,,,,,,,
,,,,,489937,001,2024-06-17_07h58.21.015,experiment,2024.1.5,Linux x86_64,60.0132029,5c90094e71f3100016181ea9,667045947eb812cbdacbf325,66704e9ee025da8cead1b81f,,,,,,,,,,,,,,,,,,,,,,,,,,,,,,,,,,,,1127.8357,1135.5646,0,0,0,0,1,SoundStimuli/NoOne_AliciaKeys_Original5S.wav,,,,,,,,,,,,,,,,,,,,,,,,,,,,,,,,,,,,,,
,,,,,489937,001,2024-06-17_07h58.21.015,experiment,2024.1.5,Linux x86_64,60.0132029,5c90094e71f3100016181ea9,667045947eb812cbdacbf325,66704e9ee025da8cead1b81f,,,,,,,,,,,,,,,,,,,,,,,,,,,,,,,,,,,,1135.586,1141.8134,0,1,1,1,1,SoundStimuli/NoOne_AliciaKeys_Cover5S.wav,,,,,,,,,,,,,,,,,,,,,,,,,,,,,,,,,,,,,,
,,,,,489937,001,2024-06-17_07h58.21.015,experiment,2024.1.5,Linux x86_64,60.0132029,5c90094e71f3100016181ea9,667045947eb812cbdacbf325,66704e9ee025da8cead1b81f,,,,,,,,,,,,,,,,,,,,,,,,,,,,,,,,,,,,,,,,,,,,1141.8138,1144.1295,1.967172384,2.2907,0,14,14,19,1,song_indices/NoOne_AliciaKeys.csv,,,,,,,,,,,,,,,,,,,,,,,,,,,,
,,,,,489937,001,2024-06-17_07h58.21.015,experiment,2024.1.5,Linux x86_64,60.0132029,5c90094e71f3100016181ea9,667045947eb812cbdacbf325,66704e9ee025da8cead1b81f,,,,,,,,,,,,,,,,,,,,,,,,,,,,,,,,,,,,1144.134,1151.4947,0,0,0,0,1,SoundStimuli/Happy_PharellWilliams_Original5S.wav,,,,,,,,,,,,,,,,,,,,,,,,,,,,,,,,,,,,,,
,,,,,489937,001,2024-06-17_07h58.21.015,experiment,2024.1.5,Linux x86_64,60.0132029,5c90094e71f3100016181ea9,667045947eb812cbdacbf325,66704e9ee025da8cead1b81f,,,,,,,,,,,,,,,,,,,,,,,,,,,,,,,,,,,,1151.5156,1158.8765,0,1,1,1,1,SoundStimuli/Happy_PharellWilliams_Cover5S.wav,,,,,,,,,,,,,,,,,,,,,,,,,,,,,,,,,,,,,,
,,,,,489937,001,2024-06-17_07h58.21.015,experiment,2024.1.5,Linux x86_64,60.0132029,5c90094e71f3100016181ea9,667045947eb812cbdacbf325,66704e9ee025da8cead1b81f,,,,,,,,,,,,,,,,,,,,,,,,,,,,,,,,,,,,,,,,,,,,1158.8769,1160.243,2.113796949,1.3402,0,15,15,7,1,song_indices/Happy_PharellWilliams.csv,,,,,,,,,,,,,,,,,,,,,,,,,,,,
,,,,,489937,001,2024-06-17_07h58.21.015,experiment,2024.1.5,Linux x86_64,60.0132029,5c90094e71f3100016181ea9,667045947eb812cbdacbf325,66704e9ee025da8cead1b81f,,,,,,,,,,,,,,,,,,,,,,,,,,,,,,,,,,,,1160.246,1166.4584,0,0,0,0,1,SoundStimuli/TheBoyIsMine_BrandyMonica_Original5S.wav,,,,,,,,,,,,,,,,,,,,,,,,,,,,,,,,,,,,,,
,,,,,489937,001,2024-06-17_07h58.21.015,experiment,2024.1.5,Linux x86_64,60.0132029,5c90094e71f3100016181ea9,667045947eb812cbdacbf325,66704e9ee025da8cead1b81f,,,,,,,,,,,,,,,,,,,,,,,,,,,,,,,,,,,,1166.4799,1172.424,0,1,1,1,1,SoundStimuli/TheBoyIsMine_BrandyMonica_Cover5S.wav,,,,,,,,,,,,,,,,,,,,,,,,,,,,,,,,,,,,,,
,,,,,489937,001,2024-06-17_07h58.21.015,experiment,2024.1.5,Linux x86_64,60.0132029,5c90094e71f3100016181ea9,667045947eb812cbdacbf325,66704e9ee025da8cead1b81f,,,,,,,,,,,,,,,,,,,,,,,,,,,,,,,,,,,,,,,,,,,,1172.4244,1176.4117,5.031480312,3.9447,0,16,16,6,1,song_indices/TheBoyIsMine_BrandyMonica.csv,,,,,,,,,,,,,,,,,,,,,,,,,,,,
,,,,,489937,001,2024-06-17_07h58.21.015,experiment,2024.1.5,Linux x86_64,60.0132029,5c90094e71f3100016181ea9,667045947eb812cbdacbf325,66704e9ee025da8cead1b81f,,,,,,,,,,,,,,,,,,,,,,,,,,,,,,,,,,,,1176.414,1182.6221,0,0,0,1,1,SoundStimuli/GimmeShelter_RollingStones_Cover5S.wav,,,,,,,,,,,,,,,,,,,,,,,,,,,,,,,,,,,,,,
,,,,,489937,001,2024-06-17_07h58.21.015,experiment,2024.1.5,Linux x86_64,60.0132029,5c90094e71f3100016181ea9,667045947eb812cbdacbf325,66704e9ee025da8cead1b81f,,,,,,,,,,,,,,,,,,,,,,,,,,,,,,,,,,,,1182.644,1188.7377,0,1,1,0,1,SoundStimuli/GimmeShelter_RollingStones_Original5S.wav,,,,,,,,,,,,,,,,,,,,,,,,,,,,,,,,,,,,,,
,,,,,489937,001,2024-06-17_07h58.21.015,experiment,2024.1.5,Linux x86_64,60.0132029,5c90094e71f3100016181ea9,667045947eb812cbdacbf325,66704e9ee025da8cead1b81f,,,,,,,,,,,,,,,,,,,,,,,,,,,,,,,,,,,,,,,,,,,,1188.7382,1191.0201,6.959218979,2.2554,0,17,17,20,1,song_indices/GimmeShelter_RollingStones.csv,,,,,,,,,,,,,,,,,,,,,,,,,,,,
,,,,,489937,001,2024-06-17_07h58.21.015,experiment,2024.1.5,Linux x86_64,60.0132029,5c90094e71f3100016181ea9,667045947eb812cbdacbf325,66704e9ee025da8cead1b81f,,,,,,,,,,,,,,,,,,,,,,,,,,,,,,,,,,,,1191.023,1199.0021,0,0,0,1,1,SoundStimuli/TheBattleOfNewOrleans_JohnnyHorton_Cover5S.wav,,,,,,,,,,,,,,,,,,,,,,,,,,,,,,,,,,,,,,
,,,,,489937,001,2024-06-17_07h58.21.015,experiment,2024.1.5,Linux x86_64,60.0132029,5c90094e71f3100016181ea9,667045947eb812cbdacbf325,66704e9ee025da8cead1b81f,,,,,,,,,,,,,,,,,,,,,,,,,,,,,,,,,,,,1199.0247,1205.2341,0,1,1,0,1,SoundStimuli/TheBattleOfNewOrleans_JohnnyHorton_Original5S.wav,,,,,,,,,,,,,,,,,,,,,,,,,,,,,,,,,,,,,,
,,,,,489937,001,2024-06-17_07h58.21.015,experiment,2024.1.5,Linux x86_64,60.0132029,5c90094e71f3100016181ea9,667045947eb812cbdacbf325,66704e9ee025da8cead1b81f,,,,,,,,,,,,,,,,,,,,,,,,,,,,,,,,,,,,,,,,,,,,1205.2344,1212.7351,1.982820272,7.4564,0,18,18,4,1,song_indices/TheBattleOfNewOrleans_JohnnyHorton.csv,,,,,,,,,,,,,,,,,,,,,,,,,,,,
,,,,,489937,001,2024-06-17_07h58.21.015,experiment,2024.1.5,Linux x86_64,60.0132029,5c90094e71f3100016181ea9,667045947eb812cbdacbf325,66704e9ee025da8cead1b81f,,,,,,,,,,,,,,,,,,,,,,,,,,,,,,,,,,,,1212.7379,1219.7646,0,0,0,1,1,SoundStimuli/UptownFunk_MarkRonson_Cover5S.wav,,,,,,,,,,,,,,,,,,,,,,,,,,,,,,,,,,,,,,
,,,,,489937,001,2024-06-17_07h58.21.015,experiment,2024.1.5,Linux x86_64,60.0132029,5c90094e71f3100016181ea9,667045947eb812cbdacbf325,66704e9ee025da8cead1b81f,,,,,,,,,,,,,,,,,,,,,,,,,,,,,,,,,,,,1219.7859,1227.0133,0,1,1,0,1,SoundStimuli/UptownFunk_MarkRonson_Original5S.wav,,,,,,,,,,,,,,,,,,,,,,,,,,,,,,,,,,,,,,
,,,,,489937,001,2024-06-17_07h58.21.015,experiment,2024.1.5,Linux x86_64,60.0132029,5c90094e71f3100016181ea9,667045947eb812cbdacbf325,66704e9ee025da8cead1b81f,,,,,,,,,,,,,,,,,,,,,,,,,,,,,,,,,,,,,,,,,,,,1227.0137,1229.2125,5.022672176,2.1725,0,19,19,15,1,song_indices/UptownFunk_MarkRonson.csv,,,,,,,,,,,,,,,,,,,,,,,,,,,,
,,,,,489937,001,2024-06-17_07h58.21.015,experiment,2024.1.5,Linux x86_64,60.0132029,5c90094e71f3100016181ea9,667045947eb812cbdacbf325,66704e9ee025da8cead1b81f,,,,,,,,,,,,,,,,,,,,,,,,,,,,,,,,,,,,1229.2171,1235.4782,0,0,0,0,1,SoundStimuli/ItsAllInTheGame_TommyEdwards_Original5S.wav,,,,,,,,,,,,,,,,,,,,,,,,,,,,,,,,,,,,,,
,,,,,489937,001,2024-06-17_07h58.21.015,experiment,2024.1.5,Linux x86_64,60.0132029,5c90094e71f3100016181ea9,667045947eb812cbdacbf325,66704e9ee025da8cead1b81f,,,,,,,,,,,,,,,,,,,,,,,,,,,,,,,,,,,,1235.4996,1241.7436,0,1,1,1,1,SoundStimuli/ItsAllInTheGame_TommyEdwards_Cover5S.wav,,,,,,,,,,,,,,,,,,,,,,,,,,,,,,,,,,,,,,
,,,,,489937,001,2024-06-17_07h58.21.015,experiment,2024.1.5,Linux x86_64,60.0132029,5c90094e71f3100016181ea9,667045947eb812cbdacbf325,66704e9ee025da8cead1b81f,,,,,,,,,,,,,,,,,,,,,,,,,,,,,,,,,,,,,,,,,,,,1241.744,1244.7073,6.058539867,2.9213,0,20,20,13,1,song_indices/ItsAllInTheGame_TommyEdwards.csv,,,,,,,,,,,,,,,,,,,,,,,,,,,,
,,,,,489937,001,2024-06-17_07h58.21.015,experiment,2024.1.5,Linux x86_64,60.0132029,5c90094e71f3100016181ea9,667045947eb812cbdacbf325,66704e9ee025da8cead1b81f,,,,,,,,,,,,,,,,,,,,,,,,,,,,,,,,,,,,1244.7101,1251.2916,0,0,0,1,1,SoundStimuli/GetUrFreakOn_MissyElliot_Cover5S.wav,,,,,,,,,,,,,,,,,,,,,,,,,,,,,,,,,,,,,,
,,,,,489937,001,2024-06-17_07h58.21.015,experiment,2024.1.5,Linux x86_64,60.0132029,5c90094e71f3100016181ea9,667045947eb812cbdacbf325,66704e9ee025da8cead1b81f,,,,,,,,,,,,,,,,,,,,,,,,,,,,,,,,,,,,1251.3124,1257.3904,0,1,1,0,1,SoundStimuli/GetUrFreakOn_MissyElliot_Original5S.wav,,,,,,,,,,,,,,,,,,,,,,,,,,,,,,,,,,,,,,
,,,,,489937,001,2024-06-17_07h58.21.015,experiment,2024.1.5,Linux x86_64,60.0132029,5c90094e71f3100016181ea9,667045947eb812cbdacbf325,66704e9ee025da8cead1b81f,,,,,,,,,,,,,,,,,,,,,,,,,,,,,,,,,,,,,,,,,,,,1257.3908,1260.3198,1.213296175,2.8848,0,21,21,18,1,song_indices/GetUrFreakOn_MissyElliot.csv,,,,,,,,,,,,,,,,,,,,,,,,,,,,
,,,,,489937,001,2024-06-17_07h58.21.015,experiment,2024.1.5,Linux x86_64,60.0132029,5c90094e71f3100016181ea9,667045947eb812cbdacbf325,66704e9ee025da8cead1b81f,,,,,,,,,,,,,,,,,,,,,,,,,,,,,,,,,,,,1260.3225,1266.2057,0,0,0,0,1,SoundStimuli/EyeOfTheTiger_Survivor_Original5S.wav,,,,,,,,,,,,,,,,,,,,,,,,,,,,,,,,,,,,,,
,,,,,489937,001,2024-06-17_07h58.21.015,experiment,2024.1.5,Linux x86_64,60.0132029,5c90094e71f3100016181ea9,667045947eb812cbdacbf325,66704e9ee025da8cead1b81f,,,,,,,,,,,,,,,,,,,,,,,,,,,,,,,,,,,,1266.2269,1272.3541,0,1,1,1,1,SoundStimuli/EyeOfTheTiger_Survivor_Cover5S.wav,,,,,,,,,,,,,,,,,,,,,,,,,,,,,,,,,,,,,,
,,,,,489937,001,2024-06-17_07h58.21.015,experiment,2024.1.5,Linux x86_64,60.0132029,5c90094e71f3100016181ea9,667045947eb812cbdacbf325,66704e9ee025da8cead1b81f,,,,,,,,,,,,,,,,,,,,,,,,,,,,,,,,,,,,,,,,,,,,1272.3546,1274.5202,6.812329292,2.1414,0,22,22,11,1,song_indices/EyeOfTheTiger_Survivor.csv,,,,,,,,,,,,,,,,,,,,,,,,,,,,
,,,,,489937,001,2024-06-17_07h58.21.015,experiment,2024.1.5,Linux x86_64,60.0132029,5c90094e71f3100016181ea9,667045947eb812cbdacbf325,66704e9ee025da8cead1b81f,,,,,,,,,,,,,,,,,,,,,,,,,,,,,,,,,,,,,,,,,,,,,,,,,,,,,,1274.5204,1388.9169,space,114.3848,,0,1,1,1,1,choose_song_b2.csv,,,,,,,,,,,,,,,,,
,,,,,489937,001,2024-06-17_07h58.21.015,experiment,2024.1.5,Linux x86_64,60.0132029,5c90094e71f3100016181ea9,667045947eb812cbdacbf325,66704e9ee025da8cead1b81f,,,,,,,,,,,,,,,,,,,,,,,,,,,,,,,,,,,,1388.9249,1394.2304,0,0,0,1,1,SoundStimuli/Superstition_StevieWonder_Cover5S.wav,,,,,,,,,,,,,,,,,,,,,,,,,,,,,,,,,,,,,,
,,,,,489937,001,2024-06-17_07h58.21.015,experiment,2024.1.5,Linux x86_64,60.0132029,5c90094e71f3100016181ea9,667045947eb812cbdacbf325,66704e9ee025da8cead1b81f,,,,,,,,,,,,,,,,,,,,,,,,,,,,,,,,,,,,1394.2523,1400.3955,0,1,1,0,1,SoundStimuli/Superstition_StevieWonder_Original5S.wav,,,,,,,,,,,,,,,,,,,,,,,,,,,,,,,,,,,,,,
,,,,,489937,001,2024-06-17_07h58.21.015,experiment,2024.1.5,Linux x86_64,60.0132029,5c90094e71f3100016181ea9,667045947eb812cbdacbf325,66704e9ee025da8cead1b81f,,,,,,,,,,,,,,,,,,,,,,,,,,,,,,,,,,,,,,,,,,,,1400.3959,1402.3135,1.998476744,1.8948,0,0,0,15,1,song_indices/Superstition_StevieWonder.csv,,,,,,,,,,,,,,,,,,,,,,,,,,,,
,,,,,489937,001,2024-06-17_07h58.21.015,experiment,2024.1.5,Linux x86_64,60.0132029,5c90094e71f3100016181ea9,667045947eb812cbdacbf325,66704e9ee025da8cead1b81f,,,,,,,,,,,,,,,,,,,,,,,,,,,,,,,,,,,,1402.3164,1408.4278,0,0,0,1,1,SoundStimuli/TossinAndTurnin_BobbyLewis_Cover5S.wav,,,,,,,,,,,,,,,,,,,,,,,,,,,,,,,,,,,,,,
,,,,,489937,001,2024-06-17_07h58.21.015,experiment,2024.1.5,Linux x86_64,60.0132029,5c90094e71f3100016181ea9,667045947eb812cbdacbf325,66704e9ee025da8cead1b81f,,,,,,,,,,,,,,,,,,,,,,,,,,,,,,,,,,,,1408.4491,1414.5097,0,1,1,0,1,SoundStimuli/TossinAndTurnin_BobbyLewis_Original5S.wav,,,,,,,,,,,,,,,,,,,,,,,,,,,,,,,,,,,,,,
,,,,,489937,001,2024-06-17_07h58.21.015,experiment,2024.1.5,Linux x86_64,60.0132029,5c90094e71f3100016181ea9,667045947eb812cbdacbf325,66704e9ee025da8cead1b81f,,,,,,,,,,,,,,,,,,,,,,,,,,,,,,,,,,,,,,,,,,,,1414.5102,1416.4426,2.94543314,1.9074,0,1,1,13,1,song_indices/TossinAndTurnin_BobbyLewis.csv,,,,,,,,,,,,,,,,,,,,,,,,,,,,
,,,,,489937,001,2024-06-17_07h58.21.015,experiment,2024.1.5,Linux x86_64,60.0132029,5c90094e71f3100016181ea9,667045947eb812cbdacbf325,66704e9ee025da8cead1b81f,,,,,,,,,,,,,,,,,,,,,,,,,,,,,,,,,,,,1416.4454,1423.7245,0,0,0,1,1,SoundStimuli/FlashdanceWhatAFeeling_IreneCara_Cover5S.wav,,,,,,,,,,,,,,,,,,,,,,,,,,,,,,,,,,,,,,
,,,,,489937,001,2024-06-17_07h58.21.015,experiment,2024.1.5,Linux x86_64,60.0132029,5c90094e71f3100016181ea9,667045947eb812cbdacbf325,66704e9ee025da8cead1b81f,,,,,,,,,,,,,,,,,,,,,,,,,,,,,,,,,,,,1423.7464,1430.1408,0,1,1,0,1,SoundStimuli/FlashdanceWhatAFeeling_IreneCara_Original5S.wav,,,,,,,,,,,,,,,,,,,,,,,,,,,,,,,,,,,,,,
,,,,,489937,001,2024-06-17_07h58.21.015,experiment,2024.1.5,Linux x86_64,60.0132029,5c90094e71f3100016181ea9,667045947eb812cbdacbf325,66704e9ee025da8cead1b81f,,,,,,,,,,,,,,,,,,,,,,,,,,,,,,,,,,,,,,,,,,,,1430.1412,1432.5726,6.960187912,2.4069,0,2,2,18,1,song_indices/FlashdanceWhatAFeeling_IreneCara.csv,,,,,,,,,,,,,,,,,,,,,,,,,,,,
,,,,,489937,001,2024-06-17_07h58.21.015,experiment,2024.1.5,Linux x86_64,60.0132029,5c90094e71f3100016181ea9,667045947eb812cbdacbf325,66704e9ee025da8cead1b81f,,,,,,,,,,,,,,,,,,,,,,,,,,,,,,,,,,,,1432.5763,1439.6714,0,0,0,1,1,SoundStimuli/BlurredLines_RobinThicke_Cover5S.wav,,,,,,,,,,,,,,,,,,,,,,,,,,,,,,,,,,,,,,
,,,,,489937,001,2024-06-17_07h58.21.015,experiment,2024.1.5,Linux x86_64,60.0132029,5c90094e71f3100016181ea9,667045947eb812cbdacbf325,66704e9ee025da8cead1b81f,,,,,,,,,,,,,,,,,,,,,,,,,,,,,,,,,,,,1439.694,1446.4533,0,1,1,0,1,SoundStimuli/BlurredLines_RobinThicke_Original5S.wav,,,,,,,,,,,,,,,,,,,,,,,,,,,,,,,,,,,,,,
,,,,,489937,001,2024-06-17_07h58.21.015,experiment,2024.1.5,Linux x86_64,60.0132029,5c90094e71f3100016181ea9,667045947eb812cbdacbf325,66704e9ee025da8cead1b81f,,,,,,,,,,,,,,,,,,,,,,,,,,,,,,,,,,,,,,,,,,,,1446.4536,1448.3217,3.041475296,1.8402,0,3,3,9,1,song_indices/BlurredLines_RobinThicke.csv,,,,,,,,,,,,,,,,,,,,,,,,,,,,
,,,,,489937,001,2024-06-17_07h58.21.015,experiment,2024.1.5,Linux x86_64,60.0132029,5c90094e71f3100016181ea9,667045947eb812cbdacbf325,66704e9ee025da8cead1b81f,,,,,,,,,,,,,,,,,,,,,,,,,,,,,,,,,,,,1448.3247,1455.3849,0,0,0,1,1,SoundStimuli/ComeAndGetYourLove_Redbone_Cover5S.wav,,,,,,,,,,,,,,,,,,,,,,,,,,,,,,,,,,,,,,
,,,,,489937,001,2024-06-17_07h58.21.015,experiment,2024.1.5,Linux x86_64,60.0132029,5c90094e71f3100016181ea9,667045947eb812cbdacbf325,66704e9ee025da8cead1b81f,,,,,,,,,,,,,,,,,,,,,,,,,,,,,,,,,,,,1455.4065,1461.5172,0,1,1,0,1,SoundStimuli/ComeAndGetYourLove_Redbone_Original5S.wav,,,,,,,,,,,,,,,,,,,,,,,,,,,,,,,,,,,,,,
,,,,,489937,001,2024-06-17_07h58.21.015,experiment,2024.1.5,Linux x86_64,60.0132029,5c90094e71f3100016181ea9,667045947eb812cbdacbf325,66704e9ee025da8cead1b81f,,,,,,,,,,,,,,,,,,,,,,,,,,,,,,,,,,,,,,,,,,,,1461.5177,1463.817,5.046209335,2.2736,0,4,4,22,1,song_indices/ComeAndGetYourLove_Redbone.csv,,,,,,,,,,,,,,,,,,,,,,,,,,,,
,,,,,489937,001,2024-06-17_07h58.21.015,experiment,2024.1.5,Linux x86_64,60.0132029,5c90094e71f3100016181ea9,667045947eb812cbdacbf325,66704e9ee025da8cead1b81f,,,,,,,,,,,,,,,,,,,,,,,,,,,,,,,,,,,,1463.8221,1469.8321,0,0,0,1,1,SoundStimuli/TheSign_AceOfBase_Cover5S.wav,,,,,,,,,,,,,,,,,,,,,,,,,,,,,,,,,,,,,,
,,,,,489937,001,2024-06-17_07h58.21.015,experiment,2024.1.5,Linux x86_64,60.0132029,5c90094e71f3100016181ea9,667045947eb812cbdacbf325,66704e9ee025da8cead1b81f,,,,,,,,,,,,,,,,,,,,,,,,,,,,,,,,,,,,1469.8532,1476.014,0,1,1,0,1,SoundStimuli/TheSign_AceOfBase_Original5S.wav,,,,,,,,,,,,,,,,,,,,,,,,,,,,,,,,,,,,,,
,,,,,489937,001,2024-06-17_07h58.21.015,experiment,2024.1.5,Linux x86_64,60.0132029,5c90094e71f3100016181ea9,667045947eb812cbdacbf325,66704e9ee025da8cead1b81f,,,,,,,,,,,,,,,,,,,,,,,,,,,,,,,,,,,,,,,,,,,,1476.0144,1478.5843,6.99459362,2.5467,0,5,5,5,1,song_indices/TheSign_AceOfBase.csv,,,,,,,,,,,,,,,,,,,,,,,,,,,,
,,,,,489937,001,2024-06-17_07h58.21.015,experiment,2024.1.5,Linux x86_64,60.0132029,5c90094e71f3100016181ea9,667045947eb812cbdacbf325,66704e9ee025da8cead1b81f,,,,,,,,,,,,,,,,,,,,,,,,,,,,,,,,,,,,1478.5871,1484.7794,0,0,0,0,1,SoundStimuli/Dilemma_NellyKellyRowland_Original5S.wav,,,,,,,,,,,,,,,,,,,,,,,,,,,,,,,,,,,,,,
,,,,,489937,001,2024-06-17_07h58.21.015,experiment,2024.1.5,Linux x86_64,60.0132029,5c90094e71f3100016181ea9,667045947eb812cbdacbf325,66704e9ee025da8cead1b81f,,,,,,,,,,,,,,,,,,,,,,,,,,,,,,,,,,,,1484.8006,1491.7949,0,1,1,1,1,SoundStimuli/Dilemma_NellyKellyRowland_Cover5S.wav,,,,,,,,,,,,,,,,,,,,,,,,,,,,,,,,,,,,,,
,,,,,489937,001,2024-06-17_07h58.21.015,experiment,2024.1.5,Linux x86_64,60.0132029,5c90094e71f3100016181ea9,667045947eb812cbdacbf325,66704e9ee025da8cead1b81f,,,,,,,,,,,,,,,,,,,,,,,,,,,,,,,,,,,,,,,,,,,,1491.7953,1494.5437,1.045969009,2.7211,0,6,6,2,1,song_indices/Dilemma_NellyKellyRowland.csv,,,,,,,,,,,,,,,,,,,,,,,,,,,,
,,,,,489937,001,2024-06-17_07h58.21.015,experiment,2024.1.5,Linux x86_64,60.0132029,5c90094e71f3100016181ea9,667045947eb812cbdacbf325,66704e9ee025da8cead1b81f,,,,,,,,,,,,,,,,,,,,,,,,,,,,,,,,,,,,1494.5469,1500.5595,0,0,0,0,1,SoundStimuli/Levitating_DuaLipa_Original5S.wav,,,,,,,,,,,,,,,,,,,,,,,,,,,,,,,,,,,,,,
,,,,,489937,001,2024-06-17_07h58.21.015,experiment,2024.1.5,Linux x86_64,60.0132029,5c90094e71f3100016181ea9,667045947eb812cbdacbf325,66704e9ee025da8cead1b81f,,,,,,,,,,,,,,,,,,,,,,,,,,,,,,,,,,,,1500.5802,1506.2914,0,1,1,1,1,SoundStimuli/Levitating_DuaLipa_Cover5S.wav,,,,,,,,,,,,,,,,,,,,,,,,,,,,,,,,,,,,,,
,,,,,489937,001,2024-06-17_07h58.21.015,experiment,2024.1.5,Linux x86_64,60.0132029,5c90094e71f3100016181ea9,667045947eb812cbdacbf325,66704e9ee025da8cead1b81f,,,,,,,,,,,,,,,,,,,,,,,,,,,,,,,,,,,,,,,,,,,,1506.2917,1507.9744,1.179075241,1.6565,0,7,7,10,1,song_indices/Levitating_DuaLipa.csv,,,,,,,,,,,,,,,,,,,,,,,,,,,,
,,,,,489937,001,2024-06-17_07h58.21.015,experiment,2024.1.5,Linux x86_64,60.0132029,5c90094e71f3100016181ea9,667045947eb812cbdacbf325,66704e9ee025da8cead1b81f,,,,,,,,,,,,,,,,,,,,,,,,,,,,,,,,,,,,1507.9776,1514.007,0,0,0,0,1,SoundStimuli/LeFreak_Chic_Original5S.wav,,,,,,,,,,,,,,,,,,,,,,,,,,,,,,,,,,,,,,
,,,,,489937,001,2024-06-17_07h58.21.015,experiment,2024.1.5,Linux x86_64,60.0132029,5c90094e71f3100016181ea9,667045947eb812cbdacbf325,66704e9ee025da8cead1b81f,,,,,,,,,,,,,,,,,,,,,,,,,,,,,,,,,,,,1514.0286,1519.539,0,1,1,1,1,SoundStimuli/LeFreak_Chic_Cover5S.wav,,,,,,,,,,,,,,,,,,,,,,,,,,,,,,,,,,,,,,
,,,,,489937,001,2024-06-17_07h58.21.015,experiment,2024.1.5,Linux x86_64,60.0132029,5c90094e71f3100016181ea9,667045947eb812cbdacbf325,66704e9ee025da8cead1b81f,,,,,,,,,,,,,,,,,,,,,,,,,,,,,,,,,,,,,,,,,,,,1519.5395,1524.5226,4.034789085,4.9407,0,8,8,11,1,song_indices/LeFreak_Chic.csv,,,,,,,,,,,,,,,,,,,,,,,,,,,,
,,,,,489937,001,2024-06-17_07h58.21.015,experiment,2024.1.5,Linux x86_64,60.0132029,5c90094e71f3100016181ea9,667045947eb812cbdacbf325,66704e9ee025da8cead1b81f,,,,,,,,,,,,,,,,,,,,,,,,,,,,,,,,,,,,1524.5256,1532.053,0,0,0,1,1,SoundStimuli/TikTok_Kesha_Cover5S.wav,,,,,,,,,,,,,,,,,,,,,,,,,,,,,,,,,,,,,,
,,,,,489937,001,2024-06-17_07h58.21.015,experiment,2024.1.5,Linux x86_64,60.0132029,5c90094e71f3100016181ea9,667045947eb812cbdacbf325,66704e9ee025da8cead1b81f,,,,,,,,,,,,,,,,,,,,,,,,,,,,,,,,,,,,1532.0753,1538.2854,0,1,1,0,1,SoundStimuli/TikTok_Kesha_Original5S.wav,,,,,,,,,,,,,,,,,,,,,,,,,,,,,,,,,,,,,,
,,,,,489937,001,2024-06-17_07h58.21.015,experiment,2024.1.5,Linux x86_64,60.0132029,5c90094e71f3100016181ea9,667045947eb812cbdacbf325,66704e9ee025da8cead1b81f,,,,,,,,,,,,,,,,,,,,,,,,,,,,,,,,,,,,,,,,,,,,1538.286,1540.685,1.053882122,2.3718,0,9,9,3,1,song_indices/TikTok_Kesha.csv,,,,,,,,,,,,,,,,,,,,,,,,,,,,
,,,,,489937,001,2024-06-17_07h58.21.015,experiment,2024.1.5,Linux x86_64,60.0132029,5c90094e71f3100016181ea9,667045947eb812cbdacbf325,66704e9ee025da8cead1b81f,,,,,,,,,,,,,,,,,,,,,,,,,,,,,,,,,,,,1540.6879,1547.7001,0,0,0,0,1,SoundStimuli/PokerFace_LadyGaga_Original5S.wav,,,,,,,,,,,,,,,,,,,,,,,,,,,,,,,,,,,,,,
,,,,,489937,001,2024-06-17_07h58.21.015,experiment,2024.1.5,Linux x86_64,60.0132029,5c90094e71f3100016181ea9,667045947eb812cbdacbf325,66704e9ee025da8cead1b81f,,,,,,,,,,,,,,,,,,,,,,,,,,,,,,,,,,,,1547.723,1554.5655,0,1,1,1,1,SoundStimuli/PokerFace_LadyGaga_Cover5S.wav,,,,,,,,,,,,,,,,,,,,,,,,,,,,,,,,,,,,,,
,,,,,489937,001,2024-06-17_07h58.21.015,experiment,2024.1.5,Linux x86_64,60.0132029,5c90094e71f3100016181ea9,667045947eb812cbdacbf325,66704e9ee025da8cead1b81f,,,,,,,,,,,,,,,,,,,,,,,,,,,,,,,,,,,,,,,,,,,,1554.5658,1566.798,1.059076548,12.1874,0,10,10,23,1,song_indices/PokerFace_LadyGaga.csv,,,,,,,,,,,,,,,,,,,,,,,,,,,,
,,,,,489937,001,2024-06-17_07h58.21.015,experiment,2024.1.5,Linux x86_64,60.0132029,5c90094e71f3100016181ea9,667045947eb812cbdacbf325,66704e9ee025da8cead1b81f,,,,,,,,,,,,,,,,,,,,,,,,,,,,,,,,,,,,1566.8011,1573.095,0,0,0,0,1,SoundStimuli/LetsGetItOn_MarvinGaye_Original5S.wav,,,,,,,,,,,,,,,,,,,,,,,,,,,,,,,,,,,,,,
,,,,,489937,001,2024-06-17_07h58.21.015,experiment,2024.1.5,Linux x86_64,60.0132029,5c90094e71f3100016181ea9,667045947eb812cbdacbf325,66704e9ee025da8cead1b81f,,,,,,,,,,,,,,,,,,,,,,,,,,,,,,,,,,,,1573.1158,1579.7608,0,1,1,1,1,SoundStimuli/LetsGetItOn_MarvinGaye_Cover5S.wav,,,,,,,,,,,,,,,,,,,,,,,,,,,,,,,,,,,,,,
,,,,,489937,001,2024-06-17_07h58.21.015,experiment,2024.1.5,Linux x86_64,60.0132029,5c90094e71f3100016181ea9,667045947eb812cbdacbf325,66704e9ee025da8cead1b81f,,,,,,,,,,,,,,,,,,,,,,,,,,,,,,,,,,,,,,,,,,,,1579.7611,1583.1937,4.031805515,3.389,0,11,11,20,1,song_indices/LetsGetItOn_MarvinGaye.csv,,,,,,,,,,,,,,,,,,,,,,,,,,,,
,,,,,489937,001,2024-06-17_07h58.21.015,experiment,2024.1.5,Linux x86_64,60.0132029,5c90094e71f3100016181ea9,667045947eb812cbdacbf325,66704e9ee025da8cead1b81f,,,,,,,,,,,,,,,,,,,,,,,,,,,,,,,,,,,,1583.1962,1589.225,0,0,0,0,1,SoundStimuli/HowDoILive_LeAnnRimes_Original5S.wav,,,,,,,,,,,,,,,,,,,,,,,,,,,,,,,,,,,,,,
,,,,,489937,001,2024-06-17_07h58.21.015,experiment,2024.1.5,Linux x86_64,60.0132029,5c90094e71f3100016181ea9,667045947eb812cbdacbf325,66704e9ee025da8cead1b81f,,,,,,,,,,,,,,,,,,,,,,,,,,,,,,,,,,,,1589.2461,1594.724,0,1,1,1,1,SoundStimuli/HowDoILive_LeAnnRimes_Cover5S.wav,,,,,,,,,,,,,,,,,,,,,,,,,,,,,,,,,,,,,,
,,,,,489937,001,2024-06-17_07h58.21.015,experiment,2024.1.5,Linux x86_64,60.0132029,5c90094e71f3100016181ea9,667045947eb812cbdacbf325,66704e9ee025da8cead1b81f,,,,,,,,,,,,,,,,,,,,,,,,,,,,,,,,,,,,,,,,,,,,1594.7243,1597.5721,5.047883034,2.8037,0,12,12,17,1,song_indices/HowDoILive_LeAnnRimes.csv,,,,,,,,,,,,,,,,,,,,,,,,,,,,
,,,,,489937,001,2024-06-17_07h58.21.015,experiment,2024.1.5,Linux x86_64,60.0132029,5c90094e71f3100016181ea9,667045947eb812cbdacbf325,66704e9ee025da8cead1b81f,,,,,,,,,,,,,,,,,,,,,,,,,,,,,,,,,,,,1597.575,1603.6389,0,0,0,1,1,SoundStimuli/Respect_ArethaFranklin_Cover5S.wav,,,,,,,,,,,,,,,,,,,,,,,,,,,,,,,,,,,,,,
,,,,,489937,001,2024-06-17_07h58.21.015,experiment,2024.1.5,Linux x86_64,60.0132029,5c90094e71f3100016181ea9,667045947eb812cbdacbf325,66704e9ee025da8cead1b81f,,,,,,,,,,,,,,,,,,,,,,,,,,,,,,,,,,,,1603.6597,1609.5877,0,1,1,0,1,SoundStimuli/Respect_ArethaFranklin_Original5S.wav,,,,,,,,,,,,,,,,,,,,,,,,,,,,,,,,,,,,,,
,,,,,489937,001,2024-06-17_07h58.21.015,experiment,2024.1.5,Linux x86_64,60.0132029,5c90094e71f3100016181ea9,667045947eb812cbdacbf325,66704e9ee025da8cead1b81f,,,,,,,,,,,,,,,,,,,,,,,,,,,,,,,,,,,,,,,,,,,,1609.588,1611.9877,1.071207762,2.3722,0,13,13,0,1,song_indices/Respect_ArethaFranklin.csv,,,,,,,,,,,,,,,,,,,,,,,,,,,,
,,,,,489937,001,2024-06-17_07h58.21.015,experiment,2024.1.5,Linux x86_64,60.0132029,5c90094e71f3100016181ea9,667045947eb812cbdacbf325,66704e9ee025da8cead1b81f,,,,,,,,,,,,,,,,,,,,,,,,,,,,,,,,,,,,1611.9909,1619.8363,0,0,0,1,1,SoundStimuli/Dreams_FleetwoodMac_Cover5S.wav,,,,,,,,,,,,,,,,,,,,,,,,,,,,,,,,,,,,,,
,,,,,489937,001,2024-06-17_07h58.21.015,experiment,2024.1.5,Linux x86_64,60.0132029,5c90094e71f3100016181ea9,667045947eb812cbdacbf325,66704e9ee025da8cead1b81f,,,,,,,,,,,,,,,,,,,,,,,,,,,,,,,,,,,,1619.8585,1626.3678,0,1,1,0,1,SoundStimuli/Dreams_FleetwoodMac_Original5S.wav,,,,,,,,,,,,,,,,,,,,,,,,,,,,,,,,,,,,,,
,,,,,489937,001,2024-06-17_07h58.21.015,experiment,2024.1.5,Linux x86_64,60.0132029,5c90094e71f3100016181ea9,667045947eb812cbdacbf325,66704e9ee025da8cead1b81f,,,,,,,,,,,,,,,,,,,,,,,,,,,,,,,,,,,,,,,,,,,,1626.3679,1629.2817,1.063035488,2.8713,0,14,14,1,1,song_indices/Dreams_FleetwoodMac.csv,,,,,,,,,,,,,,,,,,,,,,,,,,,,
,,,,,489937,001,2024-06-17_07h58.21.015,experiment,2024.1.5,Linux x86_64,60.0132029,5c90094e71f3100016181ea9,667045947eb812cbdacbf325,66704e9ee025da8cead1b81f,,,,,,,,,,,,,,,,,,,,,,,,,,,,,,,,,,,,1629.2841,1635.3496,0,0,0,0,1,SoundStimuli/YouLightUpMyLife_DebbyBoone_Original5S.wav,,,,,,,,,,,,,,,,,,,,,,,,,,,,,,,,,,,,,,
,,,,,489937,001,2024-06-17_07h58.21.015,experiment,2024.1.5,Linux x86_64,60.0132029,5c90094e71f3100016181ea9,667045947eb812cbdacbf325,66704e9ee025da8cead1b81f,,,,,,,,,,,,,,,,,,,,,,,,,,,,,,,,,,,,1635.3703,1641.8154,0,1,1,1,1,SoundStimuli/YouLightUpMyLife_DebbyBoone_Cover5S.wav,,,,,,,,,,,,,,,,,,,,,,,,,,,,,,,,,,,,,,
,,,,,489937,001,2024-06-17_07h58.21.015,experiment,2024.1.5,Linux x86_64,60.0132029,5c90094e71f3100016181ea9,667045947eb812cbdacbf325,66704e9ee025da8cead1b81f,,,,,,,,,,,,,,,,,,,,,,,,,,,,,,,,,,,,,,,,,,,,1641.8158,1643.8649,6.920593262,2.0231,0,15,15,4,1,song_indices/YouLightUpMyLife_DebbyBoone.csv,,,,,,,,,,,,,,,,,,,,,,,,,,,,
,,,,,489937,001,2024-06-17_07h58.21.015,experiment,2024.1.5,Linux x86_64,60.0132029,5c90094e71f3100016181ea9,667045947eb812cbdacbf325,66704e9ee025da8cead1b81f,,,,,,,,,,,,,,,,,,,,,,,,,,,,,,,,,,,,1643.8682,1650.0638,0,0,0,0,1,SoundStimuli/SaveYourTears_TheWeekndArianaGrande_Original5S.wav,,,,,,,,,,,,,,,,,,,,,,,,,,,,,,,,,,,,,,
,,,,,489937,001,2024-06-17_07h58.21.015,experiment,2024.1.5,Linux x86_64,60.0132029,5c90094e71f3100016181ea9,667045947eb812cbdacbf325,66704e9ee025da8cead1b81f,,,,,,,,,,,,,,,,,,,,,,,,,,,,,,,,,,,,1650.086,1655.979,0,1,1,1,1,SoundStimuli/SaveYourTears_TheWeekndArianaGrande_Cover5S.wav,,,,,,,,,,,,,,,,,,,,,,,,,,,,,,,,,,,,,,
,,,,,489937,001,2024-06-17_07h58.21.015,experiment,2024.1.5,Linux x86_64,60.0132029,5c90094e71f3100016181ea9,667045947eb812cbdacbf325,66704e9ee025da8cead1b81f,,,,,,,,,,,,,,,,,,,,,,,,,,,,,,,,,,,,,,,,,,,,1655.9793,1658.8614,3.028618813,2.8574,0,16,16,12,1,song_indices/SaveYourTears_TheWeekndArianaGrande.csv,,,,,,,,,,,,,,,,,,,,,,,,,,,,
,,,,,489937,001,2024-06-17_07h58.21.015,experiment,2024.1.5,Linux x86_64,60.0132029,5c90094e71f3100016181ea9,667045947eb812cbdacbf325,66704e9ee025da8cead1b81f,,,,,,,,,,,,,,,,,,,,,,,,,,,,,,,,,,,,1658.8646,1664.9768,0,0,0,0,1,SoundStimuli/JoyToTheWorld_ThreeDogNight_Original5S.wav,,,,,,,,,,,,,,,,,,,,,,,,,,,,,,,,,,,,,,
,,,,,489937,001,2024-06-17_07h58.21.015,experiment,2024.1.5,Linux x86_64,60.0132029,5c90094e71f3100016181ea9,667045947eb812cbdacbf325,66704e9ee025da8cead1b81f,,,,,,,,,,,,,,,,,,,,,,,,,,,,,,,,,,,,1664.9976,1670.1262,0,1,1,1,1,SoundStimuli/JoyToTheWorld_ThreeDogNight_Cover5S.wav,,,,,,,,,,,,,,,,,,,,,,,,,,,,,,,,,,,,,,
,,,,,489937,001,2024-06-17_07h58.21.015,experiment,2024.1.5,Linux x86_64,60.0132029,5c90094e71f3100016181ea9,667045947eb812cbdacbf325,66704e9ee025da8cead1b81f,,,,,,,,,,,,,,,,,,,,,,,,,,,,,,,,,,,,,,,,,,,,1670.1266,1673.964,5.944042683,3.7945,0,17,17,8,1,song_indices/JoyToTheWorld_ThreeDogNight.csv,,,,,,,,,,,,,,,,,,,,,,,,,,,,
,,,,,489937,001,2024-06-17_07h58.21.015,experiment,2024.1.5,Linux x86_64,60.0132029,5c90094e71f3100016181ea9,667045947eb812cbdacbf325,66704e9ee025da8cead1b81f,,,,,,,,,,,,,,,,,,,,,,,,,,,,,,,,,,,,1673.9663,1680.074,0,0,0,0,1,SoundStimuli/UnbreakMyHeart_ToniBraxton_Original5S.wav,,,,,,,,,,,,,,,,,,,,,,,,,,,,,,,,,,,,,,
,,,,,489937,001,2024-06-17_07h58.21.015,experiment,2024.1.5,Linux x86_64,60.0132029,5c90094e71f3100016181ea9,667045947eb812cbdacbf325,66704e9ee025da8cead1b81f,,,,,,,,,,,,,,,,,,,,,,,,,,,,,,,,,,,,1680.0949,1684.0737,0,1,1,1,1,SoundStimuli/UnbreakMyHeart_ToniBraxton_Cover5S.wav,,,,,,,,,,,,,,,,,,,,,,,,,,,,,,,,,,,,,,
,,,,,489937,001,2024-06-17_07h58.21.015,experiment,2024.1.5,Linux x86_64,60.0132029,5c90094e71f3100016181ea9,667045947eb812cbdacbf325,66704e9ee025da8cead1b81f,,,,,,,,,,,,,,,,,,,,,,,,,,,,,,,,,,,,,,,,,,,,1684.074,1685.2895,1.278193951,1.1901,0,18,18,16,1,song_indices/UnbreakMyHeart_ToniBraxton.csv,,,,,,,,,,,,,,,,,,,,,,,,,,,,
,,,,,489937,001,2024-06-17_07h58.21.015,experiment,2024.1.5,Linux x86_64,60.0132029,5c90094e71f3100016181ea9,667045947eb812cbdacbf325,66704e9ee025da8cead1b81f,,,,,,,,,,,,,,,,,,,,,,,,,,,,,,,,,,,,1685.2922,1691.7716,0,0,0,0,1,SoundStimuli/BlindingLights_TheWeeknd_Original5S.wav,,,,,,,,,,,,,,,,,,,,,,,,,,,,,,,,,,,,,,
,,,,,489937,001,2024-06-17_07h58.21.015,experiment,2024.1.5,Linux x86_64,60.0132029,5c90094e71f3100016181ea9,667045947eb812cbdacbf325,66704e9ee025da8cead1b81f,,,,,,,,,,,,,,,,,,,,,,,,,,,,,,,,,,,,1691.7925,1698.5873,0,1,1,1,1,SoundStimuli/BlindingLights_TheWeeknd_Cover5S.wav,,,,,,,,,,,,,,,,,,,,,,,,,,,,,,,,,,,,,,
,,,,,489937,001,2024-06-17_07h58.21.015,experiment,2024.1.5,Linux x86_64,60.0132029,5c90094e71f3100016181ea9,667045947eb812cbdacbf325,66704e9ee025da8cead1b81f,,,,,,,,,,,,,,,,,,,,,,,,,,,,,,,,,,,,,,,,,,,,1698.5877,1701.1017,6.01436758,2.4713,0,19,19,21,1,song_indices/BlindingLights_TheWeeknd.csv,,,,,,,,,,,,,,,,,,,,,,,,,,,,
,,,,,489937,001,2024-06-17_07h58.21.015,experiment,2024.1.5,Linux x86_64,60.0132029,5c90094e71f3100016181ea9,667045947eb812cbdacbf325,66704e9ee025da8cead1b81f,,,,,,,,,,,,,,,,,,,,,,,,,,,,,,,,,,,,1701.1044,1707.0186,0,0,0,1,1,SoundStimuli/Irreplaceable_Beyonce_Cover5S.wav,,,,,,,,,,,,,,,,,,,,,,,,,,,,,,,,,,,,,,
,,,,,489937,001,2024-06-17_07h58.21.015,experiment,2024.1.5,Linux x86_64,60.0132029,5c90094e71f3100016181ea9,667045947eb812cbdacbf325,66704e9ee025da8cead1b81f,,,,,,,,,,,,,,,,,,,,,,,,,,,,,,,,,,,,1707.0397,1712.9184,0,1,1,0,1,SoundStimuli/Irreplaceable_Beyonce_Original5S.wav,,,,,,,,,,,,,,,,,,,,,,,,,,,,,,,,,,,,,,
,,,,,489937,001,2024-06-17_07h58.21.015,experiment,2024.1.5,Linux x86_64,60.0132029,5c90094e71f3100016181ea9,667045947eb812cbdacbf325,66704e9ee025da8cead1b81f,,,,,,,,,,,,,,,,,,,,,,,,,,,,,,,,,,,,,,,,,,,,1712.9188,1715.2837,1.897388697,2.3409,0,20,20,19,1,song_indices/Irreplaceable_Beyonce.csv,,,,,,,,,,,,,,,,,,,,,,,,,,,,
,,,,,489937,001,2024-06-17_07h58.21.015,experiment,2024.1.5,Linux x86_64,60.0132029,5c90094e71f3100016181ea9,667045947eb812cbdacbf325,66704e9ee025da8cead1b81f,,,,,,,,,,,,,,,,,,,,,,,,,,,,,,,,,,,,1715.2862,1721.7657,0,0,0,1,1,SoundStimuli/Weak_SWV_Cover5S.wav,,,,,,,,,,,,,,,,,,,,,,,,,,,,,,,,,,,,,,
,,,,,489937,001,2024-06-17_07h58.21.015,experiment,2024.1.5,Linux x86_64,60.0132029,5c90094e71f3100016181ea9,667045947eb812cbdacbf325,66704e9ee025da8cead1b81f,,,,,,,,,,,,,,,,,,,,,,,,,,,,,,,,,,,,1721.787,1727.865,0,1,1,0,1,SoundStimuli/Weak_SWV_Original5S.wav,,,,,,,,,,,,,,,,,,,,,,,,,,,,,,,,,,,,,,
,,,,,489937,001,2024-06-17_07h58.21.015,experiment,2024.1.5,Linux x86_64,60.0132029,5c90094e71f3100016181ea9,667045947eb812cbdacbf325,66704e9ee025da8cead1b81f,,,,,,,,,,,,,,,,,,,,,,,,,,,,,,,,,,,,,,,,,,,,1727.8654,1729.1149,2.922943592,1.2248,0,21,21,6,1,song_indices/Weak_SWV.csv,,,,,,,,,,,,,,,,,,,,,,,,,,,,
,,,,,489937,001,2024-06-17_07h58.21.015,experiment,2024.1.5,Linux x86_64,60.0132029,5c90094e71f3100016181ea9,667045947eb812cbdacbf325,66704e9ee025da8cead1b81f,,,,,,,,,,,,,,,,,,,,,,,,,,,,,,,,,,,,1729.1178,1736.3463,0,0,0,0,1,SoundStimuli/SomebodyThatIUsedtoKnow_Gotye_Original5S.wav,,,,,,,,,,,,,,,,,,,,,,,,,,,,,,,,,,,,,,
,,,,,489937,001,2024-06-17_07h58.21.015,experiment,2024.1.5,Linux x86_64,60.0132029,5c90094e71f3100016181ea9,667045947eb812cbdacbf325,66704e9ee025da8cead1b81f,,,,,,,,,,,,,,,,,,,,,,,,,,,,,,,,,,,,1736.3676,1743.1614,0,1,1,1,1,SoundStimuli/SomebodyThatIUsedtoKnow_Gotye_Cover5S.wav,,,,,,,,,,,,,,,,,,,,,,,,,,,,,,,,,,,,,,
,,,,,489937,001,2024-06-17_07h58.21.015,experiment,2024.1.5,Linux x86_64,60.0132029,5c90094e71f3100016181ea9,667045947eb812cbdacbf325,66704e9ee025da8cead1b81f,,,,,,,,,,,,,,,,,,,,,,,,,,,,,,,,,,,,,,,,,,,,1743.1618,1747.2429,6.054788113,4.0382,0,22,22,7,1,song_indices/SomebodyThatIUsedtoKnow_Gotye.csv,,,,,,,,,,,,,,,,,,,,,,,,,,,,
,,,,,489937,001,2024-06-17_07h58.21.015,experiment,2024.1.5,Linux x86_64,60.0132029,5c90094e71f3100016181ea9,667045947eb812cbdacbf325,66704e9ee025da8cead1b81f,,,,,,,,,,,,,,,,,,,,,,,,,,,,,,,,,,,,1747.2459,1754.676,0,0,0,0,1,SoundStimuli/Kiss_Prince_Original5S.wav,,,,,,,,,,,,,,,,,,,,,,,,,,,,,,,,,,,,,,
,,,,,489937,001,2024-06-17_07h58.21.015,experiment,2024.1.5,Linux x86_64,60.0132029,5c90094e71f3100016181ea9,667045947eb812cbdacbf325,66704e9ee025da8cead1b81f,,,,,,,,,,,,,,,,,,,,,,,,,,,,,,,,,,,,1754.6969,1760.9749,0,1,1,1,1,SoundStimuli/Kiss_Prince_Cover5S.wav,,,,,,,,,,,,,,,,,,,,,,,,,,,,,,,,,,,,,,
,,,,,489937,001,2024-06-17_07h58.21.015,experiment,2024.1.5,Linux x86_64,60.0132029,5c90094e71f3100016181ea9,667045947eb812cbdacbf325,66704e9ee025da8cead1b81f,,,,,,,,,,,,,,,,,,,,,,,,,,,,,,,,,,,,,,,,,,,,1760.9751,1762.6429,1.023211479,1.6444,0,23,23,14,1,song_indices/Kiss_Prince.csv,,,,,,,,,,,,,,,,,,,,,,,,,,,,
,,,,,489937,001,2024-06-17_07h58.21.015,experiment,2024.1.5,Linux x86_64,60.0132029,5c90094e71f3100016181ea9,667045947eb812cbdacbf325,66704e9ee025da8cead1b81f,,,,,,,,,,,,,,,,,,,,,,,,,,,,,,,,,,,,,,,,,,,,,,,,,,,,,,1762.6431,1762.6433,,,,0,2,2,2,1,choose_song_b3.csv,,,,,,,,,,,,,,,,,
,,,,,489937,001,2024-06-17_07h58.21.015,experiment,2024.1.5,Linux x86_64,60.0132029,5c90094e71f3100016181ea9,667045947eb812cbdacbf325,66704e9ee025da8cead1b81f,,,,,,,,,,,,,,,,,,,,,,,,,,,,,,,,,,,,,,,,,,,,,,,,,,,,,,,,,,,,,,,,,44,Item 2,Not a musician,Item 3,Spotify,4,5,"Doing chores, riding in a car, hanging out with friends",I used to listen to music a lot more while riding in the car on the radio but now I listen to music any time generally Spotify,I listen to the music on Spotify more than anything and I can do it pretty much anytime I want because I have it at the touch of a finger. ,0,0,0,0,1,,
,,,,,489937,001,2024-06-17_07h58.21.015,experiment,2024.1.5,Linux x86_64,60.0132029,5c90094e71f3100016181ea9,667045947eb812cbdacbf325,66704e9ee025da8cead1b81f,,,,,,,,,,,,,,,,,,,,,,,,,,,,,,,,,,,,,,,,,,,,,,,,,,,,,,,,,,,,,,,,,,,,,,,,,,,,,,,,2171.0746,2172.9943
