welcome.started,welcome.stopped,space_to_continue.keys,space_to_continue.rt,space_to_continue.duration,participant,session,date,expName,psychopyVersion,OS,frameRate,PROLIFIC_PID,STUDY_ID,SESSION_ID,consent.consent,consent.consent_recontact,consent_check.started,consent_check.stopped,calibration_ready.started,calibration_ready.stopped,cal_ready.keys,cal_ready.rt,cal_ready.duration,calibration.started,calibration.stopped,mouse.x,mouse.y,mouse.leftButton,mouse.midButton,mouse.rightButton,mouse.time,mouse.clicked_name,move_on.keys,move_on.rt,move_on.duration,instructions.started,instructions.stopped,next.keys,next.rt,next.duration,practice_trial.started,practice_trial.stopped,practice_slider.response,practice_slider.rt,ready.started,ready.stopped,key_resp.keys,key_resp.rt,key_resp.duration,play_sound.started,play_sound.stopped,trials.thisRepN,trials.thisTrialN,trials.thisN,trials.thisIndex,trials.ran,orig_or_cover,rating.started,rating.stopped,slider.response,slider.rt,songs.thisRepN,songs.thisTrialN,songs.thisN,songs.thisIndex,songs.ran,song_id,short_break.started,short_break.stopped,space_to_move_on.keys,space_to_move_on.rt,space_to_move_on.duration,blocks.thisRepN,blocks.thisTrialN,blocks.thisN,blocks.thisIndex,blocks.ran,block,survey.age,survey.musician,survey.listen_time,survey.medium,survey.music_seeking,survey.music_choice,survey.activities,survey.music_making,survey.question1.Country,survey.question1.Classical,survey.question1.Latin,survey.question1.Metal,survey.question1.Ambient,survey.question1.Jazz,survey.question1.Alternative rock,survey.question1.Classic rock,survey.question1.Pop,survey.question1.A cappella,survey.question1.R&B,survey.question1.Folk/indie,survey.question1.Hip hop,survey.question1.Electronic (EDM),survey.question1.Reggae,survey.question1.Disco,survey.other_genres,survey.genres_ranked.text1,survey.genres_ranked.text2,survey.genres_ranked.text3,survey.habit_change,survey.habits,experiment.thisRepN,experiment.thisTrialN,experiment.thisN,experiment.thisIndex,experiment.ran,goodbye.started,goodbye.stopped
0.0002,7.6495,space,7.6254,,495172,001,2024-06-14_11h36.29.015,experiment,2024.1.5,MacIntel,60.24096386,663a5c3ef84d9c74ea3c07a1,666b5f73dbba3f0cd916b177,666c71619debcbbdc1816e49,,,,,,,,,,,,,,,,,,,,,,,,,,,,,,,,,,,,,,,,,,,,,,,,,,,,,,,,,,,,,,,,,,,,,,,,,,,,,,,,,,,,,,,,,,,,,,,,,,,,,
,,,,,495172,001,2024-06-14_11h36.29.015,experiment,2024.1.5,MacIntel,60.24096386,663a5c3ef84d9c74ea3c07a1,666b5f73dbba3f0cd916b177,666c71619debcbbdc1816e49,yes,yes,,,,,,,,,,,,,,,,,,,,,,,,,,,,,,,,,,,,,,,,,,,,,,,,,,,,,,,,,,,,,,,,,,,,,,,,,,,,,,,,,,,,,,,,,,,,,,,,,,,
,,,,,495172,001,2024-06-14_11h36.29.015,experiment,2024.1.5,MacIntel,60.24096386,663a5c3ef84d9c74ea3c07a1,666b5f73dbba3f0cd916b177,666c71619debcbbdc1816e49,,,100.3597,100.3599,,,,,,,,,,,,,,,,,,,,,,,,,,,,,,,,,,,,,,,,,,,,,,,,,,,,,,,,,,,,,,,,,,,,,,,,,,,,,,,,,,,,,,,,,,,,,,,,,
,,,,,495172,001,2024-06-14_11h36.29.015,experiment,2024.1.5,MacIntel,60.24096386,663a5c3ef84d9c74ea3c07a1,666b5f73dbba3f0cd916b177,666c71619debcbbdc1816e49,,,,,100.3621,123.2085,space,22.8315,,123.2086,161.1953,"[0.018799664223030824,-0.016873712409032533,-0.016873712409032533]","[-0.4205195457423659,-0.426825257741153,-0.426825257741153]","[1,1,1]","[0,0,0]","[0,0,0]","[5.194500000000005,8.468600000143056,35.67099999999999]","[""play_button"",""play_button""]",right,27.9554,,161.1956,171.5941,space,10.3812,,171.5942,190.7623,4.895787905,19.1487,190.7626,191.6288,space,0.8533,,191.6554,197.8631,0,0,0,1,1,SoundStimuli/LikeAPrayer_Madonna_Cover5S.wav,,,,,,,,,,,,,,,,,,,,,,,,,,,,,,,,,,,,,,,,,,,,,,,,,,,,,,,,,,
,,,,,495172,001,2024-06-14_11h36.29.015,experiment,2024.1.5,MacIntel,60.24096386,663a5c3ef84d9c74ea3c07a1,666b5f73dbba3f0cd916b177,666c71619debcbbdc1816e49,,,,,,,,,,,,,,,,,,,,,,,,,,,,,,,,,,,,197.8745,204.0636,0,1,1,0,1,SoundStimuli/LikeAPrayer_Madonna_Original5S.wav,,,,,,,,,,,,,,,,,,,,,,,,,,,,,,,,,,,,,,,,,,,,,,,,,,,,,,,,,,
,,,,,495172,001,2024-06-14_11h36.29.015,experiment,2024.1.5,MacIntel,60.24096386,663a5c3ef84d9c74ea3c07a1,666b5f73dbba3f0cd916b177,666c71619debcbbdc1816e49,,,,,,,,,,,,,,,,,,,,,,,,,,,,,,,,,,,,,,,,,,,,204.0752,206.1965,5.934825322,2.114,0,0,0,7,1,song_indices/LikeAPrayer_Madonna.csv,,,,,,,,,,,,,,,,,,,,,,,,,,,,,,,,,,,,,,,,,,,,,,,,
,,,,,495172,001,2024-06-14_11h36.29.015,experiment,2024.1.5,MacIntel,60.24096386,663a5c3ef84d9c74ea3c07a1,666b5f73dbba3f0cd916b177,666c71619debcbbdc1816e49,,,,,,,,,,,,,,,,,,,,,,,,,,,,,,,,,,,,206.1977,212.5464,0,0,0,0,1,SoundStimuli/EndlessLove_DianaRossLionelRichie_Original5S.wav,,,,,,,,,,,,,,,,,,,,,,,,,,,,,,,,,,,,,,,,,,,,,,,,,,,,,,,,,,
,,,,,495172,001,2024-06-14_11h36.29.015,experiment,2024.1.5,MacIntel,60.24096386,663a5c3ef84d9c74ea3c07a1,666b5f73dbba3f0cd916b177,666c71619debcbbdc1816e49,,,,,,,,,,,,,,,,,,,,,,,,,,,,,,,,,,,,212.5693,220.0649,0,1,1,1,1,SoundStimuli/EndlessLove_DianaRossLionelRichie_Cover5S.wav,,,,,,,,,,,,,,,,,,,,,,,,,,,,,,,,,,,,,,,,,,,,,,,,,,,,,,,,,,
,,,,,495172,001,2024-06-14_11h36.29.015,experiment,2024.1.5,MacIntel,60.24096386,663a5c3ef84d9c74ea3c07a1,666b5f73dbba3f0cd916b177,666c71619debcbbdc1816e49,,,,,,,,,,,,,,,,,,,,,,,,,,,,,,,,,,,,,,,,,,,,220.0656,234.5311,4.135935326,14.4446,0,1,1,3,1,song_indices/EndlessLove_DianaRossLionelRichie.csv,,,,,,,,,,,,,,,,,,,,,,,,,,,,,,,,,,,,,,,,,,,,,,,,
,,,,,495172,001,2024-06-14_11h36.29.015,experiment,2024.1.5,MacIntel,60.24096386,663a5c3ef84d9c74ea3c07a1,666b5f73dbba3f0cd916b177,666c71619debcbbdc1816e49,,,,,,,,,,,,,,,,,,,,,,,,,,,,,,,,,,,,234.5323,240.1326,0,0,0,0,1,SoundStimuli/IWannaDanceWithSomebody_WhitneyHouston_Original5S.wav,,,,,,,,,,,,,,,,,,,,,,,,,,,,,,,,,,,,,,,,,,,,,,,,,,,,,,,,,,
,,,,,495172,001,2024-06-14_11h36.29.015,experiment,2024.1.5,MacIntel,60.24096386,663a5c3ef84d9c74ea3c07a1,666b5f73dbba3f0cd916b177,666c71619debcbbdc1816e49,,,,,,,,,,,,,,,,,,,,,,,,,,,,,,,,,,,,240.1433,246.9664,0,1,1,1,1,SoundStimuli/IWannaDanceWithSomebody_WhitneyHouston_Cover5S.wav,,,,,,,,,,,,,,,,,,,,,,,,,,,,,,,,,,,,,,,,,,,,,,,,,,,,,,,,,,
,,,,,495172,001,2024-06-14_11h36.29.015,experiment,2024.1.5,MacIntel,60.24096386,663a5c3ef84d9c74ea3c07a1,666b5f73dbba3f0cd916b177,666c71619debcbbdc1816e49,,,,,,,,,,,,,,,,,,,,,,,,,,,,,,,,,,,,,,,,,,,,246.9666,250.8657,1.785509501,3.8805,0,2,2,13,1,song_indices/IWannaDanceWithSomebody_WhitneyHouston.csv,,,,,,,,,,,,,,,,,,,,,,,,,,,,,,,,,,,,,,,,,,,,,,,,
,,,,,495172,001,2024-06-14_11h36.29.015,experiment,2024.1.5,MacIntel,60.24096386,663a5c3ef84d9c74ea3c07a1,666b5f73dbba3f0cd916b177,666c71619debcbbdc1816e49,,,,,,,,,,,,,,,,,,,,,,,,,,,,,,,,,,,,250.8669,256.9503,0,0,0,0,1,SoundStimuli/IllMakeLoveToYou_BoyzIIMen_Original5S.wav,,,,,,,,,,,,,,,,,,,,,,,,,,,,,,,,,,,,,,,,,,,,,,,,,,,,,,,,,,
,,,,,495172,001,2024-06-14_11h36.29.015,experiment,2024.1.5,MacIntel,60.24096386,663a5c3ef84d9c74ea3c07a1,666b5f73dbba3f0cd916b177,666c71619debcbbdc1816e49,,,,,,,,,,,,,,,,,,,,,,,,,,,,,,,,,,,,256.961,262.901,0,1,1,1,1,SoundStimuli/IllMakeLoveToYou_BoyzIIMen_Cover5S.wav,,,,,,,,,,,,,,,,,,,,,,,,,,,,,,,,,,,,,,,,,,,,,,,,,,,,,,,,,,
,,,,,495172,001,2024-06-14_11h36.29.015,experiment,2024.1.5,MacIntel,60.24096386,663a5c3ef84d9c74ea3c07a1,666b5f73dbba3f0cd916b177,666c71619debcbbdc1816e49,,,,,,,,,,,,,,,,,,,,,,,,,,,,,,,,,,,,,,,,,,,,262.9011,269.2008,2.030560637,6.2794,0,3,3,6,1,song_indices/IllMakeLoveToYou_BoyzIIMen.csv,,,,,,,,,,,,,,,,,,,,,,,,,,,,,,,,,,,,,,,,,,,,,,,,
,,,,,495172,001,2024-06-14_11h36.29.015,experiment,2024.1.5,MacIntel,60.24096386,663a5c3ef84d9c74ea3c07a1,666b5f73dbba3f0cd916b177,666c71619debcbbdc1816e49,,,,,,,,,,,,,,,,,,,,,,,,,,,,,,,,,,,,269.2026,278.052,0,0,0,0,1,SoundStimuli/Perfect_EdSheeran_Original5S.wav,,,,,,,,,,,,,,,,,,,,,,,,,,,,,,,,,,,,,,,,,,,,,,,,,,,,,,,,,,
,,,,,495172,001,2024-06-14_11h36.29.015,experiment,2024.1.5,MacIntel,60.24096386,663a5c3ef84d9c74ea3c07a1,666b5f73dbba3f0cd916b177,666c71619debcbbdc1816e49,,,,,,,,,,,,,,,,,,,,,,,,,,,,,,,,,,,,278.0643,286.3182,0,1,1,1,1,SoundStimuli/Perfect_EdSheeran_Cover5S.wav,,,,,,,,,,,,,,,,,,,,,,,,,,,,,,,,,,,,,,,,,,,,,,,,,,,,,,,,,,
,,,,,495172,001,2024-06-14_11h36.29.015,experiment,2024.1.5,MacIntel,60.24096386,663a5c3ef84d9c74ea3c07a1,666b5f73dbba3f0cd916b177,666c71619debcbbdc1816e49,,,,,,,,,,,,,,,,,,,,,,,,,,,,,,,,,,,,,,,,,,,,286.3184,299.1704,3.428267387,12.8295,0,4,4,0,1,song_indices/Perfect_EdSheeran.csv,,,,,,,,,,,,,,,,,,,,,,,,,,,,,,,,,,,,,,,,,,,,,,,,
,,,,,495172,001,2024-06-14_11h36.29.015,experiment,2024.1.5,MacIntel,60.24096386,663a5c3ef84d9c74ea3c07a1,666b5f73dbba3f0cd916b177,666c71619debcbbdc1816e49,,,,,,,,,,,,,,,,,,,,,,,,,,,,,,,,,,,,299.1722,305.2034,0,0,0,0,1,SoundStimuli/AnotherOneBitesTheDust_Queen_Original5S.wav,,,,,,,,,,,,,,,,,,,,,,,,,,,,,,,,,,,,,,,,,,,,,,,,,,,,,,,,,,
,,,,,495172,001,2024-06-14_11h36.29.015,experiment,2024.1.5,MacIntel,60.24096386,663a5c3ef84d9c74ea3c07a1,666b5f73dbba3f0cd916b177,666c71619debcbbdc1816e49,,,,,,,,,,,,,,,,,,,,,,,,,,,,,,,,,,,,305.2189,313.3368,0,1,1,1,1,SoundStimuli/AnotherOneBitesTheDust_Queen_Cover5S.wav,,,,,,,,,,,,,,,,,,,,,,,,,,,,,,,,,,,,,,,,,,,,,,,,,,,,,,,,,,
,,,,,495172,001,2024-06-14_11h36.29.015,experiment,2024.1.5,MacIntel,60.24096386,663a5c3ef84d9c74ea3c07a1,666b5f73dbba3f0cd916b177,666c71619debcbbdc1816e49,,,,,,,,,,,,,,,,,,,,,,,,,,,,,,,,,,,,,,,,,,,,313.3369,314.3209,1.051355649,0.9662,0,5,5,9,1,song_indices/AnotherOneBitesTheDust_Queen.csv,,,,,,,,,,,,,,,,,,,,,,,,,,,,,,,,,,,,,,,,,,,,,,,,
,,,,,495172,001,2024-06-14_11h36.29.015,experiment,2024.1.5,MacIntel,60.24096386,663a5c3ef84d9c74ea3c07a1,666b5f73dbba3f0cd916b177,666c71619debcbbdc1816e49,,,,,,,,,,,,,,,,,,,,,,,,,,,,,,,,,,,,314.3223,320.7712,0,0,0,0,1,SoundStimuli/BadDay_DanielPowter_Original5S.wav,,,,,,,,,,,,,,,,,,,,,,,,,,,,,,,,,,,,,,,,,,,,,,,,,,,,,,,,,,
,,,,,495172,001,2024-06-14_11h36.29.015,experiment,2024.1.5,MacIntel,60.24096386,663a5c3ef84d9c74ea3c07a1,666b5f73dbba3f0cd916b177,666c71619debcbbdc1816e49,,,,,,,,,,,,,,,,,,,,,,,,,,,,,,,,,,,,320.7831,328.2712,0,1,1,1,1,SoundStimuli/BadDay_DanielPowter_Cover5S.wav,,,,,,,,,,,,,,,,,,,,,,,,,,,,,,,,,,,,,,,,,,,,,,,,,,,,,,,,,,
,,,,,495172,001,2024-06-14_11h36.29.015,experiment,2024.1.5,MacIntel,60.24096386,663a5c3ef84d9c74ea3c07a1,666b5f73dbba3f0cd916b177,666c71619debcbbdc1816e49,,,,,,,,,,,,,,,,,,,,,,,,,,,,,,,,,,,,,,,,,,,,328.2713,330.6046,6.471255786,2.3148,0,6,6,22,1,song_indices/BadDay_DanielPowter.csv,,,,,,,,,,,,,,,,,,,,,,,,,,,,,,,,,,,,,,,,,,,,,,,,
,,,,,495172,001,2024-06-14_11h36.29.015,experiment,2024.1.5,MacIntel,60.24096386,663a5c3ef84d9c74ea3c07a1,666b5f73dbba3f0cd916b177,666c71619debcbbdc1816e49,,,,,,,,,,,,,,,,,,,,,,,,,,,,,,,,,,,,330.6065,336.8549,0,0,0,0,1,SoundStimuli/GodOnlyKnows_TheBeachBoys_Original5S.wav,,,,,,,,,,,,,,,,,,,,,,,,,,,,,,,,,,,,,,,,,,,,,,,,,,,,,,,,,,
,,,,,495172,001,2024-06-14_11h36.29.015,experiment,2024.1.5,MacIntel,60.24096386,663a5c3ef84d9c74ea3c07a1,666b5f73dbba3f0cd916b177,666c71619debcbbdc1816e49,,,,,,,,,,,,,,,,,,,,,,,,,,,,,,,,,,,,336.8665,343.7228,0,1,1,1,1,SoundStimuli/GodOnlyKnows_TheBeachBoys_Cover5S.wav,,,,,,,,,,,,,,,,,,,,,,,,,,,,,,,,,,,,,,,,,,,,,,,,,,,,,,,,,,
,,,,,495172,001,2024-06-14_11h36.29.015,experiment,2024.1.5,MacIntel,60.24096386,663a5c3ef84d9c74ea3c07a1,666b5f73dbba3f0cd916b177,666c71619debcbbdc1816e49,,,,,,,,,,,,,,,,,,,,,,,,,,,,,,,,,,,,,,,,,,,,343.7233,345.8722,2.282946861,2.1314,0,7,7,8,1,song_indices/GodOnlyKnows_TheBeachBoys.csv,,,,,,,,,,,,,,,,,,,,,,,,,,,,,,,,,,,,,,,,,,,,,,,,
,,,,,495172,001,2024-06-14_11h36.29.015,experiment,2024.1.5,MacIntel,60.24096386,663a5c3ef84d9c74ea3c07a1,666b5f73dbba3f0cd916b177,666c71619debcbbdc1816e49,,,,,,,,,,,,,,,,,,,,,,,,,,,,,,,,,,,,345.873,351.907,0,0,0,0,1,SoundStimuli/StayinAlive_BeeGees_Original5S.wav,,,,,,,,,,,,,,,,,,,,,,,,,,,,,,,,,,,,,,,,,,,,,,,,,,,,,,,,,,
,,,,,495172,001,2024-06-14_11h36.29.015,experiment,2024.1.5,MacIntel,60.24096386,663a5c3ef84d9c74ea3c07a1,666b5f73dbba3f0cd916b177,666c71619debcbbdc1816e49,,,,,,,,,,,,,,,,,,,,,,,,,,,,,,,,,,,,351.9183,357.7398,0,1,1,1,1,SoundStimuli/StayinAlive_BeeGees_Cover5S.wav,,,,,,,,,,,,,,,,,,,,,,,,,,,,,,,,,,,,,,,,,,,,,,,,,,,,,,,,,,
,,,,,495172,001,2024-06-14_11h36.29.015,experiment,2024.1.5,MacIntel,60.24096386,663a5c3ef84d9c74ea3c07a1,666b5f73dbba3f0cd916b177,666c71619debcbbdc1816e49,,,,,,,,,,,,,,,,,,,,,,,,,,,,,,,,,,,,,,,,,,,,357.74,360.7403,4.081007866,2.9818,0,8,8,2,1,song_indices/StayinAlive_BeeGees.csv,,,,,,,,,,,,,,,,,,,,,,,,,,,,,,,,,,,,,,,,,,,,,,,,
,,,,,495172,001,2024-06-14_11h36.29.015,experiment,2024.1.5,MacIntel,60.24096386,663a5c3ef84d9c74ea3c07a1,666b5f73dbba3f0cd916b177,666c71619debcbbdc1816e49,,,,,,,,,,,,,,,,,,,,,,,,,,,,,,,,,,,,360.7413,369.0238,0,0,0,1,1,SoundStimuli/Mood_24kGoldnianndior_Cover5S.wav,,,,,,,,,,,,,,,,,,,,,,,,,,,,,,,,,,,,,,,,,,,,,,,,,,,,,,,,,,
,,,,,495172,001,2024-06-14_11h36.29.015,experiment,2024.1.5,MacIntel,60.24096386,663a5c3ef84d9c74ea3c07a1,666b5f73dbba3f0cd916b177,666c71619debcbbdc1816e49,,,,,,,,,,,,,,,,,,,,,,,,,,,,,,,,,,,,369.0384,375.3251,0,1,1,0,1,SoundStimuli/Mood_24kGoldnianndior_Original5S.wav,,,,,,,,,,,,,,,,,,,,,,,,,,,,,,,,,,,,,,,,,,,,,,,,,,,,,,,,,,
,,,,,495172,001,2024-06-14_11h36.29.015,experiment,2024.1.5,MacIntel,60.24096386,663a5c3ef84d9c74ea3c07a1,666b5f73dbba3f0cd916b177,666c71619debcbbdc1816e49,,,,,,,,,,,,,,,,,,,,,,,,,,,,,,,,,,,,,,,,,,,,375.3252,376.5244,4.071364311,1.181,0,9,9,5,1,song_indices/Mood_24kGoldnianndior.csv,,,,,,,,,,,,,,,,,,,,,,,,,,,,,,,,,,,,,,,,,,,,,,,,
,,,,,495172,001,2024-06-14_11h36.29.015,experiment,2024.1.5,MacIntel,60.24096386,663a5c3ef84d9c74ea3c07a1,666b5f73dbba3f0cd916b177,666c71619debcbbdc1816e49,,,,,,,,,,,,,,,,,,,,,,,,,,,,,,,,,,,,376.5252,382.6261,0,0,0,0,1,SoundStimuli/HeatWaves_GlassAnimals_Original5S.wav,,,,,,,,,,,,,,,,,,,,,,,,,,,,,,,,,,,,,,,,,,,,,,,,,,,,,,,,,,
,,,,,495172,001,2024-06-14_11h36.29.015,experiment,2024.1.5,MacIntel,60.24096386,663a5c3ef84d9c74ea3c07a1,666b5f73dbba3f0cd916b177,666c71619debcbbdc1816e49,,,,,,,,,,,,,,,,,,,,,,,,,,,,,,,,,,,,382.6376,391.2262,0,1,1,1,1,SoundStimuli/HeatWaves_GlassAnimals_Cover5S.wav,,,,,,,,,,,,,,,,,,,,,,,,,,,,,,,,,,,,,,,,,,,,,,,,,,,,,,,,,,
,,,,,495172,001,2024-06-14_11h36.29.015,experiment,2024.1.5,MacIntel,60.24096386,663a5c3ef84d9c74ea3c07a1,666b5f73dbba3f0cd916b177,666c71619debcbbdc1816e49,,,,,,,,,,,,,,,,,,,,,,,,,,,,,,,,,,,,,,,,,,,,391.2267,392.9922,5.569648638,1.7427,0,10,10,10,1,song_indices/HeatWaves_GlassAnimals.csv,,,,,,,,,,,,,,,,,,,,,,,,,,,,,,,,,,,,,,,,,,,,,,,,
,,,,,495172,001,2024-06-14_11h36.29.015,experiment,2024.1.5,MacIntel,60.24096386,663a5c3ef84d9c74ea3c07a1,666b5f73dbba3f0cd916b177,666c71619debcbbdc1816e49,,,,,,,,,,,,,,,,,,,,,,,,,,,,,,,,,,,,392.9935,399.5757,0,0,0,1,1,SoundStimuli/Despacito_LuisFonsiDaddyYankee_Cover5S.wav,,,,,,,,,,,,,,,,,,,,,,,,,,,,,,,,,,,,,,,,,,,,,,,,,,,,,,,,,,
,,,,,495172,001,2024-06-14_11h36.29.015,experiment,2024.1.5,MacIntel,60.24096386,663a5c3ef84d9c74ea3c07a1,666b5f73dbba3f0cd916b177,666c71619debcbbdc1816e49,,,,,,,,,,,,,,,,,,,,,,,,,,,,,,,,,,,,399.5872,406.1437,0,1,1,0,1,SoundStimuli/Despacito_LuisFonsiDaddyYankee_Original5S.wav,,,,,,,,,,,,,,,,,,,,,,,,,,,,,,,,,,,,,,,,,,,,,,,,,,,,,,,,,,
,,,,,495172,001,2024-06-14_11h36.29.015,experiment,2024.1.5,MacIntel,60.24096386,663a5c3ef84d9c74ea3c07a1,666b5f73dbba3f0cd916b177,666c71619debcbbdc1816e49,,,,,,,,,,,,,,,,,,,,,,,,,,,,,,,,,,,,,,,,,,,,406.1439,420.5273,4.155097021,14.3659,0,11,11,11,1,song_indices/Despacito_LuisFonsiDaddyYankee.csv,,,,,,,,,,,,,,,,,,,,,,,,,,,,,,,,,,,,,,,,,,,,,,,,
,,,,,495172,001,2024-06-14_11h36.29.015,experiment,2024.1.5,MacIntel,60.24096386,663a5c3ef84d9c74ea3c07a1,666b5f73dbba3f0cd916b177,666c71619debcbbdc1816e49,,,,,,,,,,,,,,,,,,,,,,,,,,,,,,,,,,,,420.5282,426.6615,0,0,0,0,1,SoundStimuli/LikeARollingStone_BobDylan_Original5S.wav,,,,,,,,,,,,,,,,,,,,,,,,,,,,,,,,,,,,,,,,,,,,,,,,,,,,,,,,,,
,,,,,495172,001,2024-06-14_11h36.29.015,experiment,2024.1.5,MacIntel,60.24096386,663a5c3ef84d9c74ea3c07a1,666b5f73dbba3f0cd916b177,666c71619debcbbdc1816e49,,,,,,,,,,,,,,,,,,,,,,,,,,,,,,,,,,,,426.6729,431.062,0,1,1,1,1,SoundStimuli/LikeARollingStone_BobDylan_Cover5S.wav,,,,,,,,,,,,,,,,,,,,,,,,,,,,,,,,,,,,,,,,,,,,,,,,,,,,,,,,,,
,,,,,495172,001,2024-06-14_11h36.29.015,experiment,2024.1.5,MacIntel,60.24096386,663a5c3ef84d9c74ea3c07a1,666b5f73dbba3f0cd916b177,666c71619debcbbdc1816e49,,,,,,,,,,,,,,,,,,,,,,,,,,,,,,,,,,,,,,,,,,,,431.0622,452.1967,4.155097021,21.1172,0,12,12,12,1,song_indices/LikeARollingStone_BobDylan.csv,,,,,,,,,,,,,,,,,,,,,,,,,,,,,,,,,,,,,,,,,,,,,,,,
,,,,,495172,001,2024-06-14_11h36.29.015,experiment,2024.1.5,MacIntel,60.24096386,663a5c3ef84d9c74ea3c07a1,666b5f73dbba3f0cd916b177,666c71619debcbbdc1816e49,,,,,,,,,,,,,,,,,,,,,,,,,,,,,,,,,,,,452.1982,458.8973,0,0,0,1,1,SoundStimuli/BridgeOverTroubledWater_SimonAndGarfunkel_Cover5S.wav,,,,,,,,,,,,,,,,,,,,,,,,,,,,,,,,,,,,,,,,,,,,,,,,,,,,,,,,,,
,,,,,495172,001,2024-06-14_11h36.29.015,experiment,2024.1.5,MacIntel,60.24096386,663a5c3ef84d9c74ea3c07a1,666b5f73dbba3f0cd916b177,666c71619debcbbdc1816e49,,,,,,,,,,,,,,,,,,,,,,,,,,,,,,,,,,,,458.9133,465.2314,0,1,1,0,1,SoundStimuli/BridgeOverTroubledWater_SimonAndGarfunkel_Original5S.wav,,,,,,,,,,,,,,,,,,,,,,,,,,,,,,,,,,,,,,,,,,,,,,,,,,,,,,,,,,
,,,,,495172,001,2024-06-14_11h36.29.015,experiment,2024.1.5,MacIntel,60.24096386,663a5c3ef84d9c74ea3c07a1,666b5f73dbba3f0cd916b177,666c71619debcbbdc1816e49,,,,,,,,,,,,,,,,,,,,,,,,,,,,,,,,,,,,,,,,,,,,465.2316,466.797,1.186003385,1.5423,0,13,13,1,1,song_indices/BridgeOverTroubledWater_SimonAndGarfunkel.csv,,,,,,,,,,,,,,,,,,,,,,,,,,,,,,,,,,,,,,,,,,,,,,,,
,,,,,495172,001,2024-06-14_11h36.29.015,experiment,2024.1.5,MacIntel,60.24096386,663a5c3ef84d9c74ea3c07a1,666b5f73dbba3f0cd916b177,666c71619debcbbdc1816e49,,,,,,,,,,,,,,,,,,,,,,,,,,,,,,,,,,,,466.7984,473.8317,0,0,0,1,1,SoundStimuli/StrawberryFieldsForever_TheBeatles_Cover5S.wav,,,,,,,,,,,,,,,,,,,,,,,,,,,,,,,,,,,,,,,,,,,,,,,,,,,,,,,,,,
,,,,,495172,001,2024-06-14_11h36.29.015,experiment,2024.1.5,MacIntel,60.24096386,663a5c3ef84d9c74ea3c07a1,666b5f73dbba3f0cd916b177,666c71619debcbbdc1816e49,,,,,,,,,,,,,,,,,,,,,,,,,,,,,,,,,,,,473.8464,479.9653,0,1,1,0,1,SoundStimuli/StrawberryFieldsForever_TheBeatles_Original5S.wav,,,,,,,,,,,,,,,,,,,,,,,,,,,,,,,,,,,,,,,,,,,,,,,,,,,,,,,,,,
,,,,,495172,001,2024-06-14_11h36.29.015,experiment,2024.1.5,MacIntel,60.24096386,663a5c3ef84d9c74ea3c07a1,666b5f73dbba3f0cd916b177,666c71619debcbbdc1816e49,,,,,,,,,,,,,,,,,,,,,,,,,,,,,,,,,,,,,,,,,,,,479.9655,483.1149,3.411314664,3.1311,0,14,14,14,1,song_indices/StrawberryFieldsForever_TheBeatles.csv,,,,,,,,,,,,,,,,,,,,,,,,,,,,,,,,,,,,,,,,,,,,,,,,
,,,,,495172,001,2024-06-14_11h36.29.015,experiment,2024.1.5,MacIntel,60.24096386,663a5c3ef84d9c74ea3c07a1,666b5f73dbba3f0cd916b177,666c71619debcbbdc1816e49,,,,,,,,,,,,,,,,,,,,,,,,,,,,,,,,,,,,483.1158,489.2492,0,0,0,1,1,SoundStimuli/Smooth_SantanaRobThomas_Cover5S.wav,,,,,,,,,,,,,,,,,,,,,,,,,,,,,,,,,,,,,,,,,,,,,,,,,,,,,,,,,,
,,,,,495172,001,2024-06-14_11h36.29.015,experiment,2024.1.5,MacIntel,60.24096386,663a5c3ef84d9c74ea3c07a1,666b5f73dbba3f0cd916b177,666c71619debcbbdc1816e49,,,,,,,,,,,,,,,,,,,,,,,,,,,,,,,,,,,,489.2607,495.4665,0,1,1,0,1,SoundStimuli/Smooth_SantanaRobThomas_Original5S.wav,,,,,,,,,,,,,,,,,,,,,,,,,,,,,,,,,,,,,,,,,,,,,,,,,,,,,,,,,,
,,,,,495172,001,2024-06-14_11h36.29.015,experiment,2024.1.5,MacIntel,60.24096386,663a5c3ef84d9c74ea3c07a1,666b5f73dbba3f0cd916b177,666c71619debcbbdc1816e49,,,,,,,,,,,,,,,,,,,,,,,,,,,,,,,,,,,,,,,,,,,,495.4666,499.116,3.133590071,3.6288,0,15,15,4,1,song_indices/Smooth_SantanaRobThomas.csv,,,,,,,,,,,,,,,,,,,,,,,,,,,,,,,,,,,,,,,,,,,,,,,,
,,,,,495172,001,2024-06-14_11h36.29.015,experiment,2024.1.5,MacIntel,60.24096386,663a5c3ef84d9c74ea3c07a1,666b5f73dbba3f0cd916b177,666c71619debcbbdc1816e49,,,,,,,,,,,,,,,,,,,,,,,,,,,,,,,,,,,,499.1179,505.383,0,0,0,1,1,SoundStimuli/MackTheKnife_BobbyDarin_Cover5S.wav,,,,,,,,,,,,,,,,,,,,,,,,,,,,,,,,,,,,,,,,,,,,,,,,,,,,,,,,,,
,,,,,495172,001,2024-06-14_11h36.29.015,experiment,2024.1.5,MacIntel,60.24096386,663a5c3ef84d9c74ea3c07a1,666b5f73dbba3f0cd916b177,666c71619debcbbdc1816e49,,,,,,,,,,,,,,,,,,,,,,,,,,,,,,,,,,,,505.3986,511.5339,0,1,1,0,1,SoundStimuli/MackTheKnife_BobbyDarin_Original5S.wav,,,,,,,,,,,,,,,,,,,,,,,,,,,,,,,,,,,,,,,,,,,,,,,,,,,,,,,,,,
,,,,,495172,001,2024-06-14_11h36.29.015,experiment,2024.1.5,MacIntel,60.24096386,663a5c3ef84d9c74ea3c07a1,666b5f73dbba3f0cd916b177,666c71619debcbbdc1816e49,,,,,,,,,,,,,,,,,,,,,,,,,,,,,,,,,,,,,,,,,,,,511.534,513.117,2.603377251,1.5644,0,16,16,21,1,song_indices/MackTheKnife_BobbyDarin.csv,,,,,,,,,,,,,,,,,,,,,,,,,,,,,,,,,,,,,,,,,,,,,,,,
,,,,,495172,001,2024-06-14_11h36.29.015,experiment,2024.1.5,MacIntel,60.24096386,663a5c3ef84d9c74ea3c07a1,666b5f73dbba3f0cd916b177,666c71619debcbbdc1816e49,,,,,,,,,,,,,,,,,,,,,,,,,,,,,,,,,,,,513.1187,520.5008,0,0,0,0,1,SoundStimuli/OldTownRoad_LilNasX_Original5S.wav,,,,,,,,,,,,,,,,,,,,,,,,,,,,,,,,,,,,,,,,,,,,,,,,,,,,,,,,,,
,,,,,495172,001,2024-06-14_11h36.29.015,experiment,2024.1.5,MacIntel,60.24096386,663a5c3ef84d9c74ea3c07a1,666b5f73dbba3f0cd916b177,666c71619debcbbdc1816e49,,,,,,,,,,,,,,,,,,,,,,,,,,,,,,,,,,,,520.5117,527.0179,0,1,1,1,1,SoundStimuli/OldTownRoad_LilNasX_Cover5S.wav,,,,,,,,,,,,,,,,,,,,,,,,,,,,,,,,,,,,,,,,,,,,,,,,,,,,,,,,,,
,,,,,495172,001,2024-06-14_11h36.29.015,experiment,2024.1.5,MacIntel,60.24096386,663a5c3ef84d9c74ea3c07a1,666b5f73dbba3f0cd916b177,666c71619debcbbdc1816e49,,,,,,,,,,,,,,,,,,,,,,,,,,,,,,,,,,,,,,,,,,,,527.018,529.3187,6.242434149,2.2829,0,17,17,20,1,song_indices/OldTownRoad_LilNasX.csv,,,,,,,,,,,,,,,,,,,,,,,,,,,,,,,,,,,,,,,,,,,,,,,,
,,,,,495172,001,2024-06-14_11h36.29.015,experiment,2024.1.5,MacIntel,60.24096386,663a5c3ef84d9c74ea3c07a1,666b5f73dbba3f0cd916b177,666c71619debcbbdc1816e49,,,,,,,,,,,,,,,,,,,,,,,,,,,,,,,,,,,,529.3195,536.9858,0,0,0,1,1,SoundStimuli/MyGirl_TheTemptations_Cover5S.wav,,,,,,,,,,,,,,,,,,,,,,,,,,,,,,,,,,,,,,,,,,,,,,,,,,,,,,,,,,
,,,,,495172,001,2024-06-14_11h36.29.015,experiment,2024.1.5,MacIntel,60.24096386,663a5c3ef84d9c74ea3c07a1,666b5f73dbba3f0cd916b177,666c71619debcbbdc1816e49,,,,,,,,,,,,,,,,,,,,,,,,,,,,,,,,,,,,536.997,543.3856,0,1,1,0,1,SoundStimuli/MyGirl_TheTemptations_Original5S.wav,,,,,,,,,,,,,,,,,,,,,,,,,,,,,,,,,,,,,,,,,,,,,,,,,,,,,,,,,,
,,,,,495172,001,2024-06-14_11h36.29.015,experiment,2024.1.5,MacIntel,60.24096386,663a5c3ef84d9c74ea3c07a1,666b5f73dbba3f0cd916b177,666c71619debcbbdc1816e49,,,,,,,,,,,,,,,,,,,,,,,,,,,,,,,,,,,,,,,,,,,,543.3857,548.2533,3.937895892,4.8485,0,18,18,15,1,song_indices/MyGirl_TheTemptations.csv,,,,,,,,,,,,,,,,,,,,,,,,,,,,,,,,,,,,,,,,,,,,,,,,
,,,,,495172,001,2024-06-14_11h36.29.015,experiment,2024.1.5,MacIntel,60.24096386,663a5c3ef84d9c74ea3c07a1,666b5f73dbba3f0cd916b177,666c71619debcbbdc1816e49,,,,,,,,,,,,,,,,,,,,,,,,,,,,,,,,,,,,548.2562,554.2861,0,0,0,0,1,SoundStimuli/AChangeIsGonnaCome_SamCooke_Original5S.wav,,,,,,,,,,,,,,,,,,,,,,,,,,,,,,,,,,,,,,,,,,,,,,,,,,,,,,,,,,
,,,,,495172,001,2024-06-14_11h36.29.015,experiment,2024.1.5,MacIntel,60.24096386,663a5c3ef84d9c74ea3c07a1,666b5f73dbba3f0cd916b177,666c71619debcbbdc1816e49,,,,,,,,,,,,,,,,,,,,,,,,,,,,,,,,,,,,554.2969,559.004,0,1,1,1,1,SoundStimuli/AChangeIsGonnaCome_SamCooke_Cover5S.wav,,,,,,,,,,,,,,,,,,,,,,,,,,,,,,,,,,,,,,,,,,,,,,,,,,,,,,,,,,
,,,,,495172,001,2024-06-14_11h36.29.015,experiment,2024.1.5,MacIntel,60.24096386,663a5c3ef84d9c74ea3c07a1,666b5f73dbba3f0cd916b177,666c71619debcbbdc1816e49,,,,,,,,,,,,,,,,,,,,,,,,,,,,,,,,,,,,,,,,,,,,559.0042,561.9209,5.756549156,2.8993,0,19,19,17,1,song_indices/AChangeIsGonnaCome_SamCooke.csv,,,,,,,,,,,,,,,,,,,,,,,,,,,,,,,,,,,,,,,,,,,,,,,,
,,,,,495172,001,2024-06-14_11h36.29.015,experiment,2024.1.5,MacIntel,60.24096386,663a5c3ef84d9c74ea3c07a1,666b5f73dbba3f0cd916b177,666c71619debcbbdc1816e49,,,,,,,,,,,,,,,,,,,,,,,,,,,,,,,,,,,,561.9215,567.7208,0,0,0,0,1,SoundStimuli/IWantToHoldYourHand_TheBeatles_Original5S.wav,,,,,,,,,,,,,,,,,,,,,,,,,,,,,,,,,,,,,,,,,,,,,,,,,,,,,,,,,,
,,,,,495172,001,2024-06-14_11h36.29.015,experiment,2024.1.5,MacIntel,60.24096386,663a5c3ef84d9c74ea3c07a1,666b5f73dbba3f0cd916b177,666c71619debcbbdc1816e49,,,,,,,,,,,,,,,,,,,,,,,,,,,,,,,,,,,,567.7322,573.755,0,1,1,1,1,SoundStimuli/IWantToHoldYourHand_TheBeatles_Cover5S.wav,,,,,,,,,,,,,,,,,,,,,,,,,,,,,,,,,,,,,,,,,,,,,,,,,,,,,,,,,,
,,,,,495172,001,2024-06-14_11h36.29.015,experiment,2024.1.5,MacIntel,60.24096386,663a5c3ef84d9c74ea3c07a1,666b5f73dbba3f0cd916b177,666c71619debcbbdc1816e49,,,,,,,,,,,,,,,,,,,,,,,,,,,,,,,,,,,,,,,,,,,,573.7552,576.1053,3.913821286,2.3323,0,20,20,19,1,song_indices/IWantToHoldYourHand_TheBeatles.csv,,,,,,,,,,,,,,,,,,,,,,,,,,,,,,,,,,,,,,,,,,,,,,,,
,,,,,495172,001,2024-06-14_11h36.29.015,experiment,2024.1.5,MacIntel,60.24096386,663a5c3ef84d9c74ea3c07a1,666b5f73dbba3f0cd916b177,666c71619debcbbdc1816e49,,,,,,,,,,,,,,,,,,,,,,,,,,,,,,,,,,,,576.1061,582.3553,0,0,0,0,1,SoundStimuli/LivinOnAPrayer_BonJovi_Original5S.wav,,,,,,,,,,,,,,,,,,,,,,,,,,,,,,,,,,,,,,,,,,,,,,,,,,,,,,,,,,
,,,,,495172,001,2024-06-14_11h36.29.015,experiment,2024.1.5,MacIntel,60.24096386,663a5c3ef84d9c74ea3c07a1,666b5f73dbba3f0cd916b177,666c71619debcbbdc1816e49,,,,,,,,,,,,,,,,,,,,,,,,,,,,,,,,,,,,582.3701,590.0395,0,1,1,1,1,SoundStimuli/LivinOnAPrayer_BonJovi_Cover5S.wav,,,,,,,,,,,,,,,,,,,,,,,,,,,,,,,,,,,,,,,,,,,,,,,,,,,,,,,,,,
,,,,,495172,001,2024-06-14_11h36.29.015,experiment,2024.1.5,MacIntel,60.24096386,663a5c3ef84d9c74ea3c07a1,666b5f73dbba3f0cd916b177,666c71619debcbbdc1816e49,,,,,,,,,,,,,,,,,,,,,,,,,,,,,,,,,,,,,,,,,,,,590.0396,591.5394,6.758261485,1.4802,0,21,21,16,1,song_indices/LivinOnAPrayer_BonJovi.csv,,,,,,,,,,,,,,,,,,,,,,,,,,,,,,,,,,,,,,,,,,,,,,,,
,,,,,495172,001,2024-06-14_11h36.29.015,experiment,2024.1.5,MacIntel,60.24096386,663a5c3ef84d9c74ea3c07a1,666b5f73dbba3f0cd916b177,666c71619debcbbdc1816e49,,,,,,,,,,,,,,,,,,,,,,,,,,,,,,,,,,,,591.5402,595.6223,0,0,0,1,1,SoundStimuli/BohemianRhapsody_Queen_Cover5S.wav,,,,,,,,,,,,,,,,,,,,,,,,,,,,,,,,,,,,,,,,,,,,,,,,,,,,,,,,,,
,,,,,495172,001,2024-06-14_11h36.29.015,experiment,2024.1.5,MacIntel,60.24096386,663a5c3ef84d9c74ea3c07a1,666b5f73dbba3f0cd916b177,666c71619debcbbdc1816e49,,,,,,,,,,,,,,,,,,,,,,,,,,,,,,,,,,,,595.6328,601.5907,0,1,1,0,1,SoundStimuli/BohemianRhapsody_Queen_Original5S.wav,,,,,,,,,,,,,,,,,,,,,,,,,,,,,,,,,,,,,,,,,,,,,,,,,,,,,,,,,,
,,,,,495172,001,2024-06-14_11h36.29.015,experiment,2024.1.5,MacIntel,60.24096386,663a5c3ef84d9c74ea3c07a1,666b5f73dbba3f0cd916b177,666c71619debcbbdc1816e49,,,,,,,,,,,,,,,,,,,,,,,,,,,,,,,,,,,,,,,,,,,,601.5915,603.1398,6.543322419,1.5314,0,22,22,18,1,song_indices/BohemianRhapsody_Queen.csv,,,,,,,,,,,,,,,,,,,,,,,,,,,,,,,,,,,,,,,,,,,,,,,,
,,,,,495172,001,2024-06-14_11h36.29.015,experiment,2024.1.5,MacIntel,60.24096386,663a5c3ef84d9c74ea3c07a1,666b5f73dbba3f0cd916b177,666c71619debcbbdc1816e49,,,,,,,,,,,,,,,,,,,,,,,,,,,,,,,,,,,,,,,,,,,,,,,,,,,,,,603.1404,604.5403,space,1.3855,,0,0,0,0,1,choose_song_b1.csv,,,,,,,,,,,,,,,,,,,,,,,,,,,,,,,,,,,,,
,,,,,495172,001,2024-06-14_11h36.29.015,experiment,2024.1.5,MacIntel,60.24096386,663a5c3ef84d9c74ea3c07a1,666b5f73dbba3f0cd916b177,666c71619debcbbdc1816e49,,,,,,,,,,,,,,,,,,,,,,,,,,,,,,,,,,,,604.5432,611.558,0,0,0,0,1,SoundStimuli/PokerFace_LadyGaga_Original5S.wav,,,,,,,,,,,,,,,,,,,,,,,,,,,,,,,,,,,,,,,,,,,,,,,,,,,,,,,,,,
,,,,,495172,001,2024-06-14_11h36.29.015,experiment,2024.1.5,MacIntel,60.24096386,663a5c3ef84d9c74ea3c07a1,666b5f73dbba3f0cd916b177,666c71619debcbbdc1816e49,,,,,,,,,,,,,,,,,,,,,,,,,,,,,,,,,,,,611.5739,618.4246,0,1,1,1,1,SoundStimuli/PokerFace_LadyGaga_Cover5S.wav,,,,,,,,,,,,,,,,,,,,,,,,,,,,,,,,,,,,,,,,,,,,,,,,,,,,,,,,,,
,,,,,495172,001,2024-06-14_11h36.29.015,experiment,2024.1.5,MacIntel,60.24096386,663a5c3ef84d9c74ea3c07a1,666b5f73dbba3f0cd916b177,666c71619debcbbdc1816e49,,,,,,,,,,,,,,,,,,,,,,,,,,,,,,,,,,,,,,,,,,,,618.4247,619.5243,6.796258796,1.0786,0,0,0,23,1,song_indices/PokerFace_LadyGaga.csv,,,,,,,,,,,,,,,,,,,,,,,,,,,,,,,,,,,,,,,,,,,,,,,,
,,,,,495172,001,2024-06-14_11h36.29.015,experiment,2024.1.5,MacIntel,60.24096386,663a5c3ef84d9c74ea3c07a1,666b5f73dbba3f0cd916b177,666c71619debcbbdc1816e49,,,,,,,,,,,,,,,,,,,,,,,,,,,,,,,,,,,,619.5256,625.6086,0,0,0,0,1,SoundStimuli/Weak_SWV_Original5S.wav,,,,,,,,,,,,,,,,,,,,,,,,,,,,,,,,,,,,,,,,,,,,,,,,,,,,,,,,,,
,,,,,495172,001,2024-06-14_11h36.29.015,experiment,2024.1.5,MacIntel,60.24096386,663a5c3ef84d9c74ea3c07a1,666b5f73dbba3f0cd916b177,666c71619debcbbdc1816e49,,,,,,,,,,,,,,,,,,,,,,,,,,,,,,,,,,,,625.6244,632.0922,0,1,1,1,1,SoundStimuli/Weak_SWV_Cover5S.wav,,,,,,,,,,,,,,,,,,,,,,,,,,,,,,,,,,,,,,,,,,,,,,,,,,,,,,,,,,
,,,,,495172,001,2024-06-14_11h36.29.015,experiment,2024.1.5,MacIntel,60.24096386,663a5c3ef84d9c74ea3c07a1,666b5f73dbba3f0cd916b177,666c71619debcbbdc1816e49,,,,,,,,,,,,,,,,,,,,,,,,,,,,,,,,,,,,,,,,,,,,632.0923,634.8421,6.959184202,2.7287,0,1,1,6,1,song_indices/Weak_SWV.csv,,,,,,,,,,,,,,,,,,,,,,,,,,,,,,,,,,,,,,,,,,,,,,,,
,,,,,495172,001,2024-06-14_11h36.29.015,experiment,2024.1.5,MacIntel,60.24096386,663a5c3ef84d9c74ea3c07a1,666b5f73dbba3f0cd916b177,666c71619debcbbdc1816e49,,,,,,,,,,,,,,,,,,,,,,,,,,,,,,,,,,,,634.844,638.8265,0,0,0,1,1,SoundStimuli/UnbreakMyHeart_ToniBraxton_Cover5S.wav,,,,,,,,,,,,,,,,,,,,,,,,,,,,,,,,,,,,,,,,,,,,,,,,,,,,,,,,,,
,,,,,495172,001,2024-06-14_11h36.29.015,experiment,2024.1.5,MacIntel,60.24096386,663a5c3ef84d9c74ea3c07a1,666b5f73dbba3f0cd916b177,666c71619debcbbdc1816e49,,,,,,,,,,,,,,,,,,,,,,,,,,,,,,,,,,,,638.842,644.9264,0,1,1,0,1,SoundStimuli/UnbreakMyHeart_ToniBraxton_Original5S.wav,,,,,,,,,,,,,,,,,,,,,,,,,,,,,,,,,,,,,,,,,,,,,,,,,,,,,,,,,,
,,,,,495172,001,2024-06-14_11h36.29.015,experiment,2024.1.5,MacIntel,60.24096386,663a5c3ef84d9c74ea3c07a1,666b5f73dbba3f0cd916b177,666c71619debcbbdc1816e49,,,,,,,,,,,,,,,,,,,,,,,,,,,,,,,,,,,,,,,,,,,,644.9267,646.3757,6.741505244,1.4348,0,2,2,16,1,song_indices/UnbreakMyHeart_ToniBraxton.csv,,,,,,,,,,,,,,,,,,,,,,,,,,,,,,,,,,,,,,,,,,,,,,,,
,,,,,495172,001,2024-06-14_11h36.29.015,experiment,2024.1.5,MacIntel,60.24096386,663a5c3ef84d9c74ea3c07a1,666b5f73dbba3f0cd916b177,666c71619debcbbdc1816e49,,,,,,,,,,,,,,,,,,,,,,,,,,,,,,,,,,,,646.3767,652.4777,0,0,0,0,1,SoundStimuli/JoyToTheWorld_ThreeDogNight_Original5S.wav,,,,,,,,,,,,,,,,,,,,,,,,,,,,,,,,,,,,,,,,,,,,,,,,,,,,,,,,,,
,,,,,495172,001,2024-06-14_11h36.29.015,experiment,2024.1.5,MacIntel,60.24096386,663a5c3ef84d9c74ea3c07a1,666b5f73dbba3f0cd916b177,666c71619debcbbdc1816e49,,,,,,,,,,,,,,,,,,,,,,,,,,,,,,,,,,,,652.4933,657.6272,0,1,1,1,1,SoundStimuli/JoyToTheWorld_ThreeDogNight_Cover5S.wav,,,,,,,,,,,,,,,,,,,,,,,,,,,,,,,,,,,,,,,,,,,,,,,,,,,,,,,,,,
,,,,,495172,001,2024-06-14_11h36.29.015,experiment,2024.1.5,MacIntel,60.24096386,663a5c3ef84d9c74ea3c07a1,666b5f73dbba3f0cd916b177,666c71619debcbbdc1816e49,,,,,,,,,,,,,,,,,,,,,,,,,,,,,,,,,,,,,,,,,,,,657.6275,660.5937,5.784059707,2.9449,0,3,3,8,1,song_indices/JoyToTheWorld_ThreeDogNight.csv,,,,,,,,,,,,,,,,,,,,,,,,,,,,,,,,,,,,,,,,,,,,,,,,
,,,,,495172,001,2024-06-14_11h36.29.015,experiment,2024.1.5,MacIntel,60.24096386,663a5c3ef84d9c74ea3c07a1,666b5f73dbba3f0cd916b177,666c71619debcbbdc1816e49,,,,,,,,,,,,,,,,,,,,,,,,,,,,,,,,,,,,660.595,667.3618,0,0,0,0,1,SoundStimuli/BlurredLines_RobinThicke_Original5S.wav,,,,,,,,,,,,,,,,,,,,,,,,,,,,,,,,,,,,,,,,,,,,,,,,,,,,,,,,,,
,,,,,495172,001,2024-06-14_11h36.29.015,experiment,2024.1.5,MacIntel,60.24096386,663a5c3ef84d9c74ea3c07a1,666b5f73dbba3f0cd916b177,666c71619debcbbdc1816e49,,,,,,,,,,,,,,,,,,,,,,,,,,,,,,,,,,,,667.3739,674.4612,0,1,1,1,1,SoundStimuli/BlurredLines_RobinThicke_Cover5S.wav,,,,,,,,,,,,,,,,,,,,,,,,,,,,,,,,,,,,,,,,,,,,,,,,,,,,,,,,,,
,,,,,495172,001,2024-06-14_11h36.29.015,experiment,2024.1.5,MacIntel,60.24096386,663a5c3ef84d9c74ea3c07a1,666b5f73dbba3f0cd916b177,666c71619debcbbdc1816e49,,,,,,,,,,,,,,,,,,,,,,,,,,,,,,,,,,,,,,,,,,,,674.4614,676.1788,6.903409775,1.6977,0,4,4,9,1,song_indices/BlurredLines_RobinThicke.csv,,,,,,,,,,,,,,,,,,,,,,,,,,,,,,,,,,,,,,,,,,,,,,,,
,,,,,495172,001,2024-06-14_11h36.29.015,experiment,2024.1.5,MacIntel,60.24096386,663a5c3ef84d9c74ea3c07a1,666b5f73dbba3f0cd916b177,666c71619debcbbdc1816e49,,,,,,,,,,,,,,,,,,,,,,,,,,,,,,,,,,,,676.1799,683.6133,0,0,0,0,1,SoundStimuli/Kiss_Prince_Original5S.wav,,,,,,,,,,,,,,,,,,,,,,,,,,,,,,,,,,,,,,,,,,,,,,,,,,,,,,,,,,
,,,,,495172,001,2024-06-14_11h36.29.015,experiment,2024.1.5,MacIntel,60.24096386,663a5c3ef84d9c74ea3c07a1,666b5f73dbba3f0cd916b177,666c71619debcbbdc1816e49,,,,,,,,,,,,,,,,,,,,,,,,,,,,,,,,,,,,683.6291,689.9122,0,1,1,1,1,SoundStimuli/Kiss_Prince_Cover5S.wav,,,,,,,,,,,,,,,,,,,,,,,,,,,,,,,,,,,,,,,,,,,,,,,,,,,,,,,,,,
,,,,,495172,001,2024-06-14_11h36.29.015,experiment,2024.1.5,MacIntel,60.24096386,663a5c3ef84d9c74ea3c07a1,666b5f73dbba3f0cd916b177,666c71619debcbbdc1816e49,,,,,,,,,,,,,,,,,,,,,,,,,,,,,,,,,,,,,,,,,,,,689.9123,693.4129,3.009420317,3.4822,0,5,5,14,1,song_indices/Kiss_Prince.csv,,,,,,,,,,,,,,,,,,,,,,,,,,,,,,,,,,,,,,,,,,,,,,,,
,,,,,495172,001,2024-06-14_11h36.29.015,experiment,2024.1.5,MacIntel,60.24096386,663a5c3ef84d9c74ea3c07a1,666b5f73dbba3f0cd916b177,666c71619debcbbdc1816e49,,,,,,,,,,,,,,,,,,,,,,,,,,,,,,,,,,,,693.4142,699.5638,0,0,0,0,1,SoundStimuli/Superstition_StevieWonder_Original5S.wav,,,,,,,,,,,,,,,,,,,,,,,,,,,,,,,,,,,,,,,,,,,,,,,,,,,,,,,,,,
,,,,,495172,001,2024-06-14_11h36.29.015,experiment,2024.1.5,MacIntel,60.24096386,663a5c3ef84d9c74ea3c07a1,666b5f73dbba3f0cd916b177,666c71619debcbbdc1816e49,,,,,,,,,,,,,,,,,,,,,,,,,,,,,,,,,,,,699.5786,704.8639,0,1,1,1,1,SoundStimuli/Superstition_StevieWonder_Cover5S.wav,,,,,,,,,,,,,,,,,,,,,,,,,,,,,,,,,,,,,,,,,,,,,,,,,,,,,,,,,,
,,,,,495172,001,2024-06-14_11h36.29.015,experiment,2024.1.5,MacIntel,60.24096386,663a5c3ef84d9c74ea3c07a1,666b5f73dbba3f0cd916b177,666c71619debcbbdc1816e49,,,,,,,,,,,,,,,,,,,,,,,,,,,,,,,,,,,,,,,,,,,,704.864,706.5316,6.786907039,1.6493,0,6,6,15,1,song_indices/Superstition_StevieWonder.csv,,,,,,,,,,,,,,,,,,,,,,,,,,,,,,,,,,,,,,,,,,,,,,,,
,,,,,495172,001,2024-06-14_11h36.29.015,experiment,2024.1.5,MacIntel,60.24096386,663a5c3ef84d9c74ea3c07a1,666b5f73dbba3f0cd916b177,666c71619debcbbdc1816e49,,,,,,,,,,,,,,,,,,,,,,,,,,,,,,,,,,,,706.5337,712.5647,0,0,0,0,1,SoundStimuli/HowDoILive_LeAnnRimes_Original5S.wav,,,,,,,,,,,,,,,,,,,,,,,,,,,,,,,,,,,,,,,,,,,,,,,,,,,,,,,,,,
,,,,,495172,001,2024-06-14_11h36.29.015,experiment,2024.1.5,MacIntel,60.24096386,663a5c3ef84d9c74ea3c07a1,666b5f73dbba3f0cd916b177,666c71619debcbbdc1816e49,,,,,,,,,,,,,,,,,,,,,,,,,,,,,,,,,,,,712.5783,718.0484,0,1,1,1,1,SoundStimuli/HowDoILive_LeAnnRimes_Cover5S.wav,,,,,,,,,,,,,,,,,,,,,,,,,,,,,,,,,,,,,,,,,,,,,,,,,,,,,,,,,,
,,,,,495172,001,2024-06-14_11h36.29.015,experiment,2024.1.5,MacIntel,60.24096386,663a5c3ef84d9c74ea3c07a1,666b5f73dbba3f0cd916b177,666c71619debcbbdc1816e49,,,,,,,,,,,,,,,,,,,,,,,,,,,,,,,,,,,,,,,,,,,,718.0486,719.4813,6.898297872,1.4123,0,7,7,17,1,song_indices/HowDoILive_LeAnnRimes.csv,,,,,,,,,,,,,,,,,,,,,,,,,,,,,,,,,,,,,,,,,,,,,,,,
,,,,,495172,001,2024-06-14_11h36.29.015,experiment,2024.1.5,MacIntel,60.24096386,663a5c3ef84d9c74ea3c07a1,666b5f73dbba3f0cd916b177,666c71619debcbbdc1816e49,,,,,,,,,,,,,,,,,,,,,,,,,,,,,,,,,,,,719.4826,726.549,0,0,0,1,1,SoundStimuli/ComeAndGetYourLove_Redbone_Cover5S.wav,,,,,,,,,,,,,,,,,,,,,,,,,,,,,,,,,,,,,,,,,,,,,,,,,,,,,,,,,,
,,,,,495172,001,2024-06-14_11h36.29.015,experiment,2024.1.5,MacIntel,60.24096386,663a5c3ef84d9c74ea3c07a1,666b5f73dbba3f0cd916b177,666c71619debcbbdc1816e49,,,,,,,,,,,,,,,,,,,,,,,,,,,,,,,,,,,,726.5653,732.6649,0,1,1,0,1,SoundStimuli/ComeAndGetYourLove_Redbone_Original5S.wav,,,,,,,,,,,,,,,,,,,,,,,,,,,,,,,,,,,,,,,,,,,,,,,,,,,,,,,,,,
,,,,,495172,001,2024-06-14_11h36.29.015,experiment,2024.1.5,MacIntel,60.24096386,663a5c3ef84d9c74ea3c07a1,666b5f73dbba3f0cd916b177,666c71619debcbbdc1816e49,,,,,,,,,,,,,,,,,,,,,,,,,,,,,,,,,,,,,,,,,,,,732.6651,734.265,6.898297872,1.5803,0,8,8,22,1,song_indices/ComeAndGetYourLove_Redbone.csv,,,,,,,,,,,,,,,,,,,,,,,,,,,,,,,,,,,,,,,,,,,,,,,,
,,,,,495172,001,2024-06-14_11h36.29.015,experiment,2024.1.5,MacIntel,60.24096386,663a5c3ef84d9c74ea3c07a1,666b5f73dbba3f0cd916b177,666c71619debcbbdc1816e49,,,,,,,,,,,,,,,,,,,,,,,,,,,,,,,,,,,,734.2657,740.2993,0,0,0,0,1,SoundStimuli/LeFreak_Chic_Original5S.wav,,,,,,,,,,,,,,,,,,,,,,,,,,,,,,,,,,,,,,,,,,,,,,,,,,,,,,,,,,
,,,,,495172,001,2024-06-14_11h36.29.015,experiment,2024.1.5,MacIntel,60.24096386,663a5c3ef84d9c74ea3c07a1,666b5f73dbba3f0cd916b177,666c71619debcbbdc1816e49,,,,,,,,,,,,,,,,,,,,,,,,,,,,,,,,,,,,740.3107,745.8164,0,1,1,1,1,SoundStimuli/LeFreak_Chic_Cover5S.wav,,,,,,,,,,,,,,,,,,,,,,,,,,,,,,,,,,,,,,,,,,,,,,,,,,,,,,,,,,
,,,,,495172,001,2024-06-14_11h36.29.015,experiment,2024.1.5,MacIntel,60.24096386,663a5c3ef84d9c74ea3c07a1,666b5f73dbba3f0cd916b177,666c71619debcbbdc1816e49,,,,,,,,,,,,,,,,,,,,,,,,,,,,,,,,,,,,,,,,,,,,745.8165,747.8498,6.739045444,2.0125,0,9,9,11,1,song_indices/LeFreak_Chic.csv,,,,,,,,,,,,,,,,,,,,,,,,,,,,,,,,,,,,,,,,,,,,,,,,
,,,,,495172,001,2024-06-14_11h36.29.015,experiment,2024.1.5,MacIntel,60.24096386,663a5c3ef84d9c74ea3c07a1,666b5f73dbba3f0cd916b177,666c71619debcbbdc1816e49,,,,,,,,,,,,,,,,,,,,,,,,,,,,,,,,,,,,747.8508,754.3164,0,0,0,0,1,SoundStimuli/BlindingLights_TheWeeknd_Original5S.wav,,,,,,,,,,,,,,,,,,,,,,,,,,,,,,,,,,,,,,,,,,,,,,,,,,,,,,,,,,
,,,,,495172,001,2024-06-14_11h36.29.015,experiment,2024.1.5,MacIntel,60.24096386,663a5c3ef84d9c74ea3c07a1,666b5f73dbba3f0cd916b177,666c71619debcbbdc1816e49,,,,,,,,,,,,,,,,,,,,,,,,,,,,,,,,,,,,754.332,761.1179,0,1,1,1,1,SoundStimuli/BlindingLights_TheWeeknd_Cover5S.wav,,,,,,,,,,,,,,,,,,,,,,,,,,,,,,,,,,,,,,,,,,,,,,,,,,,,,,,,,,
,,,,,495172,001,2024-06-14_11h36.29.015,experiment,2024.1.5,MacIntel,60.24096386,663a5c3ef84d9c74ea3c07a1,666b5f73dbba3f0cd916b177,666c71619debcbbdc1816e49,,,,,,,,,,,,,,,,,,,,,,,,,,,,,,,,,,,,,,,,,,,,761.1181,764.0348,3.860794276,2.8943,0,10,10,21,1,song_indices/BlindingLights_TheWeeknd.csv,,,,,,,,,,,,,,,,,,,,,,,,,,,,,,,,,,,,,,,,,,,,,,,,
,,,,,495172,001,2024-06-14_11h36.29.015,experiment,2024.1.5,MacIntel,60.24096386,663a5c3ef84d9c74ea3c07a1,666b5f73dbba3f0cd916b177,666c71619debcbbdc1816e49,,,,,,,,,,,,,,,,,,,,,,,,,,,,,,,,,,,,764.0369,770.6858,0,0,0,1,1,SoundStimuli/LetsGetItOn_MarvinGaye_Cover5S.wav,,,,,,,,,,,,,,,,,,,,,,,,,,,,,,,,,,,,,,,,,,,,,,,,,,,,,,,,,,
,,,,,495172,001,2024-06-14_11h36.29.015,experiment,2024.1.5,MacIntel,60.24096386,663a5c3ef84d9c74ea3c07a1,666b5f73dbba3f0cd916b177,666c71619debcbbdc1816e49,,,,,,,,,,,,,,,,,,,,,,,,,,,,,,,,,,,,770.7016,776.9848,0,1,1,0,1,SoundStimuli/LetsGetItOn_MarvinGaye_Original5S.wav,,,,,,,,,,,,,,,,,,,,,,,,,,,,,,,,,,,,,,,,,,,,,,,,,,,,,,,,,,
,,,,,495172,001,2024-06-14_11h36.29.015,experiment,2024.1.5,MacIntel,60.24096386,663a5c3ef84d9c74ea3c07a1,666b5f73dbba3f0cd916b177,666c71619debcbbdc1816e49,,,,,,,,,,,,,,,,,,,,,,,,,,,,,,,,,,,,,,,,,,,,776.985,780.1681,4.730968737,3.1647,0,11,11,20,1,song_indices/LetsGetItOn_MarvinGaye.csv,,,,,,,,,,,,,,,,,,,,,,,,,,,,,,,,,,,,,,,,,,,,,,,,
,,,,,495172,001,2024-06-14_11h36.29.015,experiment,2024.1.5,MacIntel,60.24096386,663a5c3ef84d9c74ea3c07a1,666b5f73dbba3f0cd916b177,666c71619debcbbdc1816e49,,,,,,,,,,,,,,,,,,,,,,,,,,,,,,,,,,,,780.1692,785.8863,0,0,0,1,1,SoundStimuli/Levitating_DuaLipa_Cover5S.wav,,,,,,,,,,,,,,,,,,,,,,,,,,,,,,,,,,,,,,,,,,,,,,,,,,,,,,,,,,
,,,,,495172,001,2024-06-14_11h36.29.015,experiment,2024.1.5,MacIntel,60.24096386,663a5c3ef84d9c74ea3c07a1,666b5f73dbba3f0cd916b177,666c71619debcbbdc1816e49,,,,,,,,,,,,,,,,,,,,,,,,,,,,,,,,,,,,785.9018,791.9035,0,1,1,0,1,SoundStimuli/Levitating_DuaLipa_Original5S.wav,,,,,,,,,,,,,,,,,,,,,,,,,,,,,,,,,,,,,,,,,,,,,,,,,,,,,,,,,,
,,,,,495172,001,2024-06-14_11h36.29.015,experiment,2024.1.5,MacIntel,60.24096386,663a5c3ef84d9c74ea3c07a1,666b5f73dbba3f0cd916b177,666c71619debcbbdc1816e49,,,,,,,,,,,,,,,,,,,,,,,,,,,,,,,,,,,,,,,,,,,,791.9035,794.0198,5.991419126,2.0977,0,12,12,10,1,song_indices/Levitating_DuaLipa.csv,,,,,,,,,,,,,,,,,,,,,,,,,,,,,,,,,,,,,,,,,,,,,,,,
,,,,,495172,001,2024-06-14_11h36.29.015,experiment,2024.1.5,MacIntel,60.24096386,663a5c3ef84d9c74ea3c07a1,666b5f73dbba3f0cd916b177,666c71619debcbbdc1816e49,,,,,,,,,,,,,,,,,,,,,,,,,,,,,,,,,,,,794.0212,800.2201,0,0,0,0,1,SoundStimuli/Dilemma_NellyKellyRowland_Original5S.wav,,,,,,,,,,,,,,,,,,,,,,,,,,,,,,,,,,,,,,,,,,,,,,,,,,,,,,,,,,
,,,,,495172,001,2024-06-14_11h36.29.015,experiment,2024.1.5,MacIntel,60.24096386,663a5c3ef84d9c74ea3c07a1,666b5f73dbba3f0cd916b177,666c71619debcbbdc1816e49,,,,,,,,,,,,,,,,,,,,,,,,,,,,,,,,,,,,800.2338,807.2208,0,1,1,1,1,SoundStimuli/Dilemma_NellyKellyRowland_Cover5S.wav,,,,,,,,,,,,,,,,,,,,,,,,,,,,,,,,,,,,,,,,,,,,,,,,,,,,,,,,,,
,,,,,495172,001,2024-06-14_11h36.29.015,experiment,2024.1.5,MacIntel,60.24096386,663a5c3ef84d9c74ea3c07a1,666b5f73dbba3f0cd916b177,666c71619debcbbdc1816e49,,,,,,,,,,,,,,,,,,,,,,,,,,,,,,,,,,,,,,,,,,,,807.221,808.9214,5.543312804,1.6768,0,13,13,2,1,song_indices/Dilemma_NellyKellyRowland.csv,,,,,,,,,,,,,,,,,,,,,,,,,,,,,,,,,,,,,,,,,,,,,,,,
,,,,,495172,001,2024-06-14_11h36.29.015,experiment,2024.1.5,MacIntel,60.24096386,663a5c3ef84d9c74ea3c07a1,666b5f73dbba3f0cd916b177,666c71619debcbbdc1816e49,,,,,,,,,,,,,,,,,,,,,,,,,,,,,,,,,,,,808.9224,815.005,0,0,0,0,1,SoundStimuli/YouLightUpMyLife_DebbyBoone_Original5S.wav,,,,,,,,,,,,,,,,,,,,,,,,,,,,,,,,,,,,,,,,,,,,,,,,,,,,,,,,,,
,,,,,495172,001,2024-06-14_11h36.29.015,experiment,2024.1.5,MacIntel,60.24096386,663a5c3ef84d9c74ea3c07a1,666b5f73dbba3f0cd916b177,666c71619debcbbdc1816e49,,,,,,,,,,,,,,,,,,,,,,,,,,,,,,,,,,,,815.0164,821.4553,0,1,1,1,1,SoundStimuli/YouLightUpMyLife_DebbyBoone_Cover5S.wav,,,,,,,,,,,,,,,,,,,,,,,,,,,,,,,,,,,,,,,,,,,,,,,,,,,,,,,,,,
,,,,,495172,001,2024-06-14_11h36.29.015,experiment,2024.1.5,MacIntel,60.24096386,663a5c3ef84d9c74ea3c07a1,666b5f73dbba3f0cd916b177,666c71619debcbbdc1816e49,,,,,,,,,,,,,,,,,,,,,,,,,,,,,,,,,,,,,,,,,,,,821.4555,823.6385,6.890138391,2.1611,0,14,14,4,1,song_indices/YouLightUpMyLife_DebbyBoone.csv,,,,,,,,,,,,,,,,,,,,,,,,,,,,,,,,,,,,,,,,,,,,,,,,
,,,,,495172,001,2024-06-14_11h36.29.015,experiment,2024.1.5,MacIntel,60.24096386,663a5c3ef84d9c74ea3c07a1,666b5f73dbba3f0cd916b177,666c71619debcbbdc1816e49,,,,,,,,,,,,,,,,,,,,,,,,,,,,,,,,,,,,823.6402,831.1728,0,0,0,1,1,SoundStimuli/TikTok_Kesha_Cover5S.wav,,,,,,,,,,,,,,,,,,,,,,,,,,,,,,,,,,,,,,,,,,,,,,,,,,,,,,,,,,
,,,,,495172,001,2024-06-14_11h36.29.015,experiment,2024.1.5,MacIntel,60.24096386,663a5c3ef84d9c74ea3c07a1,666b5f73dbba3f0cd916b177,666c71619debcbbdc1816e49,,,,,,,,,,,,,,,,,,,,,,,,,,,,,,,,,,,,831.1889,837.3898,0,1,1,0,1,SoundStimuli/TikTok_Kesha_Original5S.wav,,,,,,,,,,,,,,,,,,,,,,,,,,,,,,,,,,,,,,,,,,,,,,,,,,,,,,,,,,
,,,,,495172,001,2024-06-14_11h36.29.015,experiment,2024.1.5,MacIntel,60.24096386,663a5c3ef84d9c74ea3c07a1,666b5f73dbba3f0cd916b177,666c71619debcbbdc1816e49,,,,,,,,,,,,,,,,,,,,,,,,,,,,,,,,,,,,,,,,,,,,837.39,838.956,6.6392237,1.5446,0,15,15,3,1,song_indices/TikTok_Kesha.csv,,,,,,,,,,,,,,,,,,,,,,,,,,,,,,,,,,,,,,,,,,,,,,,,
,,,,,495172,001,2024-06-14_11h36.29.015,experiment,2024.1.5,MacIntel,60.24096386,663a5c3ef84d9c74ea3c07a1,666b5f73dbba3f0cd916b177,666c71619debcbbdc1816e49,,,,,,,,,,,,,,,,,,,,,,,,,,,,,,,,,,,,838.9572,844.8569,0,0,0,1,1,SoundStimuli/SaveYourTears_TheWeekndArianaGrande_Cover5S.wav,,,,,,,,,,,,,,,,,,,,,,,,,,,,,,,,,,,,,,,,,,,,,,,,,,,,,,,,,,
,,,,,495172,001,2024-06-14_11h36.29.015,experiment,2024.1.5,MacIntel,60.24096386,663a5c3ef84d9c74ea3c07a1,666b5f73dbba3f0cd916b177,666c71619debcbbdc1816e49,,,,,,,,,,,,,,,,,,,,,,,,,,,,,,,,,,,,844.873,851.0737,0,1,1,0,1,SoundStimuli/SaveYourTears_TheWeekndArianaGrande_Original5S.wav,,,,,,,,,,,,,,,,,,,,,,,,,,,,,,,,,,,,,,,,,,,,,,,,,,,,,,,,,,
,,,,,495172,001,2024-06-14_11h36.29.015,experiment,2024.1.5,MacIntel,60.24096386,663a5c3ef84d9c74ea3c07a1,666b5f73dbba3f0cd916b177,666c71619debcbbdc1816e49,,,,,,,,,,,,,,,,,,,,,,,,,,,,,,,,,,,,,,,,,,,,851.0739,853.9406,6.449228783,2.8456,0,16,16,12,1,song_indices/SaveYourTears_TheWeekndArianaGrande.csv,,,,,,,,,,,,,,,,,,,,,,,,,,,,,,,,,,,,,,,,,,,,,,,,
,,,,,495172,001,2024-06-14_11h36.29.015,experiment,2024.1.5,MacIntel,60.24096386,663a5c3ef84d9c74ea3c07a1,666b5f73dbba3f0cd916b177,666c71619debcbbdc1816e49,,,,,,,,,,,,,,,,,,,,,,,,,,,,,,,,,,,,853.9422,859.858,0,0,0,1,1,SoundStimuli/Irreplaceable_Beyonce_Cover5S.wav,,,,,,,,,,,,,,,,,,,,,,,,,,,,,,,,,,,,,,,,,,,,,,,,,,,,,,,,,,
,,,,,495172,001,2024-06-14_11h36.29.015,experiment,2024.1.5,MacIntel,60.24096386,663a5c3ef84d9c74ea3c07a1,666b5f73dbba3f0cd916b177,666c71619debcbbdc1816e49,,,,,,,,,,,,,,,,,,,,,,,,,,,,,,,,,,,,859.8746,865.758,0,1,1,0,1,SoundStimuli/Irreplaceable_Beyonce_Original5S.wav,,,,,,,,,,,,,,,,,,,,,,,,,,,,,,,,,,,,,,,,,,,,,,,,,,,,,,,,,,
,,,,,495172,001,2024-06-14_11h36.29.015,experiment,2024.1.5,MacIntel,60.24096386,663a5c3ef84d9c74ea3c07a1,666b5f73dbba3f0cd916b177,666c71619debcbbdc1816e49,,,,,,,,,,,,,,,,,,,,,,,,,,,,,,,,,,,,,,,,,,,,865.7582,867.9411,6.40914708,2.1613,0,17,17,19,1,song_indices/Irreplaceable_Beyonce.csv,,,,,,,,,,,,,,,,,,,,,,,,,,,,,,,,,,,,,,,,,,,,,,,,
,,,,,495172,001,2024-06-14_11h36.29.015,experiment,2024.1.5,MacIntel,60.24096386,663a5c3ef84d9c74ea3c07a1,666b5f73dbba3f0cd916b177,666c71619debcbbdc1816e49,,,,,,,,,,,,,,,,,,,,,,,,,,,,,,,,,,,,867.9422,874.1089,0,0,0,0,1,SoundStimuli/TheSign_AceOfBase_Original5S.wav,,,,,,,,,,,,,,,,,,,,,,,,,,,,,,,,,,,,,,,,,,,,,,,,,,,,,,,,,,
,,,,,495172,001,2024-06-14_11h36.29.015,experiment,2024.1.5,MacIntel,60.24096386,663a5c3ef84d9c74ea3c07a1,666b5f73dbba3f0cd916b177,666c71619debcbbdc1816e49,,,,,,,,,,,,,,,,,,,,,,,,,,,,,,,,,,,,874.1248,880.1252,0,1,1,1,1,SoundStimuli/TheSign_AceOfBase_Cover5S.wav,,,,,,,,,,,,,,,,,,,,,,,,,,,,,,,,,,,,,,,,,,,,,,,,,,,,,,,,,,
,,,,,495172,001,2024-06-14_11h36.29.015,experiment,2024.1.5,MacIntel,60.24096386,663a5c3ef84d9c74ea3c07a1,666b5f73dbba3f0cd916b177,666c71619debcbbdc1816e49,,,,,,,,,,,,,,,,,,,,,,,,,,,,,,,,,,,,,,,,,,,,880.1254,885.5597,6.110337349,5.4155,0,18,18,5,1,song_indices/TheSign_AceOfBase.csv,,,,,,,,,,,,,,,,,,,,,,,,,,,,,,,,,,,,,,,,,,,,,,,,
,,,,,495172,001,2024-06-14_11h36.29.015,experiment,2024.1.5,MacIntel,60.24096386,663a5c3ef84d9c74ea3c07a1,666b5f73dbba3f0cd916b177,666c71619debcbbdc1816e49,,,,,,,,,,,,,,,,,,,,,,,,,,,,,,,,,,,,885.561,891.4938,0,0,0,0,1,SoundStimuli/Respect_ArethaFranklin_Original5S.wav,,,,,,,,,,,,,,,,,,,,,,,,,,,,,,,,,,,,,,,,,,,,,,,,,,,,,,,,,,
,,,,,495172,001,2024-06-14_11h36.29.015,experiment,2024.1.5,MacIntel,60.24096386,663a5c3ef84d9c74ea3c07a1,666b5f73dbba3f0cd916b177,666c71619debcbbdc1816e49,,,,,,,,,,,,,,,,,,,,,,,,,,,,,,,,,,,,891.5096,897.5604,0,1,1,1,1,SoundStimuli/Respect_ArethaFranklin_Cover5S.wav,,,,,,,,,,,,,,,,,,,,,,,,,,,,,,,,,,,,,,,,,,,,,,,,,,,,,,,,,,
,,,,,495172,001,2024-06-14_11h36.29.015,experiment,2024.1.5,MacIntel,60.24096386,663a5c3ef84d9c74ea3c07a1,666b5f73dbba3f0cd916b177,666c71619debcbbdc1816e49,,,,,,,,,,,,,,,,,,,,,,,,,,,,,,,,,,,,,,,,,,,,897.5606,902.227,6.110337349,4.6504,0,19,19,0,1,song_indices/Respect_ArethaFranklin.csv,,,,,,,,,,,,,,,,,,,,,,,,,,,,,,,,,,,,,,,,,,,,,,,,
,,,,,495172,001,2024-06-14_11h36.29.015,experiment,2024.1.5,MacIntel,60.24096386,663a5c3ef84d9c74ea3c07a1,666b5f73dbba3f0cd916b177,666c71619debcbbdc1816e49,,,,,,,,,,,,,,,,,,,,,,,,,,,,,,,,,,,,902.2283,910.0616,0,0,0,1,1,SoundStimuli/Dreams_FleetwoodMac_Cover5S.wav,,,,,,,,,,,,,,,,,,,,,,,,,,,,,,,,,,,,,,,,,,,,,,,,,,,,,,,,,,
,,,,,495172,001,2024-06-14_11h36.29.015,experiment,2024.1.5,MacIntel,60.24096386,663a5c3ef84d9c74ea3c07a1,666b5f73dbba3f0cd916b177,666c71619debcbbdc1816e49,,,,,,,,,,,,,,,,,,,,,,,,,,,,,,,,,,,,910.0776,916.5774,0,1,1,0,1,SoundStimuli/Dreams_FleetwoodMac_Original5S.wav,,,,,,,,,,,,,,,,,,,,,,,,,,,,,,,,,,,,,,,,,,,,,,,,,,,,,,,,,,
,,,,,495172,001,2024-06-14_11h36.29.015,experiment,2024.1.5,MacIntel,60.24096386,663a5c3ef84d9c74ea3c07a1,666b5f73dbba3f0cd916b177,666c71619debcbbdc1816e49,,,,,,,,,,,,,,,,,,,,,,,,,,,,,,,,,,,,,,,,,,,,916.5776,920.4954,6.110337349,3.9011,0,20,20,1,1,song_indices/Dreams_FleetwoodMac.csv,,,,,,,,,,,,,,,,,,,,,,,,,,,,,,,,,,,,,,,,,,,,,,,,
,,,,,495172,001,2024-06-14_11h36.29.015,experiment,2024.1.5,MacIntel,60.24096386,663a5c3ef84d9c74ea3c07a1,666b5f73dbba3f0cd916b177,666c71619debcbbdc1816e49,,,,,,,,,,,,,,,,,,,,,,,,,,,,,,,,,,,,920.4964,927.7287,0,0,0,0,1,SoundStimuli/SomebodyThatIUsedtoKnow_Gotye_Original5S.wav,,,,,,,,,,,,,,,,,,,,,,,,,,,,,,,,,,,,,,,,,,,,,,,,,,,,,,,,,,
,,,,,495172,001,2024-06-14_11h36.29.015,experiment,2024.1.5,MacIntel,60.24096386,663a5c3ef84d9c74ea3c07a1,666b5f73dbba3f0cd916b177,666c71619debcbbdc1816e49,,,,,,,,,,,,,,,,,,,,,,,,,,,,,,,,,,,,927.7459,934.5462,0,1,1,1,1,SoundStimuli/SomebodyThatIUsedtoKnow_Gotye_Cover5S.wav,,,,,,,,,,,,,,,,,,,,,,,,,,,,,,,,,,,,,,,,,,,,,,,,,,,,,,,,,,
,,,,,495172,001,2024-06-14_11h36.29.015,experiment,2024.1.5,MacIntel,60.24096386,663a5c3ef84d9c74ea3c07a1,666b5f73dbba3f0cd916b177,666c71619debcbbdc1816e49,,,,,,,,,,,,,,,,,,,,,,,,,,,,,,,,,,,,,,,,,,,,934.5465,940.497,6.240930845,5.9272,0,21,21,7,1,song_indices/SomebodyThatIUsedtoKnow_Gotye.csv,,,,,,,,,,,,,,,,,,,,,,,,,,,,,,,,,,,,,,,,,,,,,,,,
,,,,,495172,001,2024-06-14_11h36.29.015,experiment,2024.1.5,MacIntel,60.24096386,663a5c3ef84d9c74ea3c07a1,666b5f73dbba3f0cd916b177,666c71619debcbbdc1816e49,,,,,,,,,,,,,,,,,,,,,,,,,,,,,,,,,,,,940.499,946.5638,0,0,0,0,1,SoundStimuli/TossinAndTurnin_BobbyLewis_Original5S.wav,,,,,,,,,,,,,,,,,,,,,,,,,,,,,,,,,,,,,,,,,,,,,,,,,,,,,,,,,,
,,,,,495172,001,2024-06-14_11h36.29.015,experiment,2024.1.5,MacIntel,60.24096386,663a5c3ef84d9c74ea3c07a1,666b5f73dbba3f0cd916b177,666c71619debcbbdc1816e49,,,,,,,,,,,,,,,,,,,,,,,,,,,,,,,,,,,,946.5809,952.6966,0,1,1,1,1,SoundStimuli/TossinAndTurnin_BobbyLewis_Cover5S.wav,,,,,,,,,,,,,,,,,,,,,,,,,,,,,,,,,,,,,,,,,,,,,,,,,,,,,,,,,,
,,,,,495172,001,2024-06-14_11h36.29.015,experiment,2024.1.5,MacIntel,60.24096386,663a5c3ef84d9c74ea3c07a1,666b5f73dbba3f0cd916b177,666c71619debcbbdc1816e49,,,,,,,,,,,,,,,,,,,,,,,,,,,,,,,,,,,,,,,,,,,,952.6968,957.498,2.194291624,4.7819,0,22,22,13,1,song_indices/TossinAndTurnin_BobbyLewis.csv,,,,,,,,,,,,,,,,,,,,,,,,,,,,,,,,,,,,,,,,,,,,,,,,
,,,,,495172,001,2024-06-14_11h36.29.015,experiment,2024.1.5,MacIntel,60.24096386,663a5c3ef84d9c74ea3c07a1,666b5f73dbba3f0cd916b177,666c71619debcbbdc1816e49,,,,,,,,,,,,,,,,,,,,,,,,,,,,,,,,,,,,957.4992,964.7814,0,0,0,1,1,SoundStimuli/FlashdanceWhatAFeeling_IreneCara_Cover5S.wav,,,,,,,,,,,,,,,,,,,,,,,,,,,,,,,,,,,,,,,,,,,,,,,,,,,,,,,,,,
,,,,,495172,001,2024-06-14_11h36.29.015,experiment,2024.1.5,MacIntel,60.24096386,663a5c3ef84d9c74ea3c07a1,666b5f73dbba3f0cd916b177,666c71619debcbbdc1816e49,,,,,,,,,,,,,,,,,,,,,,,,,,,,,,,,,,,,964.7978,971.1987,0,1,1,0,1,SoundStimuli/FlashdanceWhatAFeeling_IreneCara_Original5S.wav,,,,,,,,,,,,,,,,,,,,,,,,,,,,,,,,,,,,,,,,,,,,,,,,,,,,,,,,,,
,,,,,495172,001,2024-06-14_11h36.29.015,experiment,2024.1.5,MacIntel,60.24096386,663a5c3ef84d9c74ea3c07a1,666b5f73dbba3f0cd916b177,666c71619debcbbdc1816e49,,,,,,,,,,,,,,,,,,,,,,,,,,,,,,,,,,,,,,,,,,,,971.1988,977.4491,6.516341536,6.2289,0,23,23,18,1,song_indices/FlashdanceWhatAFeeling_IreneCara.csv,,,,,,,,,,,,,,,,,,,,,,,,,,,,,,,,,,,,,,,,,,,,,,,,
,,,,,495172,001,2024-06-14_11h36.29.015,experiment,2024.1.5,MacIntel,60.24096386,663a5c3ef84d9c74ea3c07a1,666b5f73dbba3f0cd916b177,666c71619debcbbdc1816e49,,,,,,,,,,,,,,,,,,,,,,,,,,,,,,,,,,,,,,,,,,,,,,,,,,,,,,977.4492,978.7984,space,1.3387,,0,1,1,2,1,choose_song_b3.csv,,,,,,,,,,,,,,,,,,,,,,,,,,,,,,,,,,,,,
,,,,,495172,001,2024-06-14_11h36.29.015,experiment,2024.1.5,MacIntel,60.24096386,663a5c3ef84d9c74ea3c07a1,666b5f73dbba3f0cd916b177,666c71619debcbbdc1816e49,,,,,,,,,,,,,,,,,,,,,,,,,,,,,,,,,,,,978.8003,984.6494,0,0,0,1,1,SoundStimuli/IWillAlwaysLoveYou_WhitneyHouston_Cover5S.wav,,,,,,,,,,,,,,,,,,,,,,,,,,,,,,,,,,,,,,,,,,,,,,,,,,,,,,,,,,
,,,,,495172,001,2024-06-14_11h36.29.015,experiment,2024.1.5,MacIntel,60.24096386,663a5c3ef84d9c74ea3c07a1,666b5f73dbba3f0cd916b177,666c71619debcbbdc1816e49,,,,,,,,,,,,,,,,,,,,,,,,,,,,,,,,,,,,984.6647,991.0334,0,1,1,0,1,SoundStimuli/IWillAlwaysLoveYou_WhitneyHouston_Original5S.wav,,,,,,,,,,,,,,,,,,,,,,,,,,,,,,,,,,,,,,,,,,,,,,,,,,,,,,,,,,
,,,,,495172,001,2024-06-14_11h36.29.015,experiment,2024.1.5,MacIntel,60.24096386,663a5c3ef84d9c74ea3c07a1,666b5f73dbba3f0cd916b177,666c71619debcbbdc1816e49,,,,,,,,,,,,,,,,,,,,,,,,,,,,,,,,,,,,,,,,,,,,991.0336,993.0332,6.993928256,1.9782,0,0,0,10,1,song_indices/IWillAlwaysLoveYou_WhitneyHouston.csv,,,,,,,,,,,,,,,,,,,,,,,,,,,,,,,,,,,,,,,,,,,,,,,,
,,,,,495172,001,2024-06-14_11h36.29.015,experiment,2024.1.5,MacIntel,60.24096386,663a5c3ef84d9c74ea3c07a1,666b5f73dbba3f0cd916b177,666c71619debcbbdc1816e49,,,,,,,,,,,,,,,,,,,,,,,,,,,,,,,,,,,,993.035,999.0995,0,0,0,0,1,SoundStimuli/GoodGollyMissMolly_LittleRichard_Original5S.wav,,,,,,,,,,,,,,,,,,,,,,,,,,,,,,,,,,,,,,,,,,,,,,,,,,,,,,,,,,
,,,,,495172,001,2024-06-14_11h36.29.015,experiment,2024.1.5,MacIntel,60.24096386,663a5c3ef84d9c74ea3c07a1,666b5f73dbba3f0cd916b177,666c71619debcbbdc1816e49,,,,,,,,,,,,,,,,,,,,,,,,,,,,,,,,,,,,999.1152,1005.4676,0,1,1,1,1,SoundStimuli/GoodGollyMissMolly_LittleRichard_Cover5S.wav,,,,,,,,,,,,,,,,,,,,,,,,,,,,,,,,,,,,,,,,,,,,,,,,,,,,,,,,,,
,,,,,495172,001,2024-06-14_11h36.29.015,experiment,2024.1.5,MacIntel,60.24096386,663a5c3ef84d9c74ea3c07a1,666b5f73dbba3f0cd916b177,666c71619debcbbdc1816e49,,,,,,,,,,,,,,,,,,,,,,,,,,,,,,,,,,,,,,,,,,,,1005.4676,1025.7022,2.97434475,20.2165,0,1,1,0,1,song_indices/GoodGollyMissMolly_LittleRichard.csv,,,,,,,,,,,,,,,,,,,,,,,,,,,,,,,,,,,,,,,,,,,,,,,,
,,,,,495172,001,2024-06-14_11h36.29.015,experiment,2024.1.5,MacIntel,60.24096386,663a5c3ef84d9c74ea3c07a1,666b5f73dbba3f0cd916b177,666c71619debcbbdc1816e49,,,,,,,,,,,,,,,,,,,,,,,,,,,,,,,,,,,,1025.7037,1032.453,0,0,0,0,1,SoundStimuli/PartyRockAnthem_LMFAO_Original5S.wav,,,,,,,,,,,,,,,,,,,,,,,,,,,,,,,,,,,,,,,,,,,,,,,,,,,,,,,,,,
,,,,,495172,001,2024-06-14_11h36.29.015,experiment,2024.1.5,MacIntel,60.24096386,663a5c3ef84d9c74ea3c07a1,666b5f73dbba3f0cd916b177,666c71619debcbbdc1816e49,,,,,,,,,,,,,,,,,,,,,,,,,,,,,,,,,,,,1032.4693,1039.2534,0,1,1,1,1,SoundStimuli/PartyRockAnthem_LMFAO_Cover5S.wav,,,,,,,,,,,,,,,,,,,,,,,,,,,,,,,,,,,,,,,,,,,,,,,,,,,,,,,,,,
,,,,,495172,001,2024-06-14_11h36.29.015,experiment,2024.1.5,MacIntel,60.24096386,663a5c3ef84d9c74ea3c07a1,666b5f73dbba3f0cd916b177,666c71619debcbbdc1816e49,,,,,,,,,,,,,,,,,,,,,,,,,,,,,,,,,,,,,,,,,,,,1039.2537,1041.5199,5.034106947,2.2463,0,2,2,2,1,song_indices/PartyRockAnthem_LMFAO.csv,,,,,,,,,,,,,,,,,,,,,,,,,,,,,,,,,,,,,,,,,,,,,,,,
,,,,,495172,001,2024-06-14_11h36.29.015,experiment,2024.1.5,MacIntel,60.24096386,663a5c3ef84d9c74ea3c07a1,666b5f73dbba3f0cd916b177,666c71619debcbbdc1816e49,,,,,,,,,,,,,,,,,,,,,,,,,,,,,,,,,,,,1041.5215,1047.8363,0,0,0,1,1,SoundStimuli/ShapeofYou_EdSheeran_Cover5S.wav,,,,,,,,,,,,,,,,,,,,,,,,,,,,,,,,,,,,,,,,,,,,,,,,,,,,,,,,,,
,,,,,495172,001,2024-06-14_11h36.29.015,experiment,2024.1.5,MacIntel,60.24096386,663a5c3ef84d9c74ea3c07a1,666b5f73dbba3f0cd916b177,666c71619debcbbdc1816e49,,,,,,,,,,,,,,,,,,,,,,,,,,,,,,,,,,,,1047.8484,1054.3036,0,1,1,0,1,SoundStimuli/ShapeofYou_EdSheeran_Original5S.wav,,,,,,,,,,,,,,,,,,,,,,,,,,,,,,,,,,,,,,,,,,,,,,,,,,,,,,,,,,
,,,,,495172,001,2024-06-14_11h36.29.015,experiment,2024.1.5,MacIntel,60.24096386,663a5c3ef84d9c74ea3c07a1,666b5f73dbba3f0cd916b177,666c71619debcbbdc1816e49,,,,,,,,,,,,,,,,,,,,,,,,,,,,,,,,,,,,,,,,,,,,1054.3038,1055.5207,4.429792848,1.197,0,3,3,21,1,song_indices/ShapeofYou_EdSheeran.csv,,,,,,,,,,,,,,,,,,,,,,,,,,,,,,,,,,,,,,,,,,,,,,,,
,,,,,495172,001,2024-06-14_11h36.29.015,experiment,2024.1.5,MacIntel,60.24096386,663a5c3ef84d9c74ea3c07a1,666b5f73dbba3f0cd916b177,666c71619debcbbdc1816e49,,,,,,,,,,,,,,,,,,,,,,,,,,,,,,,,,,,,1055.5221,1061.737,0,0,0,0,1,SoundStimuli/TheBoyIsMine_BrandyMonica_Original5S.wav,,,,,,,,,,,,,,,,,,,,,,,,,,,,,,,,,,,,,,,,,,,,,,,,,,,,,,,,,,
,,,,,495172,001,2024-06-14_11h36.29.015,experiment,2024.1.5,MacIntel,60.24096386,663a5c3ef84d9c74ea3c07a1,666b5f73dbba3f0cd916b177,666c71619debcbbdc1816e49,,,,,,,,,,,,,,,,,,,,,,,,,,,,,,,,,,,,1061.7486,1067.6886,0,1,1,1,1,SoundStimuli/TheBoyIsMine_BrandyMonica_Cover5S.wav,,,,,,,,,,,,,,,,,,,,,,,,,,,,,,,,,,,,,,,,,,,,,,,,,,,,,,,,,,
,,,,,495172,001,2024-06-14_11h36.29.015,experiment,2024.1.5,MacIntel,60.24096386,663a5c3ef84d9c74ea3c07a1,666b5f73dbba3f0cd916b177,666c71619debcbbdc1816e49,,,,,,,,,,,,,,,,,,,,,,,,,,,,,,,,,,,,,,,,,,,,1067.6888,1070.4712,6.715641388,2.7622,0,4,4,6,1,song_indices/TheBoyIsMine_BrandyMonica.csv,,,,,,,,,,,,,,,,,,,,,,,,,,,,,,,,,,,,,,,,,,,,,,,,
,,,,,495172,001,2024-06-14_11h36.29.015,experiment,2024.1.5,MacIntel,60.24096386,663a5c3ef84d9c74ea3c07a1,666b5f73dbba3f0cd916b177,666c71619debcbbdc1816e49,,,,,,,,,,,,,,,,,,,,,,,,,,,,,,,,,,,,1070.4726,1078.2053,0,0,0,0,1,SoundStimuli/NoOne_AliciaKeys_Original5S.wav,,,,,,,,,,,,,,,,,,,,,,,,,,,,,,,,,,,,,,,,,,,,,,,,,,,,,,,,,,
,,,,,495172,001,2024-06-14_11h36.29.015,experiment,2024.1.5,MacIntel,60.24096386,663a5c3ef84d9c74ea3c07a1,666b5f73dbba3f0cd916b177,666c71619debcbbdc1816e49,,,,,,,,,,,,,,,,,,,,,,,,,,,,,,,,,,,,1078.223,1084.4396,0,1,1,1,1,SoundStimuli/NoOne_AliciaKeys_Cover5S.wav,,,,,,,,,,,,,,,,,,,,,,,,,,,,,,,,,,,,,,,,,,,,,,,,,,,,,,,,,,
,,,,,495172,001,2024-06-14_11h36.29.015,experiment,2024.1.5,MacIntel,60.24096386,663a5c3ef84d9c74ea3c07a1,666b5f73dbba3f0cd916b177,666c71619debcbbdc1816e49,,,,,,,,,,,,,,,,,,,,,,,,,,,,,,,,,,,,,,,,,,,,1084.4397,1087.9222,3.054562503,3.4684,0,5,5,19,1,song_indices/NoOne_AliciaKeys.csv,,,,,,,,,,,,,,,,,,,,,,,,,,,,,,,,,,,,,,,,,,,,,,,,
,,,,,495172,001,2024-06-14_11h36.29.015,experiment,2024.1.5,MacIntel,60.24096386,663a5c3ef84d9c74ea3c07a1,666b5f73dbba3f0cd916b177,666c71619debcbbdc1816e49,,,,,,,,,,,,,,,,,,,,,,,,,,,,,,,,,,,,1087.9237,1095.2897,0,0,0,1,1,SoundStimuli/Happy_PharellWilliams_Cover5S.wav,,,,,,,,,,,,,,,,,,,,,,,,,,,,,,,,,,,,,,,,,,,,,,,,,,,,,,,,,,
,,,,,495172,001,2024-06-14_11h36.29.015,experiment,2024.1.5,MacIntel,60.24096386,663a5c3ef84d9c74ea3c07a1,666b5f73dbba3f0cd916b177,666c71619debcbbdc1816e49,,,,,,,,,,,,,,,,,,,,,,,,,,,,,,,,,,,,1095.3054,1102.6577,0,1,1,0,1,SoundStimuli/Happy_PharellWilliams_Original5S.wav,,,,,,,,,,,,,,,,,,,,,,,,,,,,,,,,,,,,,,,,,,,,,,,,,,,,,,,,,,
,,,,,495172,001,2024-06-14_11h36.29.015,experiment,2024.1.5,MacIntel,60.24096386,663a5c3ef84d9c74ea3c07a1,666b5f73dbba3f0cd916b177,666c71619debcbbdc1816e49,,,,,,,,,,,,,,,,,,,,,,,,,,,,,,,,,,,,,,,,,,,,1102.6578,1107.3915,3.887917715,4.7165,0,6,6,7,1,song_indices/Happy_PharellWilliams.csv,,,,,,,,,,,,,,,,,,,,,,,,,,,,,,,,,,,,,,,,,,,,,,,,
,,,,,495172,001,2024-06-14_11h36.29.015,experiment,2024.1.5,MacIntel,60.24096386,663a5c3ef84d9c74ea3c07a1,666b5f73dbba3f0cd916b177,666c71619debcbbdc1816e49,,,,,,,,,,,,,,,,,,,,,,,,,,,,,,,,,,,,1107.393,1113.5758,0,0,0,0,1,SoundStimuli/Fallin_AliciaKeys_Original5S.wav,,,,,,,,,,,,,,,,,,,,,,,,,,,,,,,,,,,,,,,,,,,,,,,,,,,,,,,,,,
,,,,,495172,001,2024-06-14_11h36.29.015,experiment,2024.1.5,MacIntel,60.24096386,663a5c3ef84d9c74ea3c07a1,666b5f73dbba3f0cd916b177,666c71619debcbbdc1816e49,,,,,,,,,,,,,,,,,,,,,,,,,,,,,,,,,,,,1113.5894,1120.0081,0,1,1,1,1,SoundStimuli/Fallin_AliciaKeys_Cover5S.wav,,,,,,,,,,,,,,,,,,,,,,,,,,,,,,,,,,,,,,,,,,,,,,,,,,,,,,,,,,
,,,,,495172,001,2024-06-14_11h36.29.015,experiment,2024.1.5,MacIntel,60.24096386,663a5c3ef84d9c74ea3c07a1,666b5f73dbba3f0cd916b177,666c71619debcbbdc1816e49,,,,,,,,,,,,,,,,,,,,,,,,,,,,,,,,,,,,,,,,,,,,1120.0082,1122.5434,5.747988348,2.5127,0,7,7,12,1,song_indices/Fallin_AliciaKeys.csv,,,,,,,,,,,,,,,,,,,,,,,,,,,,,,,,,,,,,,,,,,,,,,,,
,,,,,495172,001,2024-06-14_11h36.29.015,experiment,2024.1.5,MacIntel,60.24096386,663a5c3ef84d9c74ea3c07a1,666b5f73dbba3f0cd916b177,666c71619debcbbdc1816e49,,,,,,,,,,,,,,,,,,,,,,,,,,,,,,,,,,,,1122.5449,1131.4588,0,0,0,1,1,SoundStimuli/HeyYa_Outkast_Cover5S.wav,,,,,,,,,,,,,,,,,,,,,,,,,,,,,,,,,,,,,,,,,,,,,,,,,,,,,,,,,,
,,,,,495172,001,2024-06-14_11h36.29.015,experiment,2024.1.5,MacIntel,60.24096386,663a5c3ef84d9c74ea3c07a1,666b5f73dbba3f0cd916b177,666c71619debcbbdc1816e49,,,,,,,,,,,,,,,,,,,,,,,,,,,,,,,,,,,,1131.4708,1137.7593,0,1,1,0,1,SoundStimuli/HeyYa_Outkast_Original5S.wav,,,,,,,,,,,,,,,,,,,,,,,,,,,,,,,,,,,,,,,,,,,,,,,,,,,,,,,,,,
,,,,,495172,001,2024-06-14_11h36.29.015,experiment,2024.1.5,MacIntel,60.24096386,663a5c3ef84d9c74ea3c07a1,666b5f73dbba3f0cd916b177,666c71619debcbbdc1816e49,,,,,,,,,,,,,,,,,,,,,,,,,,,,,,,,,,,,,,,,,,,,1137.7594,1138.8596,2.265122296,1.0775,0,8,8,22,1,song_indices/HeyYa_Outkast.csv,,,,,,,,,,,,,,,,,,,,,,,,,,,,,,,,,,,,,,,,,,,,,,,,
,,,,,495172,001,2024-06-14_11h36.29.015,experiment,2024.1.5,MacIntel,60.24096386,663a5c3ef84d9c74ea3c07a1,666b5f73dbba3f0cd916b177,666c71619debcbbdc1816e49,,,,,,,,,,,,,,,,,,,,,,,,,,,,,,,,,,,,1138.8615,1149.111,0,0,0,1,1,SoundStimuli/CrazyInLove_BeyonceFtJayZ_Cover5S.wav,,,,,,,,,,,,,,,,,,,,,,,,,,,,,,,,,,,,,,,,,,,,,,,,,,,,,,,,,,
,,,,,495172,001,2024-06-14_11h36.29.015,experiment,2024.1.5,MacIntel,60.24096386,663a5c3ef84d9c74ea3c07a1,666b5f73dbba3f0cd916b177,666c71619debcbbdc1816e49,,,,,,,,,,,,,,,,,,,,,,,,,,,,,,,,,,,,1149.1273,1155.6772,0,1,1,0,1,SoundStimuli/CrazyInLove_BeyonceFtJayZ_Original5S.wav,,,,,,,,,,,,,,,,,,,,,,,,,,,,,,,,,,,,,,,,,,,,,,,,,,,,,,,,,,
,,,,,495172,001,2024-06-14_11h36.29.015,experiment,2024.1.5,MacIntel,60.24096386,663a5c3ef84d9c74ea3c07a1,666b5f73dbba3f0cd916b177,666c71619debcbbdc1816e49,,,,,,,,,,,,,,,,,,,,,,,,,,,,,,,,,,,,,,,,,,,,1155.6773,1157.444,3.026480479,1.7529,0,9,9,3,1,song_indices/CrazyInLove_BeyonceFtJayZ.csv,,,,,,,,,,,,,,,,,,,,,,,,,,,,,,,,,,,,,,,,,,,,,,,,
,,,,,495172,001,2024-06-14_11h36.29.015,experiment,2024.1.5,MacIntel,60.24096386,663a5c3ef84d9c74ea3c07a1,666b5f73dbba3f0cd916b177,666c71619debcbbdc1816e49,,,,,,,,,,,,,,,,,,,,,,,,,,,,,,,,,,,,1157.4456,1164.0288,0,0,0,1,1,SoundStimuli/GetUrFreakOn_MissyElliot_Cover5S.wav,,,,,,,,,,,,,,,,,,,,,,,,,,,,,,,,,,,,,,,,,,,,,,,,,,,,,,,,,,
,,,,,495172,001,2024-06-14_11h36.29.015,experiment,2024.1.5,MacIntel,60.24096386,663a5c3ef84d9c74ea3c07a1,666b5f73dbba3f0cd916b177,666c71619debcbbdc1816e49,,,,,,,,,,,,,,,,,,,,,,,,,,,,,,,,,,,,1164.0446,1170.1283,0,1,1,0,1,SoundStimuli/GetUrFreakOn_MissyElliot_Original5S.wav,,,,,,,,,,,,,,,,,,,,,,,,,,,,,,,,,,,,,,,,,,,,,,,,,,,,,,,,,,
,,,,,495172,001,2024-06-14_11h36.29.015,experiment,2024.1.5,MacIntel,60.24096386,663a5c3ef84d9c74ea3c07a1,666b5f73dbba3f0cd916b177,666c71619debcbbdc1816e49,,,,,,,,,,,,,,,,,,,,,,,,,,,,,,,,,,,,,,,,,,,,1170.1284,1175.0059,3.026480479,4.8499,0,10,10,18,1,song_indices/GetUrFreakOn_MissyElliot.csv,,,,,,,,,,,,,,,,,,,,,,,,,,,,,,,,,,,,,,,,,,,,,,,,
,,,,,495172,001,2024-06-14_11h36.29.015,experiment,2024.1.5,MacIntel,60.24096386,663a5c3ef84d9c74ea3c07a1,666b5f73dbba3f0cd916b177,666c71619debcbbdc1816e49,,,,,,,,,,,,,,,,,,,,,,,,,,,,,,,,,,,,1175.0071,1181.2298,0,0,0,1,1,SoundStimuli/ItsAllInTheGame_TommyEdwards_Cover5S.wav,,,,,,,,,,,,,,,,,,,,,,,,,,,,,,,,,,,,,,,,,,,,,,,,,,,,,,,,,,
,,,,,495172,001,2024-06-14_11h36.29.015,experiment,2024.1.5,MacIntel,60.24096386,663a5c3ef84d9c74ea3c07a1,666b5f73dbba3f0cd916b177,666c71619debcbbdc1816e49,,,,,,,,,,,,,,,,,,,,,,,,,,,,,,,,,,,,1181.2447,1187.4965,0,1,1,0,1,SoundStimuli/ItsAllInTheGame_TommyEdwards_Original5S.wav,,,,,,,,,,,,,,,,,,,,,,,,,,,,,,,,,,,,,,,,,,,,,,,,,,,,,,,,,,
,,,,,495172,001,2024-06-14_11h36.29.015,experiment,2024.1.5,MacIntel,60.24096386,663a5c3ef84d9c74ea3c07a1,666b5f73dbba3f0cd916b177,666c71619debcbbdc1816e49,,,,,,,,,,,,,,,,,,,,,,,,,,,,,,,,,,,,,,,,,,,,1187.4967,1193.313,2.958081807,5.7974,0,11,11,13,1,song_indices/ItsAllInTheGame_TommyEdwards.csv,,,,,,,,,,,,,,,,,,,,,,,,,,,,,,,,,,,,,,,,,,,,,,,,
,,,,,495172,001,2024-06-14_11h36.29.015,experiment,2024.1.5,MacIntel,60.24096386,663a5c3ef84d9c74ea3c07a1,666b5f73dbba3f0cd916b177,666c71619debcbbdc1816e49,,,,,,,,,,,,,,,,,,,,,,,,,,,,,,,,,,,,1193.3146,1199.4141,0,0,0,0,1,SoundStimuli/GimmeShelter_RollingStones_Original5S.wav,,,,,,,,,,,,,,,,,,,,,,,,,,,,,,,,,,,,,,,,,,,,,,,,,,,,,,,,,,
,,,,,495172,001,2024-06-14_11h36.29.015,experiment,2024.1.5,MacIntel,60.24096386,663a5c3ef84d9c74ea3c07a1,666b5f73dbba3f0cd916b177,666c71619debcbbdc1816e49,,,,,,,,,,,,,,,,,,,,,,,,,,,,,,,,,,,,1199.4271,1205.6307,0,1,1,1,1,SoundStimuli/GimmeShelter_RollingStones_Cover5S.wav,,,,,,,,,,,,,,,,,,,,,,,,,,,,,,,,,,,,,,,,,,,,,,,,,,,,,,,,,,
,,,,,495172,001,2024-06-14_11h36.29.015,experiment,2024.1.5,MacIntel,60.24096386,663a5c3ef84d9c74ea3c07a1,666b5f73dbba3f0cd916b177,666c71619debcbbdc1816e49,,,,,,,,,,,,,,,,,,,,,,,,,,,,,,,,,,,,,,,,,,,,1205.6309,1208.6316,2.662557105,2.9791,0,12,12,20,1,song_indices/GimmeShelter_RollingStones.csv,,,,,,,,,,,,,,,,,,,,,,,,,,,,,,,,,,,,,,,,,,,,,,,,
,,,,,495172,001,2024-06-14_11h36.29.015,experiment,2024.1.5,MacIntel,60.24096386,663a5c3ef84d9c74ea3c07a1,666b5f73dbba3f0cd916b177,666c71619debcbbdc1816e49,,,,,,,,,,,,,,,,,,,,,,,,,,,,,,,,,,,,1208.634,1214.9647,0,0,0,0,1,SoundStimuli/RockWithYou_MichaelJackson_Original5S.wav,,,,,,,,,,,,,,,,,,,,,,,,,,,,,,,,,,,,,,,,,,,,,,,,,,,,,,,,,,
,,,,,495172,001,2024-06-14_11h36.29.015,experiment,2024.1.5,MacIntel,60.24096386,663a5c3ef84d9c74ea3c07a1,666b5f73dbba3f0cd916b177,666c71619debcbbdc1816e49,,,,,,,,,,,,,,,,,,,,,,,,,,,,,,,,,,,,1214.9802,1221.0317,0,1,1,1,1,SoundStimuli/RockWithYou_MichaelJackson_Cover5S.wav,,,,,,,,,,,,,,,,,,,,,,,,,,,,,,,,,,,,,,,,,,,,,,,,,,,,,,,,,,
,,,,,495172,001,2024-06-14_11h36.29.015,experiment,2024.1.5,MacIntel,60.24096386,663a5c3ef84d9c74ea3c07a1,666b5f73dbba3f0cd916b177,666c71619debcbbdc1816e49,,,,,,,,,,,,,,,,,,,,,,,,,,,,,,,,,,,,,,,,,,,,1221.0318,1223.849,2.050514535,2.7993,0,13,13,16,1,song_indices/RockWithYou_MichaelJackson.csv,,,,,,,,,,,,,,,,,,,,,,,,,,,,,,,,,,,,,,,,,,,,,,,,
,,,,,495172,001,2024-06-14_11h36.29.015,experiment,2024.1.5,MacIntel,60.24096386,663a5c3ef84d9c74ea3c07a1,666b5f73dbba3f0cd916b177,666c71619debcbbdc1816e49,,,,,,,,,,,,,,,,,,,,,,,,,,,,,,,,,,,,1223.85,1229.8823,0,0,0,1,1,SoundStimuli/StandByMe_BenEKing_Cover5S.wav,,,,,,,,,,,,,,,,,,,,,,,,,,,,,,,,,,,,,,,,,,,,,,,,,,,,,,,,,,
,,,,,495172,001,2024-06-14_11h36.29.015,experiment,2024.1.5,MacIntel,60.24096386,663a5c3ef84d9c74ea3c07a1,666b5f73dbba3f0cd916b177,666c71619debcbbdc1816e49,,,,,,,,,,,,,,,,,,,,,,,,,,,,,,,,,,,,1229.8985,1235.817,0,1,1,0,1,SoundStimuli/StandByMe_BenEKing_Original5S.wav,,,,,,,,,,,,,,,,,,,,,,,,,,,,,,,,,,,,,,,,,,,,,,,,,,,,,,,,,,
,,,,,495172,001,2024-06-14_11h36.29.015,experiment,2024.1.5,MacIntel,60.24096386,663a5c3ef84d9c74ea3c07a1,666b5f73dbba3f0cd916b177,666c71619debcbbdc1816e49,,,,,,,,,,,,,,,,,,,,,,,,,,,,,,,,,,,,,,,,,,,,1235.8171,1238.2841,2.050514535,2.444,0,14,14,1,1,song_indices/StandByMe_BenEKing.csv,,,,,,,,,,,,,,,,,,,,,,,,,,,,,,,,,,,,,,,,,,,,,,,,
,,,,,495172,001,2024-06-14_11h36.29.015,experiment,2024.1.5,MacIntel,60.24096386,663a5c3ef84d9c74ea3c07a1,666b5f73dbba3f0cd916b177,666c71619debcbbdc1816e49,,,,,,,,,,,,,,,,,,,,,,,,,,,,,,,,,,,,1238.2851,1243.9839,0,0,0,1,1,SoundStimuli/BetteDavisEyes_KimCarnes_Cover5S.wav,,,,,,,,,,,,,,,,,,,,,,,,,,,,,,,,,,,,,,,,,,,,,,,,,,,,,,,,,,
,,,,,495172,001,2024-06-14_11h36.29.015,experiment,2024.1.5,MacIntel,60.24096386,663a5c3ef84d9c74ea3c07a1,666b5f73dbba3f0cd916b177,666c71619debcbbdc1816e49,,,,,,,,,,,,,,,,,,,,,,,,,,,,,,,,,,,,1243.9996,1250.2007,0,1,1,0,1,SoundStimuli/BetteDavisEyes_KimCarnes_Original5S.wav,,,,,,,,,,,,,,,,,,,,,,,,,,,,,,,,,,,,,,,,,,,,,,,,,,,,,,,,,,
,,,,,495172,001,2024-06-14_11h36.29.015,experiment,2024.1.5,MacIntel,60.24096386,663a5c3ef84d9c74ea3c07a1,666b5f73dbba3f0cd916b177,666c71619debcbbdc1816e49,,,,,,,,,,,,,,,,,,,,,,,,,,,,,,,,,,,,,,,,,,,,1250.2009,1271.2019,4.056825821,20.9793,0,15,15,5,1,song_indices/BetteDavisEyes_KimCarnes.csv,,,,,,,,,,,,,,,,,,,,,,,,,,,,,,,,,,,,,,,,,,,,,,,,
,,,,,495172,001,2024-06-14_11h36.29.015,experiment,2024.1.5,MacIntel,60.24096386,663a5c3ef84d9c74ea3c07a1,666b5f73dbba3f0cd916b177,666c71619debcbbdc1816e49,,,,,,,,,,,,,,,,,,,,,,,,,,,,,,,,,,,,1271.203,1277.5356,0,0,0,1,1,SoundStimuli/Stronger_KanyeWest_Cover5S.wav,,,,,,,,,,,,,,,,,,,,,,,,,,,,,,,,,,,,,,,,,,,,,,,,,,,,,,,,,,
,,,,,495172,001,2024-06-14_11h36.29.015,experiment,2024.1.5,MacIntel,60.24096386,663a5c3ef84d9c74ea3c07a1,666b5f73dbba3f0cd916b177,666c71619debcbbdc1816e49,,,,,,,,,,,,,,,,,,,,,,,,,,,,,,,,,,,,1277.5516,1283.6033,0,1,1,0,1,SoundStimuli/Stronger_KanyeWest_Original5S.wav,,,,,,,,,,,,,,,,,,,,,,,,,,,,,,,,,,,,,,,,,,,,,,,,,,,,,,,,,,
,,,,,495172,001,2024-06-14_11h36.29.015,experiment,2024.1.5,MacIntel,60.24096386,663a5c3ef84d9c74ea3c07a1,666b5f73dbba3f0cd916b177,666c71619debcbbdc1816e49,,,,,,,,,,,,,,,,,,,,,,,,,,,,,,,,,,,,,,,,,,,,1283.6036,1285.4697,2.024977384,1.8493,0,16,16,9,1,song_indices/Stronger_KanyeWest.csv,,,,,,,,,,,,,,,,,,,,,,,,,,,,,,,,,,,,,,,,,,,,,,,,
,,,,,495172,001,2024-06-14_11h36.29.015,experiment,2024.1.5,MacIntel,60.24096386,663a5c3ef84d9c74ea3c07a1,666b5f73dbba3f0cd916b177,666c71619debcbbdc1816e49,,,,,,,,,,,,,,,,,,,,,,,,,,,,,,,,,,,,1285.4713,1291.2539,0,0,0,1,1,SoundStimuli/SmellsLikeTeenSpirit_Nirvana_Cover5S.wav,,,,,,,,,,,,,,,,,,,,,,,,,,,,,,,,,,,,,,,,,,,,,,,,,,,,,,,,,,
,,,,,495172,001,2024-06-14_11h36.29.015,experiment,2024.1.5,MacIntel,60.24096386,663a5c3ef84d9c74ea3c07a1,666b5f73dbba3f0cd916b177,666c71619debcbbdc1816e49,,,,,,,,,,,,,,,,,,,,,,,,,,,,,,,,,,,,1291.2696,1297.4702,0,1,1,0,1,SoundStimuli/SmellsLikeTeenSpirit_Nirvana_Original5S.wav,,,,,,,,,,,,,,,,,,,,,,,,,,,,,,,,,,,,,,,,,,,,,,,,,,,,,,,,,,
,,,,,495172,001,2024-06-14_11h36.29.015,experiment,2024.1.5,MacIntel,60.24096386,663a5c3ef84d9c74ea3c07a1,666b5f73dbba3f0cd916b177,666c71619debcbbdc1816e49,,,,,,,,,,,,,,,,,,,,,,,,,,,,,,,,,,,,,,,,,,,,1297.4704,1299.9714,2.029768225,2.4812,0,17,17,8,1,song_indices/SmellsLikeTeenSpirit_Nirvana.csv,,,,,,,,,,,,,,,,,,,,,,,,,,,,,,,,,,,,,,,,,,,,,,,,
,,,,,495172,001,2024-06-14_11h36.29.015,experiment,2024.1.5,MacIntel,60.24096386,663a5c3ef84d9c74ea3c07a1,666b5f73dbba3f0cd916b177,666c71619debcbbdc1816e49,,,,,,,,,,,,,,,,,,,,,,,,,,,,,,,,,,,,1299.9727,1306.1043,0,0,0,1,1,SoundStimuli/NoScrubs_TLC_Cover5S.wav,,,,,,,,,,,,,,,,,,,,,,,,,,,,,,,,,,,,,,,,,,,,,,,,,,,,,,,,,,
,,,,,495172,001,2024-06-14_11h36.29.015,experiment,2024.1.5,MacIntel,60.24096386,663a5c3ef84d9c74ea3c07a1,666b5f73dbba3f0cd916b177,666c71619debcbbdc1816e49,,,,,,,,,,,,,,,,,,,,,,,,,,,,,,,,,,,,1306.1203,1312.3053,0,1,1,0,1,SoundStimuli/NoScrubs_TLC_Original5S.wav,,,,,,,,,,,,,,,,,,,,,,,,,,,,,,,,,,,,,,,,,,,,,,,,,,,,,,,,,,
,,,,,495172,001,2024-06-14_11h36.29.015,experiment,2024.1.5,MacIntel,60.24096386,663a5c3ef84d9c74ea3c07a1,666b5f73dbba3f0cd916b177,666c71619debcbbdc1816e49,,,,,,,,,,,,,,,,,,,,,,,,,,,,,,,,,,,,,,,,,,,,1312.3054,1314.3387,5.978002261,2.014,0,18,18,14,1,song_indices/NoScrubs_TLC.csv,,,,,,,,,,,,,,,,,,,,,,,,,,,,,,,,,,,,,,,,,,,,,,,,
,,,,,495172,001,2024-06-14_11h36.29.015,experiment,2024.1.5,MacIntel,60.24096386,663a5c3ef84d9c74ea3c07a1,666b5f73dbba3f0cd916b177,666c71619debcbbdc1816e49,,,,,,,,,,,,,,,,,,,,,,,,,,,,,,,,,,,,1314.34,1320.5557,0,0,0,0,1,SoundStimuli/TheBattleOfNewOrleans_JohnnyHorton_Original5S.wav,,,,,,,,,,,,,,,,,,,,,,,,,,,,,,,,,,,,,,,,,,,,,,,,,,,,,,,,,,
,,,,,495172,001,2024-06-14_11h36.29.015,experiment,2024.1.5,MacIntel,60.24096386,663a5c3ef84d9c74ea3c07a1,666b5f73dbba3f0cd916b177,666c71619debcbbdc1816e49,,,,,,,,,,,,,,,,,,,,,,,,,,,,,,,,,,,,1320.5677,1328.5394,0,1,1,1,1,SoundStimuli/TheBattleOfNewOrleans_JohnnyHorton_Cover5S.wav,,,,,,,,,,,,,,,,,,,,,,,,,,,,,,,,,,,,,,,,,,,,,,,,,,,,,,,,,,
,,,,,495172,001,2024-06-14_11h36.29.015,experiment,2024.1.5,MacIntel,60.24096386,663a5c3ef84d9c74ea3c07a1,666b5f73dbba3f0cd916b177,666c71619debcbbdc1816e49,,,,,,,,,,,,,,,,,,,,,,,,,,,,,,,,,,,,,,,,,,,,1328.5395,1331.1729,4.569769872,2.6135,0,19,19,4,1,song_indices/TheBattleOfNewOrleans_JohnnyHorton.csv,,,,,,,,,,,,,,,,,,,,,,,,,,,,,,,,,,,,,,,,,,,,,,,,
,,,,,495172,001,2024-06-14_11h36.29.015,experiment,2024.1.5,MacIntel,60.24096386,663a5c3ef84d9c74ea3c07a1,666b5f73dbba3f0cd916b177,666c71619debcbbdc1816e49,,,,,,,,,,,,,,,,,,,,,,,,,,,,,,,,,,,,1331.1744,1337.306,0,0,0,1,1,SoundStimuli/EyeOfTheTiger_Survivor_Cover5S.wav,,,,,,,,,,,,,,,,,,,,,,,,,,,,,,,,,,,,,,,,,,,,,,,,,,,,,,,,,,
,,,,,495172,001,2024-06-14_11h36.29.015,experiment,2024.1.5,MacIntel,60.24096386,663a5c3ef84d9c74ea3c07a1,666b5f73dbba3f0cd916b177,666c71619debcbbdc1816e49,,,,,,,,,,,,,,,,,,,,,,,,,,,,,,,,,,,,1337.3219,1343.2075,0,1,1,0,1,SoundStimuli/EyeOfTheTiger_Survivor_Original5S.wav,,,,,,,,,,,,,,,,,,,,,,,,,,,,,,,,,,,,,,,,,,,,,,,,,,,,,,,,,,
,,,,,495172,001,2024-06-14_11h36.29.015,experiment,2024.1.5,MacIntel,60.24096386,663a5c3ef84d9c74ea3c07a1,666b5f73dbba3f0cd916b177,666c71619debcbbdc1816e49,,,,,,,,,,,,,,,,,,,,,,,,,,,,,,,,,,,,,,,,,,,,1343.2077,1353.9744,5.039395685,10.7455,0,20,20,11,1,song_indices/EyeOfTheTiger_Survivor.csv,,,,,,,,,,,,,,,,,,,,,,,,,,,,,,,,,,,,,,,,,,,,,,,,
,,,,,495172,001,2024-06-14_11h36.29.015,experiment,2024.1.5,MacIntel,60.24096386,663a5c3ef84d9c74ea3c07a1,666b5f73dbba3f0cd916b177,666c71619debcbbdc1816e49,,,,,,,,,,,,,,,,,,,,,,,,,,,,,,,,,,,,1353.9764,1361.2085,0,0,0,0,1,SoundStimuli/UptownFunk_MarkRonson_Original5S.wav,,,,,,,,,,,,,,,,,,,,,,,,,,,,,,,,,,,,,,,,,,,,,,,,,,,,,,,,,,
,,,,,495172,001,2024-06-14_11h36.29.015,experiment,2024.1.5,MacIntel,60.24096386,663a5c3ef84d9c74ea3c07a1,666b5f73dbba3f0cd916b177,666c71619debcbbdc1816e49,,,,,,,,,,,,,,,,,,,,,,,,,,,,,,,,,,,,1361.2204,1368.2425,0,1,1,1,1,SoundStimuli/UptownFunk_MarkRonson_Cover5S.wav,,,,,,,,,,,,,,,,,,,,,,,,,,,,,,,,,,,,,,,,,,,,,,,,,,,,,,,,,,
,,,,,495172,001,2024-06-14_11h36.29.015,experiment,2024.1.5,MacIntel,60.24096386,663a5c3ef84d9c74ea3c07a1,666b5f73dbba3f0cd916b177,666c71619debcbbdc1816e49,,,,,,,,,,,,,,,,,,,,,,,,,,,,,,,,,,,,,,,,,,,,1368.2427,1372.5248,5.100723058,4.2615,0,21,21,15,1,song_indices/UptownFunk_MarkRonson.csv,,,,,,,,,,,,,,,,,,,,,,,,,,,,,,,,,,,,,,,,,,,,,,,,
,,,,,495172,001,2024-06-14_11h36.29.015,experiment,2024.1.5,MacIntel,60.24096386,663a5c3ef84d9c74ea3c07a1,666b5f73dbba3f0cd916b177,666c71619debcbbdc1816e49,,,,,,,,,,,,,,,,,,,,,,,,,,,,,,,,,,,,1372.5266,1379.6761,0,0,0,1,1,SoundStimuli/IWalkTheLine_JohnnyCash_Cover5S.wav,,,,,,,,,,,,,,,,,,,,,,,,,,,,,,,,,,,,,,,,,,,,,,,,,,,,,,,,,,
,,,,,495172,001,2024-06-14_11h36.29.015,experiment,2024.1.5,MacIntel,60.24096386,663a5c3ef84d9c74ea3c07a1,666b5f73dbba3f0cd916b177,666c71619debcbbdc1816e49,,,,,,,,,,,,,,,,,,,,,,,,,,,,,,,,,,,,1379.6913,1385.6604,0,1,1,0,1,SoundStimuli/IWalkTheLine_JohnnyCash_Original5S.wav,,,,,,,,,,,,,,,,,,,,,,,,,,,,,,,,,,,,,,,,,,,,,,,,,,,,,,,,,,
,,,,,495172,001,2024-06-14_11h36.29.015,experiment,2024.1.5,MacIntel,60.24096386,663a5c3ef84d9c74ea3c07a1,666b5f73dbba3f0cd916b177,666c71619debcbbdc1816e49,,,,,,,,,,,,,,,,,,,,,,,,,,,,,,,,,,,,,,,,,,,,1385.6605,1391.2782,5.675176751,5.596,0,22,22,17,1,song_indices/IWalkTheLine_JohnnyCash.csv,,,,,,,,,,,,,,,,,,,,,,,,,,,,,,,,,,,,,,,,,,,,,,,,
,,,,,495172,001,2024-06-14_11h36.29.015,experiment,2024.1.5,MacIntel,60.24096386,663a5c3ef84d9c74ea3c07a1,666b5f73dbba3f0cd916b177,666c71619debcbbdc1816e49,,,,,,,,,,,,,,,,,,,,,,,,,,,,,,,,,,,,,,,,,,,,,,,,,,,,,,1391.2783,1391.2784,,,,0,2,2,1,1,choose_song_b2.csv,,,,,,,,,,,,,,,,,,,,,,,,,,,,,,,,,,,,,
,,,,,495172,001,2024-06-14_11h36.29.015,experiment,2024.1.5,MacIntel,60.24096386,663a5c3ef84d9c74ea3c07a1,666b5f73dbba3f0cd916b177,666c71619debcbbdc1816e49,,,,,,,,,,,,,,,,,,,,,,,,,,,,,,,,,,,,,,,,,,,,,,,,,,,,,,,,,,,,,,,,,20,Item 3,Item 5,Youtube & Spotify,3,4,"while listening to music, I love to do chores, or study or doing outdoor leisure activities. ","I was a self taught pianist, started at 5. I was say I can do intermediate pieces. I also can sing.",Sometimes,Rarely,Rarely,Never,Never,Sometimes,Rarely,Rarely,Often,Sometimes,Always,Sometimes,Sometimes,Sometimes,Rarely,Sometimes,OPM (Filipino Music),R&B,POP,OPM (Filipino Music),"I feel more inclined to music. I have been exploring and opening up to different genres, and I feel like it's very unique how they portray music in different styles and aspects of it.","I love to listen to music everyday. It's so relaxing, and it's soothing hearing all different types of variety.",0,0,0,0,1,,
,,,,,495172,001,2024-06-14_11h36.29.015,experiment,2024.1.5,MacIntel,60.24096386,663a5c3ef84d9c74ea3c07a1,666b5f73dbba3f0cd916b177,666c71619debcbbdc1816e49,,,,,,,,,,,,,,,,,,,,,,,,,,,,,,,,,,,,,,,,,,,,,,,,,,,,,,,,,,,,,,,,,,,,,,,,,,,,,,,,,,,,,,,,,,,,,,,,,,,,1629.2858,1631.2101
