welcome.started,welcome.stopped,space_to_continue.keys,space_to_continue.rt,space_to_continue.duration,participant,session,date,expName,psychopyVersion,OS,frameRate,PROLIFIC_PID,STUDY_ID,SESSION_ID,consent.consent,consent.consent_recontact,consent_check.started,consent_check.stopped,calibration_ready.started,calibration_ready.stopped,cal_ready.keys,cal_ready.rt,cal_ready.duration,calibration.started,calibration.stopped,mouse.x,mouse.y,mouse.leftButton,mouse.midButton,mouse.rightButton,mouse.time,mouse.clicked_name,move_on.keys,move_on.rt,move_on.duration,instructions.started,instructions.stopped,next.keys,next.rt,next.duration,practice_trial.started,practice_trial.stopped,practice_slider.response,practice_slider.rt,ready.started,ready.stopped,key_resp.keys,key_resp.rt,key_resp.duration,play_sound.started,play_sound.stopped,trials.thisRepN,trials.thisTrialN,trials.thisN,trials.thisIndex,trials.ran,orig_or_cover,rating.started,rating.stopped,slider.response,slider.rt,songs.thisRepN,songs.thisTrialN,songs.thisN,songs.thisIndex,songs.ran,song_id,short_break.started,short_break.stopped,space_to_move_on.keys,space_to_move_on.rt,space_to_move_on.duration,blocks.thisRepN,blocks.thisTrialN,blocks.thisN,blocks.thisIndex,blocks.ran,block,survey.age,survey.musician,survey.music_making,survey.listen_time,survey.medium,survey.music_seeking,survey.music_choice,survey.activities,survey.question1.Metal,survey.question1.Jazz,survey.question1.Pop,survey.question1.Folk/indie,survey.question1.Alternative rock,survey.question1.Disco,survey.question1.Hip hop,survey.question1.Country,survey.question1.Classical,survey.question1.A cappella,survey.question1.Classic rock,survey.question1.Latin,survey.question1.Ambient,survey.question1.Reggae,survey.question1.R&B,survey.question1.Electronic (EDM),survey.other_genres,survey.genres_ranked.text1,survey.genres_ranked.text3,survey.genres_ranked.text2,survey.habit_change,survey.habits,experiment.thisRepN,experiment.thisTrialN,experiment.thisN,experiment.thisIndex,experiment.ran,goodbye.started,goodbye.stopped
0.0002,10.3354,space,10.3278,,502409,001,2024-06-17_09h45.04.130,experiment,2024.1.5,Win32,59.88023952,5bad8fc39c0cc900017a6a28,667045947eb812cbdacbf325,66704bbc3ac613868b2825b4,,,,,,,,,,,,,,,,,,,,,,,,,,,,,,,,,,,,,,,,,,,,,,,,,,,,,,,,,,,,,,,,,,,,,,,,,,,,,,,,,,,,,,,,,,,,,,,,,,,,,
,,,,,502409,001,2024-06-17_09h45.04.130,experiment,2024.1.5,Win32,59.88023952,5bad8fc39c0cc900017a6a28,667045947eb812cbdacbf325,66704bbc3ac613868b2825b4,yes,yes,,,,,,,,,,,,,,,,,,,,,,,,,,,,,,,,,,,,,,,,,,,,,,,,,,,,,,,,,,,,,,,,,,,,,,,,,,,,,,,,,,,,,,,,,,,,,,,,,,,
,,,,,502409,001,2024-06-17_09h45.04.130,experiment,2024.1.5,Win32,59.88023952,5bad8fc39c0cc900017a6a28,667045947eb812cbdacbf325,66704bbc3ac613868b2825b4,,,38.7544,38.7545,,,,,,,,,,,,,,,,,,,,,,,,,,,,,,,,,,,,,,,,,,,,,,,,,,,,,,,,,,,,,,,,,,,,,,,,,,,,,,,,,,,,,,,,,,,,,,,,,
,,,,,502409,001,2024-06-17_09h45.04.130,experiment,2024.1.5,Win32,59.88023952,5bad8fc39c0cc900017a6a28,667045947eb812cbdacbf325,66704bbc3ac613868b2825b4,,,,,38.7558,49.0023,space,10.2284,,49.0024,100.2695,[-0.012037037037037037],[-0.4203703703703704],[1],[0],[0],[33.0925],"[""play_button""]",right,41.2338,,100.2697,115.1863,space,14.8969,,115.1864,129.9029,6.994444444,14.7031,129.903,132.1027,space,2.1806,,132.1195,138.4364,0,0,0,0,1,SoundStimuli/BridgeOverTroubledWater_SimonAndGarfunkel_Original5S.wav,,,,,,,,,,,,,,,,,,,,,,,,,,,,,,,,,,,,,,,,,,,,,,,,,,,,,,,,,,
,,,,,502409,001,2024-06-17_09h45.04.130,experiment,2024.1.5,Win32,59.88023952,5bad8fc39c0cc900017a6a28,667045947eb812cbdacbf325,66704bbc3ac613868b2825b4,,,,,,,,,,,,,,,,,,,,,,,,,,,,,,,,,,,,138.4425,145.136,0,1,1,1,1,SoundStimuli/BridgeOverTroubledWater_SimonAndGarfunkel_Cover5S.wav,,,,,,,,,,,,,,,,,,,,,,,,,,,,,,,,,,,,,,,,,,,,,,,,,,,,,,,,,,
,,,,,502409,001,2024-06-17_09h45.04.130,experiment,2024.1.5,Win32,59.88023952,5bad8fc39c0cc900017a6a28,667045947eb812cbdacbf325,66704bbc3ac613868b2825b4,,,,,,,,,,,,,,,,,,,,,,,,,,,,,,,,,,,,,,,,,,,,145.1422,148.6697,5.005555556,3.5138,0,0,0,1,1,song_indices/BridgeOverTroubledWater_SimonAndGarfunkel.csv,,,,,,,,,,,,,,,,,,,,,,,,,,,,,,,,,,,,,,,,,,,,,,,,
,,,,,502409,001,2024-06-17_09h45.04.130,experiment,2024.1.5,Win32,59.88023952,5bad8fc39c0cc900017a6a28,667045947eb812cbdacbf325,66704bbc3ac613868b2825b4,,,,,,,,,,,,,,,,,,,,,,,,,,,,,,,,,,,,148.6705,155.0194,0,0,0,0,1,SoundStimuli/EndlessLove_DianaRossLionelRichie_Original5S.wav,,,,,,,,,,,,,,,,,,,,,,,,,,,,,,,,,,,,,,,,,,,,,,,,,,,,,,,,,,
,,,,,502409,001,2024-06-17_09h45.04.130,experiment,2024.1.5,Win32,59.88023952,5bad8fc39c0cc900017a6a28,667045947eb812cbdacbf325,66704bbc3ac613868b2825b4,,,,,,,,,,,,,,,,,,,,,,,,,,,,,,,,,,,,155.0256,162.5363,0,1,1,1,1,SoundStimuli/EndlessLove_DianaRossLionelRichie_Cover5S.wav,,,,,,,,,,,,,,,,,,,,,,,,,,,,,,,,,,,,,,,,,,,,,,,,,,,,,,,,,,
,,,,,502409,001,2024-06-17_09h45.04.130,experiment,2024.1.5,Win32,59.88023952,5bad8fc39c0cc900017a6a28,667045947eb812cbdacbf325,66704bbc3ac613868b2825b4,,,,,,,,,,,,,,,,,,,,,,,,,,,,,,,,,,,,,,,,,,,,162.5364,166.1362,4.005555556,3.5859,0,1,1,3,1,song_indices/EndlessLove_DianaRossLionelRichie.csv,,,,,,,,,,,,,,,,,,,,,,,,,,,,,,,,,,,,,,,,,,,,,,,,
,,,,,502409,001,2024-06-17_09h45.04.130,experiment,2024.1.5,Win32,59.88023952,5bad8fc39c0cc900017a6a28,667045947eb812cbdacbf325,66704bbc3ac613868b2825b4,,,,,,,,,,,,,,,,,,,,,,,,,,,,,,,,,,,,166.137,172.3863,0,0,0,0,1,SoundStimuli/LivinOnAPrayer_BonJovi_Original5S.wav,,,,,,,,,,,,,,,,,,,,,,,,,,,,,,,,,,,,,,,,,,,,,,,,,,,,,,,,,,
,,,,,502409,001,2024-06-17_09h45.04.130,experiment,2024.1.5,Win32,59.88023952,5bad8fc39c0cc900017a6a28,667045947eb812cbdacbf325,66704bbc3ac613868b2825b4,,,,,,,,,,,,,,,,,,,,,,,,,,,,,,,,,,,,172.3922,180.0696,0,1,1,1,1,SoundStimuli/LivinOnAPrayer_BonJovi_Cover5S.wav,,,,,,,,,,,,,,,,,,,,,,,,,,,,,,,,,,,,,,,,,,,,,,,,,,,,,,,,,,
,,,,,502409,001,2024-06-17_09h45.04.130,experiment,2024.1.5,Win32,59.88023952,5bad8fc39c0cc900017a6a28,667045947eb812cbdacbf325,66704bbc3ac613868b2825b4,,,,,,,,,,,,,,,,,,,,,,,,,,,,,,,,,,,,,,,,,,,,180.0697,181.7196,1.005555556,1.6364,0,2,2,16,1,song_indices/LivinOnAPrayer_BonJovi.csv,,,,,,,,,,,,,,,,,,,,,,,,,,,,,,,,,,,,,,,,,,,,,,,,
,,,,,502409,001,2024-06-17_09h45.04.130,experiment,2024.1.5,Win32,59.88023952,5bad8fc39c0cc900017a6a28,667045947eb812cbdacbf325,66704bbc3ac613868b2825b4,,,,,,,,,,,,,,,,,,,,,,,,,,,,,,,,,,,,181.7207,187.8697,0,0,0,0,1,SoundStimuli/MackTheKnife_BobbyDarin_Original5S.wav,,,,,,,,,,,,,,,,,,,,,,,,,,,,,,,,,,,,,,,,,,,,,,,,,,,,,,,,,,
,,,,,502409,001,2024-06-17_09h45.04.130,experiment,2024.1.5,Win32,59.88023952,5bad8fc39c0cc900017a6a28,667045947eb812cbdacbf325,66704bbc3ac613868b2825b4,,,,,,,,,,,,,,,,,,,,,,,,,,,,,,,,,,,,187.8762,194.1364,0,1,1,1,1,SoundStimuli/MackTheKnife_BobbyDarin_Cover5S.wav,,,,,,,,,,,,,,,,,,,,,,,,,,,,,,,,,,,,,,,,,,,,,,,,,,,,,,,,,,
,,,,,502409,001,2024-06-17_09h45.04.130,experiment,2024.1.5,Win32,59.88023952,5bad8fc39c0cc900017a6a28,667045947eb812cbdacbf325,66704bbc3ac613868b2825b4,,,,,,,,,,,,,,,,,,,,,,,,,,,,,,,,,,,,,,,,,,,,194.1364,195.6364,1.005555556,1.4897,0,3,3,21,1,song_indices/MackTheKnife_BobbyDarin.csv,,,,,,,,,,,,,,,,,,,,,,,,,,,,,,,,,,,,,,,,,,,,,,,,
,,,,,502409,001,2024-06-17_09h45.04.130,experiment,2024.1.5,Win32,59.88023952,5bad8fc39c0cc900017a6a28,667045947eb812cbdacbf325,66704bbc3ac613868b2825b4,,,,,,,,,,,,,,,,,,,,,,,,,,,,,,,,,,,,195.6371,201.7364,0,0,0,0,1,SoundStimuli/HeatWaves_GlassAnimals_Original5S.wav,,,,,,,,,,,,,,,,,,,,,,,,,,,,,,,,,,,,,,,,,,,,,,,,,,,,,,,,,,
,,,,,502409,001,2024-06-17_09h45.04.130,experiment,2024.1.5,Win32,59.88023952,5bad8fc39c0cc900017a6a28,667045947eb812cbdacbf325,66704bbc3ac613868b2825b4,,,,,,,,,,,,,,,,,,,,,,,,,,,,,,,,,,,,201.7425,210.3366,0,1,1,1,1,SoundStimuli/HeatWaves_GlassAnimals_Cover5S.wav,,,,,,,,,,,,,,,,,,,,,,,,,,,,,,,,,,,,,,,,,,,,,,,,,,,,,,,,,,
,,,,,502409,001,2024-06-17_09h45.04.130,experiment,2024.1.5,Win32,59.88023952,5bad8fc39c0cc900017a6a28,667045947eb812cbdacbf325,66704bbc3ac613868b2825b4,,,,,,,,,,,,,,,,,,,,,,,,,,,,,,,,,,,,,,,,,,,,210.3367,211.6365,3,1.2897,0,4,4,10,1,song_indices/HeatWaves_GlassAnimals.csv,,,,,,,,,,,,,,,,,,,,,,,,,,,,,,,,,,,,,,,,,,,,,,,,
,,,,,502409,001,2024-06-17_09h45.04.130,experiment,2024.1.5,Win32,59.88023952,5bad8fc39c0cc900017a6a28,667045947eb812cbdacbf325,66704bbc3ac613868b2825b4,,,,,,,,,,,,,,,,,,,,,,,,,,,,,,,,,,,,211.6374,218.1534,0,0,0,1,1,SoundStimuli/OldTownRoad_LilNasX_Cover5S.wav,,,,,,,,,,,,,,,,,,,,,,,,,,,,,,,,,,,,,,,,,,,,,,,,,,,,,,,,,,
,,,,,502409,001,2024-06-17_09h45.04.130,experiment,2024.1.5,Win32,59.88023952,5bad8fc39c0cc900017a6a28,667045947eb812cbdacbf325,66704bbc3ac613868b2825b4,,,,,,,,,,,,,,,,,,,,,,,,,,,,,,,,,,,,218.1594,225.5367,0,1,1,0,1,SoundStimuli/OldTownRoad_LilNasX_Original5S.wav,,,,,,,,,,,,,,,,,,,,,,,,,,,,,,,,,,,,,,,,,,,,,,,,,,,,,,,,,,
,,,,,502409,001,2024-06-17_09h45.04.130,experiment,2024.1.5,Win32,59.88023952,5bad8fc39c0cc900017a6a28,667045947eb812cbdacbf325,66704bbc3ac613868b2825b4,,,,,,,,,,,,,,,,,,,,,,,,,,,,,,,,,,,,,,,,,,,,225.5368,234.32,2.994444444,8.7695,0,5,5,20,1,song_indices/OldTownRoad_LilNasX.csv,,,,,,,,,,,,,,,,,,,,,,,,,,,,,,,,,,,,,,,,,,,,,,,,
,,,,,502409,001,2024-06-17_09h45.04.130,experiment,2024.1.5,Win32,59.88023952,5bad8fc39c0cc900017a6a28,667045947eb812cbdacbf325,66704bbc3ac613868b2825b4,,,,,,,,,,,,,,,,,,,,,,,,,,,,,,,,,,,,234.3208,240.2868,0,0,0,0,1,SoundStimuli/BohemianRhapsody_Queen_Original5S.wav,,,,,,,,,,,,,,,,,,,,,,,,,,,,,,,,,,,,,,,,,,,,,,,,,,,,,,,,,,
,,,,,502409,001,2024-06-17_09h45.04.130,experiment,2024.1.5,Win32,59.88023952,5bad8fc39c0cc900017a6a28,667045947eb812cbdacbf325,66704bbc3ac613868b2825b4,,,,,,,,,,,,,,,,,,,,,,,,,,,,,,,,,,,,240.2926,244.3703,0,1,1,1,1,SoundStimuli/BohemianRhapsody_Queen_Cover5S.wav,,,,,,,,,,,,,,,,,,,,,,,,,,,,,,,,,,,,,,,,,,,,,,,,,,,,,,,,,,
,,,,,502409,001,2024-06-17_09h45.04.130,experiment,2024.1.5,Win32,59.88023952,5bad8fc39c0cc900017a6a28,667045947eb812cbdacbf325,66704bbc3ac613868b2825b4,,,,,,,,,,,,,,,,,,,,,,,,,,,,,,,,,,,,,,,,,,,,244.3703,246.1868,1.016666667,1.8076,0,6,6,18,1,song_indices/BohemianRhapsody_Queen.csv,,,,,,,,,,,,,,,,,,,,,,,,,,,,,,,,,,,,,,,,,,,,,,,,
,,,,,502409,001,2024-06-17_09h45.04.130,experiment,2024.1.5,Win32,59.88023952,5bad8fc39c0cc900017a6a28,667045947eb812cbdacbf325,66704bbc3ac613868b2825b4,,,,,,,,,,,,,,,,,,,,,,,,,,,,,,,,,,,,246.1874,252.3868,0,0,0,0,1,SoundStimuli/LikeAPrayer_Madonna_Original5S.wav,,,,,,,,,,,,,,,,,,,,,,,,,,,,,,,,,,,,,,,,,,,,,,,,,,,,,,,,,,
,,,,,502409,001,2024-06-17_09h45.04.130,experiment,2024.1.5,Win32,59.88023952,5bad8fc39c0cc900017a6a28,667045947eb812cbdacbf325,66704bbc3ac613868b2825b4,,,,,,,,,,,,,,,,,,,,,,,,,,,,,,,,,,,,252.3927,258.6037,0,1,1,1,1,SoundStimuli/LikeAPrayer_Madonna_Cover5S.wav,,,,,,,,,,,,,,,,,,,,,,,,,,,,,,,,,,,,,,,,,,,,,,,,,,,,,,,,,,
,,,,,502409,001,2024-06-17_09h45.04.130,experiment,2024.1.5,Win32,59.88023952,5bad8fc39c0cc900017a6a28,667045947eb812cbdacbf325,66704bbc3ac613868b2825b4,,,,,,,,,,,,,,,,,,,,,,,,,,,,,,,,,,,,,,,,,,,,258.6038,260.7035,6.016666667,2.0865,0,7,7,7,1,song_indices/LikeAPrayer_Madonna.csv,,,,,,,,,,,,,,,,,,,,,,,,,,,,,,,,,,,,,,,,,,,,,,,,
,,,,,502409,001,2024-06-17_09h45.04.130,experiment,2024.1.5,Win32,59.88023952,5bad8fc39c0cc900017a6a28,667045947eb812cbdacbf325,66704bbc3ac613868b2825b4,,,,,,,,,,,,,,,,,,,,,,,,,,,,,,,,,,,,260.7043,267.5702,0,0,0,1,1,SoundStimuli/GodOnlyKnows_TheBeachBoys_Cover5S.wav,,,,,,,,,,,,,,,,,,,,,,,,,,,,,,,,,,,,,,,,,,,,,,,,,,,,,,,,,,
,,,,,502409,001,2024-06-17_09h45.04.130,experiment,2024.1.5,Win32,59.88023952,5bad8fc39c0cc900017a6a28,667045947eb812cbdacbf325,66704bbc3ac613868b2825b4,,,,,,,,,,,,,,,,,,,,,,,,,,,,,,,,,,,,267.5782,273.8203,0,1,1,0,1,SoundStimuli/GodOnlyKnows_TheBeachBoys_Original5S.wav,,,,,,,,,,,,,,,,,,,,,,,,,,,,,,,,,,,,,,,,,,,,,,,,,,,,,,,,,,
,,,,,502409,001,2024-06-17_09h45.04.130,experiment,2024.1.5,Win32,59.88023952,5bad8fc39c0cc900017a6a28,667045947eb812cbdacbf325,66704bbc3ac613868b2825b4,,,,,,,,,,,,,,,,,,,,,,,,,,,,,,,,,,,,,,,,,,,,273.8204,277.5871,3.994444444,3.7578,0,8,8,8,1,song_indices/GodOnlyKnows_TheBeachBoys.csv,,,,,,,,,,,,,,,,,,,,,,,,,,,,,,,,,,,,,,,,,,,,,,,,
,,,,,502409,001,2024-06-17_09h45.04.130,experiment,2024.1.5,Win32,59.88023952,5bad8fc39c0cc900017a6a28,667045947eb812cbdacbf325,66704bbc3ac613868b2825b4,,,,,,,,,,,,,,,,,,,,,,,,,,,,,,,,,,,,277.5877,283.187,0,0,0,0,1,SoundStimuli/IWannaDanceWithSomebody_WhitneyHouston_Original5S.wav,,,,,,,,,,,,,,,,,,,,,,,,,,,,,,,,,,,,,,,,,,,,,,,,,,,,,,,,,,
,,,,,502409,001,2024-06-17_09h45.04.130,experiment,2024.1.5,Win32,59.88023952,5bad8fc39c0cc900017a6a28,667045947eb812cbdacbf325,66704bbc3ac613868b2825b4,,,,,,,,,,,,,,,,,,,,,,,,,,,,,,,,,,,,283.1932,290.0372,0,1,1,1,1,SoundStimuli/IWannaDanceWithSomebody_WhitneyHouston_Cover5S.wav,,,,,,,,,,,,,,,,,,,,,,,,,,,,,,,,,,,,,,,,,,,,,,,,,,,,,,,,,,
,,,,,502409,001,2024-06-17_09h45.04.130,experiment,2024.1.5,Win32,59.88023952,5bad8fc39c0cc900017a6a28,667045947eb812cbdacbf325,66704bbc3ac613868b2825b4,,,,,,,,,,,,,,,,,,,,,,,,,,,,,,,,,,,,,,,,,,,,290.0374,291.8872,1.005555556,1.837,0,9,9,13,1,song_indices/IWannaDanceWithSomebody_WhitneyHouston.csv,,,,,,,,,,,,,,,,,,,,,,,,,,,,,,,,,,,,,,,,,,,,,,,,
,,,,,502409,001,2024-06-17_09h45.04.130,experiment,2024.1.5,Win32,59.88023952,5bad8fc39c0cc900017a6a28,667045947eb812cbdacbf325,66704bbc3ac613868b2825b4,,,,,,,,,,,,,,,,,,,,,,,,,,,,,,,,,,,,291.8877,300.1874,0,0,0,1,1,SoundStimuli/Mood_24kGoldnianndior_Cover5S.wav,,,,,,,,,,,,,,,,,,,,,,,,,,,,,,,,,,,,,,,,,,,,,,,,,,,,,,,,,,
,,,,,502409,001,2024-06-17_09h45.04.130,experiment,2024.1.5,Win32,59.88023952,5bad8fc39c0cc900017a6a28,667045947eb812cbdacbf325,66704bbc3ac613868b2825b4,,,,,,,,,,,,,,,,,,,,,,,,,,,,,,,,,,,,300.1934,306.4875,0,1,1,0,1,SoundStimuli/Mood_24kGoldnianndior_Original5S.wav,,,,,,,,,,,,,,,,,,,,,,,,,,,,,,,,,,,,,,,,,,,,,,,,,,,,,,,,,,
,,,,,502409,001,2024-06-17_09h45.04.130,experiment,2024.1.5,Win32,59.88023952,5bad8fc39c0cc900017a6a28,667045947eb812cbdacbf325,66704bbc3ac613868b2825b4,,,,,,,,,,,,,,,,,,,,,,,,,,,,,,,,,,,,,,,,,,,,306.4877,308.3873,2,1.8824,0,10,10,5,1,song_indices/Mood_24kGoldnianndior.csv,,,,,,,,,,,,,,,,,,,,,,,,,,,,,,,,,,,,,,,,,,,,,,,,
,,,,,502409,001,2024-06-17_09h45.04.130,experiment,2024.1.5,Win32,59.88023952,5bad8fc39c0cc900017a6a28,667045947eb812cbdacbf325,66704bbc3ac613868b2825b4,,,,,,,,,,,,,,,,,,,,,,,,,,,,,,,,,,,,308.3879,314.9707,0,0,0,1,1,SoundStimuli/Despacito_LuisFonsiDaddyYankee_Cover5S.wav,,,,,,,,,,,,,,,,,,,,,,,,,,,,,,,,,,,,,,,,,,,,,,,,,,,,,,,,,,
,,,,,502409,001,2024-06-17_09h45.04.130,experiment,2024.1.5,Win32,59.88023952,5bad8fc39c0cc900017a6a28,667045947eb812cbdacbf325,66704bbc3ac613868b2825b4,,,,,,,,,,,,,,,,,,,,,,,,,,,,,,,,,,,,314.9768,321.5373,0,1,1,0,1,SoundStimuli/Despacito_LuisFonsiDaddyYankee_Original5S.wav,,,,,,,,,,,,,,,,,,,,,,,,,,,,,,,,,,,,,,,,,,,,,,,,,,,,,,,,,,
,,,,,502409,001,2024-06-17_09h45.04.130,experiment,2024.1.5,Win32,59.88023952,5bad8fc39c0cc900017a6a28,667045947eb812cbdacbf325,66704bbc3ac613868b2825b4,,,,,,,,,,,,,,,,,,,,,,,,,,,,,,,,,,,,,,,,,,,,321.5374,324.504,6.977777778,2.9459,0,11,11,11,1,song_indices/Despacito_LuisFonsiDaddyYankee.csv,,,,,,,,,,,,,,,,,,,,,,,,,,,,,,,,,,,,,,,,,,,,,,,,
,,,,,502409,001,2024-06-17_09h45.04.130,experiment,2024.1.5,Win32,59.88023952,5bad8fc39c0cc900017a6a28,667045947eb812cbdacbf325,66704bbc3ac613868b2825b4,,,,,,,,,,,,,,,,,,,,,,,,,,,,,,,,,,,,324.5047,333.371,0,0,0,0,1,SoundStimuli/Perfect_EdSheeran_Original5S.wav,,,,,,,,,,,,,,,,,,,,,,,,,,,,,,,,,,,,,,,,,,,,,,,,,,,,,,,,,,
,,,,,502409,001,2024-06-17_09h45.04.130,experiment,2024.1.5,Win32,59.88023952,5bad8fc39c0cc900017a6a28,667045947eb812cbdacbf325,66704bbc3ac613868b2825b4,,,,,,,,,,,,,,,,,,,,,,,,,,,,,,,,,,,,333.3771,341.6375,0,1,1,1,1,SoundStimuli/Perfect_EdSheeran_Cover5S.wav,,,,,,,,,,,,,,,,,,,,,,,,,,,,,,,,,,,,,,,,,,,,,,,,,,,,,,,,,,
,,,,,502409,001,2024-06-17_09h45.04.130,experiment,2024.1.5,Win32,59.88023952,5bad8fc39c0cc900017a6a28,667045947eb812cbdacbf325,66704bbc3ac613868b2825b4,,,,,,,,,,,,,,,,,,,,,,,,,,,,,,,,,,,,,,,,,,,,341.6376,343.3042,5.005555556,1.653,0,12,12,0,1,song_indices/Perfect_EdSheeran.csv,,,,,,,,,,,,,,,,,,,,,,,,,,,,,,,,,,,,,,,,,,,,,,,,
,,,,,502409,001,2024-06-17_09h45.04.130,experiment,2024.1.5,Win32,59.88023952,5bad8fc39c0cc900017a6a28,667045947eb812cbdacbf325,66704bbc3ac613868b2825b4,,,,,,,,,,,,,,,,,,,,,,,,,,,,,,,,,,,,343.3052,349.3375,0,0,0,1,1,SoundStimuli/IWantToHoldYourHand_TheBeatles_Cover5S.wav,,,,,,,,,,,,,,,,,,,,,,,,,,,,,,,,,,,,,,,,,,,,,,,,,,,,,,,,,,
,,,,,502409,001,2024-06-17_09h45.04.130,experiment,2024.1.5,Win32,59.88023952,5bad8fc39c0cc900017a6a28,667045947eb812cbdacbf325,66704bbc3ac613868b2825b4,,,,,,,,,,,,,,,,,,,,,,,,,,,,,,,,,,,,349.3436,355.1377,0,1,1,0,1,SoundStimuli/IWantToHoldYourHand_TheBeatles_Original5S.wav,,,,,,,,,,,,,,,,,,,,,,,,,,,,,,,,,,,,,,,,,,,,,,,,,,,,,,,,,,
,,,,,502409,001,2024-06-17_09h45.04.130,experiment,2024.1.5,Win32,59.88023952,5bad8fc39c0cc900017a6a28,667045947eb812cbdacbf325,66704bbc3ac613868b2825b4,,,,,,,,,,,,,,,,,,,,,,,,,,,,,,,,,,,,,,,,,,,,355.1379,357.671,1,2.5202,0,13,13,19,1,song_indices/IWantToHoldYourHand_TheBeatles.csv,,,,,,,,,,,,,,,,,,,,,,,,,,,,,,,,,,,,,,,,,,,,,,,,
,,,,,502409,001,2024-06-17_09h45.04.130,experiment,2024.1.5,Win32,59.88023952,5bad8fc39c0cc900017a6a28,667045947eb812cbdacbf325,66704bbc3ac613868b2825b4,,,,,,,,,,,,,,,,,,,,,,,,,,,,,,,,,,,,357.6717,363.8044,0,0,0,1,1,SoundStimuli/Smooth_SantanaRobThomas_Cover5S.wav,,,,,,,,,,,,,,,,,,,,,,,,,,,,,,,,,,,,,,,,,,,,,,,,,,,,,,,,,,
,,,,,502409,001,2024-06-17_09h45.04.130,experiment,2024.1.5,Win32,59.88023952,5bad8fc39c0cc900017a6a28,667045947eb812cbdacbf325,66704bbc3ac613868b2825b4,,,,,,,,,,,,,,,,,,,,,,,,,,,,,,,,,,,,363.8104,370.0212,0,1,1,0,1,SoundStimuli/Smooth_SantanaRobThomas_Original5S.wav,,,,,,,,,,,,,,,,,,,,,,,,,,,,,,,,,,,,,,,,,,,,,,,,,,,,,,,,,,
,,,,,502409,001,2024-06-17_09h45.04.130,experiment,2024.1.5,Win32,59.88023952,5bad8fc39c0cc900017a6a28,667045947eb812cbdacbf325,66704bbc3ac613868b2825b4,,,,,,,,,,,,,,,,,,,,,,,,,,,,,,,,,,,,,,,,,,,,370.0212,371.2046,6.988888889,1.1728,0,14,14,4,1,song_indices/Smooth_SantanaRobThomas.csv,,,,,,,,,,,,,,,,,,,,,,,,,,,,,,,,,,,,,,,,,,,,,,,,
,,,,,502409,001,2024-06-17_09h45.04.130,experiment,2024.1.5,Win32,59.88023952,5bad8fc39c0cc900017a6a28,667045947eb812cbdacbf325,66704bbc3ac613868b2825b4,,,,,,,,,,,,,,,,,,,,,,,,,,,,,,,,,,,,371.2056,377.2378,0,0,0,0,1,SoundStimuli/AChangeIsGonnaCome_SamCooke_Original5S.wav,,,,,,,,,,,,,,,,,,,,,,,,,,,,,,,,,,,,,,,,,,,,,,,,,,,,,,,,,,
,,,,,502409,001,2024-06-17_09h45.04.130,experiment,2024.1.5,Win32,59.88023952,5bad8fc39c0cc900017a6a28,667045947eb812cbdacbf325,66704bbc3ac613868b2825b4,,,,,,,,,,,,,,,,,,,,,,,,,,,,,,,,,,,,377.2438,381.9545,0,1,1,1,1,SoundStimuli/AChangeIsGonnaCome_SamCooke_Cover5S.wav,,,,,,,,,,,,,,,,,,,,,,,,,,,,,,,,,,,,,,,,,,,,,,,,,,,,,,,,,,
,,,,,502409,001,2024-06-17_09h45.04.130,experiment,2024.1.5,Win32,59.88023952,5bad8fc39c0cc900017a6a28,667045947eb812cbdacbf325,66704bbc3ac613868b2825b4,,,,,,,,,,,,,,,,,,,,,,,,,,,,,,,,,,,,,,,,,,,,381.9547,384.7712,6.027777778,2.8076,0,15,15,17,1,song_indices/AChangeIsGonnaCome_SamCooke.csv,,,,,,,,,,,,,,,,,,,,,,,,,,,,,,,,,,,,,,,,,,,,,,,,
,,,,,502409,001,2024-06-17_09h45.04.130,experiment,2024.1.5,Win32,59.88023952,5bad8fc39c0cc900017a6a28,667045947eb812cbdacbf325,66704bbc3ac613868b2825b4,,,,,,,,,,,,,,,,,,,,,,,,,,,,,,,,,,,,384.7718,390.8046,0,0,0,0,1,SoundStimuli/AnotherOneBitesTheDust_Queen_Original5S.wav,,,,,,,,,,,,,,,,,,,,,,,,,,,,,,,,,,,,,,,,,,,,,,,,,,,,,,,,,,
,,,,,502409,001,2024-06-17_09h45.04.130,experiment,2024.1.5,Win32,59.88023952,5bad8fc39c0cc900017a6a28,667045947eb812cbdacbf325,66704bbc3ac613868b2825b4,,,,,,,,,,,,,,,,,,,,,,,,,,,,,,,,,,,,390.8107,398.938,0,1,1,1,1,SoundStimuli/AnotherOneBitesTheDust_Queen_Cover5S.wav,,,,,,,,,,,,,,,,,,,,,,,,,,,,,,,,,,,,,,,,,,,,,,,,,,,,,,,,,,
,,,,,502409,001,2024-06-17_09h45.04.130,experiment,2024.1.5,Win32,59.88023952,5bad8fc39c0cc900017a6a28,667045947eb812cbdacbf325,66704bbc3ac613868b2825b4,,,,,,,,,,,,,,,,,,,,,,,,,,,,,,,,,,,,,,,,,,,,398.9381,400.788,1.016666667,1.8401,0,16,16,9,1,song_indices/AnotherOneBitesTheDust_Queen.csv,,,,,,,,,,,,,,,,,,,,,,,,,,,,,,,,,,,,,,,,,,,,,,,,
,,,,,502409,001,2024-06-17_09h45.04.130,experiment,2024.1.5,Win32,59.88023952,5bad8fc39c0cc900017a6a28,667045947eb812cbdacbf325,66704bbc3ac613868b2825b4,,,,,,,,,,,,,,,,,,,,,,,,,,,,,,,,,,,,400.7886,406.8213,0,0,0,0,1,SoundStimuli/StayinAlive_BeeGees_Original5S.wav,,,,,,,,,,,,,,,,,,,,,,,,,,,,,,,,,,,,,,,,,,,,,,,,,,,,,,,,,,
,,,,,502409,001,2024-06-17_09h45.04.130,experiment,2024.1.5,Win32,59.88023952,5bad8fc39c0cc900017a6a28,667045947eb812cbdacbf325,66704bbc3ac613868b2825b4,,,,,,,,,,,,,,,,,,,,,,,,,,,,,,,,,,,,406.8275,412.6549,0,1,1,1,1,SoundStimuli/StayinAlive_BeeGees_Cover5S.wav,,,,,,,,,,,,,,,,,,,,,,,,,,,,,,,,,,,,,,,,,,,,,,,,,,,,,,,,,,
,,,,,502409,001,2024-06-17_09h45.04.130,experiment,2024.1.5,Win32,59.88023952,5bad8fc39c0cc900017a6a28,667045947eb812cbdacbf325,66704bbc3ac613868b2825b4,,,,,,,,,,,,,,,,,,,,,,,,,,,,,,,,,,,,,,,,,,,,412.655,415.4214,3.922222222,2.7555,0,17,17,2,1,song_indices/StayinAlive_BeeGees.csv,,,,,,,,,,,,,,,,,,,,,,,,,,,,,,,,,,,,,,,,,,,,,,,,
,,,,,502409,001,2024-06-17_09h45.04.130,experiment,2024.1.5,Win32,59.88023952,5bad8fc39c0cc900017a6a28,667045947eb812cbdacbf325,66704bbc3ac613868b2825b4,,,,,,,,,,,,,,,,,,,,,,,,,,,,,,,,,,,,415.4222,421.5715,0,0,0,0,1,SoundStimuli/LikeARollingStone_BobDylan_Original5S.wav,,,,,,,,,,,,,,,,,,,,,,,,,,,,,,,,,,,,,,,,,,,,,,,,,,,,,,,,,,
,,,,,502409,001,2024-06-17_09h45.04.130,experiment,2024.1.5,Win32,59.88023952,5bad8fc39c0cc900017a6a28,667045947eb812cbdacbf325,66704bbc3ac613868b2825b4,,,,,,,,,,,,,,,,,,,,,,,,,,,,,,,,,,,,421.5776,425.9716,0,1,1,1,1,SoundStimuli/LikeARollingStone_BobDylan_Cover5S.wav,,,,,,,,,,,,,,,,,,,,,,,,,,,,,,,,,,,,,,,,,,,,,,,,,,,,,,,,,,
,,,,,502409,001,2024-06-17_09h45.04.130,experiment,2024.1.5,Win32,59.88023952,5bad8fc39c0cc900017a6a28,667045947eb812cbdacbf325,66704bbc3ac613868b2825b4,,,,,,,,,,,,,,,,,,,,,,,,,,,,,,,,,,,,,,,,,,,,425.9716,427.1216,2.011111111,1.1348,0,18,18,12,1,song_indices/LikeARollingStone_BobDylan.csv,,,,,,,,,,,,,,,,,,,,,,,,,,,,,,,,,,,,,,,,,,,,,,,,
,,,,,502409,001,2024-06-17_09h45.04.130,experiment,2024.1.5,Win32,59.88023952,5bad8fc39c0cc900017a6a28,667045947eb812cbdacbf325,66704bbc3ac613868b2825b4,,,,,,,,,,,,,,,,,,,,,,,,,,,,,,,,,,,,427.1224,433.0716,0,0,0,1,1,SoundStimuli/IllMakeLoveToYou_BoyzIIMen_Cover5S.wav,,,,,,,,,,,,,,,,,,,,,,,,,,,,,,,,,,,,,,,,,,,,,,,,,,,,,,,,,,
,,,,,502409,001,2024-06-17_09h45.04.130,experiment,2024.1.5,Win32,59.88023952,5bad8fc39c0cc900017a6a28,667045947eb812cbdacbf325,66704bbc3ac613868b2825b4,,,,,,,,,,,,,,,,,,,,,,,,,,,,,,,,,,,,433.0777,439.155,0,1,1,0,1,SoundStimuli/IllMakeLoveToYou_BoyzIIMen_Original5S.wav,,,,,,,,,,,,,,,,,,,,,,,,,,,,,,,,,,,,,,,,,,,,,,,,,,,,,,,,,,
,,,,,502409,001,2024-06-17_09h45.04.130,experiment,2024.1.5,Win32,59.88023952,5bad8fc39c0cc900017a6a28,667045947eb812cbdacbf325,66704bbc3ac613868b2825b4,,,,,,,,,,,,,,,,,,,,,,,,,,,,,,,,,,,,,,,,,,,,439.155,440.8382,3.983333333,1.671,0,19,19,6,1,song_indices/IllMakeLoveToYou_BoyzIIMen.csv,,,,,,,,,,,,,,,,,,,,,,,,,,,,,,,,,,,,,,,,,,,,,,,,
,,,,,502409,001,2024-06-17_09h45.04.130,experiment,2024.1.5,Win32,59.88023952,5bad8fc39c0cc900017a6a28,667045947eb812cbdacbf325,66704bbc3ac613868b2825b4,,,,,,,,,,,,,,,,,,,,,,,,,,,,,,,,,,,,440.8388,448.3384,0,0,0,1,1,SoundStimuli/BadDay_DanielPowter_Cover5S.wav,,,,,,,,,,,,,,,,,,,,,,,,,,,,,,,,,,,,,,,,,,,,,,,,,,,,,,,,,,
,,,,,502409,001,2024-06-17_09h45.04.130,experiment,2024.1.5,Win32,59.88023952,5bad8fc39c0cc900017a6a28,667045947eb812cbdacbf325,66704bbc3ac613868b2825b4,,,,,,,,,,,,,,,,,,,,,,,,,,,,,,,,,,,,448.3443,454.7883,0,1,1,0,1,SoundStimuli/BadDay_DanielPowter_Original5S.wav,,,,,,,,,,,,,,,,,,,,,,,,,,,,,,,,,,,,,,,,,,,,,,,,,,,,,,,,,,
,,,,,502409,001,2024-06-17_09h45.04.130,experiment,2024.1.5,Win32,59.88023952,5bad8fc39c0cc900017a6a28,667045947eb812cbdacbf325,66704bbc3ac613868b2825b4,,,,,,,,,,,,,,,,,,,,,,,,,,,,,,,,,,,,,,,,,,,,454.7884,457.0551,3.011111111,2.2462,0,20,20,22,1,song_indices/BadDay_DanielPowter.csv,,,,,,,,,,,,,,,,,,,,,,,,,,,,,,,,,,,,,,,,,,,,,,,,
,,,,,502409,001,2024-06-17_09h45.04.130,experiment,2024.1.5,Win32,59.88023952,5bad8fc39c0cc900017a6a28,667045947eb812cbdacbf325,66704bbc3ac613868b2825b4,,,,,,,,,,,,,,,,,,,,,,,,,,,,,,,,,,,,457.0557,464.7219,0,0,0,1,1,SoundStimuli/MyGirl_TheTemptations_Cover5S.wav,,,,,,,,,,,,,,,,,,,,,,,,,,,,,,,,,,,,,,,,,,,,,,,,,,,,,,,,,,
,,,,,502409,001,2024-06-17_09h45.04.130,experiment,2024.1.5,Win32,59.88023952,5bad8fc39c0cc900017a6a28,667045947eb812cbdacbf325,66704bbc3ac613868b2825b4,,,,,,,,,,,,,,,,,,,,,,,,,,,,,,,,,,,,464.728,471.1219,0,1,1,0,1,SoundStimuli/MyGirl_TheTemptations_Original5S.wav,,,,,,,,,,,,,,,,,,,,,,,,,,,,,,,,,,,,,,,,,,,,,,,,,,,,,,,,,,
,,,,,502409,001,2024-06-17_09h45.04.130,experiment,2024.1.5,Win32,59.88023952,5bad8fc39c0cc900017a6a28,667045947eb812cbdacbf325,66704bbc3ac613868b2825b4,,,,,,,,,,,,,,,,,,,,,,,,,,,,,,,,,,,,,,,,,,,,471.122,473.5885,1.011111111,2.4483,0,21,21,15,1,song_indices/MyGirl_TheTemptations.csv,,,,,,,,,,,,,,,,,,,,,,,,,,,,,,,,,,,,,,,,,,,,,,,,
,,,,,502409,001,2024-06-17_09h45.04.130,experiment,2024.1.5,Win32,59.88023952,5bad8fc39c0cc900017a6a28,667045947eb812cbdacbf325,66704bbc3ac613868b2825b4,,,,,,,,,,,,,,,,,,,,,,,,,,,,,,,,,,,,473.5892,480.622,0,0,0,1,1,SoundStimuli/StrawberryFieldsForever_TheBeatles_Cover5S.wav,,,,,,,,,,,,,,,,,,,,,,,,,,,,,,,,,,,,,,,,,,,,,,,,,,,,,,,,,,
,,,,,502409,001,2024-06-17_09h45.04.130,experiment,2024.1.5,Win32,59.88023952,5bad8fc39c0cc900017a6a28,667045947eb812cbdacbf325,66704bbc3ac613868b2825b4,,,,,,,,,,,,,,,,,,,,,,,,,,,,,,,,,,,,480.628,486.7553,0,1,1,0,1,SoundStimuli/StrawberryFieldsForever_TheBeatles_Original5S.wav,,,,,,,,,,,,,,,,,,,,,,,,,,,,,,,,,,,,,,,,,,,,,,,,,,,,,,,,,,
,,,,,502409,001,2024-06-17_09h45.04.130,experiment,2024.1.5,Win32,59.88023952,5bad8fc39c0cc900017a6a28,667045947eb812cbdacbf325,66704bbc3ac613868b2825b4,,,,,,,,,,,,,,,,,,,,,,,,,,,,,,,,,,,,,,,,,,,,486.7555,488.6887,1.016666667,1.9188,0,22,22,14,1,song_indices/StrawberryFieldsForever_TheBeatles.csv,,,,,,,,,,,,,,,,,,,,,,,,,,,,,,,,,,,,,,,,,,,,,,,,
,,,,,502409,001,2024-06-17_09h45.04.130,experiment,2024.1.5,Win32,59.88023952,5bad8fc39c0cc900017a6a28,667045947eb812cbdacbf325,66704bbc3ac613868b2825b4,,,,,,,,,,,,,,,,,,,,,,,,,,,,,,,,,,,,,,,,,,,,,,,,,,,,,,488.6892,499.4391,space,10.7313,,0,0,0,0,1,choose_song_b1.csv,,,,,,,,,,,,,,,,,,,,,,,,,,,,,,,,,,,,,
,,,,,502409,001,2024-06-17_09h45.04.130,experiment,2024.1.5,Win32,59.88023952,5bad8fc39c0cc900017a6a28,667045947eb812cbdacbf325,66704bbc3ac613868b2825b4,,,,,,,,,,,,,,,,,,,,,,,,,,,,,,,,,,,,499.4461,508.3556,0,0,0,1,1,SoundStimuli/HeyYa_Outkast_Cover5S.wav,,,,,,,,,,,,,,,,,,,,,,,,,,,,,,,,,,,,,,,,,,,,,,,,,,,,,,,,,,
,,,,,502409,001,2024-06-17_09h45.04.130,experiment,2024.1.5,Win32,59.88023952,5bad8fc39c0cc900017a6a28,667045947eb812cbdacbf325,66704bbc3ac613868b2825b4,,,,,,,,,,,,,,,,,,,,,,,,,,,,,,,,,,,,508.3616,514.6556,0,1,1,0,1,SoundStimuli/HeyYa_Outkast_Original5S.wav,,,,,,,,,,,,,,,,,,,,,,,,,,,,,,,,,,,,,,,,,,,,,,,,,,,,,,,,,,
,,,,,502409,001,2024-06-17_09h45.04.130,experiment,2024.1.5,Win32,59.88023952,5bad8fc39c0cc900017a6a28,667045947eb812cbdacbf325,66704bbc3ac613868b2825b4,,,,,,,,,,,,,,,,,,,,,,,,,,,,,,,,,,,,,,,,,,,,514.6558,517.0056,1.961111111,2.3307,0,0,0,22,1,song_indices/HeyYa_Outkast.csv,,,,,,,,,,,,,,,,,,,,,,,,,,,,,,,,,,,,,,,,,,,,,,,,
,,,,,502409,001,2024-06-17_09h45.04.130,experiment,2024.1.5,Win32,59.88023952,5bad8fc39c0cc900017a6a28,667045947eb812cbdacbf325,66704bbc3ac613868b2825b4,,,,,,,,,,,,,,,,,,,,,,,,,,,,,,,,,,,,517.0065,523.2223,0,0,0,0,1,SoundStimuli/SmellsLikeTeenSpirit_Nirvana_Original5S.wav,,,,,,,,,,,,,,,,,,,,,,,,,,,,,,,,,,,,,,,,,,,,,,,,,,,,,,,,,,
,,,,,502409,001,2024-06-17_09h45.04.130,experiment,2024.1.5,Win32,59.88023952,5bad8fc39c0cc900017a6a28,667045947eb812cbdacbf325,66704bbc3ac613868b2825b4,,,,,,,,,,,,,,,,,,,,,,,,,,,,,,,,,,,,523.2284,528.9891,0,1,1,1,1,SoundStimuli/SmellsLikeTeenSpirit_Nirvana_Cover5S.wav,,,,,,,,,,,,,,,,,,,,,,,,,,,,,,,,,,,,,,,,,,,,,,,,,,,,,,,,,,
,,,,,502409,001,2024-06-17_09h45.04.130,experiment,2024.1.5,Win32,59.88023952,5bad8fc39c0cc900017a6a28,667045947eb812cbdacbf325,66704bbc3ac613868b2825b4,,,,,,,,,,,,,,,,,,,,,,,,,,,,,,,,,,,,,,,,,,,,528.9891,530.7058,6.977777778,1.7091,0,1,1,8,1,song_indices/SmellsLikeTeenSpirit_Nirvana.csv,,,,,,,,,,,,,,,,,,,,,,,,,,,,,,,,,,,,,,,,,,,,,,,,
,,,,,502409,001,2024-06-17_09h45.04.130,experiment,2024.1.5,Win32,59.88023952,5bad8fc39c0cc900017a6a28,667045947eb812cbdacbf325,66704bbc3ac613868b2825b4,,,,,,,,,,,,,,,,,,,,,,,,,,,,,,,,,,,,530.7063,540.9558,0,0,0,1,1,SoundStimuli/CrazyInLove_BeyonceFtJayZ_Cover5S.wav,,,,,,,,,,,,,,,,,,,,,,,,,,,,,,,,,,,,,,,,,,,,,,,,,,,,,,,,,,
,,,,,502409,001,2024-06-17_09h45.04.130,experiment,2024.1.5,Win32,59.88023952,5bad8fc39c0cc900017a6a28,667045947eb812cbdacbf325,66704bbc3ac613868b2825b4,,,,,,,,,,,,,,,,,,,,,,,,,,,,,,,,,,,,540.9617,547.5058,0,1,1,0,1,SoundStimuli/CrazyInLove_BeyonceFtJayZ_Original5S.wav,,,,,,,,,,,,,,,,,,,,,,,,,,,,,,,,,,,,,,,,,,,,,,,,,,,,,,,,,,
,,,,,502409,001,2024-06-17_09h45.04.130,experiment,2024.1.5,Win32,59.88023952,5bad8fc39c0cc900017a6a28,667045947eb812cbdacbf325,66704bbc3ac613868b2825b4,,,,,,,,,,,,,,,,,,,,,,,,,,,,,,,,,,,,,,,,,,,,547.5059,551.2059,5.994444444,3.6806,0,2,2,3,1,song_indices/CrazyInLove_BeyonceFtJayZ.csv,,,,,,,,,,,,,,,,,,,,,,,,,,,,,,,,,,,,,,,,,,,,,,,,
,,,,,502409,001,2024-06-17_09h45.04.130,experiment,2024.1.5,Win32,59.88023952,5bad8fc39c0cc900017a6a28,667045947eb812cbdacbf325,66704bbc3ac613868b2825b4,,,,,,,,,,,,,,,,,,,,,,,,,,,,,,,,,,,,551.2066,557.1392,0,0,0,0,1,SoundStimuli/StandByMe_BenEKing_Original5S.wav,,,,,,,,,,,,,,,,,,,,,,,,,,,,,,,,,,,,,,,,,,,,,,,,,,,,,,,,,,
,,,,,502409,001,2024-06-17_09h45.04.130,experiment,2024.1.5,Win32,59.88023952,5bad8fc39c0cc900017a6a28,667045947eb812cbdacbf325,66704bbc3ac613868b2825b4,,,,,,,,,,,,,,,,,,,,,,,,,,,,,,,,,,,,557.1453,563.1728,0,1,1,1,1,SoundStimuli/StandByMe_BenEKing_Cover5S.wav,,,,,,,,,,,,,,,,,,,,,,,,,,,,,,,,,,,,,,,,,,,,,,,,,,,,,,,,,,
,,,,,502409,001,2024-06-17_09h45.04.130,experiment,2024.1.5,Win32,59.88023952,5bad8fc39c0cc900017a6a28,667045947eb812cbdacbf325,66704bbc3ac613868b2825b4,,,,,,,,,,,,,,,,,,,,,,,,,,,,,,,,,,,,,,,,,,,,563.1729,565.0226,1,1.8295,0,3,3,1,1,song_indices/StandByMe_BenEKing.csv,,,,,,,,,,,,,,,,,,,,,,,,,,,,,,,,,,,,,,,,,,,,,,,,
,,,,,502409,001,2024-06-17_09h45.04.130,experiment,2024.1.5,Win32,59.88023952,5bad8fc39c0cc900017a6a28,667045947eb812cbdacbf325,66704bbc3ac613868b2825b4,,,,,,,,,,,,,,,,,,,,,,,,,,,,,,,,,,,,565.0233,571.2394,0,0,0,0,1,SoundStimuli/TheBattleOfNewOrleans_JohnnyHorton_Original5S.wav,,,,,,,,,,,,,,,,,,,,,,,,,,,,,,,,,,,,,,,,,,,,,,,,,,,,,,,,,,
,,,,,502409,001,2024-06-17_09h45.04.130,experiment,2024.1.5,Win32,59.88023952,5bad8fc39c0cc900017a6a28,667045947eb812cbdacbf325,66704bbc3ac613868b2825b4,,,,,,,,,,,,,,,,,,,,,,,,,,,,,,,,,,,,571.2454,579.2228,0,1,1,1,1,SoundStimuli/TheBattleOfNewOrleans_JohnnyHorton_Cover5S.wav,,,,,,,,,,,,,,,,,,,,,,,,,,,,,,,,,,,,,,,,,,,,,,,,,,,,,,,,,,
,,,,,502409,001,2024-06-17_09h45.04.130,experiment,2024.1.5,Win32,59.88023952,5bad8fc39c0cc900017a6a28,667045947eb812cbdacbf325,66704bbc3ac613868b2825b4,,,,,,,,,,,,,,,,,,,,,,,,,,,,,,,,,,,,,,,,,,,,579.2229,580.7395,1,1.5074,0,4,4,4,1,song_indices/TheBattleOfNewOrleans_JohnnyHorton.csv,,,,,,,,,,,,,,,,,,,,,,,,,,,,,,,,,,,,,,,,,,,,,,,,
,,,,,502409,001,2024-06-17_09h45.04.130,experiment,2024.1.5,Win32,59.88023952,5bad8fc39c0cc900017a6a28,667045947eb812cbdacbf325,66704bbc3ac613868b2825b4,,,,,,,,,,,,,,,,,,,,,,,,,,,,,,,,,,,,580.7402,586.7228,0,0,0,0,1,SoundStimuli/IWalkTheLine_JohnnyCash_Original5S.wav,,,,,,,,,,,,,,,,,,,,,,,,,,,,,,,,,,,,,,,,,,,,,,,,,,,,,,,,,,
,,,,,502409,001,2024-06-17_09h45.04.130,experiment,2024.1.5,Win32,59.88023952,5bad8fc39c0cc900017a6a28,667045947eb812cbdacbf325,66704bbc3ac613868b2825b4,,,,,,,,,,,,,,,,,,,,,,,,,,,,,,,,,,,,586.7288,593.8728,0,1,1,1,1,SoundStimuli/IWalkTheLine_JohnnyCash_Cover5S.wav,,,,,,,,,,,,,,,,,,,,,,,,,,,,,,,,,,,,,,,,,,,,,,,,,,,,,,,,,,
,,,,,502409,001,2024-06-17_09h45.04.130,experiment,2024.1.5,Win32,59.88023952,5bad8fc39c0cc900017a6a28,667045947eb812cbdacbf325,66704bbc3ac613868b2825b4,,,,,,,,,,,,,,,,,,,,,,,,,,,,,,,,,,,,,,,,,,,,593.8729,594.8895,1,1.0095,0,5,5,17,1,song_indices/IWalkTheLine_JohnnyCash.csv,,,,,,,,,,,,,,,,,,,,,,,,,,,,,,,,,,,,,,,,,,,,,,,,
,,,,,502409,001,2024-06-17_09h45.04.130,experiment,2024.1.5,Win32,59.88023952,5bad8fc39c0cc900017a6a28,667045947eb812cbdacbf325,66704bbc3ac613868b2825b4,,,,,,,,,,,,,,,,,,,,,,,,,,,,,,,,,,,,594.8902,602.2562,0,0,0,0,1,SoundStimuli/Happy_PharellWilliams_Original5S.wav,,,,,,,,,,,,,,,,,,,,,,,,,,,,,,,,,,,,,,,,,,,,,,,,,,,,,,,,,,
,,,,,502409,001,2024-06-17_09h45.04.130,experiment,2024.1.5,Win32,59.88023952,5bad8fc39c0cc900017a6a28,667045947eb812cbdacbf325,66704bbc3ac613868b2825b4,,,,,,,,,,,,,,,,,,,,,,,,,,,,,,,,,,,,602.2621,609.6231,0,1,1,1,1,SoundStimuli/Happy_PharellWilliams_Cover5S.wav,,,,,,,,,,,,,,,,,,,,,,,,,,,,,,,,,,,,,,,,,,,,,,,,,,,,,,,,,,
,,,,,502409,001,2024-06-17_09h45.04.130,experiment,2024.1.5,Win32,59.88023952,5bad8fc39c0cc900017a6a28,667045947eb812cbdacbf325,66704bbc3ac613868b2825b4,,,,,,,,,,,,,,,,,,,,,,,,,,,,,,,,,,,,,,,,,,,,609.6233,610.8397,4.988888889,1.2013,0,6,6,7,1,song_indices/Happy_PharellWilliams.csv,,,,,,,,,,,,,,,,,,,,,,,,,,,,,,,,,,,,,,,,,,,,,,,,
,,,,,502409,001,2024-06-17_09h45.04.130,experiment,2024.1.5,Win32,59.88023952,5bad8fc39c0cc900017a6a28,667045947eb812cbdacbf325,66704bbc3ac613868b2825b4,,,,,,,,,,,,,,,,,,,,,,,,,,,,,,,,,,,,610.8403,617.0897,0,0,0,1,1,SoundStimuli/ItsAllInTheGame_TommyEdwards_Cover5S.wav,,,,,,,,,,,,,,,,,,,,,,,,,,,,,,,,,,,,,,,,,,,,,,,,,,,,,,,,,,
,,,,,502409,001,2024-06-17_09h45.04.130,experiment,2024.1.5,Win32,59.88023952,5bad8fc39c0cc900017a6a28,667045947eb812cbdacbf325,66704bbc3ac613868b2825b4,,,,,,,,,,,,,,,,,,,,,,,,,,,,,,,,,,,,617.0957,623.3566,0,1,1,0,1,SoundStimuli/ItsAllInTheGame_TommyEdwards_Original5S.wav,,,,,,,,,,,,,,,,,,,,,,,,,,,,,,,,,,,,,,,,,,,,,,,,,,,,,,,,,,
,,,,,502409,001,2024-06-17_09h45.04.130,experiment,2024.1.5,Win32,59.88023952,5bad8fc39c0cc900017a6a28,667045947eb812cbdacbf325,66704bbc3ac613868b2825b4,,,,,,,,,,,,,,,,,,,,,,,,,,,,,,,,,,,,,,,,,,,,623.3567,625.1732,2.005555556,1.7977,0,7,7,13,1,song_indices/ItsAllInTheGame_TommyEdwards.csv,,,,,,,,,,,,,,,,,,,,,,,,,,,,,,,,,,,,,,,,,,,,,,,,
,,,,,502409,001,2024-06-17_09h45.04.130,experiment,2024.1.5,Win32,59.88023952,5bad8fc39c0cc900017a6a28,667045947eb812cbdacbf325,66704bbc3ac613868b2825b4,,,,,,,,,,,,,,,,,,,,,,,,,,,,,,,,,,,,625.174,631.4899,0,0,0,1,1,SoundStimuli/ShapeofYou_EdSheeran_Cover5S.wav,,,,,,,,,,,,,,,,,,,,,,,,,,,,,,,,,,,,,,,,,,,,,,,,,,,,,,,,,,
,,,,,502409,001,2024-06-17_09h45.04.130,experiment,2024.1.5,Win32,59.88023952,5bad8fc39c0cc900017a6a28,667045947eb812cbdacbf325,66704bbc3ac613868b2825b4,,,,,,,,,,,,,,,,,,,,,,,,,,,,,,,,,,,,631.4959,637.9565,0,1,1,0,1,SoundStimuli/ShapeofYou_EdSheeran_Original5S.wav,,,,,,,,,,,,,,,,,,,,,,,,,,,,,,,,,,,,,,,,,,,,,,,,,,,,,,,,,,
,,,,,502409,001,2024-06-17_09h45.04.130,experiment,2024.1.5,Win32,59.88023952,5bad8fc39c0cc900017a6a28,667045947eb812cbdacbf325,66704bbc3ac613868b2825b4,,,,,,,,,,,,,,,,,,,,,,,,,,,,,,,,,,,,,,,,,,,,637.9566,640.0066,1.005555556,2.0423,0,8,8,21,1,song_indices/ShapeofYou_EdSheeran.csv,,,,,,,,,,,,,,,,,,,,,,,,,,,,,,,,,,,,,,,,,,,,,,,,
,,,,,502409,001,2024-06-17_09h45.04.130,experiment,2024.1.5,Win32,59.88023952,5bad8fc39c0cc900017a6a28,667045947eb812cbdacbf325,66704bbc3ac613868b2825b4,,,,,,,,,,,,,,,,,,,,,,,,,,,,,,,,,,,,640.0072,647.0399,0,0,0,1,1,SoundStimuli/UptownFunk_MarkRonson_Cover5S.wav,,,,,,,,,,,,,,,,,,,,,,,,,,,,,,,,,,,,,,,,,,,,,,,,,,,,,,,,,,
,,,,,502409,001,2024-06-17_09h45.04.130,experiment,2024.1.5,Win32,59.88023952,5bad8fc39c0cc900017a6a28,667045947eb812cbdacbf325,66704bbc3ac613868b2825b4,,,,,,,,,,,,,,,,,,,,,,,,,,,,,,,,,,,,647.046,654.2732,0,1,1,0,1,SoundStimuli/UptownFunk_MarkRonson_Original5S.wav,,,,,,,,,,,,,,,,,,,,,,,,,,,,,,,,,,,,,,,,,,,,,,,,,,,,,,,,,,
,,,,,502409,001,2024-06-17_09h45.04.130,experiment,2024.1.5,Win32,59.88023952,5bad8fc39c0cc900017a6a28,667045947eb812cbdacbf325,66704bbc3ac613868b2825b4,,,,,,,,,,,,,,,,,,,,,,,,,,,,,,,,,,,,,,,,,,,,654.2733,656.2234,6.955555556,1.9373,0,9,9,15,1,song_indices/UptownFunk_MarkRonson.csv,,,,,,,,,,,,,,,,,,,,,,,,,,,,,,,,,,,,,,,,,,,,,,,,
,,,,,502409,001,2024-06-17_09h45.04.130,experiment,2024.1.5,Win32,59.88023952,5bad8fc39c0cc900017a6a28,667045947eb812cbdacbf325,66704bbc3ac613868b2825b4,,,,,,,,,,,,,,,,,,,,,,,,,,,,,,,,,,,,656.224,662.3235,0,0,0,0,1,SoundStimuli/GimmeShelter_RollingStones_Original5S.wav,,,,,,,,,,,,,,,,,,,,,,,,,,,,,,,,,,,,,,,,,,,,,,,,,,,,,,,,,,
,,,,,502409,001,2024-06-17_09h45.04.130,experiment,2024.1.5,Win32,59.88023952,5bad8fc39c0cc900017a6a28,667045947eb812cbdacbf325,66704bbc3ac613868b2825b4,,,,,,,,,,,,,,,,,,,,,,,,,,,,,,,,,,,,662.3294,668.5402,0,1,1,1,1,SoundStimuli/GimmeShelter_RollingStones_Cover5S.wav,,,,,,,,,,,,,,,,,,,,,,,,,,,,,,,,,,,,,,,,,,,,,,,,,,,,,,,,,,
,,,,,502409,001,2024-06-17_09h45.04.130,experiment,2024.1.5,Win32,59.88023952,5bad8fc39c0cc900017a6a28,667045947eb812cbdacbf325,66704bbc3ac613868b2825b4,,,,,,,,,,,,,,,,,,,,,,,,,,,,,,,,,,,,,,,,,,,,668.5403,677.4569,2.988888889,8.902,0,10,10,20,1,song_indices/GimmeShelter_RollingStones.csv,,,,,,,,,,,,,,,,,,,,,,,,,,,,,,,,,,,,,,,,,,,,,,,,
,,,,,502409,001,2024-06-17_09h45.04.130,experiment,2024.1.5,Win32,59.88023952,5bad8fc39c0cc900017a6a28,667045947eb812cbdacbf325,66704bbc3ac613868b2825b4,,,,,,,,,,,,,,,,,,,,,,,,,,,,,,,,,,,,677.4576,683.5235,0,0,0,0,1,SoundStimuli/Stronger_KanyeWest_Original5S.wav,,,,,,,,,,,,,,,,,,,,,,,,,,,,,,,,,,,,,,,,,,,,,,,,,,,,,,,,,,
,,,,,502409,001,2024-06-17_09h45.04.130,experiment,2024.1.5,Win32,59.88023952,5bad8fc39c0cc900017a6a28,667045947eb812cbdacbf325,66704bbc3ac613868b2825b4,,,,,,,,,,,,,,,,,,,,,,,,,,,,,,,,,,,,683.5295,689.857,0,1,1,1,1,SoundStimuli/Stronger_KanyeWest_Cover5S.wav,,,,,,,,,,,,,,,,,,,,,,,,,,,,,,,,,,,,,,,,,,,,,,,,,,,,,,,,,,
,,,,,502409,001,2024-06-17_09h45.04.130,experiment,2024.1.5,Win32,59.88023952,5bad8fc39c0cc900017a6a28,667045947eb812cbdacbf325,66704bbc3ac613868b2825b4,,,,,,,,,,,,,,,,,,,,,,,,,,,,,,,,,,,,,,,,,,,,689.8571,693.2903,1,3.4254,0,11,11,9,1,song_indices/Stronger_KanyeWest.csv,,,,,,,,,,,,,,,,,,,,,,,,,,,,,,,,,,,,,,,,,,,,,,,,
,,,,,502409,001,2024-06-17_09h45.04.130,experiment,2024.1.5,Win32,59.88023952,5bad8fc39c0cc900017a6a28,667045947eb812cbdacbf325,66704bbc3ac613868b2825b4,,,,,,,,,,,,,,,,,,,,,,,,,,,,,,,,,,,,693.2911,699.1404,0,0,0,1,1,SoundStimuli/IWillAlwaysLoveYou_WhitneyHouston_Cover5S.wav,,,,,,,,,,,,,,,,,,,,,,,,,,,,,,,,,,,,,,,,,,,,,,,,,,,,,,,,,,
,,,,,502409,001,2024-06-17_09h45.04.130,experiment,2024.1.5,Win32,59.88023952,5bad8fc39c0cc900017a6a28,667045947eb812cbdacbf325,66704bbc3ac613868b2825b4,,,,,,,,,,,,,,,,,,,,,,,,,,,,,,,,,,,,699.1466,705.5238,0,1,1,0,1,SoundStimuli/IWillAlwaysLoveYou_WhitneyHouston_Original5S.wav,,,,,,,,,,,,,,,,,,,,,,,,,,,,,,,,,,,,,,,,,,,,,,,,,,,,,,,,,,
,,,,,502409,001,2024-06-17_09h45.04.130,experiment,2024.1.5,Win32,59.88023952,5bad8fc39c0cc900017a6a28,667045947eb812cbdacbf325,66704bbc3ac613868b2825b4,,,,,,,,,,,,,,,,,,,,,,,,,,,,,,,,,,,,,,,,,,,,705.5239,707.2237,6.961111111,1.6866,0,12,12,10,1,song_indices/IWillAlwaysLoveYou_WhitneyHouston.csv,,,,,,,,,,,,,,,,,,,,,,,,,,,,,,,,,,,,,,,,,,,,,,,,
,,,,,502409,001,2024-06-17_09h45.04.130,experiment,2024.1.5,Win32,59.88023952,5bad8fc39c0cc900017a6a28,667045947eb812cbdacbf325,66704bbc3ac613868b2825b4,,,,,,,,,,,,,,,,,,,,,,,,,,,,,,,,,,,,707.2243,713.3071,0,0,0,0,1,SoundStimuli/GetUrFreakOn_MissyElliot_Original5S.wav,,,,,,,,,,,,,,,,,,,,,,,,,,,,,,,,,,,,,,,,,,,,,,,,,,,,,,,,,,
,,,,,502409,001,2024-06-17_09h45.04.130,experiment,2024.1.5,Win32,59.88023952,5bad8fc39c0cc900017a6a28,667045947eb812cbdacbf325,66704bbc3ac613868b2825b4,,,,,,,,,,,,,,,,,,,,,,,,,,,,,,,,,,,,713.3131,719.8905,0,1,1,1,1,SoundStimuli/GetUrFreakOn_MissyElliot_Cover5S.wav,,,,,,,,,,,,,,,,,,,,,,,,,,,,,,,,,,,,,,,,,,,,,,,,,,,,,,,,,,
,,,,,502409,001,2024-06-17_09h45.04.130,experiment,2024.1.5,Win32,59.88023952,5bad8fc39c0cc900017a6a28,667045947eb812cbdacbf325,66704bbc3ac613868b2825b4,,,,,,,,,,,,,,,,,,,,,,,,,,,,,,,,,,,,,,,,,,,,719.8906,721.5238,3.977777778,1.6159,0,13,13,18,1,song_indices/GetUrFreakOn_MissyElliot.csv,,,,,,,,,,,,,,,,,,,,,,,,,,,,,,,,,,,,,,,,,,,,,,,,
,,,,,502409,001,2024-06-17_09h45.04.130,experiment,2024.1.5,Win32,59.88023952,5bad8fc39c0cc900017a6a28,667045947eb812cbdacbf325,66704bbc3ac613868b2825b4,,,,,,,,,,,,,,,,,,,,,,,,,,,,,,,,,,,,721.5245,727.5906,0,0,0,1,1,SoundStimuli/RockWithYou_MichaelJackson_Cover5S.wav,,,,,,,,,,,,,,,,,,,,,,,,,,,,,,,,,,,,,,,,,,,,,,,,,,,,,,,,,,
,,,,,502409,001,2024-06-17_09h45.04.130,experiment,2024.1.5,Win32,59.88023952,5bad8fc39c0cc900017a6a28,667045947eb812cbdacbf325,66704bbc3ac613868b2825b4,,,,,,,,,,,,,,,,,,,,,,,,,,,,,,,,,,,,727.5968,733.924,0,1,1,0,1,SoundStimuli/RockWithYou_MichaelJackson_Original5S.wav,,,,,,,,,,,,,,,,,,,,,,,,,,,,,,,,,,,,,,,,,,,,,,,,,,,,,,,,,,
,,,,,502409,001,2024-06-17_09h45.04.130,experiment,2024.1.5,Win32,59.88023952,5bad8fc39c0cc900017a6a28,667045947eb812cbdacbf325,66704bbc3ac613868b2825b4,,,,,,,,,,,,,,,,,,,,,,,,,,,,,,,,,,,,,,,,,,,,733.9241,735.0573,1.027777778,1.1261,0,14,14,16,1,song_indices/RockWithYou_MichaelJackson.csv,,,,,,,,,,,,,,,,,,,,,,,,,,,,,,,,,,,,,,,,,,,,,,,,
,,,,,502409,001,2024-06-17_09h45.04.130,experiment,2024.1.5,Win32,59.88023952,5bad8fc39c0cc900017a6a28,667045947eb812cbdacbf325,66704bbc3ac613868b2825b4,,,,,,,,,,,,,,,,,,,,,,,,,,,,,,,,,,,,735.0579,740.9574,0,0,0,0,1,SoundStimuli/EyeOfTheTiger_Survivor_Original5S.wav,,,,,,,,,,,,,,,,,,,,,,,,,,,,,,,,,,,,,,,,,,,,,,,,,,,,,,,,,,
,,,,,502409,001,2024-06-17_09h45.04.130,experiment,2024.1.5,Win32,59.88023952,5bad8fc39c0cc900017a6a28,667045947eb812cbdacbf325,66704bbc3ac613868b2825b4,,,,,,,,,,,,,,,,,,,,,,,,,,,,,,,,,,,,740.9632,747.0907,0,1,1,1,1,SoundStimuli/EyeOfTheTiger_Survivor_Cover5S.wav,,,,,,,,,,,,,,,,,,,,,,,,,,,,,,,,,,,,,,,,,,,,,,,,,,,,,,,,,,
,,,,,502409,001,2024-06-17_09h45.04.130,experiment,2024.1.5,Win32,59.88023952,5bad8fc39c0cc900017a6a28,667045947eb812cbdacbf325,66704bbc3ac613868b2825b4,,,,,,,,,,,,,,,,,,,,,,,,,,,,,,,,,,,,,,,,,,,,747.0908,750.5407,6.961111111,3.4317,0,15,15,11,1,song_indices/EyeOfTheTiger_Survivor.csv,,,,,,,,,,,,,,,,,,,,,,,,,,,,,,,,,,,,,,,,,,,,,,,,
,,,,,502409,001,2024-06-17_09h45.04.130,experiment,2024.1.5,Win32,59.88023952,5bad8fc39c0cc900017a6a28,667045947eb812cbdacbf325,66704bbc3ac613868b2825b4,,,,,,,,,,,,,,,,,,,,,,,,,,,,,,,,,,,,750.5416,756.4909,0,0,0,1,1,SoundStimuli/TheBoyIsMine_BrandyMonica_Cover5S.wav,,,,,,,,,,,,,,,,,,,,,,,,,,,,,,,,,,,,,,,,,,,,,,,,,,,,,,,,,,
,,,,,502409,001,2024-06-17_09h45.04.130,experiment,2024.1.5,Win32,59.88023952,5bad8fc39c0cc900017a6a28,667045947eb812cbdacbf325,66704bbc3ac613868b2825b4,,,,,,,,,,,,,,,,,,,,,,,,,,,,,,,,,,,,756.4969,762.7076,0,1,1,0,1,SoundStimuli/TheBoyIsMine_BrandyMonica_Original5S.wav,,,,,,,,,,,,,,,,,,,,,,,,,,,,,,,,,,,,,,,,,,,,,,,,,,,,,,,,,,
,,,,,502409,001,2024-06-17_09h45.04.130,experiment,2024.1.5,Win32,59.88023952,5bad8fc39c0cc900017a6a28,667045947eb812cbdacbf325,66704bbc3ac613868b2825b4,,,,,,,,,,,,,,,,,,,,,,,,,,,,,,,,,,,,,,,,,,,,762.7078,763.8908,4.966666667,1.1746,0,16,16,6,1,song_indices/TheBoyIsMine_BrandyMonica.csv,,,,,,,,,,,,,,,,,,,,,,,,,,,,,,,,,,,,,,,,,,,,,,,,
,,,,,502409,001,2024-06-17_09h45.04.130,experiment,2024.1.5,Win32,59.88023952,5bad8fc39c0cc900017a6a28,667045947eb812cbdacbf325,66704bbc3ac613868b2825b4,,,,,,,,,,,,,,,,,,,,,,,,,,,,,,,,,,,,763.8914,769.9577,0,0,0,0,1,SoundStimuli/GoodGollyMissMolly_LittleRichard_Original5S.wav,,,,,,,,,,,,,,,,,,,,,,,,,,,,,,,,,,,,,,,,,,,,,,,,,,,,,,,,,,
,,,,,502409,001,2024-06-17_09h45.04.130,experiment,2024.1.5,Win32,59.88023952,5bad8fc39c0cc900017a6a28,667045947eb812cbdacbf325,66704bbc3ac613868b2825b4,,,,,,,,,,,,,,,,,,,,,,,,,,,,,,,,,,,,769.9636,776.3242,0,1,1,1,1,SoundStimuli/GoodGollyMissMolly_LittleRichard_Cover5S.wav,,,,,,,,,,,,,,,,,,,,,,,,,,,,,,,,,,,,,,,,,,,,,,,,,,,,,,,,,,
,,,,,502409,001,2024-06-17_09h45.04.130,experiment,2024.1.5,Win32,59.88023952,5bad8fc39c0cc900017a6a28,667045947eb812cbdacbf325,66704bbc3ac613868b2825b4,,,,,,,,,,,,,,,,,,,,,,,,,,,,,,,,,,,,,,,,,,,,776.3244,777.8076,2.988888889,1.4701,0,17,17,0,1,song_indices/GoodGollyMissMolly_LittleRichard.csv,,,,,,,,,,,,,,,,,,,,,,,,,,,,,,,,,,,,,,,,,,,,,,,,
,,,,,502409,001,2024-06-17_09h45.04.130,experiment,2024.1.5,Win32,59.88023952,5bad8fc39c0cc900017a6a28,667045947eb812cbdacbf325,66704bbc3ac613868b2825b4,,,,,,,,,,,,,,,,,,,,,,,,,,,,,,,,,,,,777.8083,784.0077,0,0,0,0,1,SoundStimuli/NoScrubs_TLC_Original5S.wav,,,,,,,,,,,,,,,,,,,,,,,,,,,,,,,,,,,,,,,,,,,,,,,,,,,,,,,,,,
,,,,,502409,001,2024-06-17_09h45.04.130,experiment,2024.1.5,Win32,59.88023952,5bad8fc39c0cc900017a6a28,667045947eb812cbdacbf325,66704bbc3ac613868b2825b4,,,,,,,,,,,,,,,,,,,,,,,,,,,,,,,,,,,,784.0137,790.141,0,1,1,1,1,SoundStimuli/NoScrubs_TLC_Cover5S.wav,,,,,,,,,,,,,,,,,,,,,,,,,,,,,,,,,,,,,,,,,,,,,,,,,,,,,,,,,,
,,,,,502409,001,2024-06-17_09h45.04.130,experiment,2024.1.5,Win32,59.88023952,5bad8fc39c0cc900017a6a28,667045947eb812cbdacbf325,66704bbc3ac613868b2825b4,,,,,,,,,,,,,,,,,,,,,,,,,,,,,,,,,,,,,,,,,,,,790.1411,791.2911,5.033333333,1.1411,0,18,18,14,1,song_indices/NoScrubs_TLC.csv,,,,,,,,,,,,,,,,,,,,,,,,,,,,,,,,,,,,,,,,,,,,,,,,
,,,,,502409,001,2024-06-17_09h45.04.130,experiment,2024.1.5,Win32,59.88023952,5bad8fc39c0cc900017a6a28,667045947eb812cbdacbf325,66704bbc3ac613868b2825b4,,,,,,,,,,,,,,,,,,,,,,,,,,,,,,,,,,,,791.2917,797.7244,0,0,0,1,1,SoundStimuli/Fallin_AliciaKeys_Cover5S.wav,,,,,,,,,,,,,,,,,,,,,,,,,,,,,,,,,,,,,,,,,,,,,,,,,,,,,,,,,,
,,,,,502409,001,2024-06-17_09h45.04.130,experiment,2024.1.5,Win32,59.88023952,5bad8fc39c0cc900017a6a28,667045947eb812cbdacbf325,66704bbc3ac613868b2825b4,,,,,,,,,,,,,,,,,,,,,,,,,,,,,,,,,,,,797.7306,803.9078,0,1,1,0,1,SoundStimuli/Fallin_AliciaKeys_Original5S.wav,,,,,,,,,,,,,,,,,,,,,,,,,,,,,,,,,,,,,,,,,,,,,,,,,,,,,,,,,,
,,,,,502409,001,2024-06-17_09h45.04.130,experiment,2024.1.5,Win32,59.88023952,5bad8fc39c0cc900017a6a28,667045947eb812cbdacbf325,66704bbc3ac613868b2825b4,,,,,,,,,,,,,,,,,,,,,,,,,,,,,,,,,,,,,,,,,,,,803.9079,805.6079,6.972222222,1.6797,0,19,19,12,1,song_indices/Fallin_AliciaKeys.csv,,,,,,,,,,,,,,,,,,,,,,,,,,,,,,,,,,,,,,,,,,,,,,,,
,,,,,502409,001,2024-06-17_09h45.04.130,experiment,2024.1.5,Win32,59.88023952,5bad8fc39c0cc900017a6a28,667045947eb812cbdacbf325,66704bbc3ac613868b2825b4,,,,,,,,,,,,,,,,,,,,,,,,,,,,,,,,,,,,805.6085,812.3578,0,0,0,0,1,SoundStimuli/PartyRockAnthem_LMFAO_Original5S.wav,,,,,,,,,,,,,,,,,,,,,,,,,,,,,,,,,,,,,,,,,,,,,,,,,,,,,,,,,,
,,,,,502409,001,2024-06-17_09h45.04.130,experiment,2024.1.5,Win32,59.88023952,5bad8fc39c0cc900017a6a28,667045947eb812cbdacbf325,66704bbc3ac613868b2825b4,,,,,,,,,,,,,,,,,,,,,,,,,,,,,,,,,,,,812.3637,819.1415,0,1,1,1,1,SoundStimuli/PartyRockAnthem_LMFAO_Cover5S.wav,,,,,,,,,,,,,,,,,,,,,,,,,,,,,,,,,,,,,,,,,,,,,,,,,,,,,,,,,,
,,,,,502409,001,2024-06-17_09h45.04.130,experiment,2024.1.5,Win32,59.88023952,5bad8fc39c0cc900017a6a28,667045947eb812cbdacbf325,66704bbc3ac613868b2825b4,,,,,,,,,,,,,,,,,,,,,,,,,,,,,,,,,,,,,,,,,,,,819.1416,824.5079,5.016666667,5.3488,0,20,20,2,1,song_indices/PartyRockAnthem_LMFAO.csv,,,,,,,,,,,,,,,,,,,,,,,,,,,,,,,,,,,,,,,,,,,,,,,,
,,,,,502409,001,2024-06-17_09h45.04.130,experiment,2024.1.5,Win32,59.88023952,5bad8fc39c0cc900017a6a28,667045947eb812cbdacbf325,66704bbc3ac613868b2825b4,,,,,,,,,,,,,,,,,,,,,,,,,,,,,,,,,,,,824.5085,830.7247,0,0,0,0,1,SoundStimuli/BetteDavisEyes_KimCarnes_Original5S.wav,,,,,,,,,,,,,,,,,,,,,,,,,,,,,,,,,,,,,,,,,,,,,,,,,,,,,,,,,,
,,,,,502409,001,2024-06-17_09h45.04.130,experiment,2024.1.5,Win32,59.88023952,5bad8fc39c0cc900017a6a28,667045947eb812cbdacbf325,66704bbc3ac613868b2825b4,,,,,,,,,,,,,,,,,,,,,,,,,,,,,,,,,,,,830.7307,836.4249,0,1,1,1,1,SoundStimuli/BetteDavisEyes_KimCarnes_Cover5S.wav,,,,,,,,,,,,,,,,,,,,,,,,,,,,,,,,,,,,,,,,,,,,,,,,,,,,,,,,,,
,,,,,502409,001,2024-06-17_09h45.04.130,experiment,2024.1.5,Win32,59.88023952,5bad8fc39c0cc900017a6a28,667045947eb812cbdacbf325,66704bbc3ac613868b2825b4,,,,,,,,,,,,,,,,,,,,,,,,,,,,,,,,,,,,,,,,,,,,836.4249,838.7914,1.033333333,2.3537,0,21,21,5,1,song_indices/BetteDavisEyes_KimCarnes.csv,,,,,,,,,,,,,,,,,,,,,,,,,,,,,,,,,,,,,,,,,,,,,,,,
,,,,,502409,001,2024-06-17_09h45.04.130,experiment,2024.1.5,Win32,59.88023952,5bad8fc39c0cc900017a6a28,667045947eb812cbdacbf325,66704bbc3ac613868b2825b4,,,,,,,,,,,,,,,,,,,,,,,,,,,,,,,,,,,,838.792,845.0081,0,0,0,1,1,SoundStimuli/NoOne_AliciaKeys_Cover5S.wav,,,,,,,,,,,,,,,,,,,,,,,,,,,,,,,,,,,,,,,,,,,,,,,,,,,,,,,,,,
,,,,,502409,001,2024-06-17_09h45.04.130,experiment,2024.1.5,Win32,59.88023952,5bad8fc39c0cc900017a6a28,667045947eb812cbdacbf325,66704bbc3ac613868b2825b4,,,,,,,,,,,,,,,,,,,,,,,,,,,,,,,,,,,,845.0139,852.7416,0,1,1,0,1,SoundStimuli/NoOne_AliciaKeys_Original5S.wav,,,,,,,,,,,,,,,,,,,,,,,,,,,,,,,,,,,,,,,,,,,,,,,,,,,,,,,,,,
,,,,,502409,001,2024-06-17_09h45.04.130,experiment,2024.1.5,Win32,59.88023952,5bad8fc39c0cc900017a6a28,667045947eb812cbdacbf325,66704bbc3ac613868b2825b4,,,,,,,,,,,,,,,,,,,,,,,,,,,,,,,,,,,,,,,,,,,,852.7417,860.725,2.983333333,7.9649,0,22,22,19,1,song_indices/NoOne_AliciaKeys.csv,,,,,,,,,,,,,,,,,,,,,,,,,,,,,,,,,,,,,,,,,,,,,,,,
,,,,,502409,001,2024-06-17_09h45.04.130,experiment,2024.1.5,Win32,59.88023952,5bad8fc39c0cc900017a6a28,667045947eb812cbdacbf325,66704bbc3ac613868b2825b4,,,,,,,,,,,,,,,,,,,,,,,,,,,,,,,,,,,,,,,,,,,,,,,,,,,,,,860.725,971.8594,space,111.1246,,0,1,1,1,1,choose_song_b2.csv,,,,,,,,,,,,,,,,,,,,,,,,,,,,,,,,,,,,,
,,,,,502409,001,2024-06-17_09h45.04.130,experiment,2024.1.5,Win32,59.88023952,5bad8fc39c0cc900017a6a28,667045947eb812cbdacbf325,66704bbc3ac613868b2825b4,,,,,,,,,,,,,,,,,,,,,,,,,,,,,,,,,,,,971.861,978.2592,0,0,0,0,1,SoundStimuli/FlashdanceWhatAFeeling_IreneCara_Original5S.wav,,,,,,,,,,,,,,,,,,,,,,,,,,,,,,,,,,,,,,,,,,,,,,,,,,,,,,,,,,
,,,,,502409,001,2024-06-17_09h45.04.130,experiment,2024.1.5,Win32,59.88023952,5bad8fc39c0cc900017a6a28,667045947eb812cbdacbf325,66704bbc3ac613868b2825b4,,,,,,,,,,,,,,,,,,,,,,,,,,,,,,,,,,,,978.2651,985.5427,0,1,1,1,1,SoundStimuli/FlashdanceWhatAFeeling_IreneCara_Cover5S.wav,,,,,,,,,,,,,,,,,,,,,,,,,,,,,,,,,,,,,,,,,,,,,,,,,,,,,,,,,,
,,,,,502409,001,2024-06-17_09h45.04.130,experiment,2024.1.5,Win32,59.88023952,5bad8fc39c0cc900017a6a28,667045947eb812cbdacbf325,66704bbc3ac613868b2825b4,,,,,,,,,,,,,,,,,,,,,,,,,,,,,,,,,,,,,,,,,,,,985.5429,986.9926,6.994444444,1.4358,0,0,0,18,1,song_indices/FlashdanceWhatAFeeling_IreneCara.csv,,,,,,,,,,,,,,,,,,,,,,,,,,,,,,,,,,,,,,,,,,,,,,,,
,,,,,502409,001,2024-06-17_09h45.04.130,experiment,2024.1.5,Win32,59.88023952,5bad8fc39c0cc900017a6a28,667045947eb812cbdacbf325,66704bbc3ac613868b2825b4,,,,,,,,,,,,,,,,,,,,,,,,,,,,,,,,,,,,986.9934,993.5094,0,0,0,0,1,SoundStimuli/Dreams_FleetwoodMac_Original5S.wav,,,,,,,,,,,,,,,,,,,,,,,,,,,,,,,,,,,,,,,,,,,,,,,,,,,,,,,,,,
,,,,,502409,001,2024-06-17_09h45.04.130,experiment,2024.1.5,Win32,59.88023952,5bad8fc39c0cc900017a6a28,667045947eb812cbdacbf325,66704bbc3ac613868b2825b4,,,,,,,,,,,,,,,,,,,,,,,,,,,,,,,,,,,,993.5155,1001.3428,0,1,1,1,1,SoundStimuli/Dreams_FleetwoodMac_Cover5S.wav,,,,,,,,,,,,,,,,,,,,,,,,,,,,,,,,,,,,,,,,,,,,,,,,,,,,,,,,,,
,,,,,502409,001,2024-06-17_09h45.04.130,experiment,2024.1.5,Win32,59.88023952,5bad8fc39c0cc900017a6a28,667045947eb812cbdacbf325,66704bbc3ac613868b2825b4,,,,,,,,,,,,,,,,,,,,,,,,,,,,,,,,,,,,,,,,,,,,1001.3429,1002.9927,1.016666667,1.6359,0,1,1,1,1,song_indices/Dreams_FleetwoodMac.csv,,,,,,,,,,,,,,,,,,,,,,,,,,,,,,,,,,,,,,,,,,,,,,,,
,,,,,502409,001,2024-06-17_09h45.04.130,experiment,2024.1.5,Win32,59.88023952,5bad8fc39c0cc900017a6a28,667045947eb812cbdacbf325,66704bbc3ac613868b2825b4,,,,,,,,,,,,,,,,,,,,,,,,,,,,,,,,,,,,1002.9934,1009.1593,0,0,0,0,1,SoundStimuli/TheSign_AceOfBase_Original5S.wav,,,,,,,,,,,,,,,,,,,,,,,,,,,,,,,,,,,,,,,,,,,,,,,,,,,,,,,,,,
,,,,,502409,001,2024-06-17_09h45.04.130,experiment,2024.1.5,Win32,59.88023952,5bad8fc39c0cc900017a6a28,667045947eb812cbdacbf325,66704bbc3ac613868b2825b4,,,,,,,,,,,,,,,,,,,,,,,,,,,,,,,,,,,,1009.1653,1015.1763,0,1,1,1,1,SoundStimuli/TheSign_AceOfBase_Cover5S.wav,,,,,,,,,,,,,,,,,,,,,,,,,,,,,,,,,,,,,,,,,,,,,,,,,,,,,,,,,,
,,,,,502409,001,2024-06-17_09h45.04.130,experiment,2024.1.5,Win32,59.88023952,5bad8fc39c0cc900017a6a28,667045947eb812cbdacbf325,66704bbc3ac613868b2825b4,,,,,,,,,,,,,,,,,,,,,,,,,,,,,,,,,,,,,,,,,,,,1015.1765,1015.9594,1.972222222,0.7702,0,2,2,5,1,song_indices/TheSign_AceOfBase.csv,,,,,,,,,,,,,,,,,,,,,,,,,,,,,,,,,,,,,,,,,,,,,,,,
,,,,,502409,001,2024-06-17_09h45.04.130,experiment,2024.1.5,Win32,59.88023952,5bad8fc39c0cc900017a6a28,667045947eb812cbdacbf325,66704bbc3ac613868b2825b4,,,,,,,,,,,,,,,,,,,,,,,,,,,,,,,,,,,,1015.96,1022.9763,0,0,0,0,1,SoundStimuli/PokerFace_LadyGaga_Original5S.wav,,,,,,,,,,,,,,,,,,,,,,,,,,,,,,,,,,,,,,,,,,,,,,,,,,,,,,,,,,
,,,,,502409,001,2024-06-17_09h45.04.130,experiment,2024.1.5,Win32,59.88023952,5bad8fc39c0cc900017a6a28,667045947eb812cbdacbf325,66704bbc3ac613868b2825b4,,,,,,,,,,,,,,,,,,,,,,,,,,,,,,,,,,,,1022.9824,1029.8264,0,1,1,1,1,SoundStimuli/PokerFace_LadyGaga_Cover5S.wav,,,,,,,,,,,,,,,,,,,,,,,,,,,,,,,,,,,,,,,,,,,,,,,,,,,,,,,,,,
,,,,,502409,001,2024-06-17_09h45.04.130,experiment,2024.1.5,Win32,59.88023952,5bad8fc39c0cc900017a6a28,667045947eb812cbdacbf325,66704bbc3ac613868b2825b4,,,,,,,,,,,,,,,,,,,,,,,,,,,,,,,,,,,,,,,,,,,,1029.8265,1038.3097,2.005555556,8.4722,0,3,3,23,1,song_indices/PokerFace_LadyGaga.csv,,,,,,,,,,,,,,,,,,,,,,,,,,,,,,,,,,,,,,,,,,,,,,,,
,,,,,502409,001,2024-06-17_09h45.04.130,experiment,2024.1.5,Win32,59.88023952,5bad8fc39c0cc900017a6a28,667045947eb812cbdacbf325,66704bbc3ac613868b2825b4,,,,,,,,,,,,,,,,,,,,,,,,,,,,,,,,,,,,1038.3103,1044.3764,0,0,0,0,1,SoundStimuli/TossinAndTurnin_BobbyLewis_Original5S.wav,,,,,,,,,,,,,,,,,,,,,,,,,,,,,,,,,,,,,,,,,,,,,,,,,,,,,,,,,,
,,,,,502409,001,2024-06-17_09h45.04.130,experiment,2024.1.5,Win32,59.88023952,5bad8fc39c0cc900017a6a28,667045947eb812cbdacbf325,66704bbc3ac613868b2825b4,,,,,,,,,,,,,,,,,,,,,,,,,,,,,,,,,,,,1044.3829,1050.4932,0,1,1,1,1,SoundStimuli/TossinAndTurnin_BobbyLewis_Cover5S.wav,,,,,,,,,,,,,,,,,,,,,,,,,,,,,,,,,,,,,,,,,,,,,,,,,,,,,,,,,,
,,,,,502409,001,2024-06-17_09h45.04.130,experiment,2024.1.5,Win32,59.88023952,5bad8fc39c0cc900017a6a28,667045947eb812cbdacbf325,66704bbc3ac613868b2825b4,,,,,,,,,,,,,,,,,,,,,,,,,,,,,,,,,,,,,,,,,,,,1050.4932,1054.1765,1.011111111,3.6628,0,4,4,13,1,song_indices/TossinAndTurnin_BobbyLewis.csv,,,,,,,,,,,,,,,,,,,,,,,,,,,,,,,,,,,,,,,,,,,,,,,,
,,,,,502409,001,2024-06-17_09h45.04.130,experiment,2024.1.5,Win32,59.88023952,5bad8fc39c0cc900017a6a28,667045947eb812cbdacbf325,66704bbc3ac613868b2825b4,,,,,,,,,,,,,,,,,,,,,,,,,,,,,,,,,,,,1054.177,1060.2764,0,0,0,0,1,SoundStimuli/ComeAndGetYourLove_Redbone_Original5S.wav,,,,,,,,,,,,,,,,,,,,,,,,,,,,,,,,,,,,,,,,,,,,,,,,,,,,,,,,,,
,,,,,502409,001,2024-06-17_09h45.04.130,experiment,2024.1.5,Win32,59.88023952,5bad8fc39c0cc900017a6a28,667045947eb812cbdacbf325,66704bbc3ac613868b2825b4,,,,,,,,,,,,,,,,,,,,,,,,,,,,,,,,,,,,1060.2827,1067.3432,0,1,1,1,1,SoundStimuli/ComeAndGetYourLove_Redbone_Cover5S.wav,,,,,,,,,,,,,,,,,,,,,,,,,,,,,,,,,,,,,,,,,,,,,,,,,,,,,,,,,,
,,,,,502409,001,2024-06-17_09h45.04.130,experiment,2024.1.5,Win32,59.88023952,5bad8fc39c0cc900017a6a28,667045947eb812cbdacbf325,66704bbc3ac613868b2825b4,,,,,,,,,,,,,,,,,,,,,,,,,,,,,,,,,,,,,,,,,,,,1067.3433,1070.2099,1.983333333,2.8514,0,5,5,22,1,song_indices/ComeAndGetYourLove_Redbone.csv,,,,,,,,,,,,,,,,,,,,,,,,,,,,,,,,,,,,,,,,,,,,,,,,
,,,,,502409,001,2024-06-17_09h45.04.130,experiment,2024.1.5,Win32,59.88023952,5bad8fc39c0cc900017a6a28,667045947eb812cbdacbf325,66704bbc3ac613868b2825b4,,,,,,,,,,,,,,,,,,,,,,,,,,,,,,,,,,,,1070.2105,1077.7433,0,0,0,1,1,SoundStimuli/TikTok_Kesha_Cover5S.wav,,,,,,,,,,,,,,,,,,,,,,,,,,,,,,,,,,,,,,,,,,,,,,,,,,,,,,,,,,
,,,,,502409,001,2024-06-17_09h45.04.130,experiment,2024.1.5,Win32,59.88023952,5bad8fc39c0cc900017a6a28,667045947eb812cbdacbf325,66704bbc3ac613868b2825b4,,,,,,,,,,,,,,,,,,,,,,,,,,,,,,,,,,,,1077.7494,1083.96,0,1,1,0,1,SoundStimuli/TikTok_Kesha_Original5S.wav,,,,,,,,,,,,,,,,,,,,,,,,,,,,,,,,,,,,,,,,,,,,,,,,,,,,,,,,,,
,,,,,502409,001,2024-06-17_09h45.04.130,experiment,2024.1.5,Win32,59.88023952,5bad8fc39c0cc900017a6a28,667045947eb812cbdacbf325,66704bbc3ac613868b2825b4,,,,,,,,,,,,,,,,,,,,,,,,,,,,,,,,,,,,,,,,,,,,1083.9601,1133.5104,1.027777778,49.5308,0,6,6,3,1,song_indices/TikTok_Kesha.csv,,,,,,,,,,,,,,,,,,,,,,,,,,,,,,,,,,,,,,,,,,,,,,,,
,,,,,502409,001,2024-06-17_09h45.04.130,experiment,2024.1.5,Win32,59.88023952,5bad8fc39c0cc900017a6a28,667045947eb812cbdacbf325,66704bbc3ac613868b2825b4,,,,,,,,,,,,,,,,,,,,,,,,,,,,,,,,,,,,1133.5112,1139.5439,0,0,0,0,1,SoundStimuli/HowDoILive_LeAnnRimes_Original5S.wav,,,,,,,,,,,,,,,,,,,,,,,,,,,,,,,,,,,,,,,,,,,,,,,,,,,,,,,,,,
,,,,,502409,001,2024-06-17_09h45.04.130,experiment,2024.1.5,Win32,59.88023952,5bad8fc39c0cc900017a6a28,667045947eb812cbdacbf325,66704bbc3ac613868b2825b4,,,,,,,,,,,,,,,,,,,,,,,,,,,,,,,,,,,,1139.5504,1145.0274,0,1,1,1,1,SoundStimuli/HowDoILive_LeAnnRimes_Cover5S.wav,,,,,,,,,,,,,,,,,,,,,,,,,,,,,,,,,,,,,,,,,,,,,,,,,,,,,,,,,,
,,,,,502409,001,2024-06-17_09h45.04.130,experiment,2024.1.5,Win32,59.88023952,5bad8fc39c0cc900017a6a28,667045947eb812cbdacbf325,66704bbc3ac613868b2825b4,,,,,,,,,,,,,,,,,,,,,,,,,,,,,,,,,,,,,,,,,,,,1145.0275,1146.4605,6.988888889,1.423,0,7,7,17,1,song_indices/HowDoILive_LeAnnRimes.csv,,,,,,,,,,,,,,,,,,,,,,,,,,,,,,,,,,,,,,,,,,,,,,,,
,,,,,502409,001,2024-06-17_09h45.04.130,experiment,2024.1.5,Win32,59.88023952,5bad8fc39c0cc900017a6a28,667045947eb812cbdacbf325,66704bbc3ac613868b2825b4,,,,,,,,,,,,,,,,,,,,,,,,,,,,,,,,,,,,1146.4612,1153.8939,0,0,0,0,1,SoundStimuli/Kiss_Prince_Original5S.wav,,,,,,,,,,,,,,,,,,,,,,,,,,,,,,,,,,,,,,,,,,,,,,,,,,,,,,,,,,
,,,,,502409,001,2024-06-17_09h45.04.130,experiment,2024.1.5,Win32,59.88023952,5bad8fc39c0cc900017a6a28,667045947eb812cbdacbf325,66704bbc3ac613868b2825b4,,,,,,,,,,,,,,,,,,,,,,,,,,,,,,,,,,,,1153.9,1160.1775,0,1,1,1,1,SoundStimuli/Kiss_Prince_Cover5S.wav,,,,,,,,,,,,,,,,,,,,,,,,,,,,,,,,,,,,,,,,,,,,,,,,,,,,,,,,,,
,,,,,502409,001,2024-06-17_09h45.04.130,experiment,2024.1.5,Win32,59.88023952,5bad8fc39c0cc900017a6a28,667045947eb812cbdacbf325,66704bbc3ac613868b2825b4,,,,,,,,,,,,,,,,,,,,,,,,,,,,,,,,,,,,,,,,,,,,1160.1776,1163.3439,1.005555556,3.1532,0,8,8,14,1,song_indices/Kiss_Prince.csv,,,,,,,,,,,,,,,,,,,,,,,,,,,,,,,,,,,,,,,,,,,,,,,,
,,,,,502409,001,2024-06-17_09h45.04.130,experiment,2024.1.5,Win32,59.88023952,5bad8fc39c0cc900017a6a28,667045947eb812cbdacbf325,66704bbc3ac613868b2825b4,,,,,,,,,,,,,,,,,,,,,,,,,,,,,,,,,,,,1163.3446,1169.5441,0,0,0,0,1,SoundStimuli/SaveYourTears_TheWeekndArianaGrande_Original5S.wav,,,,,,,,,,,,,,,,,,,,,,,,,,,,,,,,,,,,,,,,,,,,,,,,,,,,,,,,,,
,,,,,502409,001,2024-06-17_09h45.04.130,experiment,2024.1.5,Win32,59.88023952,5bad8fc39c0cc900017a6a28,667045947eb812cbdacbf325,66704bbc3ac613868b2825b4,,,,,,,,,,,,,,,,,,,,,,,,,,,,,,,,,,,,1169.5501,1175.4441,0,1,1,1,1,SoundStimuli/SaveYourTears_TheWeekndArianaGrande_Cover5S.wav,,,,,,,,,,,,,,,,,,,,,,,,,,,,,,,,,,,,,,,,,,,,,,,,,,,,,,,,,,
,,,,,502409,001,2024-06-17_09h45.04.130,experiment,2024.1.5,Win32,59.88023952,5bad8fc39c0cc900017a6a28,667045947eb812cbdacbf325,66704bbc3ac613868b2825b4,,,,,,,,,,,,,,,,,,,,,,,,,,,,,,,,,,,,,,,,,,,,1175.4441,1178.4775,1.005555556,3.0146,0,9,9,12,1,song_indices/SaveYourTears_TheWeekndArianaGrande.csv,,,,,,,,,,,,,,,,,,,,,,,,,,,,,,,,,,,,,,,,,,,,,,,,
,,,,,502409,001,2024-06-17_09h45.04.130,experiment,2024.1.5,Win32,59.88023952,5bad8fc39c0cc900017a6a28,667045947eb812cbdacbf325,66704bbc3ac613868b2825b4,,,,,,,,,,,,,,,,,,,,,,,,,,,,,,,,,,,,1178.4781,1185.7109,0,0,0,0,1,SoundStimuli/SomebodyThatIUsedtoKnow_Gotye_Original5S.wav,,,,,,,,,,,,,,,,,,,,,,,,,,,,,,,,,,,,,,,,,,,,,,,,,,,,,,,,,,
,,,,,502409,001,2024-06-17_09h45.04.130,experiment,2024.1.5,Win32,59.88023952,5bad8fc39c0cc900017a6a28,667045947eb812cbdacbf325,66704bbc3ac613868b2825b4,,,,,,,,,,,,,,,,,,,,,,,,,,,,,,,,,,,,1185.7168,1192.511,0,1,1,1,1,SoundStimuli/SomebodyThatIUsedtoKnow_Gotye_Cover5S.wav,,,,,,,,,,,,,,,,,,,,,,,,,,,,,,,,,,,,,,,,,,,,,,,,,,,,,,,,,,
,,,,,502409,001,2024-06-17_09h45.04.130,experiment,2024.1.5,Win32,59.88023952,5bad8fc39c0cc900017a6a28,667045947eb812cbdacbf325,66704bbc3ac613868b2825b4,,,,,,,,,,,,,,,,,,,,,,,,,,,,,,,,,,,,,,,,,,,,1192.511,1195.0276,6.966666667,2.4997,0,10,10,7,1,song_indices/SomebodyThatIUsedtoKnow_Gotye.csv,,,,,,,,,,,,,,,,,,,,,,,,,,,,,,,,,,,,,,,,,,,,,,,,
,,,,,502409,001,2024-06-17_09h45.04.130,experiment,2024.1.5,Win32,59.88023952,5bad8fc39c0cc900017a6a28,667045947eb812cbdacbf325,66704bbc3ac613868b2825b4,,,,,,,,,,,,,,,,,,,,,,,,,,,,,,,,,,,,1195.0283,1200.3278,0,0,0,1,1,SoundStimuli/Superstition_StevieWonder_Cover5S.wav,,,,,,,,,,,,,,,,,,,,,,,,,,,,,,,,,,,,,,,,,,,,,,,,,,,,,,,,,,
,,,,,502409,001,2024-06-17_09h45.04.130,experiment,2024.1.5,Win32,59.88023952,5bad8fc39c0cc900017a6a28,667045947eb812cbdacbf325,66704bbc3ac613868b2825b4,,,,,,,,,,,,,,,,,,,,,,,,,,,,,,,,,,,,1200.3336,1206.4776,0,1,1,0,1,SoundStimuli/Superstition_StevieWonder_Original5S.wav,,,,,,,,,,,,,,,,,,,,,,,,,,,,,,,,,,,,,,,,,,,,,,,,,,,,,,,,,,
,,,,,502409,001,2024-06-17_09h45.04.130,experiment,2024.1.5,Win32,59.88023952,5bad8fc39c0cc900017a6a28,667045947eb812cbdacbf325,66704bbc3ac613868b2825b4,,,,,,,,,,,,,,,,,,,,,,,,,,,,,,,,,,,,,,,,,,,,1206.4777,1208.1943,1.011111111,1.7093,0,11,11,15,1,song_indices/Superstition_StevieWonder.csv,,,,,,,,,,,,,,,,,,,,,,,,,,,,,,,,,,,,,,,,,,,,,,,,
,,,,,502409,001,2024-06-17_09h45.04.130,experiment,2024.1.5,Win32,59.88023952,5bad8fc39c0cc900017a6a28,667045947eb812cbdacbf325,66704bbc3ac613868b2825b4,,,,,,,,,,,,,,,,,,,,,,,,,,,,,,,,,,,,1208.195,1213.3277,0,0,0,1,1,SoundStimuli/JoyToTheWorld_ThreeDogNight_Cover5S.wav,,,,,,,,,,,,,,,,,,,,,,,,,,,,,,,,,,,,,,,,,,,,,,,,,,,,,,,,,,
,,,,,502409,001,2024-06-17_09h45.04.130,experiment,2024.1.5,Win32,59.88023952,5bad8fc39c0cc900017a6a28,667045947eb812cbdacbf325,66704bbc3ac613868b2825b4,,,,,,,,,,,,,,,,,,,,,,,,,,,,,,,,,,,,1213.3336,1219.4445,0,1,1,0,1,SoundStimuli/JoyToTheWorld_ThreeDogNight_Original5S.wav,,,,,,,,,,,,,,,,,,,,,,,,,,,,,,,,,,,,,,,,,,,,,,,,,,,,,,,,,,
,,,,,502409,001,2024-06-17_09h45.04.130,experiment,2024.1.5,Win32,59.88023952,5bad8fc39c0cc900017a6a28,667045947eb812cbdacbf325,66704bbc3ac613868b2825b4,,,,,,,,,,,,,,,,,,,,,,,,,,,,,,,,,,,,,,,,,,,,1219.4445,1222.0944,1.005555556,2.6381,0,12,12,8,1,song_indices/JoyToTheWorld_ThreeDogNight.csv,,,,,,,,,,,,,,,,,,,,,,,,,,,,,,,,,,,,,,,,,,,,,,,,
,,,,,502409,001,2024-06-17_09h45.04.130,experiment,2024.1.5,Win32,59.88023952,5bad8fc39c0cc900017a6a28,667045947eb812cbdacbf325,66704bbc3ac613868b2825b4,,,,,,,,,,,,,,,,,,,,,,,,,,,,,,,,,,,,1222.095,1228.1612,0,0,0,1,1,SoundStimuli/Respect_ArethaFranklin_Cover5S.wav,,,,,,,,,,,,,,,,,,,,,,,,,,,,,,,,,,,,,,,,,,,,,,,,,,,,,,,,,,
,,,,,502409,001,2024-06-17_09h45.04.130,experiment,2024.1.5,Win32,59.88023952,5bad8fc39c0cc900017a6a28,667045947eb812cbdacbf325,66704bbc3ac613868b2825b4,,,,,,,,,,,,,,,,,,,,,,,,,,,,,,,,,,,,1228.1673,1234.0947,0,1,1,0,1,SoundStimuli/Respect_ArethaFranklin_Original5S.wav,,,,,,,,,,,,,,,,,,,,,,,,,,,,,,,,,,,,,,,,,,,,,,,,,,,,,,,,,,
,,,,,502409,001,2024-06-17_09h45.04.130,experiment,2024.1.5,Win32,59.88023952,5bad8fc39c0cc900017a6a28,667045947eb812cbdacbf325,66704bbc3ac613868b2825b4,,,,,,,,,,,,,,,,,,,,,,,,,,,,,,,,,,,,,,,,,,,,1234.0949,1235.7113,1.005555556,1.6035,0,13,13,0,1,song_indices/Respect_ArethaFranklin.csv,,,,,,,,,,,,,,,,,,,,,,,,,,,,,,,,,,,,,,,,,,,,,,,,
,,,,,502409,001,2024-06-17_09h45.04.130,experiment,2024.1.5,Win32,59.88023952,5bad8fc39c0cc900017a6a28,667045947eb812cbdacbf325,66704bbc3ac613868b2825b4,,,,,,,,,,,,,,,,,,,,,,,,,,,,,,,,,,,,1235.7119,1241.7947,0,0,0,0,1,SoundStimuli/Weak_SWV_Original5S.wav,,,,,,,,,,,,,,,,,,,,,,,,,,,,,,,,,,,,,,,,,,,,,,,,,,,,,,,,,,
,,,,,502409,001,2024-06-17_09h45.04.130,experiment,2024.1.5,Win32,59.88023952,5bad8fc39c0cc900017a6a28,667045947eb812cbdacbf325,66704bbc3ac613868b2825b4,,,,,,,,,,,,,,,,,,,,,,,,,,,,,,,,,,,,1241.8006,1248.278,0,1,1,1,1,SoundStimuli/Weak_SWV_Cover5S.wav,,,,,,,,,,,,,,,,,,,,,,,,,,,,,,,,,,,,,,,,,,,,,,,,,,,,,,,,,,
,,,,,502409,001,2024-06-17_09h45.04.130,experiment,2024.1.5,Win32,59.88023952,5bad8fc39c0cc900017a6a28,667045947eb812cbdacbf325,66704bbc3ac613868b2825b4,,,,,,,,,,,,,,,,,,,,,,,,,,,,,,,,,,,,,,,,,,,,1248.2781,1251.328,1.994444444,3.0303,0,14,14,6,1,song_indices/Weak_SWV.csv,,,,,,,,,,,,,,,,,,,,,,,,,,,,,,,,,,,,,,,,,,,,,,,,
,,,,,502409,001,2024-06-17_09h45.04.130,experiment,2024.1.5,Win32,59.88023952,5bad8fc39c0cc900017a6a28,667045947eb812cbdacbf325,66704bbc3ac613868b2825b4,,,,,,,,,,,,,,,,,,,,,,,,,,,,,,,,,,,,1251.3287,1257.6281,0,0,0,0,1,SoundStimuli/LetsGetItOn_MarvinGaye_Original5S.wav,,,,,,,,,,,,,,,,,,,,,,,,,,,,,,,,,,,,,,,,,,,,,,,,,,,,,,,,,,
,,,,,502409,001,2024-06-17_09h45.04.130,experiment,2024.1.5,Win32,59.88023952,5bad8fc39c0cc900017a6a28,667045947eb812cbdacbf325,66704bbc3ac613868b2825b4,,,,,,,,,,,,,,,,,,,,,,,,,,,,,,,,,,,,1257.634,1264.2781,0,1,1,1,1,SoundStimuli/LetsGetItOn_MarvinGaye_Cover5S.wav,,,,,,,,,,,,,,,,,,,,,,,,,,,,,,,,,,,,,,,,,,,,,,,,,,,,,,,,,,
,,,,,502409,001,2024-06-17_09h45.04.130,experiment,2024.1.5,Win32,59.88023952,5bad8fc39c0cc900017a6a28,667045947eb812cbdacbf325,66704bbc3ac613868b2825b4,,,,,,,,,,,,,,,,,,,,,,,,,,,,,,,,,,,,,,,,,,,,1264.2782,1266.278,1.011111111,1.9807,0,15,15,20,1,song_indices/LetsGetItOn_MarvinGaye.csv,,,,,,,,,,,,,,,,,,,,,,,,,,,,,,,,,,,,,,,,,,,,,,,,
,,,,,502409,001,2024-06-17_09h45.04.130,experiment,2024.1.5,Win32,59.88023952,5bad8fc39c0cc900017a6a28,667045947eb812cbdacbf325,66704bbc3ac613868b2825b4,,,,,,,,,,,,,,,,,,,,,,,,,,,,,,,,,,,,1266.2786,1272.3615,0,0,0,0,1,SoundStimuli/YouLightUpMyLife_DebbyBoone_Original5S.wav,,,,,,,,,,,,,,,,,,,,,,,,,,,,,,,,,,,,,,,,,,,,,,,,,,,,,,,,,,
,,,,,502409,001,2024-06-17_09h45.04.130,experiment,2024.1.5,Win32,59.88023952,5bad8fc39c0cc900017a6a28,667045947eb812cbdacbf325,66704bbc3ac613868b2825b4,,,,,,,,,,,,,,,,,,,,,,,,,,,,,,,,,,,,1272.3678,1278.8115,0,1,1,1,1,SoundStimuli/YouLightUpMyLife_DebbyBoone_Cover5S.wav,,,,,,,,,,,,,,,,,,,,,,,,,,,,,,,,,,,,,,,,,,,,,,,,,,,,,,,,,,
,,,,,502409,001,2024-06-17_09h45.04.130,experiment,2024.1.5,Win32,59.88023952,5bad8fc39c0cc900017a6a28,667045947eb812cbdacbf325,66704bbc3ac613868b2825b4,,,,,,,,,,,,,,,,,,,,,,,,,,,,,,,,,,,,,,,,,,,,1278.8116,1279.9949,6.966666667,1.1751,0,16,16,4,1,song_indices/YouLightUpMyLife_DebbyBoone.csv,,,,,,,,,,,,,,,,,,,,,,,,,,,,,,,,,,,,,,,,,,,,,,,,
,,,,,502409,001,2024-06-17_09h45.04.130,experiment,2024.1.5,Win32,59.88023952,5bad8fc39c0cc900017a6a28,667045947eb812cbdacbf325,66704bbc3ac613868b2825b4,,,,,,,,,,,,,,,,,,,,,,,,,,,,,,,,,,,,1279.9955,1286.7949,0,0,0,1,1,SoundStimuli/BlindingLights_TheWeeknd_Cover5S.wav,,,,,,,,,,,,,,,,,,,,,,,,,,,,,,,,,,,,,,,,,,,,,,,,,,,,,,,,,,
,,,,,502409,001,2024-06-17_09h45.04.130,experiment,2024.1.5,Win32,59.88023952,5bad8fc39c0cc900017a6a28,667045947eb812cbdacbf325,66704bbc3ac613868b2825b4,,,,,,,,,,,,,,,,,,,,,,,,,,,,,,,,,,,,1286.801,1293.2785,0,1,1,0,1,SoundStimuli/BlindingLights_TheWeeknd_Original5S.wav,,,,,,,,,,,,,,,,,,,,,,,,,,,,,,,,,,,,,,,,,,,,,,,,,,,,,,,,,,
,,,,,502409,001,2024-06-17_09h45.04.130,experiment,2024.1.5,Win32,59.88023952,5bad8fc39c0cc900017a6a28,667045947eb812cbdacbf325,66704bbc3ac613868b2825b4,,,,,,,,,,,,,,,,,,,,,,,,,,,,,,,,,,,,,,,,,,,,1293.2786,1294.0617,6.027777778,0.7638,0,17,17,21,1,song_indices/BlindingLights_TheWeeknd.csv,,,,,,,,,,,,,,,,,,,,,,,,,,,,,,,,,,,,,,,,,,,,,,,,
,,,,,502409,001,2024-06-17_09h45.04.130,experiment,2024.1.5,Win32,59.88023952,5bad8fc39c0cc900017a6a28,667045947eb812cbdacbf325,66704bbc3ac613868b2825b4,,,,,,,,,,,,,,,,,,,,,,,,,,,,,,,,,,,,1294.0623,1299.9784,0,0,0,1,1,SoundStimuli/Irreplaceable_Beyonce_Cover5S.wav,,,,,,,,,,,,,,,,,,,,,,,,,,,,,,,,,,,,,,,,,,,,,,,,,,,,,,,,,,
,,,,,502409,001,2024-06-17_09h45.04.130,experiment,2024.1.5,Win32,59.88023952,5bad8fc39c0cc900017a6a28,667045947eb812cbdacbf325,66704bbc3ac613868b2825b4,,,,,,,,,,,,,,,,,,,,,,,,,,,,,,,,,,,,1299.9841,1305.8618,0,1,1,0,1,SoundStimuli/Irreplaceable_Beyonce_Original5S.wav,,,,,,,,,,,,,,,,,,,,,,,,,,,,,,,,,,,,,,,,,,,,,,,,,,,,,,,,,,
,,,,,502409,001,2024-06-17_09h45.04.130,experiment,2024.1.5,Win32,59.88023952,5bad8fc39c0cc900017a6a28,667045947eb812cbdacbf325,66704bbc3ac613868b2825b4,,,,,,,,,,,,,,,,,,,,,,,,,,,,,,,,,,,,,,,,,,,,1305.862,1307.4117,1.027777778,1.5408,0,18,18,19,1,song_indices/Irreplaceable_Beyonce.csv,,,,,,,,,,,,,,,,,,,,,,,,,,,,,,,,,,,,,,,,,,,,,,,,
,,,,,502409,001,2024-06-17_09h45.04.130,experiment,2024.1.5,Win32,59.88023952,5bad8fc39c0cc900017a6a28,667045947eb812cbdacbf325,66704bbc3ac613868b2825b4,,,,,,,,,,,,,,,,,,,,,,,,,,,,,,,,,,,,1307.4123,1311.3951,0,0,0,1,1,SoundStimuli/UnbreakMyHeart_ToniBraxton_Cover5S.wav,,,,,,,,,,,,,,,,,,,,,,,,,,,,,,,,,,,,,,,,,,,,,,,,,,,,,,,,,,
,,,,,502409,001,2024-06-17_09h45.04.130,experiment,2024.1.5,Win32,59.88023952,5bad8fc39c0cc900017a6a28,667045947eb812cbdacbf325,66704bbc3ac613868b2825b4,,,,,,,,,,,,,,,,,,,,,,,,,,,,,,,,,,,,1311.401,1317.4951,0,1,1,0,1,SoundStimuli/UnbreakMyHeart_ToniBraxton_Original5S.wav,,,,,,,,,,,,,,,,,,,,,,,,,,,,,,,,,,,,,,,,,,,,,,,,,,,,,,,,,,
,,,,,502409,001,2024-06-17_09h45.04.130,experiment,2024.1.5,Win32,59.88023952,5bad8fc39c0cc900017a6a28,667045947eb812cbdacbf325,66704bbc3ac613868b2825b4,,,,,,,,,,,,,,,,,,,,,,,,,,,,,,,,,,,,,,,,,,,,1317.4952,1320.3454,2,2.8436,0,19,19,16,1,song_indices/UnbreakMyHeart_ToniBraxton.csv,,,,,,,,,,,,,,,,,,,,,,,,,,,,,,,,,,,,,,,,,,,,,,,,
,,,,,502409,001,2024-06-17_09h45.04.130,experiment,2024.1.5,Win32,59.88023952,5bad8fc39c0cc900017a6a28,667045947eb812cbdacbf325,66704bbc3ac613868b2825b4,,,,,,,,,,,,,,,,,,,,,,,,,,,,,,,,,,,,1320.346,1326.0619,0,0,0,1,1,SoundStimuli/Levitating_DuaLipa_Cover5S.wav,,,,,,,,,,,,,,,,,,,,,,,,,,,,,,,,,,,,,,,,,,,,,,,,,,,,,,,,,,
,,,,,502409,001,2024-06-17_09h45.04.130,experiment,2024.1.5,Win32,59.88023952,5bad8fc39c0cc900017a6a28,667045947eb812cbdacbf325,66704bbc3ac613868b2825b4,,,,,,,,,,,,,,,,,,,,,,,,,,,,,,,,,,,,1326.0681,1332.0787,0,1,1,0,1,SoundStimuli/Levitating_DuaLipa_Original5S.wav,,,,,,,,,,,,,,,,,,,,,,,,,,,,,,,,,,,,,,,,,,,,,,,,,,,,,,,,,,
,,,,,502409,001,2024-06-17_09h45.04.130,experiment,2024.1.5,Win32,59.88023952,5bad8fc39c0cc900017a6a28,667045947eb812cbdacbf325,66704bbc3ac613868b2825b4,,,,,,,,,,,,,,,,,,,,,,,,,,,,,,,,,,,,,,,,,,,,1332.0788,1333.162,4.983333333,1.076,0,20,20,10,1,song_indices/Levitating_DuaLipa.csv,,,,,,,,,,,,,,,,,,,,,,,,,,,,,,,,,,,,,,,,,,,,,,,,
,,,,,502409,001,2024-06-17_09h45.04.130,experiment,2024.1.5,Win32,59.88023952,5bad8fc39c0cc900017a6a28,667045947eb812cbdacbf325,66704bbc3ac613868b2825b4,,,,,,,,,,,,,,,,,,,,,,,,,,,,,,,,,,,,1333.1627,1340.1622,0,0,0,1,1,SoundStimuli/Dilemma_NellyKellyRowland_Cover5S.wav,,,,,,,,,,,,,,,,,,,,,,,,,,,,,,,,,,,,,,,,,,,,,,,,,,,,,,,,,,
,,,,,502409,001,2024-06-17_09h45.04.130,experiment,2024.1.5,Win32,59.88023952,5bad8fc39c0cc900017a6a28,667045947eb812cbdacbf325,66704bbc3ac613868b2825b4,,,,,,,,,,,,,,,,,,,,,,,,,,,,,,,,,,,,1340.1682,1346.3622,0,1,1,0,1,SoundStimuli/Dilemma_NellyKellyRowland_Original5S.wav,,,,,,,,,,,,,,,,,,,,,,,,,,,,,,,,,,,,,,,,,,,,,,,,,,,,,,,,,,
,,,,,502409,001,2024-06-17_09h45.04.130,experiment,2024.1.5,Win32,59.88023952,5bad8fc39c0cc900017a6a28,667045947eb812cbdacbf325,66704bbc3ac613868b2825b4,,,,,,,,,,,,,,,,,,,,,,,,,,,,,,,,,,,,,,,,,,,,1346.3623,1348.3287,1.005555556,1.9461,0,21,21,2,1,song_indices/Dilemma_NellyKellyRowland.csv,,,,,,,,,,,,,,,,,,,,,,,,,,,,,,,,,,,,,,,,,,,,,,,,
,,,,,502409,001,2024-06-17_09h45.04.130,experiment,2024.1.5,Win32,59.88023952,5bad8fc39c0cc900017a6a28,667045947eb812cbdacbf325,66704bbc3ac613868b2825b4,,,,,,,,,,,,,,,,,,,,,,,,,,,,,,,,,,,,1348.3294,1354.3622,0,0,0,0,1,SoundStimuli/LeFreak_Chic_Original5S.wav,,,,,,,,,,,,,,,,,,,,,,,,,,,,,,,,,,,,,,,,,,,,,,,,,,,,,,,,,,
,,,,,502409,001,2024-06-17_09h45.04.130,experiment,2024.1.5,Win32,59.88023952,5bad8fc39c0cc900017a6a28,667045947eb812cbdacbf325,66704bbc3ac613868b2825b4,,,,,,,,,,,,,,,,,,,,,,,,,,,,,,,,,,,,1354.3684,1359.8789,0,1,1,1,1,SoundStimuli/LeFreak_Chic_Cover5S.wav,,,,,,,,,,,,,,,,,,,,,,,,,,,,,,,,,,,,,,,,,,,,,,,,,,,,,,,,,,
,,,,,502409,001,2024-06-17_09h45.04.130,experiment,2024.1.5,Win32,59.88023952,5bad8fc39c0cc900017a6a28,667045947eb812cbdacbf325,66704bbc3ac613868b2825b4,,,,,,,,,,,,,,,,,,,,,,,,,,,,,,,,,,,,,,,,,,,,1359.8789,1360.9288,3.983333333,1.036,0,22,22,11,1,song_indices/LeFreak_Chic.csv,,,,,,,,,,,,,,,,,,,,,,,,,,,,,,,,,,,,,,,,,,,,,,,,
,,,,,502409,001,2024-06-17_09h45.04.130,experiment,2024.1.5,Win32,59.88023952,5bad8fc39c0cc900017a6a28,667045947eb812cbdacbf325,66704bbc3ac613868b2825b4,,,,,,,,,,,,,,,,,,,,,,,,,,,,,,,,,,,,1360.9294,1367.6955,0,0,0,0,1,SoundStimuli/BlurredLines_RobinThicke_Original5S.wav,,,,,,,,,,,,,,,,,,,,,,,,,,,,,,,,,,,,,,,,,,,,,,,,,,,,,,,,,,
,,,,,502409,001,2024-06-17_09h45.04.130,experiment,2024.1.5,Win32,59.88023952,5bad8fc39c0cc900017a6a28,667045947eb812cbdacbf325,66704bbc3ac613868b2825b4,,,,,,,,,,,,,,,,,,,,,,,,,,,,,,,,,,,,1367.7015,1374.7956,0,1,1,1,1,SoundStimuli/BlurredLines_RobinThicke_Cover5S.wav,,,,,,,,,,,,,,,,,,,,,,,,,,,,,,,,,,,,,,,,,,,,,,,,,,,,,,,,,,
,,,,,502409,001,2024-06-17_09h45.04.130,experiment,2024.1.5,Win32,59.88023952,5bad8fc39c0cc900017a6a28,667045947eb812cbdacbf325,66704bbc3ac613868b2825b4,,,,,,,,,,,,,,,,,,,,,,,,,,,,,,,,,,,,,,,,,,,,1374.7957,1377.0124,1,2.1994,0,23,23,9,1,song_indices/BlurredLines_RobinThicke.csv,,,,,,,,,,,,,,,,,,,,,,,,,,,,,,,,,,,,,,,,,,,,,,,,
,,,,,502409,001,2024-06-17_09h45.04.130,experiment,2024.1.5,Win32,59.88023952,5bad8fc39c0cc900017a6a28,667045947eb812cbdacbf325,66704bbc3ac613868b2825b4,,,,,,,,,,,,,,,,,,,,,,,,,,,,,,,,,,,,,,,,,,,,,,,,,,,,,,1377.0124,1377.0125,,,,0,2,2,2,1,choose_song_b3.csv,,,,,,,,,,,,,,,,,,,,,,,,,,,,,,,,,,,,,
,,,,,502409,001,2024-06-17_09h45.04.130,experiment,2024.1.5,Win32,59.88023952,5bad8fc39c0cc900017a6a28,667045947eb812cbdacbf325,66704bbc3ac613868b2825b4,,,,,,,,,,,,,,,,,,,,,,,,,,,,,,,,,,,,,,,,,,,,,,,,,,,,,,,,,,,,,,,,,35,Item 2,Not a musician,Item 4,YouTube,5,7,Crafting or playing games.,Rarely,Never,Sometimes,Sometimes,Often,Rarely,Rarely,Sometimes,Rarely,Never,Sometimes,Never,Rarely,Never,Rarely,Never,n/a,Alternative rock,Folk/indie,Country,I listen to more music now.,If I am having a panic attack I will put music on.,0,0,0,0,1,,
,,,,,502409,001,2024-06-17_09h45.04.130,experiment,2024.1.5,Win32,59.88023952,5bad8fc39c0cc900017a6a28,667045947eb812cbdacbf325,66704bbc3ac613868b2825b4,,,,,,,,,,,,,,,,,,,,,,,,,,,,,,,,,,,,,,,,,,,,,,,,,,,,,,,,,,,,,,,,,,,,,,,,,,,,,,,,,,,,,,,,,,,,,,,,,,,,1653.3404,1655.198
