welcome.started,welcome.stopped,space_to_continue.keys,space_to_continue.rt,space_to_continue.duration,participant,session,date,expName,psychopyVersion,OS,frameRate,PROLIFIC_PID,STUDY_ID,SESSION_ID,consent.consent,consent.consent_recontact,consent_check.started,consent_check.stopped,calibration_ready.started,calibration_ready.stopped,cal_ready.keys,cal_ready.rt,cal_ready.duration,calibration.started,calibration.stopped,mouse.x,mouse.y,mouse.leftButton,mouse.midButton,mouse.rightButton,mouse.time,mouse.clicked_name,move_on.keys,move_on.rt,move_on.duration,instructions.started,instructions.stopped,next.keys,next.rt,next.duration,practice_trial.started,practice_trial.stopped,practice_slider.response,practice_slider.rt,ready.started,ready.stopped,key_resp.keys,key_resp.rt,key_resp.duration,play_sound.started,play_sound.stopped,trials.thisRepN,trials.thisTrialN,trials.thisN,trials.thisIndex,trials.ran,orig_or_cover,rating.started,rating.stopped,slider.response,slider.rt,songs.thisRepN,songs.thisTrialN,songs.thisN,songs.thisIndex,songs.ran,song_id,short_break.started,short_break.stopped,space_to_move_on.keys,space_to_move_on.rt,space_to_move_on.duration,blocks.thisRepN,blocks.thisTrialN,blocks.thisN,blocks.thisIndex,blocks.ran,block,survey.age,survey.musician,survey.music_making,survey.listen_time,survey.medium,survey.music_seeking,survey.music_choice,survey.activities,survey.question1.Pop,survey.question1.Hip hop,survey.question1.Reggae,survey.question1.Ambient,survey.question1.R&B,survey.question1.Latin,survey.question1.Classic rock,survey.question1.Alternative rock,survey.question1.Electronic (EDM),survey.question1.A cappella,survey.question1.Country,survey.question1.Folk/indie,survey.question1.Classical,survey.question1.Metal,survey.question1.Jazz,survey.question1.Disco,survey.other_genres,survey.genres_ranked.text1,survey.genres_ranked.text2,survey.genres_ranked.text3,survey.habit_change,survey.habits,experiment.thisRepN,experiment.thisTrialN,experiment.thisN,experiment.thisIndex,experiment.ran,goodbye.started,goodbye.stopped
0.0003,2.7625,space,2.7426,,519423,001,2024-06-17_07h53.54.790,experiment,2024.1.5,Win32,30.03003003,63e2953c6c707d75ae5fcdd2,667045947eb812cbdacbf325,66704cc31c95339dba152e80,,,,,,,,,,,,,,,,,,,,,,,,,,,,,,,,,,,,,,,,,,,,,,,,,,,,,,,,,,,,,,,,,,,,,,,,,,,,,,,,,,,,,,,,,,,,,,,,,,,,,
,,,,,519423,001,2024-06-17_07h53.54.790,experiment,2024.1.5,Win32,30.03003003,63e2953c6c707d75ae5fcdd2,667045947eb812cbdacbf325,66704cc31c95339dba152e80,yes,yes,,,,,,,,,,,,,,,,,,,,,,,,,,,,,,,,,,,,,,,,,,,,,,,,,,,,,,,,,,,,,,,,,,,,,,,,,,,,,,,,,,,,,,,,,,,,,,,,,,,
,,,,,519423,001,2024-06-17_07h53.54.790,experiment,2024.1.5,Win32,30.03003003,63e2953c6c707d75ae5fcdd2,667045947eb812cbdacbf325,66704cc31c95339dba152e80,,,17.3132,17.3134,,,,,,,,,,,,,,,,,,,,,,,,,,,,,,,,,,,,,,,,,,,,,,,,,,,,,,,,,,,,,,,,,,,,,,,,,,,,,,,,,,,,,,,,,,,,,,,,,
,,,,,519423,001,2024-06-17_07h53.54.790,experiment,2024.1.5,Win32,30.03003003,63e2953c6c707d75ae5fcdd2,667045947eb812cbdacbf325,66704cc31c95339dba152e80,,,,,17.3159,19.831,space,2.4712,,19.8313,96.2351,"[-0.016666666666666666,-0.027777777777777776,-0.028703703703703703,-0.006481481481481481,-0.03888888888888889,-0.040740740740740744,0.002777777777777778,0.55,0.3509259259259259,-0.04259259259259259,-0.05,-0.04537037037037037,-0.1175925925925926,-0.41388888888888886,-0.5351851851851852,-0.3814814814814815,-0.020370370370370372,-0.020370370370370372,-0.022222222222222223,-0.022222222222222223,-0.022222222222222223,-0.022222222222222223,0.019444444444444445,0.012037037037037037,0.007407407407407408,0.019444444444444445,0.023148148148148147,0.01574074074074074,-0.002777777777777778,0.21666666666666667,-0.028703703703703703,-0.021296296296296296]","[-0.43425925925925923,-0.43703703703703706,-0.425,-0.42685185185185187,-0.3962962962962963,-0.46574074074074073,-0.44351851851851853,-0.4388888888888889,-0.2898148148148148,-0.09166666666666666,0.11296296296296296,-0.462037037037037,-0.41388888888888886,-0.40185185185185185,-0.2564814814814815,-0.25555555555555554,-0.4101851851851852,-0.4101851851851852,-0.4361111111111111,-0.4351851851851852,-0.4351851851851852,-0.4351851851851852,0.3453703703703704,0.1574074074074074,0.0787037037037037,-0.03796296296296296,-0.11018518518518519,-0.1675925925925926,-0.4398148148148148,-0.3296296296296296,-0.4148148148148148,-0.4287037037037037]","[1,1,1,1,1,1,1,1,1,1,1,1,1,1,1,1,1,1,1,1,1,1,1,1,1,1,1,1,1,1,1,1]","[0,0,0,0,0,0,0,0,0,0,0,0,0,0,0,0,0,0,0,0,0,0,0,0,0,0,0,0,0,0,0,0]","[0,0,0,0,0,0,0,0,0,0,0,0,0,0,0,0,0,0,0,0,0,0,0,0,0,0,0,0,0,0,0,0]","[15.33840000000038,24.139099999999633,25.369599999999632,39.28919999999927,40.77900000000001,42.137900000000386,43.55219999999926,44.47640000000038,46.28,47.37840000000038,48.16890000000038,49.75500000000001,50.34840000000038,50.944,51.510800000000756,52.08819999999926,53.60380000000076,53.920500000000004,54.84109999999964,55.09509999999963,55.37240000000038,55.899099999999635,57.04900000000001,57.587800000000755,58.072800000000754,58.68769999999927,59.378900000000385,60.20709999999964,61.385000000000005,62.5125,73.40490000000038,74.88550000000001]","[""play_button"",""play_button"",""play_button"",""play_button"",""play_button"",""play_button"",""play_button"",""play_button"",""play_button""]",right,66.3502,,96.2357,121.0378,space,24.7587,,121.038,139.0632,2.388888889,18.0122,139.0637,146.7063,space,7.6165,,146.7404,153.5662,0,0,0,1,1,SoundStimuli/SomebodyThatIUsedtoKnow_Gotye_Cover5S.wav,,,,,,,,,,,,,,,,,,,,,,,,,,,,,,,,,,,,,,,,,,,,,,,,,,,,,,,,,,
,,,,,519423,001,2024-06-17_07h53.54.790,experiment,2024.1.5,Win32,30.03003003,63e2953c6c707d75ae5fcdd2,667045947eb812cbdacbf325,66704cc31c95339dba152e80,,,,,,,,,,,,,,,,,,,,,,,,,,,,,,,,,,,,153.5765,160.8267,0,1,1,0,1,SoundStimuli/SomebodyThatIUsedtoKnow_Gotye_Original5S.wav,,,,,,,,,,,,,,,,,,,,,,,,,,,,,,,,,,,,,,,,,,,,,,,,,,,,,,,,,,
,,,,,519423,001,2024-06-17_07h53.54.790,experiment,2024.1.5,Win32,30.03003003,63e2953c6c707d75ae5fcdd2,667045947eb812cbdacbf325,66704cc31c95339dba152e80,,,,,,,,,,,,,,,,,,,,,,,,,,,,,,,,,,,,,,,,,,,,160.8388,162.3494,4.3,1.5095,0,0,0,7,1,song_indices/SomebodyThatIUsedtoKnow_Gotye.csv,,,,,,,,,,,,,,,,,,,,,,,,,,,,,,,,,,,,,,,,,,,,,,,,
,,,,,519423,001,2024-06-17_07h53.54.790,experiment,2024.1.5,Win32,30.03003003,63e2953c6c707d75ae5fcdd2,667045947eb812cbdacbf325,66704cc31c95339dba152e80,,,,,,,,,,,,,,,,,,,,,,,,,,,,,,,,,,,,162.3514,168.5829,0,0,0,0,1,SoundStimuli/Dilemma_NellyKellyRowland_Original5S.wav,,,,,,,,,,,,,,,,,,,,,,,,,,,,,,,,,,,,,,,,,,,,,,,,,,,,,,,,,,
,,,,,519423,001,2024-06-17_07h53.54.790,experiment,2024.1.5,Win32,30.03003003,63e2953c6c707d75ae5fcdd2,667045947eb812cbdacbf325,66704cc31c95339dba152e80,,,,,,,,,,,,,,,,,,,,,,,,,,,,,,,,,,,,168.5938,175.6011,0,1,1,1,1,SoundStimuli/Dilemma_NellyKellyRowland_Cover5S.wav,,,,,,,,,,,,,,,,,,,,,,,,,,,,,,,,,,,,,,,,,,,,,,,,,,,,,,,,,,
,,,,,519423,001,2024-06-17_07h53.54.790,experiment,2024.1.5,Win32,30.03003003,63e2953c6c707d75ae5fcdd2,667045947eb812cbdacbf325,66704cc31c95339dba152e80,,,,,,,,,,,,,,,,,,,,,,,,,,,,,,,,,,,,,,,,,,,,175.6013,177.679,1.622222222,2.0665,0,1,1,2,1,song_indices/Dilemma_NellyKellyRowland.csv,,,,,,,,,,,,,,,,,,,,,,,,,,,,,,,,,,,,,,,,,,,,,,,,
,,,,,519423,001,2024-06-17_07h53.54.790,experiment,2024.1.5,Win32,30.03003003,63e2953c6c707d75ae5fcdd2,667045947eb812cbdacbf325,66704cc31c95339dba152e80,,,,,,,,,,,,,,,,,,,,,,,,,,,,,,,,,,,,177.6808,183.8151,0,0,0,0,1,SoundStimuli/UnbreakMyHeart_ToniBraxton_Original5S.wav,,,,,,,,,,,,,,,,,,,,,,,,,,,,,,,,,,,,,,,,,,,,,,,,,,,,,,,,,,
,,,,,519423,001,2024-06-17_07h53.54.790,experiment,2024.1.5,Win32,30.03003003,63e2953c6c707d75ae5fcdd2,667045947eb812cbdacbf325,66704cc31c95339dba152e80,,,,,,,,,,,,,,,,,,,,,,,,,,,,,,,,,,,,183.8255,187.8417,0,1,1,1,1,SoundStimuli/UnbreakMyHeart_ToniBraxton_Cover5S.wav,,,,,,,,,,,,,,,,,,,,,,,,,,,,,,,,,,,,,,,,,,,,,,,,,,,,,,,,,,
,,,,,519423,001,2024-06-17_07h53.54.790,experiment,2024.1.5,Win32,30.03003003,63e2953c6c707d75ae5fcdd2,667045947eb812cbdacbf325,66704cc31c95339dba152e80,,,,,,,,,,,,,,,,,,,,,,,,,,,,,,,,,,,,,,,,,,,,187.8419,190.2882,2.544444444,2.4356,0,2,2,16,1,song_indices/UnbreakMyHeart_ToniBraxton.csv,,,,,,,,,,,,,,,,,,,,,,,,,,,,,,,,,,,,,,,,,,,,,,,,
,,,,,519423,001,2024-06-17_07h53.54.790,experiment,2024.1.5,Win32,30.03003003,63e2953c6c707d75ae5fcdd2,667045947eb812cbdacbf325,66704cc31c95339dba152e80,,,,,,,,,,,,,,,,,,,,,,,,,,,,,,,,,,,,190.29,196.7984,0,0,0,1,1,SoundStimuli/Weak_SWV_Cover5S.wav,,,,,,,,,,,,,,,,,,,,,,,,,,,,,,,,,,,,,,,,,,,,,,,,,,,,,,,,,,
,,,,,519423,001,2024-06-17_07h53.54.790,experiment,2024.1.5,Win32,30.03003003,63e2953c6c707d75ae5fcdd2,667045947eb812cbdacbf325,66704cc31c95339dba152e80,,,,,,,,,,,,,,,,,,,,,,,,,,,,,,,,,,,,196.8093,202.892,0,1,1,0,1,SoundStimuli/Weak_SWV_Original5S.wav,,,,,,,,,,,,,,,,,,,,,,,,,,,,,,,,,,,,,,,,,,,,,,,,,,,,,,,,,,
,,,,,519423,001,2024-06-17_07h53.54.790,experiment,2024.1.5,Win32,30.03003003,63e2953c6c707d75ae5fcdd2,667045947eb812cbdacbf325,66704cc31c95339dba152e80,,,,,,,,,,,,,,,,,,,,,,,,,,,,,,,,,,,,,,,,,,,,202.8924,205.015,2.766666667,2.1121,0,3,3,6,1,song_indices/Weak_SWV.csv,,,,,,,,,,,,,,,,,,,,,,,,,,,,,,,,,,,,,,,,,,,,,,,,
,,,,,519423,001,2024-06-17_07h53.54.790,experiment,2024.1.5,Win32,30.03003003,63e2953c6c707d75ae5fcdd2,667045947eb812cbdacbf325,66704cc31c95339dba152e80,,,,,,,,,,,,,,,,,,,,,,,,,,,,,,,,,,,,205.0167,212.1711,0,0,0,1,1,SoundStimuli/BlurredLines_RobinThicke_Cover5S.wav,,,,,,,,,,,,,,,,,,,,,,,,,,,,,,,,,,,,,,,,,,,,,,,,,,,,,,,,,,
,,,,,519423,001,2024-06-17_07h53.54.790,experiment,2024.1.5,Win32,30.03003003,63e2953c6c707d75ae5fcdd2,667045947eb812cbdacbf325,66704cc31c95339dba152e80,,,,,,,,,,,,,,,,,,,,,,,,,,,,,,,,,,,,212.1812,218.9808,0,1,1,0,1,SoundStimuli/BlurredLines_RobinThicke_Original5S.wav,,,,,,,,,,,,,,,,,,,,,,,,,,,,,,,,,,,,,,,,,,,,,,,,,,,,,,,,,,
,,,,,519423,001,2024-06-17_07h53.54.790,experiment,2024.1.5,Win32,30.03003003,63e2953c6c707d75ae5fcdd2,667045947eb812cbdacbf325,66704cc31c95339dba152e80,,,,,,,,,,,,,,,,,,,,,,,,,,,,,,,,,,,,,,,,,,,,218.981,220.9026,3.905555556,1.9101,0,4,4,9,1,song_indices/BlurredLines_RobinThicke.csv,,,,,,,,,,,,,,,,,,,,,,,,,,,,,,,,,,,,,,,,,,,,,,,,
,,,,,519423,001,2024-06-17_07h53.54.790,experiment,2024.1.5,Win32,30.03003003,63e2953c6c707d75ae5fcdd2,667045947eb812cbdacbf325,66704cc31c95339dba152e80,,,,,,,,,,,,,,,,,,,,,,,,,,,,,,,,,,,,220.9047,228.3577,0,0,0,0,1,SoundStimuli/Kiss_Prince_Original5S.wav,,,,,,,,,,,,,,,,,,,,,,,,,,,,,,,,,,,,,,,,,,,,,,,,,,,,,,,,,,
,,,,,519423,001,2024-06-17_07h53.54.790,experiment,2024.1.5,Win32,30.03003003,63e2953c6c707d75ae5fcdd2,667045947eb812cbdacbf325,66704cc31c95339dba152e80,,,,,,,,,,,,,,,,,,,,,,,,,,,,,,,,,,,,228.3683,234.7077,0,1,1,1,1,SoundStimuli/Kiss_Prince_Cover5S.wav,,,,,,,,,,,,,,,,,,,,,,,,,,,,,,,,,,,,,,,,,,,,,,,,,,,,,,,,,,
,,,,,519423,001,2024-06-17_07h53.54.790,experiment,2024.1.5,Win32,30.03003003,63e2953c6c707d75ae5fcdd2,667045947eb812cbdacbf325,66704cc31c95339dba152e80,,,,,,,,,,,,,,,,,,,,,,,,,,,,,,,,,,,,,,,,,,,,234.7079,236.1448,1.316666667,1.4262,0,5,5,14,1,song_indices/Kiss_Prince.csv,,,,,,,,,,,,,,,,,,,,,,,,,,,,,,,,,,,,,,,,,,,,,,,,
,,,,,519423,001,2024-06-17_07h53.54.790,experiment,2024.1.5,Win32,30.03003003,63e2953c6c707d75ae5fcdd2,667045947eb812cbdacbf325,66704cc31c95339dba152e80,,,,,,,,,,,,,,,,,,,,,,,,,,,,,,,,,,,,236.1468,242.9587,0,0,0,1,1,SoundStimuli/BlindingLights_TheWeeknd_Cover5S.wav,,,,,,,,,,,,,,,,,,,,,,,,,,,,,,,,,,,,,,,,,,,,,,,,,,,,,,,,,,
,,,,,519423,001,2024-06-17_07h53.54.790,experiment,2024.1.5,Win32,30.03003003,63e2953c6c707d75ae5fcdd2,667045947eb812cbdacbf325,66704cc31c95339dba152e80,,,,,,,,,,,,,,,,,,,,,,,,,,,,,,,,,,,,242.9684,249.4687,0,1,1,0,1,SoundStimuli/BlindingLights_TheWeeknd_Original5S.wav,,,,,,,,,,,,,,,,,,,,,,,,,,,,,,,,,,,,,,,,,,,,,,,,,,,,,,,,,,
,,,,,519423,001,2024-06-17_07h53.54.790,experiment,2024.1.5,Win32,30.03003003,63e2953c6c707d75ae5fcdd2,667045947eb812cbdacbf325,66704cc31c95339dba152e80,,,,,,,,,,,,,,,,,,,,,,,,,,,,,,,,,,,,,,,,,,,,249.4688,251.1294,4.672222222,1.6481,0,6,6,21,1,song_indices/BlindingLights_TheWeeknd.csv,,,,,,,,,,,,,,,,,,,,,,,,,,,,,,,,,,,,,,,,,,,,,,,,
,,,,,519423,001,2024-06-17_07h53.54.790,experiment,2024.1.5,Win32,30.03003003,63e2953c6c707d75ae5fcdd2,667045947eb812cbdacbf325,66704cc31c95339dba152e80,,,,,,,,,,,,,,,,,,,,,,,,,,,,,,,,,,,,251.1306,257.1407,0,0,0,1,1,SoundStimuli/TheSign_AceOfBase_Cover5S.wav,,,,,,,,,,,,,,,,,,,,,,,,,,,,,,,,,,,,,,,,,,,,,,,,,,,,,,,,,,
,,,,,519423,001,2024-06-17_07h53.54.790,experiment,2024.1.5,Win32,30.03003003,63e2953c6c707d75ae5fcdd2,667045947eb812cbdacbf325,66704cc31c95339dba152e80,,,,,,,,,,,,,,,,,,,,,,,,,,,,,,,,,,,,257.1508,263.3337,0,1,1,0,1,SoundStimuli/TheSign_AceOfBase_Original5S.wav,,,,,,,,,,,,,,,,,,,,,,,,,,,,,,,,,,,,,,,,,,,,,,,,,,,,,,,,,,
,,,,,519423,001,2024-06-17_07h53.54.790,experiment,2024.1.5,Win32,30.03003003,63e2953c6c707d75ae5fcdd2,667045947eb812cbdacbf325,66704cc31c95339dba152e80,,,,,,,,,,,,,,,,,,,,,,,,,,,,,,,,,,,,,,,,,,,,263.3338,265.1161,4.105555556,1.7713,0,7,7,5,1,song_indices/TheSign_AceOfBase.csv,,,,,,,,,,,,,,,,,,,,,,,,,,,,,,,,,,,,,,,,,,,,,,,,
,,,,,519423,001,2024-06-17_07h53.54.790,experiment,2024.1.5,Win32,30.03003003,63e2953c6c707d75ae5fcdd2,667045947eb812cbdacbf325,66704cc31c95339dba152e80,,,,,,,,,,,,,,,,,,,,,,,,,,,,,,,,,,,,265.1178,271.0798,0,0,0,0,1,SoundStimuli/Respect_ArethaFranklin_Original5S.wav,,,,,,,,,,,,,,,,,,,,,,,,,,,,,,,,,,,,,,,,,,,,,,,,,,,,,,,,,,
,,,,,519423,001,2024-06-17_07h53.54.790,experiment,2024.1.5,Win32,30.03003003,63e2953c6c707d75ae5fcdd2,667045947eb812cbdacbf325,66704cc31c95339dba152e80,,,,,,,,,,,,,,,,,,,,,,,,,,,,,,,,,,,,271.0901,277.1574,0,1,1,1,1,SoundStimuli/Respect_ArethaFranklin_Cover5S.wav,,,,,,,,,,,,,,,,,,,,,,,,,,,,,,,,,,,,,,,,,,,,,,,,,,,,,,,,,,
,,,,,519423,001,2024-06-17_07h53.54.790,experiment,2024.1.5,Win32,30.03003003,63e2953c6c707d75ae5fcdd2,667045947eb812cbdacbf325,66704cc31c95339dba152e80,,,,,,,,,,,,,,,,,,,,,,,,,,,,,,,,,,,,,,,,,,,,277.1576,279.3535,3.55,2.1851,0,8,8,0,1,song_indices/Respect_ArethaFranklin.csv,,,,,,,,,,,,,,,,,,,,,,,,,,,,,,,,,,,,,,,,,,,,,,,,
,,,,,519423,001,2024-06-17_07h53.54.790,experiment,2024.1.5,Win32,30.03003003,63e2953c6c707d75ae5fcdd2,667045947eb812cbdacbf325,66704cc31c95339dba152e80,,,,,,,,,,,,,,,,,,,,,,,,,,,,,,,,,,,,279.355,285.4044,0,0,0,0,1,SoundStimuli/HowDoILive_LeAnnRimes_Original5S.wav,,,,,,,,,,,,,,,,,,,,,,,,,,,,,,,,,,,,,,,,,,,,,,,,,,,,,,,,,,
,,,,,519423,001,2024-06-17_07h53.54.790,experiment,2024.1.5,Win32,30.03003003,63e2953c6c707d75ae5fcdd2,667045947eb812cbdacbf325,66704cc31c95339dba152e80,,,,,,,,,,,,,,,,,,,,,,,,,,,,,,,,,,,,285.4146,290.9212,0,1,1,1,1,SoundStimuli/HowDoILive_LeAnnRimes_Cover5S.wav,,,,,,,,,,,,,,,,,,,,,,,,,,,,,,,,,,,,,,,,,,,,,,,,,,,,,,,,,,
,,,,,519423,001,2024-06-17_07h53.54.790,experiment,2024.1.5,Win32,30.03003003,63e2953c6c707d75ae5fcdd2,667045947eb812cbdacbf325,66704cc31c95339dba152e80,,,,,,,,,,,,,,,,,,,,,,,,,,,,,,,,,,,,,,,,,,,,290.9216,292.9258,5.55,1.9927,0,9,9,17,1,song_indices/HowDoILive_LeAnnRimes.csv,,,,,,,,,,,,,,,,,,,,,,,,,,,,,,,,,,,,,,,,,,,,,,,,
,,,,,519423,001,2024-06-17_07h53.54.790,experiment,2024.1.5,Win32,30.03003003,63e2953c6c707d75ae5fcdd2,667045947eb812cbdacbf325,66704cc31c95339dba152e80,,,,,,,,,,,,,,,,,,,,,,,,,,,,,,,,,,,,292.9273,299.1524,0,0,0,0,1,SoundStimuli/SaveYourTears_TheWeekndArianaGrande_Original5S.wav,,,,,,,,,,,,,,,,,,,,,,,,,,,,,,,,,,,,,,,,,,,,,,,,,,,,,,,,,,
,,,,,519423,001,2024-06-17_07h53.54.790,experiment,2024.1.5,Win32,30.03003003,63e2953c6c707d75ae5fcdd2,667045947eb812cbdacbf325,66704cc31c95339dba152e80,,,,,,,,,,,,,,,,,,,,,,,,,,,,,,,,,,,,299.1653,305.0546,0,1,1,1,1,SoundStimuli/SaveYourTears_TheWeekndArianaGrande_Cover5S.wav,,,,,,,,,,,,,,,,,,,,,,,,,,,,,,,,,,,,,,,,,,,,,,,,,,,,,,,,,,
,,,,,519423,001,2024-06-17_07h53.54.790,experiment,2024.1.5,Win32,30.03003003,63e2953c6c707d75ae5fcdd2,667045947eb812cbdacbf325,66704cc31c95339dba152e80,,,,,,,,,,,,,,,,,,,,,,,,,,,,,,,,,,,,,,,,,,,,305.0548,306.7088,2.705555556,1.6427,0,10,10,12,1,song_indices/SaveYourTears_TheWeekndArianaGrande.csv,,,,,,,,,,,,,,,,,,,,,,,,,,,,,,,,,,,,,,,,,,,,,,,,
,,,,,519423,001,2024-06-17_07h53.54.790,experiment,2024.1.5,Win32,30.03003003,63e2953c6c707d75ae5fcdd2,667045947eb812cbdacbf325,66704cc31c95339dba152e80,,,,,,,,,,,,,,,,,,,,,,,,,,,,,,,,,,,,306.711,312.8469,0,0,0,1,1,SoundStimuli/TossinAndTurnin_BobbyLewis_Cover5S.wav,,,,,,,,,,,,,,,,,,,,,,,,,,,,,,,,,,,,,,,,,,,,,,,,,,,,,,,,,,
,,,,,519423,001,2024-06-17_07h53.54.790,experiment,2024.1.5,Win32,30.03003003,63e2953c6c707d75ae5fcdd2,667045947eb812cbdacbf325,66704cc31c95339dba152e80,,,,,,,,,,,,,,,,,,,,,,,,,,,,,,,,,,,,312.8567,318.9557,0,1,1,0,1,SoundStimuli/TossinAndTurnin_BobbyLewis_Original5S.wav,,,,,,,,,,,,,,,,,,,,,,,,,,,,,,,,,,,,,,,,,,,,,,,,,,,,,,,,,,
,,,,,519423,001,2024-06-17_07h53.54.790,experiment,2024.1.5,Win32,30.03003003,63e2953c6c707d75ae5fcdd2,667045947eb812cbdacbf325,66704cc31c95339dba152e80,,,,,,,,,,,,,,,,,,,,,,,,,,,,,,,,,,,,,,,,,,,,318.9558,320.4679,1.644444444,1.5014,0,11,11,13,1,song_indices/TossinAndTurnin_BobbyLewis.csv,,,,,,,,,,,,,,,,,,,,,,,,,,,,,,,,,,,,,,,,,,,,,,,,
,,,,,519423,001,2024-06-17_07h53.54.790,experiment,2024.1.5,Win32,30.03003003,63e2953c6c707d75ae5fcdd2,667045947eb812cbdacbf325,66704cc31c95339dba152e80,,,,,,,,,,,,,,,,,,,,,,,,,,,,,,,,,,,,320.4699,327.3348,0,0,0,1,1,SoundStimuli/PokerFace_LadyGaga_Cover5S.wav,,,,,,,,,,,,,,,,,,,,,,,,,,,,,,,,,,,,,,,,,,,,,,,,,,,,,,,,,,
,,,,,519423,001,2024-06-17_07h53.54.790,experiment,2024.1.5,Win32,30.03003003,63e2953c6c707d75ae5fcdd2,667045947eb812cbdacbf325,66704cc31c95339dba152e80,,,,,,,,,,,,,,,,,,,,,,,,,,,,,,,,,,,,327.3461,334.3668,0,1,1,0,1,SoundStimuli/PokerFace_LadyGaga_Original5S.wav,,,,,,,,,,,,,,,,,,,,,,,,,,,,,,,,,,,,,,,,,,,,,,,,,,,,,,,,,,
,,,,,519423,001,2024-06-17_07h53.54.790,experiment,2024.1.5,Win32,30.03003003,63e2953c6c707d75ae5fcdd2,667045947eb812cbdacbf325,66704cc31c95339dba152e80,,,,,,,,,,,,,,,,,,,,,,,,,,,,,,,,,,,,,,,,,,,,334.367,336.6065,4.438888889,2.2289,0,12,12,23,1,song_indices/PokerFace_LadyGaga.csv,,,,,,,,,,,,,,,,,,,,,,,,,,,,,,,,,,,,,,,,,,,,,,,,
,,,,,519423,001,2024-06-17_07h53.54.790,experiment,2024.1.5,Win32,30.03003003,63e2953c6c707d75ae5fcdd2,667045947eb812cbdacbf325,66704cc31c95339dba152e80,,,,,,,,,,,,,,,,,,,,,,,,,,,,,,,,,,,,336.608,343.1076,0,0,0,0,1,SoundStimuli/Dreams_FleetwoodMac_Original5S.wav,,,,,,,,,,,,,,,,,,,,,,,,,,,,,,,,,,,,,,,,,,,,,,,,,,,,,,,,,,
,,,,,519423,001,2024-06-17_07h53.54.790,experiment,2024.1.5,Win32,30.03003003,63e2953c6c707d75ae5fcdd2,667045947eb812cbdacbf325,66704cc31c95339dba152e80,,,,,,,,,,,,,,,,,,,,,,,,,,,,,,,,,,,,343.1181,350.9818,0,1,1,1,1,SoundStimuli/Dreams_FleetwoodMac_Cover5S.wav,,,,,,,,,,,,,,,,,,,,,,,,,,,,,,,,,,,,,,,,,,,,,,,,,,,,,,,,,,
,,,,,519423,001,2024-06-17_07h53.54.790,experiment,2024.1.5,Win32,30.03003003,63e2953c6c707d75ae5fcdd2,667045947eb812cbdacbf325,66704cc31c95339dba152e80,,,,,,,,,,,,,,,,,,,,,,,,,,,,,,,,,,,,,,,,,,,,350.982,352.9299,2.122222222,1.937,0,13,13,1,1,song_indices/Dreams_FleetwoodMac.csv,,,,,,,,,,,,,,,,,,,,,,,,,,,,,,,,,,,,,,,,,,,,,,,,
,,,,,519423,001,2024-06-17_07h53.54.790,experiment,2024.1.5,Win32,30.03003003,63e2953c6c707d75ae5fcdd2,667045947eb812cbdacbf325,66704cc31c95339dba152e80,,,,,,,,,,,,,,,,,,,,,,,,,,,,,,,,,,,,352.9317,359.1999,0,0,0,0,1,SoundStimuli/TikTok_Kesha_Original5S.wav,,,,,,,,,,,,,,,,,,,,,,,,,,,,,,,,,,,,,,,,,,,,,,,,,,,,,,,,,,
,,,,,519423,001,2024-06-17_07h53.54.790,experiment,2024.1.5,Win32,30.03003003,63e2953c6c707d75ae5fcdd2,667045947eb812cbdacbf325,66704cc31c95339dba152e80,,,,,,,,,,,,,,,,,,,,,,,,,,,,,,,,,,,,359.2108,366.7562,0,1,1,1,1,SoundStimuli/TikTok_Kesha_Cover5S.wav,,,,,,,,,,,,,,,,,,,,,,,,,,,,,,,,,,,,,,,,,,,,,,,,,,,,,,,,,,
,,,,,519423,001,2024-06-17_07h53.54.790,experiment,2024.1.5,Win32,30.03003003,63e2953c6c707d75ae5fcdd2,667045947eb812cbdacbf325,66704cc31c95339dba152e80,,,,,,,,,,,,,,,,,,,,,,,,,,,,,,,,,,,,,,,,,,,,366.7564,368.8229,1.938888889,2.056,0,14,14,3,1,song_indices/TikTok_Kesha.csv,,,,,,,,,,,,,,,,,,,,,,,,,,,,,,,,,,,,,,,,,,,,,,,,
,,,,,519423,001,2024-06-17_07h53.54.790,experiment,2024.1.5,Win32,30.03003003,63e2953c6c707d75ae5fcdd2,667045947eb812cbdacbf325,66704cc31c95339dba152e80,,,,,,,,,,,,,,,,,,,,,,,,,,,,,,,,,,,,368.8245,375.1721,0,0,0,0,1,SoundStimuli/LetsGetItOn_MarvinGaye_Original5S.wav,,,,,,,,,,,,,,,,,,,,,,,,,,,,,,,,,,,,,,,,,,,,,,,,,,,,,,,,,,
,,,,,519423,001,2024-06-17_07h53.54.790,experiment,2024.1.5,Win32,30.03003003,63e2953c6c707d75ae5fcdd2,667045947eb812cbdacbf325,66704cc31c95339dba152e80,,,,,,,,,,,,,,,,,,,,,,,,,,,,,,,,,,,,375.182,381.8633,0,1,1,1,1,SoundStimuli/LetsGetItOn_MarvinGaye_Cover5S.wav,,,,,,,,,,,,,,,,,,,,,,,,,,,,,,,,,,,,,,,,,,,,,,,,,,,,,,,,,,
,,,,,519423,001,2024-06-17_07h53.54.790,experiment,2024.1.5,Win32,30.03003003,63e2953c6c707d75ae5fcdd2,667045947eb812cbdacbf325,66704cc31c95339dba152e80,,,,,,,,,,,,,,,,,,,,,,,,,,,,,,,,,,,,,,,,,,,,381.8635,383.6996,1.822222222,1.824,0,15,15,20,1,song_indices/LetsGetItOn_MarvinGaye.csv,,,,,,,,,,,,,,,,,,,,,,,,,,,,,,,,,,,,,,,,,,,,,,,,
,,,,,519423,001,2024-06-17_07h53.54.790,experiment,2024.1.5,Win32,30.03003003,63e2953c6c707d75ae5fcdd2,667045947eb812cbdacbf325,66704cc31c95339dba152e80,,,,,,,,,,,,,,,,,,,,,,,,,,,,,,,,,,,,383.701,390.1961,0,0,0,1,1,SoundStimuli/YouLightUpMyLife_DebbyBoone_Cover5S.wav,,,,,,,,,,,,,,,,,,,,,,,,,,,,,,,,,,,,,,,,,,,,,,,,,,,,,,,,,,
,,,,,519423,001,2024-06-17_07h53.54.790,experiment,2024.1.5,Win32,30.03003003,63e2953c6c707d75ae5fcdd2,667045947eb812cbdacbf325,66704cc31c95339dba152e80,,,,,,,,,,,,,,,,,,,,,,,,,,,,,,,,,,,,390.2061,396.3014,0,1,1,0,1,SoundStimuli/YouLightUpMyLife_DebbyBoone_Original5S.wav,,,,,,,,,,,,,,,,,,,,,,,,,,,,,,,,,,,,,,,,,,,,,,,,,,,,,,,,,,
,,,,,519423,001,2024-06-17_07h53.54.790,experiment,2024.1.5,Win32,30.03003003,63e2953c6c707d75ae5fcdd2,667045947eb812cbdacbf325,66704cc31c95339dba152e80,,,,,,,,,,,,,,,,,,,,,,,,,,,,,,,,,,,,,,,,,,,,396.3016,397.3906,6.95,1.0778,0,16,16,4,1,song_indices/YouLightUpMyLife_DebbyBoone.csv,,,,,,,,,,,,,,,,,,,,,,,,,,,,,,,,,,,,,,,,,,,,,,,,
,,,,,519423,001,2024-06-17_07h53.54.790,experiment,2024.1.5,Win32,30.03003003,63e2953c6c707d75ae5fcdd2,667045947eb812cbdacbf325,66704cc31c95339dba152e80,,,,,,,,,,,,,,,,,,,,,,,,,,,,,,,,,,,,397.3917,404.4709,0,0,0,1,1,SoundStimuli/ComeAndGetYourLove_Redbone_Cover5S.wav,,,,,,,,,,,,,,,,,,,,,,,,,,,,,,,,,,,,,,,,,,,,,,,,,,,,,,,,,,
,,,,,519423,001,2024-06-17_07h53.54.790,experiment,2024.1.5,Win32,30.03003003,63e2953c6c707d75ae5fcdd2,667045947eb812cbdacbf325,66704cc31c95339dba152e80,,,,,,,,,,,,,,,,,,,,,,,,,,,,,,,,,,,,404.4818,410.5845,0,1,1,0,1,SoundStimuli/ComeAndGetYourLove_Redbone_Original5S.wav,,,,,,,,,,,,,,,,,,,,,,,,,,,,,,,,,,,,,,,,,,,,,,,,,,,,,,,,,,
,,,,,519423,001,2024-06-17_07h53.54.790,experiment,2024.1.5,Win32,30.03003003,63e2953c6c707d75ae5fcdd2,667045947eb812cbdacbf325,66704cc31c95339dba152e80,,,,,,,,,,,,,,,,,,,,,,,,,,,,,,,,,,,,,,,,,,,,410.5846,412.0792,2.538888889,1.4842,0,17,17,22,1,song_indices/ComeAndGetYourLove_Redbone.csv,,,,,,,,,,,,,,,,,,,,,,,,,,,,,,,,,,,,,,,,,,,,,,,,
,,,,,519423,001,2024-06-17_07h53.54.790,experiment,2024.1.5,Win32,30.03003003,63e2953c6c707d75ae5fcdd2,667045947eb812cbdacbf325,66704cc31c95339dba152e80,,,,,,,,,,,,,,,,,,,,,,,,,,,,,,,,,,,,412.0807,417.2553,0,0,0,1,1,SoundStimuli/JoyToTheWorld_ThreeDogNight_Cover5S.wav,,,,,,,,,,,,,,,,,,,,,,,,,,,,,,,,,,,,,,,,,,,,,,,,,,,,,,,,,,
,,,,,519423,001,2024-06-17_07h53.54.790,experiment,2024.1.5,Win32,30.03003003,63e2953c6c707d75ae5fcdd2,667045947eb812cbdacbf325,66704cc31c95339dba152e80,,,,,,,,,,,,,,,,,,,,,,,,,,,,,,,,,,,,417.2652,423.3898,0,1,1,0,1,SoundStimuli/JoyToTheWorld_ThreeDogNight_Original5S.wav,,,,,,,,,,,,,,,,,,,,,,,,,,,,,,,,,,,,,,,,,,,,,,,,,,,,,,,,,,
,,,,,519423,001,2024-06-17_07h53.54.790,experiment,2024.1.5,Win32,30.03003003,63e2953c6c707d75ae5fcdd2,667045947eb812cbdacbf325,66704cc31c95339dba152e80,,,,,,,,,,,,,,,,,,,,,,,,,,,,,,,,,,,,,,,,,,,,423.39,425.4791,2.922222222,2.0787,0,18,18,8,1,song_indices/JoyToTheWorld_ThreeDogNight.csv,,,,,,,,,,,,,,,,,,,,,,,,,,,,,,,,,,,,,,,,,,,,,,,,
,,,,,519423,001,2024-06-17_07h53.54.790,experiment,2024.1.5,Win32,30.03003003,63e2953c6c707d75ae5fcdd2,667045947eb812cbdacbf325,66704cc31c95339dba152e80,,,,,,,,,,,,,,,,,,,,,,,,,,,,,,,,,,,,425.4809,431.2161,0,0,0,1,1,SoundStimuli/Levitating_DuaLipa_Cover5S.wav,,,,,,,,,,,,,,,,,,,,,,,,,,,,,,,,,,,,,,,,,,,,,,,,,,,,,,,,,,
,,,,,519423,001,2024-06-17_07h53.54.790,experiment,2024.1.5,Win32,30.03003003,63e2953c6c707d75ae5fcdd2,667045947eb812cbdacbf325,66704cc31c95339dba152e80,,,,,,,,,,,,,,,,,,,,,,,,,,,,,,,,,,,,431.2267,437.2564,0,1,1,0,1,SoundStimuli/Levitating_DuaLipa_Original5S.wav,,,,,,,,,,,,,,,,,,,,,,,,,,,,,,,,,,,,,,,,,,,,,,,,,,,,,,,,,,
,,,,,519423,001,2024-06-17_07h53.54.790,experiment,2024.1.5,Win32,30.03003003,63e2953c6c707d75ae5fcdd2,667045947eb812cbdacbf325,66704cc31c95339dba152e80,,,,,,,,,,,,,,,,,,,,,,,,,,,,,,,,,,,,,,,,,,,,437.2565,438.7753,5.194444444,1.5083,0,19,19,10,1,song_indices/Levitating_DuaLipa.csv,,,,,,,,,,,,,,,,,,,,,,,,,,,,,,,,,,,,,,,,,,,,,,,,
,,,,,519423,001,2024-06-17_07h53.54.790,experiment,2024.1.5,Win32,30.03003003,63e2953c6c707d75ae5fcdd2,667045947eb812cbdacbf325,66704cc31c95339dba152e80,,,,,,,,,,,,,,,,,,,,,,,,,,,,,,,,,,,,438.7767,444.1246,0,0,0,1,1,SoundStimuli/Superstition_StevieWonder_Cover5S.wav,,,,,,,,,,,,,,,,,,,,,,,,,,,,,,,,,,,,,,,,,,,,,,,,,,,,,,,,,,
,,,,,519423,001,2024-06-17_07h53.54.790,experiment,2024.1.5,Win32,30.03003003,63e2953c6c707d75ae5fcdd2,667045947eb812cbdacbf325,66704cc31c95339dba152e80,,,,,,,,,,,,,,,,,,,,,,,,,,,,,,,,,,,,444.1346,450.3066,0,1,1,0,1,SoundStimuli/Superstition_StevieWonder_Original5S.wav,,,,,,,,,,,,,,,,,,,,,,,,,,,,,,,,,,,,,,,,,,,,,,,,,,,,,,,,,,
,,,,,519423,001,2024-06-17_07h53.54.790,experiment,2024.1.5,Win32,30.03003003,63e2953c6c707d75ae5fcdd2,667045947eb812cbdacbf325,66704cc31c95339dba152e80,,,,,,,,,,,,,,,,,,,,,,,,,,,,,,,,,,,,,,,,,,,,450.3068,451.5625,2.655555556,1.2445,0,20,20,15,1,song_indices/Superstition_StevieWonder.csv,,,,,,,,,,,,,,,,,,,,,,,,,,,,,,,,,,,,,,,,,,,,,,,,
,,,,,519423,001,2024-06-17_07h53.54.790,experiment,2024.1.5,Win32,30.03003003,63e2953c6c707d75ae5fcdd2,667045947eb812cbdacbf325,66704cc31c95339dba152e80,,,,,,,,,,,,,,,,,,,,,,,,,,,,,,,,,,,,451.5644,458.8559,0,0,0,1,1,SoundStimuli/FlashdanceWhatAFeeling_IreneCara_Cover5S.wav,,,,,,,,,,,,,,,,,,,,,,,,,,,,,,,,,,,,,,,,,,,,,,,,,,,,,,,,,,
,,,,,519423,001,2024-06-17_07h53.54.790,experiment,2024.1.5,Win32,30.03003003,63e2953c6c707d75ae5fcdd2,667045947eb812cbdacbf325,66704cc31c95339dba152e80,,,,,,,,,,,,,,,,,,,,,,,,,,,,,,,,,,,,458.8668,465.2667,0,1,1,0,1,SoundStimuli/FlashdanceWhatAFeeling_IreneCara_Original5S.wav,,,,,,,,,,,,,,,,,,,,,,,,,,,,,,,,,,,,,,,,,,,,,,,,,,,,,,,,,,
,,,,,519423,001,2024-06-17_07h53.54.790,experiment,2024.1.5,Win32,30.03003003,63e2953c6c707d75ae5fcdd2,667045947eb812cbdacbf325,66704cc31c95339dba152e80,,,,,,,,,,,,,,,,,,,,,,,,,,,,,,,,,,,,,,,,,,,,465.2672,466.8382,4.922222222,1.5583,0,21,21,18,1,song_indices/FlashdanceWhatAFeeling_IreneCara.csv,,,,,,,,,,,,,,,,,,,,,,,,,,,,,,,,,,,,,,,,,,,,,,,,
,,,,,519423,001,2024-06-17_07h53.54.790,experiment,2024.1.5,Win32,30.03003003,63e2953c6c707d75ae5fcdd2,667045947eb812cbdacbf325,66704cc31c95339dba152e80,,,,,,,,,,,,,,,,,,,,,,,,,,,,,,,,,,,,466.8396,472.7948,0,0,0,1,1,SoundStimuli/Irreplaceable_Beyonce_Cover5S.wav,,,,,,,,,,,,,,,,,,,,,,,,,,,,,,,,,,,,,,,,,,,,,,,,,,,,,,,,,,
,,,,,519423,001,2024-06-17_07h53.54.790,experiment,2024.1.5,Win32,30.03003003,63e2953c6c707d75ae5fcdd2,667045947eb812cbdacbf325,66704cc31c95339dba152e80,,,,,,,,,,,,,,,,,,,,,,,,,,,,,,,,,,,,472.8049,478.7056,0,1,1,0,1,SoundStimuli/Irreplaceable_Beyonce_Original5S.wav,,,,,,,,,,,,,,,,,,,,,,,,,,,,,,,,,,,,,,,,,,,,,,,,,,,,,,,,,,
,,,,,519423,001,2024-06-17_07h53.54.790,experiment,2024.1.5,Win32,30.03003003,63e2953c6c707d75ae5fcdd2,667045947eb812cbdacbf325,66704cc31c95339dba152e80,,,,,,,,,,,,,,,,,,,,,,,,,,,,,,,,,,,,,,,,,,,,478.7058,481.1472,1.766666667,2.4311,0,22,22,19,1,song_indices/Irreplaceable_Beyonce.csv,,,,,,,,,,,,,,,,,,,,,,,,,,,,,,,,,,,,,,,,,,,,,,,,
,,,,,519423,001,2024-06-17_07h53.54.790,experiment,2024.1.5,Win32,30.03003003,63e2953c6c707d75ae5fcdd2,667045947eb812cbdacbf325,66704cc31c95339dba152e80,,,,,,,,,,,,,,,,,,,,,,,,,,,,,,,,,,,,481.1488,487.2028,0,0,0,0,1,SoundStimuli/LeFreak_Chic_Original5S.wav,,,,,,,,,,,,,,,,,,,,,,,,,,,,,,,,,,,,,,,,,,,,,,,,,,,,,,,,,,
,,,,,519423,001,2024-06-17_07h53.54.790,experiment,2024.1.5,Win32,30.03003003,63e2953c6c707d75ae5fcdd2,667045947eb812cbdacbf325,66704cc31c95339dba152e80,,,,,,,,,,,,,,,,,,,,,,,,,,,,,,,,,,,,487.2127,492.7305,0,1,1,1,1,SoundStimuli/LeFreak_Chic_Cover5S.wav,,,,,,,,,,,,,,,,,,,,,,,,,,,,,,,,,,,,,,,,,,,,,,,,,,,,,,,,,,
,,,,,519423,001,2024-06-17_07h53.54.790,experiment,2024.1.5,Win32,30.03003003,63e2953c6c707d75ae5fcdd2,667045947eb812cbdacbf325,66704cc31c95339dba152e80,,,,,,,,,,,,,,,,,,,,,,,,,,,,,,,,,,,,,,,,,,,,492.7307,494.331,4.8,1.5897,0,23,23,11,1,song_indices/LeFreak_Chic.csv,,,,,,,,,,,,,,,,,,,,,,,,,,,,,,,,,,,,,,,,,,,,,,,,
,,,,,519423,001,2024-06-17_07h53.54.790,experiment,2024.1.5,Win32,30.03003003,63e2953c6c707d75ae5fcdd2,667045947eb812cbdacbf325,66704cc31c95339dba152e80,,,,,,,,,,,,,,,,,,,,,,,,,,,,,,,,,,,,,,,,,,,,,,,,,,,,,,494.332,622.4173,space,128.0512,,0,0,0,2,1,choose_song_b3.csv,,,,,,,,,,,,,,,,,,,,,,,,,,,,,,,,,,,,,
,,,,,519423,001,2024-06-17_07h53.54.790,experiment,2024.1.5,Win32,30.03003003,63e2953c6c707d75ae5fcdd2,667045947eb812cbdacbf325,66704cc31c95339dba152e80,,,,,,,,,,,,,,,,,,,,,,,,,,,,,,,,,,,,622.4195,629.651,0,0,0,0,1,SoundStimuli/UptownFunk_MarkRonson_Original5S.wav,,,,,,,,,,,,,,,,,,,,,,,,,,,,,,,,,,,,,,,,,,,,,,,,,,,,,,,,,,
,,,,,519423,001,2024-06-17_07h53.54.790,experiment,2024.1.5,Win32,30.03003003,63e2953c6c707d75ae5fcdd2,667045947eb812cbdacbf325,66704cc31c95339dba152e80,,,,,,,,,,,,,,,,,,,,,,,,,,,,,,,,,,,,629.661,636.7109,0,1,1,1,1,SoundStimuli/UptownFunk_MarkRonson_Cover5S.wav,,,,,,,,,,,,,,,,,,,,,,,,,,,,,,,,,,,,,,,,,,,,,,,,,,,,,,,,,,
,,,,,519423,001,2024-06-17_07h53.54.790,experiment,2024.1.5,Win32,30.03003003,63e2953c6c707d75ae5fcdd2,667045947eb812cbdacbf325,66704cc31c95339dba152e80,,,,,,,,,,,,,,,,,,,,,,,,,,,,,,,,,,,,,,,,,,,,636.711,638.4732,5.1,1.751,0,0,0,15,1,song_indices/UptownFunk_MarkRonson.csv,,,,,,,,,,,,,,,,,,,,,,,,,,,,,,,,,,,,,,,,,,,,,,,,
,,,,,519423,001,2024-06-17_07h53.54.790,experiment,2024.1.5,Win32,30.03003003,63e2953c6c707d75ae5fcdd2,667045947eb812cbdacbf325,66704cc31c95339dba152e80,,,,,,,,,,,,,,,,,,,,,,,,,,,,,,,,,,,,638.4749,644.5626,0,0,0,0,1,SoundStimuli/GetUrFreakOn_MissyElliot_Original5S.wav,,,,,,,,,,,,,,,,,,,,,,,,,,,,,,,,,,,,,,,,,,,,,,,,,,,,,,,,,,
,,,,,519423,001,2024-06-17_07h53.54.790,experiment,2024.1.5,Win32,30.03003003,63e2953c6c707d75ae5fcdd2,667045947eb812cbdacbf325,66704cc31c95339dba152e80,,,,,,,,,,,,,,,,,,,,,,,,,,,,,,,,,,,,644.5724,651.1811,0,1,1,1,1,SoundStimuli/GetUrFreakOn_MissyElliot_Cover5S.wav,,,,,,,,,,,,,,,,,,,,,,,,,,,,,,,,,,,,,,,,,,,,,,,,,,,,,,,,,,
,,,,,519423,001,2024-06-17_07h53.54.790,experiment,2024.1.5,Win32,30.03003003,63e2953c6c707d75ae5fcdd2,667045947eb812cbdacbf325,66704cc31c95339dba152e80,,,,,,,,,,,,,,,,,,,,,,,,,,,,,,,,,,,,,,,,,,,,651.1813,653.0423,2.116666667,1.8497,0,1,1,18,1,song_indices/GetUrFreakOn_MissyElliot.csv,,,,,,,,,,,,,,,,,,,,,,,,,,,,,,,,,,,,,,,,,,,,,,,,
,,,,,519423,001,2024-06-17_07h53.54.790,experiment,2024.1.5,Win32,30.03003003,63e2953c6c707d75ae5fcdd2,667045947eb812cbdacbf325,66704cc31c95339dba152e80,,,,,,,,,,,,,,,,,,,,,,,,,,,,,,,,,,,,653.0441,658.9276,0,0,0,1,1,SoundStimuli/IWillAlwaysLoveYou_WhitneyHouston_Cover5S.wav,,,,,,,,,,,,,,,,,,,,,,,,,,,,,,,,,,,,,,,,,,,,,,,,,,,,,,,,,,
,,,,,519423,001,2024-06-17_07h53.54.790,experiment,2024.1.5,Win32,30.03003003,63e2953c6c707d75ae5fcdd2,667045947eb812cbdacbf325,66704cc31c95339dba152e80,,,,,,,,,,,,,,,,,,,,,,,,,,,,,,,,,,,,658.9371,665.3535,0,1,1,0,1,SoundStimuli/IWillAlwaysLoveYou_WhitneyHouston_Original5S.wav,,,,,,,,,,,,,,,,,,,,,,,,,,,,,,,,,,,,,,,,,,,,,,,,,,,,,,,,,,
,,,,,519423,001,2024-06-17_07h53.54.790,experiment,2024.1.5,Win32,30.03003003,63e2953c6c707d75ae5fcdd2,667045947eb812cbdacbf325,66704cc31c95339dba152e80,,,,,,,,,,,,,,,,,,,,,,,,,,,,,,,,,,,,,,,,,,,,665.3537,666.7431,6.311111111,1.3792,0,2,2,10,1,song_indices/IWillAlwaysLoveYou_WhitneyHouston.csv,,,,,,,,,,,,,,,,,,,,,,,,,,,,,,,,,,,,,,,,,,,,,,,,
,,,,,519423,001,2024-06-17_07h53.54.790,experiment,2024.1.5,Win32,30.03003003,63e2953c6c707d75ae5fcdd2,667045947eb812cbdacbf325,66704cc31c95339dba152e80,,,,,,,,,,,,,,,,,,,,,,,,,,,,,,,,,,,,666.7447,673.1863,0,0,0,1,1,SoundStimuli/Fallin_AliciaKeys_Cover5S.wav,,,,,,,,,,,,,,,,,,,,,,,,,,,,,,,,,,,,,,,,,,,,,,,,,,,,,,,,,,
,,,,,519423,001,2024-06-17_07h53.54.790,experiment,2024.1.5,Win32,30.03003003,63e2953c6c707d75ae5fcdd2,667045947eb812cbdacbf325,66704cc31c95339dba152e80,,,,,,,,,,,,,,,,,,,,,,,,,,,,,,,,,,,,673.1967,679.3847,0,1,1,0,1,SoundStimuli/Fallin_AliciaKeys_Original5S.wav,,,,,,,,,,,,,,,,,,,,,,,,,,,,,,,,,,,,,,,,,,,,,,,,,,,,,,,,,,
,,,,,519423,001,2024-06-17_07h53.54.790,experiment,2024.1.5,Win32,30.03003003,63e2953c6c707d75ae5fcdd2,667045947eb812cbdacbf325,66704cc31c95339dba152e80,,,,,,,,,,,,,,,,,,,,,,,,,,,,,,,,,,,,,,,,,,,,679.3853,680.9044,2.222222222,1.508,0,3,3,12,1,song_indices/Fallin_AliciaKeys.csv,,,,,,,,,,,,,,,,,,,,,,,,,,,,,,,,,,,,,,,,,,,,,,,,
,,,,,519423,001,2024-06-17_07h53.54.790,experiment,2024.1.5,Win32,30.03003003,63e2953c6c707d75ae5fcdd2,667045947eb812cbdacbf325,66704cc31c95339dba152e80,,,,,,,,,,,,,,,,,,,,,,,,,,,,,,,,,,,,680.9062,686.9923,0,0,0,1,1,SoundStimuli/StandByMe_BenEKing_Cover5S.wav,,,,,,,,,,,,,,,,,,,,,,,,,,,,,,,,,,,,,,,,,,,,,,,,,,,,,,,,,,
,,,,,519423,001,2024-06-17_07h53.54.790,experiment,2024.1.5,Win32,30.03003003,63e2953c6c707d75ae5fcdd2,667045947eb812cbdacbf325,66704cc31c95339dba152e80,,,,,,,,,,,,,,,,,,,,,,,,,,,,,,,,,,,,687.0029,692.9499,0,1,1,0,1,SoundStimuli/StandByMe_BenEKing_Original5S.wav,,,,,,,,,,,,,,,,,,,,,,,,,,,,,,,,,,,,,,,,,,,,,,,,,,,,,,,,,,
,,,,,519423,001,2024-06-17_07h53.54.790,experiment,2024.1.5,Win32,30.03003003,63e2953c6c707d75ae5fcdd2,667045947eb812cbdacbf325,66704cc31c95339dba152e80,,,,,,,,,,,,,,,,,,,,,,,,,,,,,,,,,,,,,,,,,,,,692.9501,694.8387,2.233333333,1.8741,0,4,4,1,1,song_indices/StandByMe_BenEKing.csv,,,,,,,,,,,,,,,,,,,,,,,,,,,,,,,,,,,,,,,,,,,,,,,,
,,,,,519423,001,2024-06-17_07h53.54.790,experiment,2024.1.5,Win32,30.03003003,63e2953c6c707d75ae5fcdd2,667045947eb812cbdacbf325,66704cc31c95339dba152e80,,,,,,,,,,,,,,,,,,,,,,,,,,,,,,,,,,,,694.8397,700.9513,0,0,0,0,1,SoundStimuli/GimmeShelter_RollingStones_Original5S.wav,,,,,,,,,,,,,,,,,,,,,,,,,,,,,,,,,,,,,,,,,,,,,,,,,,,,,,,,,,
,,,,,519423,001,2024-06-17_07h53.54.790,experiment,2024.1.5,Win32,30.03003003,63e2953c6c707d75ae5fcdd2,667045947eb812cbdacbf325,66704cc31c95339dba152e80,,,,,,,,,,,,,,,,,,,,,,,,,,,,,,,,,,,,700.9611,707.1865,0,1,1,1,1,SoundStimuli/GimmeShelter_RollingStones_Cover5S.wav,,,,,,,,,,,,,,,,,,,,,,,,,,,,,,,,,,,,,,,,,,,,,,,,,,,,,,,,,,
,,,,,519423,001,2024-06-17_07h53.54.790,experiment,2024.1.5,Win32,30.03003003,63e2953c6c707d75ae5fcdd2,667045947eb812cbdacbf325,66704cc31c95339dba152e80,,,,,,,,,,,,,,,,,,,,,,,,,,,,,,,,,,,,,,,,,,,,707.1867,709.0609,1.372222222,1.8636,0,5,5,20,1,song_indices/GimmeShelter_RollingStones.csv,,,,,,,,,,,,,,,,,,,,,,,,,,,,,,,,,,,,,,,,,,,,,,,,
,,,,,519423,001,2024-06-17_07h53.54.790,experiment,2024.1.5,Win32,30.03003003,63e2953c6c707d75ae5fcdd2,667045947eb812cbdacbf325,66704cc31c95339dba152e80,,,,,,,,,,,,,,,,,,,,,,,,,,,,,,,,,,,,709.0626,715.0681,0,0,0,0,1,SoundStimuli/IWalkTheLine_JohnnyCash_Original5S.wav,,,,,,,,,,,,,,,,,,,,,,,,,,,,,,,,,,,,,,,,,,,,,,,,,,,,,,,,,,
,,,,,519423,001,2024-06-17_07h53.54.790,experiment,2024.1.5,Win32,30.03003003,63e2953c6c707d75ae5fcdd2,667045947eb812cbdacbf325,66704cc31c95339dba152e80,,,,,,,,,,,,,,,,,,,,,,,,,,,,,,,,,,,,715.079,722.2213,0,1,1,1,1,SoundStimuli/IWalkTheLine_JohnnyCash_Cover5S.wav,,,,,,,,,,,,,,,,,,,,,,,,,,,,,,,,,,,,,,,,,,,,,,,,,,,,,,,,,,
,,,,,519423,001,2024-06-17_07h53.54.790,experiment,2024.1.5,Win32,30.03003003,63e2953c6c707d75ae5fcdd2,667045947eb812cbdacbf325,66704cc31c95339dba152e80,,,,,,,,,,,,,,,,,,,,,,,,,,,,,,,,,,,,,,,,,,,,722.2214,723.9863,1.755555556,1.7528,0,6,6,17,1,song_indices/IWalkTheLine_JohnnyCash.csv,,,,,,,,,,,,,,,,,,,,,,,,,,,,,,,,,,,,,,,,,,,,,,,,
,,,,,519423,001,2024-06-17_07h53.54.790,experiment,2024.1.5,Win32,30.03003003,63e2953c6c707d75ae5fcdd2,667045947eb812cbdacbf325,66704cc31c95339dba152e80,,,,,,,,,,,,,,,,,,,,,,,,,,,,,,,,,,,,723.9876,730.534,0,0,0,0,1,SoundStimuli/CrazyInLove_BeyonceFtJayZ_Original5S.wav,,,,,,,,,,,,,,,,,,,,,,,,,,,,,,,,,,,,,,,,,,,,,,,,,,,,,,,,,,
,,,,,519423,001,2024-06-17_07h53.54.790,experiment,2024.1.5,Win32,30.03003003,63e2953c6c707d75ae5fcdd2,667045947eb812cbdacbf325,66704cc31c95339dba152e80,,,,,,,,,,,,,,,,,,,,,,,,,,,,,,,,,,,,730.5444,740.7927,0,1,1,1,1,SoundStimuli/CrazyInLove_BeyonceFtJayZ_Cover5S.wav,,,,,,,,,,,,,,,,,,,,,,,,,,,,,,,,,,,,,,,,,,,,,,,,,,,,,,,,,,
,,,,,519423,001,2024-06-17_07h53.54.790,experiment,2024.1.5,Win32,30.03003003,63e2953c6c707d75ae5fcdd2,667045947eb812cbdacbf325,66704cc31c95339dba152e80,,,,,,,,,,,,,,,,,,,,,,,,,,,,,,,,,,,,,,,,,,,,740.7931,742.6586,3.266666667,1.8542,0,7,7,3,1,song_indices/CrazyInLove_BeyonceFtJayZ.csv,,,,,,,,,,,,,,,,,,,,,,,,,,,,,,,,,,,,,,,,,,,,,,,,
,,,,,519423,001,2024-06-17_07h53.54.790,experiment,2024.1.5,Win32,30.03003003,63e2953c6c707d75ae5fcdd2,667045947eb812cbdacbf325,66704cc31c95339dba152e80,,,,,,,,,,,,,,,,,,,,,,,,,,,,,,,,,,,,742.6601,748.6183,0,0,0,1,1,SoundStimuli/TheBoyIsMine_BrandyMonica_Cover5S.wav,,,,,,,,,,,,,,,,,,,,,,,,,,,,,,,,,,,,,,,,,,,,,,,,,,,,,,,,,,
,,,,,519423,001,2024-06-17_07h53.54.790,experiment,2024.1.5,Win32,30.03003003,63e2953c6c707d75ae5fcdd2,667045947eb812cbdacbf325,66704cc31c95339dba152e80,,,,,,,,,,,,,,,,,,,,,,,,,,,,,,,,,,,,748.6283,754.8593,0,1,1,0,1,SoundStimuli/TheBoyIsMine_BrandyMonica_Original5S.wav,,,,,,,,,,,,,,,,,,,,,,,,,,,,,,,,,,,,,,,,,,,,,,,,,,,,,,,,,,
,,,,,519423,001,2024-06-17_07h53.54.790,experiment,2024.1.5,Win32,30.03003003,63e2953c6c707d75ae5fcdd2,667045947eb812cbdacbf325,66704cc31c95339dba152e80,,,,,,,,,,,,,,,,,,,,,,,,,,,,,,,,,,,,,,,,,,,,754.8595,756.1424,3.877777778,1.2719,0,8,8,6,1,song_indices/TheBoyIsMine_BrandyMonica.csv,,,,,,,,,,,,,,,,,,,,,,,,,,,,,,,,,,,,,,,,,,,,,,,,
,,,,,519423,001,2024-06-17_07h53.54.790,experiment,2024.1.5,Win32,30.03003003,63e2953c6c707d75ae5fcdd2,667045947eb812cbdacbf325,66704cc31c95339dba152e80,,,,,,,,,,,,,,,,,,,,,,,,,,,,,,,,,,,,756.1439,762.296,0,0,0,1,1,SoundStimuli/NoScrubs_TLC_Cover5S.wav,,,,,,,,,,,,,,,,,,,,,,,,,,,,,,,,,,,,,,,,,,,,,,,,,,,,,,,,,,
,,,,,519423,001,2024-06-17_07h53.54.790,experiment,2024.1.5,Win32,30.03003003,63e2953c6c707d75ae5fcdd2,667045947eb812cbdacbf325,66704cc31c95339dba152e80,,,,,,,,,,,,,,,,,,,,,,,,,,,,,,,,,,,,762.3061,768.5135,0,1,1,0,1,SoundStimuli/NoScrubs_TLC_Original5S.wav,,,,,,,,,,,,,,,,,,,,,,,,,,,,,,,,,,,,,,,,,,,,,,,,,,,,,,,,,,
,,,,,519423,001,2024-06-17_07h53.54.790,experiment,2024.1.5,Win32,30.03003003,63e2953c6c707d75ae5fcdd2,667045947eb812cbdacbf325,66704cc31c95339dba152e80,,,,,,,,,,,,,,,,,,,,,,,,,,,,,,,,,,,,,,,,,,,,768.5136,769.72,4.316666667,1.1948,0,9,9,14,1,song_indices/NoScrubs_TLC.csv,,,,,,,,,,,,,,,,,,,,,,,,,,,,,,,,,,,,,,,,,,,,,,,,
,,,,,519423,001,2024-06-17_07h53.54.790,experiment,2024.1.5,Win32,30.03003003,63e2953c6c707d75ae5fcdd2,667045947eb812cbdacbf325,66704cc31c95339dba152e80,,,,,,,,,,,,,,,,,,,,,,,,,,,,,,,,,,,,769.7215,775.7845,0,0,0,0,1,SoundStimuli/Stronger_KanyeWest_Original5S.wav,,,,,,,,,,,,,,,,,,,,,,,,,,,,,,,,,,,,,,,,,,,,,,,,,,,,,,,,,,
,,,,,519423,001,2024-06-17_07h53.54.790,experiment,2024.1.5,Win32,30.03003003,63e2953c6c707d75ae5fcdd2,667045947eb812cbdacbf325,66704cc31c95339dba152e80,,,,,,,,,,,,,,,,,,,,,,,,,,,,,,,,,,,,775.7946,782.1198,0,1,1,1,1,SoundStimuli/Stronger_KanyeWest_Cover5S.wav,,,,,,,,,,,,,,,,,,,,,,,,,,,,,,,,,,,,,,,,,,,,,,,,,,,,,,,,,,
,,,,,519423,001,2024-06-17_07h53.54.790,experiment,2024.1.5,Win32,30.03003003,63e2953c6c707d75ae5fcdd2,667045947eb812cbdacbf325,66704cc31c95339dba152e80,,,,,,,,,,,,,,,,,,,,,,,,,,,,,,,,,,,,,,,,,,,,782.1201,783.5927,1.405555556,1.4616,0,10,10,9,1,song_indices/Stronger_KanyeWest.csv,,,,,,,,,,,,,,,,,,,,,,,,,,,,,,,,,,,,,,,,,,,,,,,,
,,,,,519423,001,2024-06-17_07h53.54.790,experiment,2024.1.5,Win32,30.03003003,63e2953c6c707d75ae5fcdd2,667045947eb812cbdacbf325,66704cc31c95339dba152e80,,,,,,,,,,,,,,,,,,,,,,,,,,,,,,,,,,,,783.5946,790.4015,0,0,0,1,1,SoundStimuli/PartyRockAnthem_LMFAO_Cover5S.wav,,,,,,,,,,,,,,,,,,,,,,,,,,,,,,,,,,,,,,,,,,,,,,,,,,,,,,,,,,
,,,,,519423,001,2024-06-17_07h53.54.790,experiment,2024.1.5,Win32,30.03003003,63e2953c6c707d75ae5fcdd2,667045947eb812cbdacbf325,66704cc31c95339dba152e80,,,,,,,,,,,,,,,,,,,,,,,,,,,,,,,,,,,,790.4112,797.1874,0,1,1,0,1,SoundStimuli/PartyRockAnthem_LMFAO_Original5S.wav,,,,,,,,,,,,,,,,,,,,,,,,,,,,,,,,,,,,,,,,,,,,,,,,,,,,,,,,,,
,,,,,519423,001,2024-06-17_07h53.54.790,experiment,2024.1.5,Win32,30.03003003,63e2953c6c707d75ae5fcdd2,667045947eb812cbdacbf325,66704cc31c95339dba152e80,,,,,,,,,,,,,,,,,,,,,,,,,,,,,,,,,,,,,,,,,,,,797.1874,798.5453,4.233333333,1.3476,0,11,11,2,1,song_indices/PartyRockAnthem_LMFAO.csv,,,,,,,,,,,,,,,,,,,,,,,,,,,,,,,,,,,,,,,,,,,,,,,,
,,,,,519423,001,2024-06-17_07h53.54.790,experiment,2024.1.5,Win32,30.03003003,63e2953c6c707d75ae5fcdd2,667045947eb812cbdacbf325,66704cc31c95339dba152e80,,,,,,,,,,,,,,,,,,,,,,,,,,,,,,,,,,,,798.5472,807.478,0,0,0,1,1,SoundStimuli/HeyYa_Outkast_Cover5S.wav,,,,,,,,,,,,,,,,,,,,,,,,,,,,,,,,,,,,,,,,,,,,,,,,,,,,,,,,,,
,,,,,519423,001,2024-06-17_07h53.54.790,experiment,2024.1.5,Win32,30.03003003,63e2953c6c707d75ae5fcdd2,667045947eb812cbdacbf325,66704cc31c95339dba152e80,,,,,,,,,,,,,,,,,,,,,,,,,,,,,,,,,,,,807.4884,813.7852,0,1,1,0,1,SoundStimuli/HeyYa_Outkast_Original5S.wav,,,,,,,,,,,,,,,,,,,,,,,,,,,,,,,,,,,,,,,,,,,,,,,,,,,,,,,,,,
,,,,,519423,001,2024-06-17_07h53.54.790,experiment,2024.1.5,Win32,30.03003003,63e2953c6c707d75ae5fcdd2,667045947eb812cbdacbf325,66704cc31c95339dba152e80,,,,,,,,,,,,,,,,,,,,,,,,,,,,,,,,,,,,,,,,,,,,813.7854,815.6741,1.394444444,1.8782,0,12,12,22,1,song_indices/HeyYa_Outkast.csv,,,,,,,,,,,,,,,,,,,,,,,,,,,,,,,,,,,,,,,,,,,,,,,,
,,,,,519423,001,2024-06-17_07h53.54.790,experiment,2024.1.5,Win32,30.03003003,63e2953c6c707d75ae5fcdd2,667045947eb812cbdacbf325,66704cc31c95339dba152e80,,,,,,,,,,,,,,,,,,,,,,,,,,,,,,,,,,,,815.6757,821.3684,0,0,0,1,1,SoundStimuli/BetteDavisEyes_KimCarnes_Cover5S.wav,,,,,,,,,,,,,,,,,,,,,,,,,,,,,,,,,,,,,,,,,,,,,,,,,,,,,,,,,,
,,,,,519423,001,2024-06-17_07h53.54.790,experiment,2024.1.5,Win32,30.03003003,63e2953c6c707d75ae5fcdd2,667045947eb812cbdacbf325,66704cc31c95339dba152e80,,,,,,,,,,,,,,,,,,,,,,,,,,,,,,,,,,,,821.3784,827.6105,0,1,1,0,1,SoundStimuli/BetteDavisEyes_KimCarnes_Original5S.wav,,,,,,,,,,,,,,,,,,,,,,,,,,,,,,,,,,,,,,,,,,,,,,,,,,,,,,,,,,
,,,,,519423,001,2024-06-17_07h53.54.790,experiment,2024.1.5,Win32,30.03003003,63e2953c6c707d75ae5fcdd2,667045947eb812cbdacbf325,66704cc31c95339dba152e80,,,,,,,,,,,,,,,,,,,,,,,,,,,,,,,,,,,,,,,,,,,,827.6105,828.6289,4.561111111,1.0069,0,13,13,5,1,song_indices/BetteDavisEyes_KimCarnes.csv,,,,,,,,,,,,,,,,,,,,,,,,,,,,,,,,,,,,,,,,,,,,,,,,
,,,,,519423,001,2024-06-17_07h53.54.790,experiment,2024.1.5,Win32,30.03003003,63e2953c6c707d75ae5fcdd2,667045947eb812cbdacbf325,66704cc31c95339dba152e80,,,,,,,,,,,,,,,,,,,,,,,,,,,,,,,,,,,,828.6298,834.9283,0,0,0,1,1,SoundStimuli/ShapeofYou_EdSheeran_Cover5S.wav,,,,,,,,,,,,,,,,,,,,,,,,,,,,,,,,,,,,,,,,,,,,,,,,,,,,,,,,,,
,,,,,519423,001,2024-06-17_07h53.54.790,experiment,2024.1.5,Win32,30.03003003,63e2953c6c707d75ae5fcdd2,667045947eb812cbdacbf325,66704cc31c95339dba152e80,,,,,,,,,,,,,,,,,,,,,,,,,,,,,,,,,,,,834.9384,841.43,0,1,1,0,1,SoundStimuli/ShapeofYou_EdSheeran_Original5S.wav,,,,,,,,,,,,,,,,,,,,,,,,,,,,,,,,,,,,,,,,,,,,,,,,,,,,,,,,,,
,,,,,519423,001,2024-06-17_07h53.54.790,experiment,2024.1.5,Win32,30.03003003,63e2953c6c707d75ae5fcdd2,667045947eb812cbdacbf325,66704cc31c95339dba152e80,,,,,,,,,,,,,,,,,,,,,,,,,,,,,,,,,,,,,,,,,,,,841.4304,842.5674,3.205555556,1.1249,0,14,14,21,1,song_indices/ShapeofYou_EdSheeran.csv,,,,,,,,,,,,,,,,,,,,,,,,,,,,,,,,,,,,,,,,,,,,,,,,
,,,,,519423,001,2024-06-17_07h53.54.790,experiment,2024.1.5,Win32,30.03003003,63e2953c6c707d75ae5fcdd2,667045947eb812cbdacbf325,66704cc31c95339dba152e80,,,,,,,,,,,,,,,,,,,,,,,,,,,,,,,,,,,,842.5691,849.9321,0,0,0,0,1,SoundStimuli/Happy_PharellWilliams_Original5S.wav,,,,,,,,,,,,,,,,,,,,,,,,,,,,,,,,,,,,,,,,,,,,,,,,,,,,,,,,,,
,,,,,519423,001,2024-06-17_07h53.54.790,experiment,2024.1.5,Win32,30.03003003,63e2953c6c707d75ae5fcdd2,667045947eb812cbdacbf325,66704cc31c95339dba152e80,,,,,,,,,,,,,,,,,,,,,,,,,,,,,,,,,,,,849.9429,857.3239,0,1,1,1,1,SoundStimuli/Happy_PharellWilliams_Cover5S.wav,,,,,,,,,,,,,,,,,,,,,,,,,,,,,,,,,,,,,,,,,,,,,,,,,,,,,,,,,,
,,,,,519423,001,2024-06-17_07h53.54.790,experiment,2024.1.5,Win32,30.03003003,63e2953c6c707d75ae5fcdd2,667045947eb812cbdacbf325,66704cc31c95339dba152e80,,,,,,,,,,,,,,,,,,,,,,,,,,,,,,,,,,,,,,,,,,,,857.3241,858.4519,4.955555556,1.116,0,15,15,7,1,song_indices/Happy_PharellWilliams.csv,,,,,,,,,,,,,,,,,,,,,,,,,,,,,,,,,,,,,,,,,,,,,,,,
,,,,,519423,001,2024-06-17_07h53.54.790,experiment,2024.1.5,Win32,30.03003003,63e2953c6c707d75ae5fcdd2,667045947eb812cbdacbf325,66704cc31c95339dba152e80,,,,,,,,,,,,,,,,,,,,,,,,,,,,,,,,,,,,858.4531,864.5445,0,0,0,1,1,SoundStimuli/RockWithYou_MichaelJackson_Cover5S.wav,,,,,,,,,,,,,,,,,,,,,,,,,,,,,,,,,,,,,,,,,,,,,,,,,,,,,,,,,,
,,,,,519423,001,2024-06-17_07h53.54.790,experiment,2024.1.5,Win32,30.03003003,63e2953c6c707d75ae5fcdd2,667045947eb812cbdacbf325,66704cc31c95339dba152e80,,,,,,,,,,,,,,,,,,,,,,,,,,,,,,,,,,,,864.5545,870.9119,0,1,1,0,1,SoundStimuli/RockWithYou_MichaelJackson_Original5S.wav,,,,,,,,,,,,,,,,,,,,,,,,,,,,,,,,,,,,,,,,,,,,,,,,,,,,,,,,,,
,,,,,519423,001,2024-06-17_07h53.54.790,experiment,2024.1.5,Win32,30.03003003,63e2953c6c707d75ae5fcdd2,667045947eb812cbdacbf325,66704cc31c95339dba152e80,,,,,,,,,,,,,,,,,,,,,,,,,,,,,,,,,,,,,,,,,,,,870.9121,871.781,3.855555556,0.8561,0,16,16,16,1,song_indices/RockWithYou_MichaelJackson.csv,,,,,,,,,,,,,,,,,,,,,,,,,,,,,,,,,,,,,,,,,,,,,,,,
,,,,,519423,001,2024-06-17_07h53.54.790,experiment,2024.1.5,Win32,30.03003003,63e2953c6c707d75ae5fcdd2,667045947eb812cbdacbf325,66704cc31c95339dba152e80,,,,,,,,,,,,,,,,,,,,,,,,,,,,,,,,,,,,871.7828,877.9238,0,0,0,1,1,SoundStimuli/EyeOfTheTiger_Survivor_Cover5S.wav,,,,,,,,,,,,,,,,,,,,,,,,,,,,,,,,,,,,,,,,,,,,,,,,,,,,,,,,,,
,,,,,519423,001,2024-06-17_07h53.54.790,experiment,2024.1.5,Win32,30.03003003,63e2953c6c707d75ae5fcdd2,667045947eb812cbdacbf325,66704cc31c95339dba152e80,,,,,,,,,,,,,,,,,,,,,,,,,,,,,,,,,,,,877.9338,883.845,0,1,1,0,1,SoundStimuli/EyeOfTheTiger_Survivor_Original5S.wav,,,,,,,,,,,,,,,,,,,,,,,,,,,,,,,,,,,,,,,,,,,,,,,,,,,,,,,,,,
,,,,,519423,001,2024-06-17_07h53.54.790,experiment,2024.1.5,Win32,30.03003003,63e2953c6c707d75ae5fcdd2,667045947eb812cbdacbf325,66704cc31c95339dba152e80,,,,,,,,,,,,,,,,,,,,,,,,,,,,,,,,,,,,,,,,,,,,883.8453,884.7241,4.822222222,0.8685,0,17,17,11,1,song_indices/EyeOfTheTiger_Survivor.csv,,,,,,,,,,,,,,,,,,,,,,,,,,,,,,,,,,,,,,,,,,,,,,,,
,,,,,519423,001,2024-06-17_07h53.54.790,experiment,2024.1.5,Win32,30.03003003,63e2953c6c707d75ae5fcdd2,667045947eb812cbdacbf325,66704cc31c95339dba152e80,,,,,,,,,,,,,,,,,,,,,,,,,,,,,,,,,,,,884.726,891.1269,0,0,0,1,1,SoundStimuli/GoodGollyMissMolly_LittleRichard_Cover5S.wav,,,,,,,,,,,,,,,,,,,,,,,,,,,,,,,,,,,,,,,,,,,,,,,,,,,,,,,,,,
,,,,,519423,001,2024-06-17_07h53.54.790,experiment,2024.1.5,Win32,30.03003003,63e2953c6c707d75ae5fcdd2,667045947eb812cbdacbf325,66704cc31c95339dba152e80,,,,,,,,,,,,,,,,,,,,,,,,,,,,,,,,,,,,891.1386,897.2181,0,1,1,0,1,SoundStimuli/GoodGollyMissMolly_LittleRichard_Original5S.wav,,,,,,,,,,,,,,,,,,,,,,,,,,,,,,,,,,,,,,,,,,,,,,,,,,,,,,,,,,
,,,,,519423,001,2024-06-17_07h53.54.790,experiment,2024.1.5,Win32,30.03003003,63e2953c6c707d75ae5fcdd2,667045947eb812cbdacbf325,66704cc31c95339dba152e80,,,,,,,,,,,,,,,,,,,,,,,,,,,,,,,,,,,,,,,,,,,,897.2183,898.2039,3.244444444,0.9745,0,18,18,0,1,song_indices/GoodGollyMissMolly_LittleRichard.csv,,,,,,,,,,,,,,,,,,,,,,,,,,,,,,,,,,,,,,,,,,,,,,,,
,,,,,519423,001,2024-06-17_07h53.54.790,experiment,2024.1.5,Win32,30.03003003,63e2953c6c707d75ae5fcdd2,667045947eb812cbdacbf325,66704cc31c95339dba152e80,,,,,,,,,,,,,,,,,,,,,,,,,,,,,,,,,,,,898.2057,904.4247,0,0,0,0,1,SoundStimuli/SmellsLikeTeenSpirit_Nirvana_Original5S.wav,,,,,,,,,,,,,,,,,,,,,,,,,,,,,,,,,,,,,,,,,,,,,,,,,,,,,,,,,,
,,,,,519423,001,2024-06-17_07h53.54.790,experiment,2024.1.5,Win32,30.03003003,63e2953c6c707d75ae5fcdd2,667045947eb812cbdacbf325,66704cc31c95339dba152e80,,,,,,,,,,,,,,,,,,,,,,,,,,,,,,,,,,,,904.4341,910.2065,0,1,1,1,1,SoundStimuli/SmellsLikeTeenSpirit_Nirvana_Cover5S.wav,,,,,,,,,,,,,,,,,,,,,,,,,,,,,,,,,,,,,,,,,,,,,,,,,,,,,,,,,,
,,,,,519423,001,2024-06-17_07h53.54.790,experiment,2024.1.5,Win32,30.03003003,63e2953c6c707d75ae5fcdd2,667045947eb812cbdacbf325,66704cc31c95339dba152e80,,,,,,,,,,,,,,,,,,,,,,,,,,,,,,,,,,,,,,,,,,,,910.2067,911.7389,6.422222222,1.5213,0,19,19,8,1,song_indices/SmellsLikeTeenSpirit_Nirvana.csv,,,,,,,,,,,,,,,,,,,,,,,,,,,,,,,,,,,,,,,,,,,,,,,,
,,,,,519423,001,2024-06-17_07h53.54.790,experiment,2024.1.5,Win32,30.03003003,63e2953c6c707d75ae5fcdd2,667045947eb812cbdacbf325,66704cc31c95339dba152e80,,,,,,,,,,,,,,,,,,,,,,,,,,,,,,,,,,,,911.7404,918.0128,0,0,0,0,1,SoundStimuli/ItsAllInTheGame_TommyEdwards_Original5S.wav,,,,,,,,,,,,,,,,,,,,,,,,,,,,,,,,,,,,,,,,,,,,,,,,,,,,,,,,,,
,,,,,519423,001,2024-06-17_07h53.54.790,experiment,2024.1.5,Win32,30.03003003,63e2953c6c707d75ae5fcdd2,667045947eb812cbdacbf325,66704cc31c95339dba152e80,,,,,,,,,,,,,,,,,,,,,,,,,,,,,,,,,,,,918.0234,924.2717,0,1,1,1,1,SoundStimuli/ItsAllInTheGame_TommyEdwards_Cover5S.wav,,,,,,,,,,,,,,,,,,,,,,,,,,,,,,,,,,,,,,,,,,,,,,,,,,,,,,,,,,
,,,,,519423,001,2024-06-17_07h53.54.790,experiment,2024.1.5,Win32,30.03003003,63e2953c6c707d75ae5fcdd2,667045947eb812cbdacbf325,66704cc31c95339dba152e80,,,,,,,,,,,,,,,,,,,,,,,,,,,,,,,,,,,,,,,,,,,,924.2719,926.0936,2.177777778,1.8109,0,20,20,13,1,song_indices/ItsAllInTheGame_TommyEdwards.csv,,,,,,,,,,,,,,,,,,,,,,,,,,,,,,,,,,,,,,,,,,,,,,,,
,,,,,519423,001,2024-06-17_07h53.54.790,experiment,2024.1.5,Win32,30.03003003,63e2953c6c707d75ae5fcdd2,667045947eb812cbdacbf325,66704cc31c95339dba152e80,,,,,,,,,,,,,,,,,,,,,,,,,,,,,,,,,,,,926.0956,932.3238,0,0,0,1,1,SoundStimuli/NoOne_AliciaKeys_Cover5S.wav,,,,,,,,,,,,,,,,,,,,,,,,,,,,,,,,,,,,,,,,,,,,,,,,,,,,,,,,,,
,,,,,519423,001,2024-06-17_07h53.54.790,experiment,2024.1.5,Win32,30.03003003,63e2953c6c707d75ae5fcdd2,667045947eb812cbdacbf325,66704cc31c95339dba152e80,,,,,,,,,,,,,,,,,,,,,,,,,,,,,,,,,,,,932.3348,940.1003,0,1,1,0,1,SoundStimuli/NoOne_AliciaKeys_Original5S.wav,,,,,,,,,,,,,,,,,,,,,,,,,,,,,,,,,,,,,,,,,,,,,,,,,,,,,,,,,,
,,,,,519423,001,2024-06-17_07h53.54.790,experiment,2024.1.5,Win32,30.03003003,63e2953c6c707d75ae5fcdd2,667045947eb812cbdacbf325,66704cc31c95339dba152e80,,,,,,,,,,,,,,,,,,,,,,,,,,,,,,,,,,,,,,,,,,,,940.1004,941.0911,2.45,0.9796,0,21,21,19,1,song_indices/NoOne_AliciaKeys.csv,,,,,,,,,,,,,,,,,,,,,,,,,,,,,,,,,,,,,,,,,,,,,,,,
,,,,,519423,001,2024-06-17_07h53.54.790,experiment,2024.1.5,Win32,30.03003003,63e2953c6c707d75ae5fcdd2,667045947eb812cbdacbf325,66704cc31c95339dba152e80,,,,,,,,,,,,,,,,,,,,,,,,,,,,,,,,,,,,941.093,949.1148,0,0,0,1,1,SoundStimuli/TheBattleOfNewOrleans_JohnnyHorton_Cover5S.wav,,,,,,,,,,,,,,,,,,,,,,,,,,,,,,,,,,,,,,,,,,,,,,,,,,,,,,,,,,
,,,,,519423,001,2024-06-17_07h53.54.790,experiment,2024.1.5,Win32,30.03003003,63e2953c6c707d75ae5fcdd2,667045947eb812cbdacbf325,66704cc31c95339dba152e80,,,,,,,,,,,,,,,,,,,,,,,,,,,,,,,,,,,,949.125,955.3668,0,1,1,0,1,SoundStimuli/TheBattleOfNewOrleans_JohnnyHorton_Original5S.wav,,,,,,,,,,,,,,,,,,,,,,,,,,,,,,,,,,,,,,,,,,,,,,,,,,,,,,,,,,
,,,,,519423,001,2024-06-17_07h53.54.790,experiment,2024.1.5,Win32,30.03003003,63e2953c6c707d75ae5fcdd2,667045947eb812cbdacbf325,66704cc31c95339dba152e80,,,,,,,,,,,,,,,,,,,,,,,,,,,,,,,,,,,,,,,,,,,,955.367,958.4393,3.2,3.0609,0,22,22,4,1,song_indices/TheBattleOfNewOrleans_JohnnyHorton.csv,,,,,,,,,,,,,,,,,,,,,,,,,,,,,,,,,,,,,,,,,,,,,,,,
,,,,,519423,001,2024-06-17_07h53.54.790,experiment,2024.1.5,Win32,30.03003003,63e2953c6c707d75ae5fcdd2,667045947eb812cbdacbf325,66704cc31c95339dba152e80,,,,,,,,,,,,,,,,,,,,,,,,,,,,,,,,,,,,,,,,,,,,,,,,,,,,,,958.4394,1157.5077,space,199.0313,,0,1,1,1,1,choose_song_b2.csv,,,,,,,,,,,,,,,,,,,,,,,,,,,,,,,,,,,,,
,,,,,519423,001,2024-06-17_07h53.54.790,experiment,2024.1.5,Win32,30.03003003,63e2953c6c707d75ae5fcdd2,667045947eb812cbdacbf325,66704cc31c95339dba152e80,,,,,,,,,,,,,,,,,,,,,,,,,,,,,,,,,,,,1157.5096,1164.0973,0,0,0,0,1,SoundStimuli/Despacito_LuisFonsiDaddyYankee_Original5S.wav,,,,,,,,,,,,,,,,,,,,,,,,,,,,,,,,,,,,,,,,,,,,,,,,,,,,,,,,,,
,,,,,519423,001,2024-06-17_07h53.54.790,experiment,2024.1.5,Win32,30.03003003,63e2953c6c707d75ae5fcdd2,667045947eb812cbdacbf325,66704cc31c95339dba152e80,,,,,,,,,,,,,,,,,,,,,,,,,,,,,,,,,,,,1164.1084,1170.7054,0,1,1,1,1,SoundStimuli/Despacito_LuisFonsiDaddyYankee_Cover5S.wav,,,,,,,,,,,,,,,,,,,,,,,,,,,,,,,,,,,,,,,,,,,,,,,,,,,,,,,,,,
,,,,,519423,001,2024-06-17_07h53.54.790,experiment,2024.1.5,Win32,30.03003003,63e2953c6c707d75ae5fcdd2,667045947eb812cbdacbf325,66704cc31c95339dba152e80,,,,,,,,,,,,,,,,,,,,,,,,,,,,,,,,,,,,,,,,,,,,1170.7057,1172.0298,3.294444444,1.3135,0,0,0,11,1,song_indices/Despacito_LuisFonsiDaddyYankee.csv,,,,,,,,,,,,,,,,,,,,,,,,,,,,,,,,,,,,,,,,,,,,,,,,
,,,,,519423,001,2024-06-17_07h53.54.790,experiment,2024.1.5,Win32,30.03003003,63e2953c6c707d75ae5fcdd2,667045947eb812cbdacbf325,66704cc31c95339dba152e80,,,,,,,,,,,,,,,,,,,,,,,,,,,,,,,,,,,,1172.0316,1179.7267,0,0,0,1,1,SoundStimuli/MyGirl_TheTemptations_Cover5S.wav,,,,,,,,,,,,,,,,,,,,,,,,,,,,,,,,,,,,,,,,,,,,,,,,,,,,,,,,,,
,,,,,519423,001,2024-06-17_07h53.54.790,experiment,2024.1.5,Win32,30.03003003,63e2953c6c707d75ae5fcdd2,667045947eb812cbdacbf325,66704cc31c95339dba152e80,,,,,,,,,,,,,,,,,,,,,,,,,,,,,,,,,,,,1179.7365,1186.1531,0,1,1,0,1,SoundStimuli/MyGirl_TheTemptations_Original5S.wav,,,,,,,,,,,,,,,,,,,,,,,,,,,,,,,,,,,,,,,,,,,,,,,,,,,,,,,,,,
,,,,,519423,001,2024-06-17_07h53.54.790,experiment,2024.1.5,Win32,30.03003003,63e2953c6c707d75ae5fcdd2,667045947eb812cbdacbf325,66704cc31c95339dba152e80,,,,,,,,,,,,,,,,,,,,,,,,,,,,,,,,,,,,,,,,,,,,1186.1533,1188.2335,3.461111111,2.0692,0,1,1,15,1,song_indices/MyGirl_TheTemptations.csv,,,,,,,,,,,,,,,,,,,,,,,,,,,,,,,,,,,,,,,,,,,,,,,,
,,,,,519423,001,2024-06-17_07h53.54.790,experiment,2024.1.5,Win32,30.03003003,63e2953c6c707d75ae5fcdd2,667045947eb812cbdacbf325,66704cc31c95339dba152e80,,,,,,,,,,,,,,,,,,,,,,,,,,,,,,,,,,,,1188.2351,1193.8537,0,0,0,0,1,SoundStimuli/IWannaDanceWithSomebody_WhitneyHouston_Original5S.wav,,,,,,,,,,,,,,,,,,,,,,,,,,,,,,,,,,,,,,,,,,,,,,,,,,,,,,,,,,
,,,,,519423,001,2024-06-17_07h53.54.790,experiment,2024.1.5,Win32,30.03003003,63e2953c6c707d75ae5fcdd2,667045947eb812cbdacbf325,66704cc31c95339dba152e80,,,,,,,,,,,,,,,,,,,,,,,,,,,,,,,,,,,,1193.8646,1200.7351,0,1,1,1,1,SoundStimuli/IWannaDanceWithSomebody_WhitneyHouston_Cover5S.wav,,,,,,,,,,,,,,,,,,,,,,,,,,,,,,,,,,,,,,,,,,,,,,,,,,,,,,,,,,
,,,,,519423,001,2024-06-17_07h53.54.790,experiment,2024.1.5,Win32,30.03003003,63e2953c6c707d75ae5fcdd2,667045947eb812cbdacbf325,66704cc31c95339dba152e80,,,,,,,,,,,,,,,,,,,,,,,,,,,,,,,,,,,,,,,,,,,,1200.7353,1203.7463,2.844444444,2.9999,0,2,2,13,1,song_indices/IWannaDanceWithSomebody_WhitneyHouston.csv,,,,,,,,,,,,,,,,,,,,,,,,,,,,,,,,,,,,,,,,,,,,,,,,
,,,,,519423,001,2024-06-17_07h53.54.790,experiment,2024.1.5,Win32,30.03003003,63e2953c6c707d75ae5fcdd2,667045947eb812cbdacbf325,66704cc31c95339dba152e80,,,,,,,,,,,,,,,,,,,,,,,,,,,,,,,,,,,,1203.7482,1209.7924,0,0,0,0,1,SoundStimuli/AChangeIsGonnaCome_SamCooke_Original5S.wav,,,,,,,,,,,,,,,,,,,,,,,,,,,,,,,,,,,,,,,,,,,,,,,,,,,,,,,,,,
,,,,,519423,001,2024-06-17_07h53.54.790,experiment,2024.1.5,Win32,30.03003003,63e2953c6c707d75ae5fcdd2,667045947eb812cbdacbf325,66704cc31c95339dba152e80,,,,,,,,,,,,,,,,,,,,,,,,,,,,,,,,,,,,1209.8024,1214.5127,0,1,1,1,1,SoundStimuli/AChangeIsGonnaCome_SamCooke_Cover5S.wav,,,,,,,,,,,,,,,,,,,,,,,,,,,,,,,,,,,,,,,,,,,,,,,,,,,,,,,,,,
,,,,,519423,001,2024-06-17_07h53.54.790,experiment,2024.1.5,Win32,30.03003003,63e2953c6c707d75ae5fcdd2,667045947eb812cbdacbf325,66704cc31c95339dba152e80,,,,,,,,,,,,,,,,,,,,,,,,,,,,,,,,,,,,,,,,,,,,1214.5128,1217.3536,3.416666667,2.8305,0,3,3,17,1,song_indices/AChangeIsGonnaCome_SamCooke.csv,,,,,,,,,,,,,,,,,,,,,,,,,,,,,,,,,,,,,,,,,,,,,,,,
,,,,,519423,001,2024-06-17_07h53.54.790,experiment,2024.1.5,Win32,30.03003003,63e2953c6c707d75ae5fcdd2,667045947eb812cbdacbf325,66704cc31c95339dba152e80,,,,,,,,,,,,,,,,,,,,,,,,,,,,,,,,,,,,1217.3554,1225.6425,0,0,0,1,1,SoundStimuli/Mood_24kGoldnianndior_Cover5S.wav,,,,,,,,,,,,,,,,,,,,,,,,,,,,,,,,,,,,,,,,,,,,,,,,,,,,,,,,,,
,,,,,519423,001,2024-06-17_07h53.54.790,experiment,2024.1.5,Win32,30.03003003,63e2953c6c707d75ae5fcdd2,667045947eb812cbdacbf325,66704cc31c95339dba152e80,,,,,,,,,,,,,,,,,,,,,,,,,,,,,,,,,,,,1225.6533,1231.9731,0,1,1,0,1,SoundStimuli/Mood_24kGoldnianndior_Original5S.wav,,,,,,,,,,,,,,,,,,,,,,,,,,,,,,,,,,,,,,,,,,,,,,,,,,,,,,,,,,
,,,,,519423,001,2024-06-17_07h53.54.790,experiment,2024.1.5,Win32,30.03003003,63e2953c6c707d75ae5fcdd2,667045947eb812cbdacbf325,66704cc31c95339dba152e80,,,,,,,,,,,,,,,,,,,,,,,,,,,,,,,,,,,,,,,,,,,,1231.9732,1235.1253,2.894444444,3.1393,0,4,4,5,1,song_indices/Mood_24kGoldnianndior.csv,,,,,,,,,,,,,,,,,,,,,,,,,,,,,,,,,,,,,,,,,,,,,,,,
,,,,,519423,001,2024-06-17_07h53.54.790,experiment,2024.1.5,Win32,30.03003003,63e2953c6c707d75ae5fcdd2,667045947eb812cbdacbf325,66704cc31c95339dba152e80,,,,,,,,,,,,,,,,,,,,,,,,,,,,,,,,,,,,1235.1272,1241.2868,0,0,0,0,1,SoundStimuli/StrawberryFieldsForever_TheBeatles_Original5S.wav,,,,,,,,,,,,,,,,,,,,,,,,,,,,,,,,,,,,,,,,,,,,,,,,,,,,,,,,,,
,,,,,519423,001,2024-06-17_07h53.54.790,experiment,2024.1.5,Win32,30.03003003,63e2953c6c707d75ae5fcdd2,667045947eb812cbdacbf325,66704cc31c95339dba152e80,,,,,,,,,,,,,,,,,,,,,,,,,,,,,,,,,,,,1241.2973,1248.3464,0,1,1,1,1,SoundStimuli/StrawberryFieldsForever_TheBeatles_Cover5S.wav,,,,,,,,,,,,,,,,,,,,,,,,,,,,,,,,,,,,,,,,,,,,,,,,,,,,,,,,,,
,,,,,519423,001,2024-06-17_07h53.54.790,experiment,2024.1.5,Win32,30.03003003,63e2953c6c707d75ae5fcdd2,667045947eb812cbdacbf325,66704cc31c95339dba152e80,,,,,,,,,,,,,,,,,,,,,,,,,,,,,,,,,,,,,,,,,,,,1248.3467,1252.4891,3.205555556,4.1306,0,5,5,14,1,song_indices/StrawberryFieldsForever_TheBeatles.csv,,,,,,,,,,,,,,,,,,,,,,,,,,,,,,,,,,,,,,,,,,,,,,,,
,,,,,519423,001,2024-06-17_07h53.54.790,experiment,2024.1.5,Win32,30.03003003,63e2953c6c707d75ae5fcdd2,667045947eb812cbdacbf325,66704cc31c95339dba152e80,,,,,,,,,,,,,,,,,,,,,,,,,,,,,,,,,,,,1252.4902,1258.4661,0,0,0,0,1,SoundStimuli/BohemianRhapsody_Queen_Original5S.wav,,,,,,,,,,,,,,,,,,,,,,,,,,,,,,,,,,,,,,,,,,,,,,,,,,,,,,,,,,
,,,,,519423,001,2024-06-17_07h53.54.790,experiment,2024.1.5,Win32,30.03003003,63e2953c6c707d75ae5fcdd2,667045947eb812cbdacbf325,66704cc31c95339dba152e80,,,,,,,,,,,,,,,,,,,,,,,,,,,,,,,,,,,,1258.4758,1262.5727,0,1,1,1,1,SoundStimuli/BohemianRhapsody_Queen_Cover5S.wav,,,,,,,,,,,,,,,,,,,,,,,,,,,,,,,,,,,,,,,,,,,,,,,,,,,,,,,,,,
,,,,,519423,001,2024-06-17_07h53.54.790,experiment,2024.1.5,Win32,30.03003003,63e2953c6c707d75ae5fcdd2,667045947eb812cbdacbf325,66704cc31c95339dba152e80,,,,,,,,,,,,,,,,,,,,,,,,,,,,,,,,,,,,,,,,,,,,1262.5729,1265.6527,2.844444444,3.0695,0,6,6,18,1,song_indices/BohemianRhapsody_Queen.csv,,,,,,,,,,,,,,,,,,,,,,,,,,,,,,,,,,,,,,,,,,,,,,,,
,,,,,519423,001,2024-06-17_07h53.54.790,experiment,2024.1.5,Win32,30.03003003,63e2953c6c707d75ae5fcdd2,667045947eb812cbdacbf325,66704cc31c95339dba152e80,,,,,,,,,,,,,,,,,,,,,,,,,,,,,,,,,,,,1265.6541,1271.8913,0,0,0,1,1,SoundStimuli/LikeAPrayer_Madonna_Cover5S.wav,,,,,,,,,,,,,,,,,,,,,,,,,,,,,,,,,,,,,,,,,,,,,,,,,,,,,,,,,,
,,,,,519423,001,2024-06-17_07h53.54.790,experiment,2024.1.5,Win32,30.03003003,63e2953c6c707d75ae5fcdd2,667045947eb812cbdacbf325,66704cc31c95339dba152e80,,,,,,,,,,,,,,,,,,,,,,,,,,,,,,,,,,,,1271.9029,1278.1051,0,1,1,0,1,SoundStimuli/LikeAPrayer_Madonna_Original5S.wav,,,,,,,,,,,,,,,,,,,,,,,,,,,,,,,,,,,,,,,,,,,,,,,,,,,,,,,,,,
,,,,,519423,001,2024-06-17_07h53.54.790,experiment,2024.1.5,Win32,30.03003003,63e2953c6c707d75ae5fcdd2,667045947eb812cbdacbf325,66704cc31c95339dba152e80,,,,,,,,,,,,,,,,,,,,,,,,,,,,,,,,,,,,,,,,,,,,1278.1053,1280.5988,3.888888889,2.4823,0,7,7,7,1,song_indices/LikeAPrayer_Madonna.csv,,,,,,,,,,,,,,,,,,,,,,,,,,,,,,,,,,,,,,,,,,,,,,,,
,,,,,519423,001,2024-06-17_07h53.54.790,experiment,2024.1.5,Win32,30.03003003,63e2953c6c707d75ae5fcdd2,667045947eb812cbdacbf325,66704cc31c95339dba152e80,,,,,,,,,,,,,,,,,,,,,,,,,,,,,,,,,,,,1280.6005,1286.868,0,0,0,0,1,SoundStimuli/GodOnlyKnows_TheBeachBoys_Original5S.wav,,,,,,,,,,,,,,,,,,,,,,,,,,,,,,,,,,,,,,,,,,,,,,,,,,,,,,,,,,
,,,,,519423,001,2024-06-17_07h53.54.790,experiment,2024.1.5,Win32,30.03003003,63e2953c6c707d75ae5fcdd2,667045947eb812cbdacbf325,66704cc31c95339dba152e80,,,,,,,,,,,,,,,,,,,,,,,,,,,,,,,,,,,,1286.8781,1293.7549,0,1,1,1,1,SoundStimuli/GodOnlyKnows_TheBeachBoys_Cover5S.wav,,,,,,,,,,,,,,,,,,,,,,,,,,,,,,,,,,,,,,,,,,,,,,,,,,,,,,,,,,
,,,,,519423,001,2024-06-17_07h53.54.790,experiment,2024.1.5,Win32,30.03003003,63e2953c6c707d75ae5fcdd2,667045947eb812cbdacbf325,66704cc31c95339dba152e80,,,,,,,,,,,,,,,,,,,,,,,,,,,,,,,,,,,,,,,,,,,,1293.7552,1296.3041,3.111111111,2.5385,0,8,8,8,1,song_indices/GodOnlyKnows_TheBeachBoys.csv,,,,,,,,,,,,,,,,,,,,,,,,,,,,,,,,,,,,,,,,,,,,,,,,
,,,,,519423,001,2024-06-17_07h53.54.790,experiment,2024.1.5,Win32,30.03003003,63e2953c6c707d75ae5fcdd2,667045947eb812cbdacbf325,66704cc31c95339dba152e80,,,,,,,,,,,,,,,,,,,,,,,,,,,,,,,,,,,,1296.3057,1302.6448,0,0,0,0,1,SoundStimuli/BridgeOverTroubledWater_SimonAndGarfunkel_Original5S.wav,,,,,,,,,,,,,,,,,,,,,,,,,,,,,,,,,,,,,,,,,,,,,,,,,,,,,,,,,,
,,,,,519423,001,2024-06-17_07h53.54.790,experiment,2024.1.5,Win32,30.03003003,63e2953c6c707d75ae5fcdd2,667045947eb812cbdacbf325,66704cc31c95339dba152e80,,,,,,,,,,,,,,,,,,,,,,,,,,,,,,,,,,,,1302.6548,1309.3854,0,1,1,1,1,SoundStimuli/BridgeOverTroubledWater_SimonAndGarfunkel_Cover5S.wav,,,,,,,,,,,,,,,,,,,,,,,,,,,,,,,,,,,,,,,,,,,,,,,,,,,,,,,,,,
,,,,,519423,001,2024-06-17_07h53.54.790,experiment,2024.1.5,Win32,30.03003003,63e2953c6c707d75ae5fcdd2,667045947eb812cbdacbf325,66704cc31c95339dba152e80,,,,,,,,,,,,,,,,,,,,,,,,,,,,,,,,,,,,,,,,,,,,1309.3855,1314.0188,2.977777778,4.6224,0,9,9,1,1,song_indices/BridgeOverTroubledWater_SimonAndGarfunkel.csv,,,,,,,,,,,,,,,,,,,,,,,,,,,,,,,,,,,,,,,,,,,,,,,,
,,,,,519423,001,2024-06-17_07h53.54.790,experiment,2024.1.5,Win32,30.03003003,63e2953c6c707d75ae5fcdd2,667045947eb812cbdacbf325,66704cc31c95339dba152e80,,,,,,,,,,,,,,,,,,,,,,,,,,,,,,,,,,,,1314.0204,1320.1796,0,0,0,0,1,SoundStimuli/MackTheKnife_BobbyDarin_Original5S.wav,,,,,,,,,,,,,,,,,,,,,,,,,,,,,,,,,,,,,,,,,,,,,,,,,,,,,,,,,,
,,,,,519423,001,2024-06-17_07h53.54.790,experiment,2024.1.5,Win32,30.03003003,63e2953c6c707d75ae5fcdd2,667045947eb812cbdacbf325,66704cc31c95339dba152e80,,,,,,,,,,,,,,,,,,,,,,,,,,,,,,,,,,,,1320.1901,1326.4929,0,1,1,1,1,SoundStimuli/MackTheKnife_BobbyDarin_Cover5S.wav,,,,,,,,,,,,,,,,,,,,,,,,,,,,,,,,,,,,,,,,,,,,,,,,,,,,,,,,,,
,,,,,519423,001,2024-06-17_07h53.54.790,experiment,2024.1.5,Win32,30.03003003,63e2953c6c707d75ae5fcdd2,667045947eb812cbdacbf325,66704cc31c95339dba152e80,,,,,,,,,,,,,,,,,,,,,,,,,,,,,,,,,,,,,,,,,,,,1326.493,1328.5191,2.772222222,2.015,0,10,10,21,1,song_indices/MackTheKnife_BobbyDarin.csv,,,,,,,,,,,,,,,,,,,,,,,,,,,,,,,,,,,,,,,,,,,,,,,,
,,,,,519423,001,2024-06-17_07h53.54.790,experiment,2024.1.5,Win32,30.03003003,63e2953c6c707d75ae5fcdd2,667045947eb812cbdacbf325,66704cc31c95339dba152e80,,,,,,,,,,,,,,,,,,,,,,,,,,,,,,,,,,,,1328.5207,1334.5015,0,0,0,1,1,SoundStimuli/IllMakeLoveToYou_BoyzIIMen_Cover5S.wav,,,,,,,,,,,,,,,,,,,,,,,,,,,,,,,,,,,,,,,,,,,,,,,,,,,,,,,,,,
,,,,,519423,001,2024-06-17_07h53.54.790,experiment,2024.1.5,Win32,30.03003003,63e2953c6c707d75ae5fcdd2,667045947eb812cbdacbf325,66704cc31c95339dba152e80,,,,,,,,,,,,,,,,,,,,,,,,,,,,,,,,,,,,1334.5118,1340.5941,0,1,1,0,1,SoundStimuli/IllMakeLoveToYou_BoyzIIMen_Original5S.wav,,,,,,,,,,,,,,,,,,,,,,,,,,,,,,,,,,,,,,,,,,,,,,,,,,,,,,,,,,
,,,,,519423,001,2024-06-17_07h53.54.790,experiment,2024.1.5,Win32,30.03003003,63e2953c6c707d75ae5fcdd2,667045947eb812cbdacbf325,66704cc31c95339dba152e80,,,,,,,,,,,,,,,,,,,,,,,,,,,,,,,,,,,,,,,,,,,,1340.5943,1343.148,2.322222222,2.5416,0,11,11,6,1,song_indices/IllMakeLoveToYou_BoyzIIMen.csv,,,,,,,,,,,,,,,,,,,,,,,,,,,,,,,,,,,,,,,,,,,,,,,,
,,,,,519423,001,2024-06-17_07h53.54.790,experiment,2024.1.5,Win32,30.03003003,63e2953c6c707d75ae5fcdd2,667045947eb812cbdacbf325,66704cc31c95339dba152e80,,,,,,,,,,,,,,,,,,,,,,,,,,,,,,,,,,,,1343.1499,1349.2727,0,0,0,0,1,SoundStimuli/HeatWaves_GlassAnimals_Original5S.wav,,,,,,,,,,,,,,,,,,,,,,,,,,,,,,,,,,,,,,,,,,,,,,,,,,,,,,,,,,
,,,,,519423,001,2024-06-17_07h53.54.790,experiment,2024.1.5,Win32,30.03003003,63e2953c6c707d75ae5fcdd2,667045947eb812cbdacbf325,66704cc31c95339dba152e80,,,,,,,,,,,,,,,,,,,,,,,,,,,,,,,,,,,,1349.2828,1357.8935,0,1,1,1,1,SoundStimuli/HeatWaves_GlassAnimals_Cover5S.wav,,,,,,,,,,,,,,,,,,,,,,,,,,,,,,,,,,,,,,,,,,,,,,,,,,,,,,,,,,
,,,,,519423,001,2024-06-17_07h53.54.790,experiment,2024.1.5,Win32,30.03003003,63e2953c6c707d75ae5fcdd2,667045947eb812cbdacbf325,66704cc31c95339dba152e80,,,,,,,,,,,,,,,,,,,,,,,,,,,,,,,,,,,,,,,,,,,,1357.8936,1360.8521,2.644444444,2.9477,0,12,12,10,1,song_indices/HeatWaves_GlassAnimals.csv,,,,,,,,,,,,,,,,,,,,,,,,,,,,,,,,,,,,,,,,,,,,,,,,
,,,,,519423,001,2024-06-17_07h53.54.790,experiment,2024.1.5,Win32,30.03003003,63e2953c6c707d75ae5fcdd2,667045947eb812cbdacbf325,66704cc31c95339dba152e80,,,,,,,,,,,,,,,,,,,,,,,,,,,,,,,,,,,,1360.8536,1369.7378,0,0,0,0,1,SoundStimuli/Perfect_EdSheeran_Original5S.wav,,,,,,,,,,,,,,,,,,,,,,,,,,,,,,,,,,,,,,,,,,,,,,,,,,,,,,,,,,
,,,,,519423,001,2024-06-17_07h53.54.790,experiment,2024.1.5,Win32,30.03003003,63e2953c6c707d75ae5fcdd2,667045947eb812cbdacbf325,66704cc31c95339dba152e80,,,,,,,,,,,,,,,,,,,,,,,,,,,,,,,,,,,,1369.7485,1378.0212,0,1,1,1,1,SoundStimuli/Perfect_EdSheeran_Cover5S.wav,,,,,,,,,,,,,,,,,,,,,,,,,,,,,,,,,,,,,,,,,,,,,,,,,,,,,,,,,,
,,,,,519423,001,2024-06-17_07h53.54.790,experiment,2024.1.5,Win32,30.03003003,63e2953c6c707d75ae5fcdd2,667045947eb812cbdacbf325,66704cc31c95339dba152e80,,,,,,,,,,,,,,,,,,,,,,,,,,,,,,,,,,,,,,,,,,,,1378.0219,1380.5754,3.477777778,2.542,0,13,13,0,1,song_indices/Perfect_EdSheeran.csv,,,,,,,,,,,,,,,,,,,,,,,,,,,,,,,,,,,,,,,,,,,,,,,,
,,,,,519423,001,2024-06-17_07h53.54.790,experiment,2024.1.5,Win32,30.03003003,63e2953c6c707d75ae5fcdd2,667045947eb812cbdacbf325,66704cc31c95339dba152e80,,,,,,,,,,,,,,,,,,,,,,,,,,,,,,,,,,,,1380.5772,1388.3003,0,0,0,1,1,SoundStimuli/LivinOnAPrayer_BonJovi_Cover5S.wav,,,,,,,,,,,,,,,,,,,,,,,,,,,,,,,,,,,,,,,,,,,,,,,,,,,,,,,,,,
,,,,,519423,001,2024-06-17_07h53.54.790,experiment,2024.1.5,Win32,30.03003003,63e2953c6c707d75ae5fcdd2,667045947eb812cbdacbf325,66704cc31c95339dba152e80,,,,,,,,,,,,,,,,,,,,,,,,,,,,,,,,,,,,1388.3108,1394.5549,0,1,1,0,1,SoundStimuli/LivinOnAPrayer_BonJovi_Original5S.wav,,,,,,,,,,,,,,,,,,,,,,,,,,,,,,,,,,,,,,,,,,,,,,,,,,,,,,,,,,
,,,,,519423,001,2024-06-17_07h53.54.790,experiment,2024.1.5,Win32,30.03003003,63e2953c6c707d75ae5fcdd2,667045947eb812cbdacbf325,66704cc31c95339dba152e80,,,,,,,,,,,,,,,,,,,,,,,,,,,,,,,,,,,,,,,,,,,,1394.5552,1398.2713,3.283333333,3.7038,0,14,14,16,1,song_indices/LivinOnAPrayer_BonJovi.csv,,,,,,,,,,,,,,,,,,,,,,,,,,,,,,,,,,,,,,,,,,,,,,,,
,,,,,519423,001,2024-06-17_07h53.54.790,experiment,2024.1.5,Win32,30.03003003,63e2953c6c707d75ae5fcdd2,667045947eb812cbdacbf325,66704cc31c95339dba152e80,,,,,,,,,,,,,,,,,,,,,,,,,,,,,,,,,,,,1398.2732,1404.412,0,0,0,0,1,SoundStimuli/LikeARollingStone_BobDylan_Original5S.wav,,,,,,,,,,,,,,,,,,,,,,,,,,,,,,,,,,,,,,,,,,,,,,,,,,,,,,,,,,
,,,,,519423,001,2024-06-17_07h53.54.790,experiment,2024.1.5,Win32,30.03003003,63e2953c6c707d75ae5fcdd2,667045947eb812cbdacbf325,66704cc31c95339dba152e80,,,,,,,,,,,,,,,,,,,,,,,,,,,,,,,,,,,,1404.4222,1408.8336,0,1,1,1,1,SoundStimuli/LikeARollingStone_BobDylan_Cover5S.wav,,,,,,,,,,,,,,,,,,,,,,,,,,,,,,,,,,,,,,,,,,,,,,,,,,,,,,,,,,
,,,,,519423,001,2024-06-17_07h53.54.790,experiment,2024.1.5,Win32,30.03003003,63e2953c6c707d75ae5fcdd2,667045947eb812cbdacbf325,66704cc31c95339dba152e80,,,,,,,,,,,,,,,,,,,,,,,,,,,,,,,,,,,,,,,,,,,,1408.8338,1412.1051,2.544444444,3.26,0,15,15,12,1,song_indices/LikeARollingStone_BobDylan.csv,,,,,,,,,,,,,,,,,,,,,,,,,,,,,,,,,,,,,,,,,,,,,,,,
,,,,,519423,001,2024-06-17_07h53.54.790,experiment,2024.1.5,Win32,30.03003003,63e2953c6c707d75ae5fcdd2,667045947eb812cbdacbf325,66704cc31c95339dba152e80,,,,,,,,,,,,,,,,,,,,,,,,,,,,,,,,,,,,1412.1068,1418.1587,0,0,0,0,1,SoundStimuli/StayinAlive_BeeGees_Original5S.wav,,,,,,,,,,,,,,,,,,,,,,,,,,,,,,,,,,,,,,,,,,,,,,,,,,,,,,,,,,
,,,,,519423,001,2024-06-17_07h53.54.790,experiment,2024.1.5,Win32,30.03003003,63e2953c6c707d75ae5fcdd2,667045947eb812cbdacbf325,66704cc31c95339dba152e80,,,,,,,,,,,,,,,,,,,,,,,,,,,,,,,,,,,,1418.1693,1424.0673,0,1,1,1,1,SoundStimuli/StayinAlive_BeeGees_Cover5S.wav,,,,,,,,,,,,,,,,,,,,,,,,,,,,,,,,,,,,,,,,,,,,,,,,,,,,,,,,,,
,,,,,519423,001,2024-06-17_07h53.54.790,experiment,2024.1.5,Win32,30.03003003,63e2953c6c707d75ae5fcdd2,667045947eb812cbdacbf325,66704cc31c95339dba152e80,,,,,,,,,,,,,,,,,,,,,,,,,,,,,,,,,,,,,,,,,,,,1424.0675,1425.3774,4.466666667,1.2977,0,16,16,2,1,song_indices/StayinAlive_BeeGees.csv,,,,,,,,,,,,,,,,,,,,,,,,,,,,,,,,,,,,,,,,,,,,,,,,
,,,,,519423,001,2024-06-17_07h53.54.790,experiment,2024.1.5,Win32,30.03003003,63e2953c6c707d75ae5fcdd2,667045947eb812cbdacbf325,66704cc31c95339dba152e80,,,,,,,,,,,,,,,,,,,,,,,,,,,,,,,,,,,,1425.3788,1431.8525,0,0,0,0,1,SoundStimuli/BadDay_DanielPowter_Original5S.wav,,,,,,,,,,,,,,,,,,,,,,,,,,,,,,,,,,,,,,,,,,,,,,,,,,,,,,,,,,
,,,,,519423,001,2024-06-17_07h53.54.790,experiment,2024.1.5,Win32,30.03003003,63e2953c6c707d75ae5fcdd2,667045947eb812cbdacbf325,66704cc31c95339dba152e80,,,,,,,,,,,,,,,,,,,,,,,,,,,,,,,,,,,,1431.8629,1439.3845,0,1,1,1,1,SoundStimuli/BadDay_DanielPowter_Cover5S.wav,,,,,,,,,,,,,,,,,,,,,,,,,,,,,,,,,,,,,,,,,,,,,,,,,,,,,,,,,,
,,,,,519423,001,2024-06-17_07h53.54.790,experiment,2024.1.5,Win32,30.03003003,63e2953c6c707d75ae5fcdd2,667045947eb812cbdacbf325,66704cc31c95339dba152e80,,,,,,,,,,,,,,,,,,,,,,,,,,,,,,,,,,,,,,,,,,,,1439.3847,1441.1533,2.261111111,1.7563,0,17,17,22,1,song_indices/BadDay_DanielPowter.csv,,,,,,,,,,,,,,,,,,,,,,,,,,,,,,,,,,,,,,,,,,,,,,,,
,,,,,519423,001,2024-06-17_07h53.54.790,experiment,2024.1.5,Win32,30.03003003,63e2953c6c707d75ae5fcdd2,667045947eb812cbdacbf325,66704cc31c95339dba152e80,,,,,,,,,,,,,,,,,,,,,,,,,,,,,,,,,,,,1441.1547,1447.4107,0,0,0,0,1,SoundStimuli/Smooth_SantanaRobThomas_Original5S.wav,,,,,,,,,,,,,,,,,,,,,,,,,,,,,,,,,,,,,,,,,,,,,,,,,,,,,,,,,,
,,,,,519423,001,2024-06-17_07h53.54.790,experiment,2024.1.5,Win32,30.03003003,63e2953c6c707d75ae5fcdd2,667045947eb812cbdacbf325,66704cc31c95339dba152e80,,,,,,,,,,,,,,,,,,,,,,,,,,,,,,,,,,,,1447.421,1453.5835,0,1,1,1,1,SoundStimuli/Smooth_SantanaRobThomas_Cover5S.wav,,,,,,,,,,,,,,,,,,,,,,,,,,,,,,,,,,,,,,,,,,,,,,,,,,,,,,,,,,
,,,,,519423,001,2024-06-17_07h53.54.790,experiment,2024.1.5,Win32,30.03003003,63e2953c6c707d75ae5fcdd2,667045947eb812cbdacbf325,66704cc31c95339dba152e80,,,,,,,,,,,,,,,,,,,,,,,,,,,,,,,,,,,,,,,,,,,,1453.5836,1455.8208,6.083333333,2.2257,0,18,18,4,1,song_indices/Smooth_SantanaRobThomas.csv,,,,,,,,,,,,,,,,,,,,,,,,,,,,,,,,,,,,,,,,,,,,,,,,
,,,,,519423,001,2024-06-17_07h53.54.790,experiment,2024.1.5,Win32,30.03003003,63e2953c6c707d75ae5fcdd2,667045947eb812cbdacbf325,66704cc31c95339dba152e80,,,,,,,,,,,,,,,,,,,,,,,,,,,,,,,,,,,,1455.8218,1463.3544,0,0,0,1,1,SoundStimuli/EndlessLove_DianaRossLionelRichie_Cover5S.wav,,,,,,,,,,,,,,,,,,,,,,,,,,,,,,,,,,,,,,,,,,,,,,,,,,,,,,,,,,
,,,,,519423,001,2024-06-17_07h53.54.790,experiment,2024.1.5,Win32,30.03003003,63e2953c6c707d75ae5fcdd2,667045947eb812cbdacbf325,66704cc31c95339dba152e80,,,,,,,,,,,,,,,,,,,,,,,,,,,,,,,,,,,,1463.3647,1469.7431,0,1,1,0,1,SoundStimuli/EndlessLove_DianaRossLionelRichie_Original5S.wav,,,,,,,,,,,,,,,,,,,,,,,,,,,,,,,,,,,,,,,,,,,,,,,,,,,,,,,,,,
,,,,,519423,001,2024-06-17_07h53.54.790,experiment,2024.1.5,Win32,30.03003003,63e2953c6c707d75ae5fcdd2,667045947eb812cbdacbf325,66704cc31c95339dba152e80,,,,,,,,,,,,,,,,,,,,,,,,,,,,,,,,,,,,,,,,,,,,1469.7434,1471.8706,5.883333333,2.1153,0,19,19,3,1,song_indices/EndlessLove_DianaRossLionelRichie.csv,,,,,,,,,,,,,,,,,,,,,,,,,,,,,,,,,,,,,,,,,,,,,,,,
,,,,,519423,001,2024-06-17_07h53.54.790,experiment,2024.1.5,Win32,30.03003003,63e2953c6c707d75ae5fcdd2,667045947eb812cbdacbf325,66704cc31c95339dba152e80,,,,,,,,,,,,,,,,,,,,,,,,,,,,,,,,,,,,1471.8718,1478.4043,0,0,0,1,1,SoundStimuli/OldTownRoad_LilNasX_Cover5S.wav,,,,,,,,,,,,,,,,,,,,,,,,,,,,,,,,,,,,,,,,,,,,,,,,,,,,,,,,,,
,,,,,519423,001,2024-06-17_07h53.54.790,experiment,2024.1.5,Win32,30.03003003,63e2953c6c707d75ae5fcdd2,667045947eb812cbdacbf325,66704cc31c95339dba152e80,,,,,,,,,,,,,,,,,,,,,,,,,,,,,,,,,,,,1478.4152,1485.7957,0,1,1,0,1,SoundStimuli/OldTownRoad_LilNasX_Original5S.wav,,,,,,,,,,,,,,,,,,,,,,,,,,,,,,,,,,,,,,,,,,,,,,,,,,,,,,,,,,
,,,,,519423,001,2024-06-17_07h53.54.790,experiment,2024.1.5,Win32,30.03003003,63e2953c6c707d75ae5fcdd2,667045947eb812cbdacbf325,66704cc31c95339dba152e80,,,,,,,,,,,,,,,,,,,,,,,,,,,,,,,,,,,,,,,,,,,,1485.7959,1488.3701,4.744444444,2.564,0,20,20,20,1,song_indices/OldTownRoad_LilNasX.csv,,,,,,,,,,,,,,,,,,,,,,,,,,,,,,,,,,,,,,,,,,,,,,,,
,,,,,519423,001,2024-06-17_07h53.54.790,experiment,2024.1.5,Win32,30.03003003,63e2953c6c707d75ae5fcdd2,667045947eb812cbdacbf325,66704cc31c95339dba152e80,,,,,,,,,,,,,,,,,,,,,,,,,,,,,,,,,,,,1488.3717,1494.4277,0,0,0,0,1,SoundStimuli/AnotherOneBitesTheDust_Queen_Original5S.wav,,,,,,,,,,,,,,,,,,,,,,,,,,,,,,,,,,,,,,,,,,,,,,,,,,,,,,,,,,
,,,,,519423,001,2024-06-17_07h53.54.790,experiment,2024.1.5,Win32,30.03003003,63e2953c6c707d75ae5fcdd2,667045947eb812cbdacbf325,66704cc31c95339dba152e80,,,,,,,,,,,,,,,,,,,,,,,,,,,,,,,,,,,,1494.4375,1502.5769,0,1,1,1,1,SoundStimuli/AnotherOneBitesTheDust_Queen_Cover5S.wav,,,,,,,,,,,,,,,,,,,,,,,,,,,,,,,,,,,,,,,,,,,,,,,,,,,,,,,,,,
,,,,,519423,001,2024-06-17_07h53.54.790,experiment,2024.1.5,Win32,30.03003003,63e2953c6c707d75ae5fcdd2,667045947eb812cbdacbf325,66704cc31c95339dba152e80,,,,,,,,,,,,,,,,,,,,,,,,,,,,,,,,,,,,,,,,,,,,1502.5772,1504.6079,2.105555556,2.0196,0,21,21,9,1,song_indices/AnotherOneBitesTheDust_Queen.csv,,,,,,,,,,,,,,,,,,,,,,,,,,,,,,,,,,,,,,,,,,,,,,,,
,,,,,519423,001,2024-06-17_07h53.54.790,experiment,2024.1.5,Win32,30.03003003,63e2953c6c707d75ae5fcdd2,667045947eb812cbdacbf325,66704cc31c95339dba152e80,,,,,,,,,,,,,,,,,,,,,,,,,,,,,,,,,,,,1504.6092,1510.4019,0,0,0,0,1,SoundStimuli/IWantToHoldYourHand_TheBeatles_Original5S.wav,,,,,,,,,,,,,,,,,,,,,,,,,,,,,,,,,,,,,,,,,,,,,,,,,,,,,,,,,,
,,,,,519423,001,2024-06-17_07h53.54.790,experiment,2024.1.5,Win32,30.03003003,63e2953c6c707d75ae5fcdd2,667045947eb812cbdacbf325,66704cc31c95339dba152e80,,,,,,,,,,,,,,,,,,,,,,,,,,,,,,,,,,,,1510.4123,1516.478,0,1,1,1,1,SoundStimuli/IWantToHoldYourHand_TheBeatles_Cover5S.wav,,,,,,,,,,,,,,,,,,,,,,,,,,,,,,,,,,,,,,,,,,,,,,,,,,,,,,,,,,
,,,,,519423,001,2024-06-17_07h53.54.790,experiment,2024.1.5,Win32,30.03003003,63e2953c6c707d75ae5fcdd2,667045947eb812cbdacbf325,66704cc31c95339dba152e80,,,,,,,,,,,,,,,,,,,,,,,,,,,,,,,,,,,,,,,,,,,,1516.4781,1517.7507,1.9,1.2617,0,22,22,19,1,song_indices/IWantToHoldYourHand_TheBeatles.csv,,,,,,,,,,,,,,,,,,,,,,,,,,,,,,,,,,,,,,,,,,,,,,,,
,,,,,519423,001,2024-06-17_07h53.54.790,experiment,2024.1.5,Win32,30.03003003,63e2953c6c707d75ae5fcdd2,667045947eb812cbdacbf325,66704cc31c95339dba152e80,,,,,,,,,,,,,,,,,,,,,,,,,,,,,,,,,,,,,,,,,,,,,,,,,,,,,,1517.7508,1517.7513,,,,0,2,2,0,1,choose_song_b1.csv,,,,,,,,,,,,,,,,,,,,,,,,,,,,,,,,,,,,,
,,,,,519423,001,2024-06-17_07h53.54.790,experiment,2024.1.5,Win32,30.03003003,63e2953c6c707d75ae5fcdd2,667045947eb812cbdacbf325,66704cc31c95339dba152e80,,,,,,,,,,,,,,,,,,,,,,,,,,,,,,,,,,,,,,,,,,,,,,,,,,,,,,,,,,,,,,,,,61,Item 4,"Self-taught bass player. Played in garage bands, kegger parties, etc. in Southern California during the ""hair metal explosion"" 1977 - 1984 (ish). Played in a couple basic rock cover bands after that. Haven't played with anybody in a good 25, 30 years now. But I still jam to my self and am constantly trying to learn/write new stuff.",Item 3,"Radio, Youtube",5,3,Hanging out with friends/myself.,Sometimes,Rarely,Rarely,Never,Rarely,Rarely,Always,Always,Never,Never,Sometimes,Rarely,Rarely,Always,Rarely,Rarely,N/A,Metal,Hard Rock,Rock,"Some older stuff I used to like, I don't care for as much anymore. Some older stuff I used to not care for, I appreciate a lot more these days. And I'm always on the listen-out for new/unique upcoming artists.",N/A,0,0,0,0,1,,
,,,,,519423,001,2024-06-17_07h53.54.790,experiment,2024.1.5,Win32,30.03003003,63e2953c6c707d75ae5fcdd2,667045947eb812cbdacbf325,66704cc31c95339dba152e80,,,,,,,,,,,,,,,,,,,,,,,,,,,,,,,,,,,,,,,,,,,,,,,,,,,,,,,,,,,,,,,,,,,,,,,,,,,,,,,,,,,,,,,,,,,,,,,,,,,,2250.9881,2253.0594
