welcome.started,welcome.stopped,space_to_continue.keys,space_to_continue.rt,space_to_continue.duration,participant,session,date,expName,psychopyVersion,OS,frameRate,PROLIFIC_PID,STUDY_ID,SESSION_ID,consent.consent,consent.consent_recontact,consent_check.started,consent_check.stopped,calibration_ready.started,calibration_ready.stopped,cal_ready.keys,cal_ready.rt,cal_ready.duration,calibration.started,calibration.stopped,mouse.x,mouse.y,mouse.leftButton,mouse.midButton,mouse.rightButton,mouse.time,mouse.clicked_name,move_on.keys,move_on.rt,move_on.duration,instructions.started,instructions.stopped,next.keys,next.rt,next.duration,practice_trial.started,practice_trial.stopped,practice_slider.response,practice_slider.rt,ready.started,ready.stopped,key_resp.keys,key_resp.rt,key_resp.duration,play_sound.started,play_sound.stopped,trials.thisRepN,trials.thisTrialN,trials.thisN,trials.thisIndex,trials.ran,orig_or_cover,rating.started,rating.stopped,slider.response,slider.rt,songs.thisRepN,songs.thisTrialN,songs.thisN,songs.thisIndex,songs.ran,song_id,short_break.started,short_break.stopped,space_to_move_on.keys,space_to_move_on.rt,space_to_move_on.duration,blocks.thisRepN,blocks.thisTrialN,blocks.thisN,blocks.thisIndex,blocks.ran,block,survey.age,survey.musician,survey.music_making,survey.listen_time,survey.medium,survey.music_seeking,survey.music_choice,survey.activities,survey.question1.Jazz,survey.question1.Classic rock,survey.question1.Ambient,survey.question1.A cappella,survey.question1.Electronic (EDM),survey.question1.Pop,survey.question1.Reggae,survey.question1.Disco,survey.question1.Hip hop,survey.question1.R&B,survey.question1.Country,survey.question1.Folk/indie,survey.question1.Metal,survey.question1.Latin,survey.question1.Alternative rock,survey.question1.Classical,survey.genres_ranked.text1,survey.genres_ranked.text2,survey.genres_ranked.text3,survey.habit_change,survey.habits,experiment.thisRepN,experiment.thisTrialN,experiment.thisN,experiment.thisIndex,experiment.ran,goodbye.started,goodbye.stopped
0,1.322,space,1.29,,536568,001,2024-06-17_10h43.51.470,experiment,2024.1.5,Win32,40.03202562,66477ac3eb28c24f9eb87e44,667045947eb812cbdacbf325,66704969a19cdef8085ce035,,,,,,,,,,,,,,,,,,,,,,,,,,,,,,,,,,,,,,,,,,,,,,,,,,,,,,,,,,,,,,,,,,,,,,,,,,,,,,,,,,,,,,,,,,,,,,,,,,,,
,,,,,536568,001,2024-06-17_10h43.51.470,experiment,2024.1.5,Win32,40.03202562,66477ac3eb28c24f9eb87e44,667045947eb812cbdacbf325,66704969a19cdef8085ce035,yes,yes,,,,,,,,,,,,,,,,,,,,,,,,,,,,,,,,,,,,,,,,,,,,,,,,,,,,,,,,,,,,,,,,,,,,,,,,,,,,,,,,,,,,,,,,,,,,,,,,,,
,,,,,536568,001,2024-06-17_10h43.51.470,experiment,2024.1.5,Win32,40.03202562,66477ac3eb28c24f9eb87e44,667045947eb812cbdacbf325,66704969a19cdef8085ce035,,,32.013,32.013,,,,,,,,,,,,,,,,,,,,,,,,,,,,,,,,,,,,,,,,,,,,,,,,,,,,,,,,,,,,,,,,,,,,,,,,,,,,,,,,,,,,,,,,,,,,,,,,
,,,,,536568,001,2024-06-17_10h43.51.470,experiment,2024.1.5,Win32,40.03202562,66477ac3eb28c24f9eb87e44,667045947eb812cbdacbf325,66704969a19cdef8085ce035,,,,,32.015,33.828,space,1.779,,33.828,49.967,"[-0.020833333333333332,0.001388888888888889]","[-0.42916666666666664,-0.42083333333333334]","[1,1]","[0,0]","[0,0]","[6.324000000000012,14.80699999999996]","[""play_button"",""play_button""]",right,6.102,,49.968,54.6,space,4.523,,54.6,71.657,5,17.045,71.657,72.849,space,1.15,,72.935,79.18,0,0,0,1,1,SoundStimuli/ItsAllInTheGame_TommyEdwards_Cover5S.wav,,,,,,,,,,,,,,,,,,,,,,,,,,,,,,,,,,,,,,,,,,,,,,,,,,,,,,,,,
,,,,,536568,001,2024-06-17_10h43.51.470,experiment,2024.1.5,Win32,40.03202562,66477ac3eb28c24f9eb87e44,667045947eb812cbdacbf325,66704969a19cdef8085ce035,,,,,,,,,,,,,,,,,,,,,,,,,,,,,,,,,,,,79.181,85.47,0,1,1,0,1,SoundStimuli/ItsAllInTheGame_TommyEdwards_Original5S.wav,,,,,,,,,,,,,,,,,,,,,,,,,,,,,,,,,,,,,,,,,,,,,,,,,,,,,,,,,
,,,,,536568,001,2024-06-17_10h43.51.470,experiment,2024.1.5,Win32,40.03202562,66477ac3eb28c24f9eb87e44,667045947eb812cbdacbf325,66704969a19cdef8085ce035,,,,,,,,,,,,,,,,,,,,,,,,,,,,,,,,,,,,,,,,,,,,85.47,88.233,6.558333333,2.749,0,0,0,13,1,song_indices/ItsAllInTheGame_TommyEdwards.csv,,,,,,,,,,,,,,,,,,,,,,,,,,,,,,,,,,,,,,,,,,,,,,,
,,,,,536568,001,2024-06-17_10h43.51.470,experiment,2024.1.5,Win32,40.03202562,66477ac3eb28c24f9eb87e44,667045947eb812cbdacbf325,66704969a19cdef8085ce035,,,,,,,,,,,,,,,,,,,,,,,,,,,,,,,,,,,,88.257,95.435,0,0,0,1,1,SoundStimuli/IWalkTheLine_JohnnyCash_Cover5S.wav,,,,,,,,,,,,,,,,,,,,,,,,,,,,,,,,,,,,,,,,,,,,,,,,,,,,,,,,,
,,,,,536568,001,2024-06-17_10h43.51.470,experiment,2024.1.5,Win32,40.03202562,66477ac3eb28c24f9eb87e44,667045947eb812cbdacbf325,66704969a19cdef8085ce035,,,,,,,,,,,,,,,,,,,,,,,,,,,,,,,,,,,,95.438,101.425,0,1,1,0,1,SoundStimuli/IWalkTheLine_JohnnyCash_Original5S.wav,,,,,,,,,,,,,,,,,,,,,,,,,,,,,,,,,,,,,,,,,,,,,,,,,,,,,,,,,
,,,,,536568,001,2024-06-17_10h43.51.470,experiment,2024.1.5,Win32,40.03202562,66477ac3eb28c24f9eb87e44,667045947eb812cbdacbf325,66704969a19cdef8085ce035,,,,,,,,,,,,,,,,,,,,,,,,,,,,,,,,,,,,,,,,,,,,101.426,103.4,3.008333333,1.958,0,1,1,17,1,song_indices/IWalkTheLine_JohnnyCash.csv,,,,,,,,,,,,,,,,,,,,,,,,,,,,,,,,,,,,,,,,,,,,,,,
,,,,,536568,001,2024-06-17_10h43.51.470,experiment,2024.1.5,Win32,40.03202562,66477ac3eb28c24f9eb87e44,667045947eb812cbdacbf325,66704969a19cdef8085ce035,,,,,,,,,,,,,,,,,,,,,,,,,,,,,,,,,,,,103.413,110.785,0,0,0,1,1,SoundStimuli/Happy_PharellWilliams_Cover5S.wav,,,,,,,,,,,,,,,,,,,,,,,,,,,,,,,,,,,,,,,,,,,,,,,,,,,,,,,,,
,,,,,536568,001,2024-06-17_10h43.51.470,experiment,2024.1.5,Win32,40.03202562,66477ac3eb28c24f9eb87e44,667045947eb812cbdacbf325,66704969a19cdef8085ce035,,,,,,,,,,,,,,,,,,,,,,,,,,,,,,,,,,,,110.786,118.221,0,1,1,0,1,SoundStimuli/Happy_PharellWilliams_Original5S.wav,,,,,,,,,,,,,,,,,,,,,,,,,,,,,,,,,,,,,,,,,,,,,,,,,,,,,,,,,
,,,,,536568,001,2024-06-17_10h43.51.470,experiment,2024.1.5,Win32,40.03202562,66477ac3eb28c24f9eb87e44,667045947eb812cbdacbf325,66704969a19cdef8085ce035,,,,,,,,,,,,,,,,,,,,,,,,,,,,,,,,,,,,,,,,,,,,118.222,120.988,5.991666667,2.751,0,2,2,7,1,song_indices/Happy_PharellWilliams.csv,,,,,,,,,,,,,,,,,,,,,,,,,,,,,,,,,,,,,,,,,,,,,,,
,,,,,536568,001,2024-06-17_10h43.51.470,experiment,2024.1.5,Win32,40.03202562,66477ac3eb28c24f9eb87e44,667045947eb812cbdacbf325,66704969a19cdef8085ce035,,,,,,,,,,,,,,,,,,,,,,,,,,,,,,,,,,,,121.005,126.949,0,0,0,0,1,SoundStimuli/StandByMe_BenEKing_Original5S.wav,,,,,,,,,,,,,,,,,,,,,,,,,,,,,,,,,,,,,,,,,,,,,,,,,,,,,,,,,
,,,,,536568,001,2024-06-17_10h43.51.470,experiment,2024.1.5,Win32,40.03202562,66477ac3eb28c24f9eb87e44,667045947eb812cbdacbf325,66704969a19cdef8085ce035,,,,,,,,,,,,,,,,,,,,,,,,,,,,,,,,,,,,126.95,133.005,0,1,1,1,1,SoundStimuli/StandByMe_BenEKing_Cover5S.wav,,,,,,,,,,,,,,,,,,,,,,,,,,,,,,,,,,,,,,,,,,,,,,,,,,,,,,,,,
,,,,,536568,001,2024-06-17_10h43.51.470,experiment,2024.1.5,Win32,40.03202562,66477ac3eb28c24f9eb87e44,667045947eb812cbdacbf325,66704969a19cdef8085ce035,,,,,,,,,,,,,,,,,,,,,,,,,,,,,,,,,,,,,,,,,,,,133.005,135.243,3.083333333,2.229,0,3,3,1,1,song_indices/StandByMe_BenEKing.csv,,,,,,,,,,,,,,,,,,,,,,,,,,,,,,,,,,,,,,,,,,,,,,,
,,,,,536568,001,2024-06-17_10h43.51.470,experiment,2024.1.5,Win32,40.03202562,66477ac3eb28c24f9eb87e44,667045947eb812cbdacbf325,66704969a19cdef8085ce035,,,,,,,,,,,,,,,,,,,,,,,,,,,,,,,,,,,,135.27,141.528,0,0,0,0,1,SoundStimuli/TheBoyIsMine_BrandyMonica_Original5S.wav,,,,,,,,,,,,,,,,,,,,,,,,,,,,,,,,,,,,,,,,,,,,,,,,,,,,,,,,,
,,,,,536568,001,2024-06-17_10h43.51.470,experiment,2024.1.5,Win32,40.03202562,66477ac3eb28c24f9eb87e44,667045947eb812cbdacbf325,66704969a19cdef8085ce035,,,,,,,,,,,,,,,,,,,,,,,,,,,,,,,,,,,,141.531,147.51,0,1,1,1,1,SoundStimuli/TheBoyIsMine_BrandyMonica_Cover5S.wav,,,,,,,,,,,,,,,,,,,,,,,,,,,,,,,,,,,,,,,,,,,,,,,,,,,,,,,,,
,,,,,536568,001,2024-06-17_10h43.51.470,experiment,2024.1.5,Win32,40.03202562,66477ac3eb28c24f9eb87e44,667045947eb812cbdacbf325,66704969a19cdef8085ce035,,,,,,,,,,,,,,,,,,,,,,,,,,,,,,,,,,,,,,,,,,,,147.512,149.297,6.033333333,1.765,0,4,4,6,1,song_indices/TheBoyIsMine_BrandyMonica.csv,,,,,,,,,,,,,,,,,,,,,,,,,,,,,,,,,,,,,,,,,,,,,,,
,,,,,536568,001,2024-06-17_10h43.51.470,experiment,2024.1.5,Win32,40.03202562,66477ac3eb28c24f9eb87e44,667045947eb812cbdacbf325,66704969a19cdef8085ce035,,,,,,,,,,,,,,,,,,,,,,,,,,,,,,,,,,,,149.313,155.528,0,0,0,0,1,SoundStimuli/Fallin_AliciaKeys_Original5S.wav,,,,,,,,,,,,,,,,,,,,,,,,,,,,,,,,,,,,,,,,,,,,,,,,,,,,,,,,,
,,,,,536568,001,2024-06-17_10h43.51.470,experiment,2024.1.5,Win32,40.03202562,66477ac3eb28c24f9eb87e44,667045947eb812cbdacbf325,66704969a19cdef8085ce035,,,,,,,,,,,,,,,,,,,,,,,,,,,,,,,,,,,,155.539,162.034,0,1,1,1,1,SoundStimuli/Fallin_AliciaKeys_Cover5S.wav,,,,,,,,,,,,,,,,,,,,,,,,,,,,,,,,,,,,,,,,,,,,,,,,,,,,,,,,,
,,,,,536568,001,2024-06-17_10h43.51.470,experiment,2024.1.5,Win32,40.03202562,66477ac3eb28c24f9eb87e44,667045947eb812cbdacbf325,66704969a19cdef8085ce035,,,,,,,,,,,,,,,,,,,,,,,,,,,,,,,,,,,,,,,,,,,,162.039,163.182,4.491666667,1.133,0,5,5,12,1,song_indices/Fallin_AliciaKeys.csv,,,,,,,,,,,,,,,,,,,,,,,,,,,,,,,,,,,,,,,,,,,,,,,
,,,,,536568,001,2024-06-17_10h43.51.470,experiment,2024.1.5,Win32,40.03202562,66477ac3eb28c24f9eb87e44,667045947eb812cbdacbf325,66704969a19cdef8085ce035,,,,,,,,,,,,,,,,,,,,,,,,,,,,,,,,,,,,163.197,169.949,0,0,0,0,1,SoundStimuli/PartyRockAnthem_LMFAO_Original5S.wav,,,,,,,,,,,,,,,,,,,,,,,,,,,,,,,,,,,,,,,,,,,,,,,,,,,,,,,,,
,,,,,536568,001,2024-06-17_10h43.51.470,experiment,2024.1.5,Win32,40.03202562,66477ac3eb28c24f9eb87e44,667045947eb812cbdacbf325,66704969a19cdef8085ce035,,,,,,,,,,,,,,,,,,,,,,,,,,,,,,,,,,,,169.952,176.78,0,1,1,1,1,SoundStimuli/PartyRockAnthem_LMFAO_Cover5S.wav,,,,,,,,,,,,,,,,,,,,,,,,,,,,,,,,,,,,,,,,,,,,,,,,,,,,,,,,,
,,,,,536568,001,2024-06-17_10h43.51.470,experiment,2024.1.5,Win32,40.03202562,66477ac3eb28c24f9eb87e44,667045947eb812cbdacbf325,66704969a19cdef8085ce035,,,,,,,,,,,,,,,,,,,,,,,,,,,,,,,,,,,,,,,,,,,,176.781,178.072,2.341666667,1.284,0,6,6,2,1,song_indices/PartyRockAnthem_LMFAO.csv,,,,,,,,,,,,,,,,,,,,,,,,,,,,,,,,,,,,,,,,,,,,,,,
,,,,,536568,001,2024-06-17_10h43.51.470,experiment,2024.1.5,Win32,40.03202562,66477ac3eb28c24f9eb87e44,667045947eb812cbdacbf325,66704969a19cdef8085ce035,,,,,,,,,,,,,,,,,,,,,,,,,,,,,,,,,,,,178.085,184.179,0,0,0,0,1,SoundStimuli/Stronger_KanyeWest_Original5S.wav,,,,,,,,,,,,,,,,,,,,,,,,,,,,,,,,,,,,,,,,,,,,,,,,,,,,,,,,,
,,,,,536568,001,2024-06-17_10h43.51.470,experiment,2024.1.5,Win32,40.03202562,66477ac3eb28c24f9eb87e44,667045947eb812cbdacbf325,66704969a19cdef8085ce035,,,,,,,,,,,,,,,,,,,,,,,,,,,,,,,,,,,,184.191,190.543,0,1,1,1,1,SoundStimuli/Stronger_KanyeWest_Cover5S.wav,,,,,,,,,,,,,,,,,,,,,,,,,,,,,,,,,,,,,,,,,,,,,,,,,,,,,,,,,
,,,,,536568,001,2024-06-17_10h43.51.470,experiment,2024.1.5,Win32,40.03202562,66477ac3eb28c24f9eb87e44,667045947eb812cbdacbf325,66704969a19cdef8085ce035,,,,,,,,,,,,,,,,,,,,,,,,,,,,,,,,,,,,,,,,,,,,190.544,192.166,3.033333333,1.602,0,7,7,9,1,song_indices/Stronger_KanyeWest.csv,,,,,,,,,,,,,,,,,,,,,,,,,,,,,,,,,,,,,,,,,,,,,,,
,,,,,536568,001,2024-06-17_10h43.51.470,experiment,2024.1.5,Win32,40.03202562,66477ac3eb28c24f9eb87e44,667045947eb812cbdacbf325,66704969a19cdef8085ce035,,,,,,,,,,,,,,,,,,,,,,,,,,,,,,,,,,,,192.182,198.346,0,0,0,1,1,SoundStimuli/NoScrubs_TLC_Cover5S.wav,,,,,,,,,,,,,,,,,,,,,,,,,,,,,,,,,,,,,,,,,,,,,,,,,,,,,,,,,
,,,,,536568,001,2024-06-17_10h43.51.470,experiment,2024.1.5,Win32,40.03202562,66477ac3eb28c24f9eb87e44,667045947eb812cbdacbf325,66704969a19cdef8085ce035,,,,,,,,,,,,,,,,,,,,,,,,,,,,,,,,,,,,198.347,204.585,0,1,1,0,1,SoundStimuli/NoScrubs_TLC_Original5S.wav,,,,,,,,,,,,,,,,,,,,,,,,,,,,,,,,,,,,,,,,,,,,,,,,,,,,,,,,,
,,,,,536568,001,2024-06-17_10h43.51.470,experiment,2024.1.5,Win32,40.03202562,66477ac3eb28c24f9eb87e44,667045947eb812cbdacbf325,66704969a19cdef8085ce035,,,,,,,,,,,,,,,,,,,,,,,,,,,,,,,,,,,,,,,,,,,,204.587,206.847,6.025,2.253,0,8,8,14,1,song_indices/NoScrubs_TLC.csv,,,,,,,,,,,,,,,,,,,,,,,,,,,,,,,,,,,,,,,,,,,,,,,
,,,,,536568,001,2024-06-17_10h43.51.470,experiment,2024.1.5,Win32,40.03202562,66477ac3eb28c24f9eb87e44,667045947eb812cbdacbf325,66704969a19cdef8085ce035,,,,,,,,,,,,,,,,,,,,,,,,,,,,,,,,,,,,206.864,213.448,0,0,0,1,1,SoundStimuli/GetUrFreakOn_MissyElliot_Cover5S.wav,,,,,,,,,,,,,,,,,,,,,,,,,,,,,,,,,,,,,,,,,,,,,,,,,,,,,,,,,
,,,,,536568,001,2024-06-17_10h43.51.470,experiment,2024.1.5,Win32,40.03202562,66477ac3eb28c24f9eb87e44,667045947eb812cbdacbf325,66704969a19cdef8085ce035,,,,,,,,,,,,,,,,,,,,,,,,,,,,,,,,,,,,213.45,219.561,0,1,1,0,1,SoundStimuli/GetUrFreakOn_MissyElliot_Original5S.wav,,,,,,,,,,,,,,,,,,,,,,,,,,,,,,,,,,,,,,,,,,,,,,,,,,,,,,,,,
,,,,,536568,001,2024-06-17_10h43.51.470,experiment,2024.1.5,Win32,40.03202562,66477ac3eb28c24f9eb87e44,667045947eb812cbdacbf325,66704969a19cdef8085ce035,,,,,,,,,,,,,,,,,,,,,,,,,,,,,,,,,,,,,,,,,,,,219.562,221.718,3.041666667,2.146,0,9,9,18,1,song_indices/GetUrFreakOn_MissyElliot.csv,,,,,,,,,,,,,,,,,,,,,,,,,,,,,,,,,,,,,,,,,,,,,,,
,,,,,536568,001,2024-06-17_10h43.51.470,experiment,2024.1.5,Win32,40.03202562,66477ac3eb28c24f9eb87e44,667045947eb812cbdacbf325,66704969a19cdef8085ce035,,,,,,,,,,,,,,,,,,,,,,,,,,,,,,,,,,,,221.738,227.951,0,0,0,0,1,SoundStimuli/BetteDavisEyes_KimCarnes_Original5S.wav,,,,,,,,,,,,,,,,,,,,,,,,,,,,,,,,,,,,,,,,,,,,,,,,,,,,,,,,,
,,,,,536568,001,2024-06-17_10h43.51.470,experiment,2024.1.5,Win32,40.03202562,66477ac3eb28c24f9eb87e44,667045947eb812cbdacbf325,66704969a19cdef8085ce035,,,,,,,,,,,,,,,,,,,,,,,,,,,,,,,,,,,,227.953,233.654,0,1,1,1,1,SoundStimuli/BetteDavisEyes_KimCarnes_Cover5S.wav,,,,,,,,,,,,,,,,,,,,,,,,,,,,,,,,,,,,,,,,,,,,,,,,,,,,,,,,,
,,,,,536568,001,2024-06-17_10h43.51.470,experiment,2024.1.5,Win32,40.03202562,66477ac3eb28c24f9eb87e44,667045947eb812cbdacbf325,66704969a19cdef8085ce035,,,,,,,,,,,,,,,,,,,,,,,,,,,,,,,,,,,,,,,,,,,,233.654,235.246,5.041666667,1.57,0,10,10,5,1,song_indices/BetteDavisEyes_KimCarnes.csv,,,,,,,,,,,,,,,,,,,,,,,,,,,,,,,,,,,,,,,,,,,,,,,
,,,,,536568,001,2024-06-17_10h43.51.470,experiment,2024.1.5,Win32,40.03202562,66477ac3eb28c24f9eb87e44,667045947eb812cbdacbf325,66704969a19cdef8085ce035,,,,,,,,,,,,,,,,,,,,,,,,,,,,,,,,,,,,235.266,241.157,0,0,0,1,1,SoundStimuli/IWillAlwaysLoveYou_WhitneyHouston_Cover5S.wav,,,,,,,,,,,,,,,,,,,,,,,,,,,,,,,,,,,,,,,,,,,,,,,,,,,,,,,,,
,,,,,536568,001,2024-06-17_10h43.51.470,experiment,2024.1.5,Win32,40.03202562,66477ac3eb28c24f9eb87e44,667045947eb812cbdacbf325,66704969a19cdef8085ce035,,,,,,,,,,,,,,,,,,,,,,,,,,,,,,,,,,,,241.159,247.591,0,1,1,0,1,SoundStimuli/IWillAlwaysLoveYou_WhitneyHouston_Original5S.wav,,,,,,,,,,,,,,,,,,,,,,,,,,,,,,,,,,,,,,,,,,,,,,,,,,,,,,,,,
,,,,,536568,001,2024-06-17_10h43.51.470,experiment,2024.1.5,Win32,40.03202562,66477ac3eb28c24f9eb87e44,667045947eb812cbdacbf325,66704969a19cdef8085ce035,,,,,,,,,,,,,,,,,,,,,,,,,,,,,,,,,,,,,,,,,,,,247.592,248.717,6.991666667,1.118,0,11,11,10,1,song_indices/IWillAlwaysLoveYou_WhitneyHouston.csv,,,,,,,,,,,,,,,,,,,,,,,,,,,,,,,,,,,,,,,,,,,,,,,
,,,,,536568,001,2024-06-17_10h43.51.470,experiment,2024.1.5,Win32,40.03202562,66477ac3eb28c24f9eb87e44,667045947eb812cbdacbf325,66704969a19cdef8085ce035,,,,,,,,,,,,,,,,,,,,,,,,,,,,,,,,,,,,248.728,254.883,0,0,0,1,1,SoundStimuli/EyeOfTheTiger_Survivor_Cover5S.wav,,,,,,,,,,,,,,,,,,,,,,,,,,,,,,,,,,,,,,,,,,,,,,,,,,,,,,,,,
,,,,,536568,001,2024-06-17_10h43.51.470,experiment,2024.1.5,Win32,40.03202562,66477ac3eb28c24f9eb87e44,667045947eb812cbdacbf325,66704969a19cdef8085ce035,,,,,,,,,,,,,,,,,,,,,,,,,,,,,,,,,,,,254.891,260.821,0,1,1,0,1,SoundStimuli/EyeOfTheTiger_Survivor_Original5S.wav,,,,,,,,,,,,,,,,,,,,,,,,,,,,,,,,,,,,,,,,,,,,,,,,,,,,,,,,,
,,,,,536568,001,2024-06-17_10h43.51.470,experiment,2024.1.5,Win32,40.03202562,66477ac3eb28c24f9eb87e44,667045947eb812cbdacbf325,66704969a19cdef8085ce035,,,,,,,,,,,,,,,,,,,,,,,,,,,,,,,,,,,,,,,,,,,,260.822,262.165,5.008333333,1.339,0,12,12,11,1,song_indices/EyeOfTheTiger_Survivor.csv,,,,,,,,,,,,,,,,,,,,,,,,,,,,,,,,,,,,,,,,,,,,,,,
,,,,,536568,001,2024-06-17_10h43.51.470,experiment,2024.1.5,Win32,40.03202562,66477ac3eb28c24f9eb87e44,667045947eb812cbdacbf325,66704969a19cdef8085ce035,,,,,,,,,,,,,,,,,,,,,,,,,,,,,,,,,,,,262.197,268.292,0,0,0,0,1,SoundStimuli/GimmeShelter_RollingStones_Original5S.wav,,,,,,,,,,,,,,,,,,,,,,,,,,,,,,,,,,,,,,,,,,,,,,,,,,,,,,,,,
,,,,,536568,001,2024-06-17_10h43.51.470,experiment,2024.1.5,Win32,40.03202562,66477ac3eb28c24f9eb87e44,667045947eb812cbdacbf325,66704969a19cdef8085ce035,,,,,,,,,,,,,,,,,,,,,,,,,,,,,,,,,,,,268.294,274.548,0,1,1,1,1,SoundStimuli/GimmeShelter_RollingStones_Cover5S.wav,,,,,,,,,,,,,,,,,,,,,,,,,,,,,,,,,,,,,,,,,,,,,,,,,,,,,,,,,
,,,,,536568,001,2024-06-17_10h43.51.470,experiment,2024.1.5,Win32,40.03202562,66477ac3eb28c24f9eb87e44,667045947eb812cbdacbf325,66704969a19cdef8085ce035,,,,,,,,,,,,,,,,,,,,,,,,,,,,,,,,,,,,,,,,,,,,274.549,276.375,3.566666667,1.821,0,13,13,20,1,song_indices/GimmeShelter_RollingStones.csv,,,,,,,,,,,,,,,,,,,,,,,,,,,,,,,,,,,,,,,,,,,,,,,
,,,,,536568,001,2024-06-17_10h43.51.470,experiment,2024.1.5,Win32,40.03202562,66477ac3eb28c24f9eb87e44,667045947eb812cbdacbf325,66704969a19cdef8085ce035,,,,,,,,,,,,,,,,,,,,,,,,,,,,,,,,,,,,276.389,286.651,0,0,0,1,1,SoundStimuli/CrazyInLove_BeyonceFtJayZ_Cover5S.wav,,,,,,,,,,,,,,,,,,,,,,,,,,,,,,,,,,,,,,,,,,,,,,,,,,,,,,,,,
,,,,,536568,001,2024-06-17_10h43.51.470,experiment,2024.1.5,Win32,40.03202562,66477ac3eb28c24f9eb87e44,667045947eb812cbdacbf325,66704969a19cdef8085ce035,,,,,,,,,,,,,,,,,,,,,,,,,,,,,,,,,,,,286.658,293.209,0,1,1,0,1,SoundStimuli/CrazyInLove_BeyonceFtJayZ_Original5S.wav,,,,,,,,,,,,,,,,,,,,,,,,,,,,,,,,,,,,,,,,,,,,,,,,,,,,,,,,,
,,,,,536568,001,2024-06-17_10h43.51.470,experiment,2024.1.5,Win32,40.03202562,66477ac3eb28c24f9eb87e44,667045947eb812cbdacbf325,66704969a19cdef8085ce035,,,,,,,,,,,,,,,,,,,,,,,,,,,,,,,,,,,,,,,,,,,,293.209,294.616,6.008333333,1.402,0,14,14,3,1,song_indices/CrazyInLove_BeyonceFtJayZ.csv,,,,,,,,,,,,,,,,,,,,,,,,,,,,,,,,,,,,,,,,,,,,,,,
,,,,,536568,001,2024-06-17_10h43.51.470,experiment,2024.1.5,Win32,40.03202562,66477ac3eb28c24f9eb87e44,667045947eb812cbdacbf325,66704969a19cdef8085ce035,,,,,,,,,,,,,,,,,,,,,,,,,,,,,,,,,,,,294.647,300.902,0,0,0,0,1,SoundStimuli/SmellsLikeTeenSpirit_Nirvana_Original5S.wav,,,,,,,,,,,,,,,,,,,,,,,,,,,,,,,,,,,,,,,,,,,,,,,,,,,,,,,,,
,,,,,536568,001,2024-06-17_10h43.51.470,experiment,2024.1.5,Win32,40.03202562,66477ac3eb28c24f9eb87e44,667045947eb812cbdacbf325,66704969a19cdef8085ce035,,,,,,,,,,,,,,,,,,,,,,,,,,,,,,,,,,,,300.905,306.709,0,1,1,1,1,SoundStimuli/SmellsLikeTeenSpirit_Nirvana_Cover5S.wav,,,,,,,,,,,,,,,,,,,,,,,,,,,,,,,,,,,,,,,,,,,,,,,,,,,,,,,,,
,,,,,536568,001,2024-06-17_10h43.51.470,experiment,2024.1.5,Win32,40.03202562,66477ac3eb28c24f9eb87e44,667045947eb812cbdacbf325,66704969a19cdef8085ce035,,,,,,,,,,,,,,,,,,,,,,,,,,,,,,,,,,,,,,,,,,,,306.71,308.238,5.491666667,1.525,0,15,15,8,1,song_indices/SmellsLikeTeenSpirit_Nirvana.csv,,,,,,,,,,,,,,,,,,,,,,,,,,,,,,,,,,,,,,,,,,,,,,,
,,,,,536568,001,2024-06-17_10h43.51.470,experiment,2024.1.5,Win32,40.03202562,66477ac3eb28c24f9eb87e44,667045947eb812cbdacbf325,66704969a19cdef8085ce035,,,,,,,,,,,,,,,,,,,,,,,,,,,,,,,,,,,,308.251,315.299,0,0,0,1,1,SoundStimuli/UptownFunk_MarkRonson_Cover5S.wav,,,,,,,,,,,,,,,,,,,,,,,,,,,,,,,,,,,,,,,,,,,,,,,,,,,,,,,,,
,,,,,536568,001,2024-06-17_10h43.51.470,experiment,2024.1.5,Win32,40.03202562,66477ac3eb28c24f9eb87e44,667045947eb812cbdacbf325,66704969a19cdef8085ce035,,,,,,,,,,,,,,,,,,,,,,,,,,,,,,,,,,,,315.3,322.541,0,1,1,0,1,SoundStimuli/UptownFunk_MarkRonson_Original5S.wav,,,,,,,,,,,,,,,,,,,,,,,,,,,,,,,,,,,,,,,,,,,,,,,,,,,,,,,,,
,,,,,536568,001,2024-06-17_10h43.51.470,experiment,2024.1.5,Win32,40.03202562,66477ac3eb28c24f9eb87e44,667045947eb812cbdacbf325,66704969a19cdef8085ce035,,,,,,,,,,,,,,,,,,,,,,,,,,,,,,,,,,,,,,,,,,,,322.544,323.78,6.825,1.224,0,16,16,15,1,song_indices/UptownFunk_MarkRonson.csv,,,,,,,,,,,,,,,,,,,,,,,,,,,,,,,,,,,,,,,,,,,,,,,
,,,,,536568,001,2024-06-17_10h43.51.470,experiment,2024.1.5,Win32,40.03202562,66477ac3eb28c24f9eb87e44,667045947eb812cbdacbf325,66704969a19cdef8085ce035,,,,,,,,,,,,,,,,,,,,,,,,,,,,,,,,,,,,323.798,330.131,0,0,0,0,1,SoundStimuli/RockWithYou_MichaelJackson_Original5S.wav,,,,,,,,,,,,,,,,,,,,,,,,,,,,,,,,,,,,,,,,,,,,,,,,,,,,,,,,,
,,,,,536568,001,2024-06-17_10h43.51.470,experiment,2024.1.5,Win32,40.03202562,66477ac3eb28c24f9eb87e44,667045947eb812cbdacbf325,66704969a19cdef8085ce035,,,,,,,,,,,,,,,,,,,,,,,,,,,,,,,,,,,,330.132,336.22,0,1,1,1,1,SoundStimuli/RockWithYou_MichaelJackson_Cover5S.wav,,,,,,,,,,,,,,,,,,,,,,,,,,,,,,,,,,,,,,,,,,,,,,,,,,,,,,,,,
,,,,,536568,001,2024-06-17_10h43.51.470,experiment,2024.1.5,Win32,40.03202562,66477ac3eb28c24f9eb87e44,667045947eb812cbdacbf325,66704969a19cdef8085ce035,,,,,,,,,,,,,,,,,,,,,,,,,,,,,,,,,,,,,,,,,,,,336.221,337.717,3.358333333,1.491,0,17,17,16,1,song_indices/RockWithYou_MichaelJackson.csv,,,,,,,,,,,,,,,,,,,,,,,,,,,,,,,,,,,,,,,,,,,,,,,
,,,,,536568,001,2024-06-17_10h43.51.470,experiment,2024.1.5,Win32,40.03202562,66477ac3eb28c24f9eb87e44,667045947eb812cbdacbf325,66704969a19cdef8085ce035,,,,,,,,,,,,,,,,,,,,,,,,,,,,,,,,,,,,337.731,345.477,0,0,0,0,1,SoundStimuli/NoOne_AliciaKeys_Original5S.wav,,,,,,,,,,,,,,,,,,,,,,,,,,,,,,,,,,,,,,,,,,,,,,,,,,,,,,,,,
,,,,,536568,001,2024-06-17_10h43.51.470,experiment,2024.1.5,Win32,40.03202562,66477ac3eb28c24f9eb87e44,667045947eb812cbdacbf325,66704969a19cdef8085ce035,,,,,,,,,,,,,,,,,,,,,,,,,,,,,,,,,,,,345.48,351.773,0,1,1,1,1,SoundStimuli/NoOne_AliciaKeys_Cover5S.wav,,,,,,,,,,,,,,,,,,,,,,,,,,,,,,,,,,,,,,,,,,,,,,,,,,,,,,,,,
,,,,,536568,001,2024-06-17_10h43.51.470,experiment,2024.1.5,Win32,40.03202562,66477ac3eb28c24f9eb87e44,667045947eb812cbdacbf325,66704969a19cdef8085ce035,,,,,,,,,,,,,,,,,,,,,,,,,,,,,,,,,,,,,,,,,,,,351.775,353.155,3.425,1.362,0,18,18,19,1,song_indices/NoOne_AliciaKeys.csv,,,,,,,,,,,,,,,,,,,,,,,,,,,,,,,,,,,,,,,,,,,,,,,
,,,,,536568,001,2024-06-17_10h43.51.470,experiment,2024.1.5,Win32,40.03202562,66477ac3eb28c24f9eb87e44,667045947eb812cbdacbf325,66704969a19cdef8085ce035,,,,,,,,,,,,,,,,,,,,,,,,,,,,,,,,,,,,353.183,359.534,0,0,0,1,1,SoundStimuli/ShapeofYou_EdSheeran_Cover5S.wav,,,,,,,,,,,,,,,,,,,,,,,,,,,,,,,,,,,,,,,,,,,,,,,,,,,,,,,,,
,,,,,536568,001,2024-06-17_10h43.51.470,experiment,2024.1.5,Win32,40.03202562,66477ac3eb28c24f9eb87e44,667045947eb812cbdacbf325,66704969a19cdef8085ce035,,,,,,,,,,,,,,,,,,,,,,,,,,,,,,,,,,,,359.541,366.055,0,1,1,0,1,SoundStimuli/ShapeofYou_EdSheeran_Original5S.wav,,,,,,,,,,,,,,,,,,,,,,,,,,,,,,,,,,,,,,,,,,,,,,,,,,,,,,,,,
,,,,,536568,001,2024-06-17_10h43.51.470,experiment,2024.1.5,Win32,40.03202562,66477ac3eb28c24f9eb87e44,667045947eb812cbdacbf325,66704969a19cdef8085ce035,,,,,,,,,,,,,,,,,,,,,,,,,,,,,,,,,,,,,,,,,,,,366.056,367.478,3.541666667,1.415,0,19,19,21,1,song_indices/ShapeofYou_EdSheeran.csv,,,,,,,,,,,,,,,,,,,,,,,,,,,,,,,,,,,,,,,,,,,,,,,
,,,,,536568,001,2024-06-17_10h43.51.470,experiment,2024.1.5,Win32,40.03202562,66477ac3eb28c24f9eb87e44,667045947eb812cbdacbf325,66704969a19cdef8085ce035,,,,,,,,,,,,,,,,,,,,,,,,,,,,,,,,,,,,367.487,373.724,0,0,0,0,1,SoundStimuli/TheBattleOfNewOrleans_JohnnyHorton_Original5S.wav,,,,,,,,,,,,,,,,,,,,,,,,,,,,,,,,,,,,,,,,,,,,,,,,,,,,,,,,,
,,,,,536568,001,2024-06-17_10h43.51.470,experiment,2024.1.5,Win32,40.03202562,66477ac3eb28c24f9eb87e44,667045947eb812cbdacbf325,66704969a19cdef8085ce035,,,,,,,,,,,,,,,,,,,,,,,,,,,,,,,,,,,,373.728,381.749,0,1,1,1,1,SoundStimuli/TheBattleOfNewOrleans_JohnnyHorton_Cover5S.wav,,,,,,,,,,,,,,,,,,,,,,,,,,,,,,,,,,,,,,,,,,,,,,,,,,,,,,,,,
,,,,,536568,001,2024-06-17_10h43.51.470,experiment,2024.1.5,Win32,40.03202562,66477ac3eb28c24f9eb87e44,667045947eb812cbdacbf325,66704969a19cdef8085ce035,,,,,,,,,,,,,,,,,,,,,,,,,,,,,,,,,,,,,,,,,,,,381.751,383.041,2.041666667,1.278,0,20,20,4,1,song_indices/TheBattleOfNewOrleans_JohnnyHorton.csv,,,,,,,,,,,,,,,,,,,,,,,,,,,,,,,,,,,,,,,,,,,,,,,
,,,,,536568,001,2024-06-17_10h43.51.470,experiment,2024.1.5,Win32,40.03202562,66477ac3eb28c24f9eb87e44,667045947eb812cbdacbf325,66704969a19cdef8085ce035,,,,,,,,,,,,,,,,,,,,,,,,,,,,,,,,,,,,383.071,392.012,0,0,0,1,1,SoundStimuli/HeyYa_Outkast_Cover5S.wav,,,,,,,,,,,,,,,,,,,,,,,,,,,,,,,,,,,,,,,,,,,,,,,,,,,,,,,,,
,,,,,536568,001,2024-06-17_10h43.51.470,experiment,2024.1.5,Win32,40.03202562,66477ac3eb28c24f9eb87e44,667045947eb812cbdacbf325,66704969a19cdef8085ce035,,,,,,,,,,,,,,,,,,,,,,,,,,,,,,,,,,,,392.014,398.345,0,1,1,0,1,SoundStimuli/HeyYa_Outkast_Original5S.wav,,,,,,,,,,,,,,,,,,,,,,,,,,,,,,,,,,,,,,,,,,,,,,,,,,,,,,,,,
,,,,,536568,001,2024-06-17_10h43.51.470,experiment,2024.1.5,Win32,40.03202562,66477ac3eb28c24f9eb87e44,667045947eb812cbdacbf325,66704969a19cdef8085ce035,,,,,,,,,,,,,,,,,,,,,,,,,,,,,,,,,,,,,,,,,,,,398.346,399.567,2.991666667,1.217,0,21,21,22,1,song_indices/HeyYa_Outkast.csv,,,,,,,,,,,,,,,,,,,,,,,,,,,,,,,,,,,,,,,,,,,,,,,
,,,,,536568,001,2024-06-17_10h43.51.470,experiment,2024.1.5,Win32,40.03202562,66477ac3eb28c24f9eb87e44,667045947eb812cbdacbf325,66704969a19cdef8085ce035,,,,,,,,,,,,,,,,,,,,,,,,,,,,,,,,,,,,399.578,405.693,0,0,0,0,1,SoundStimuli/GoodGollyMissMolly_LittleRichard_Original5S.wav,,,,,,,,,,,,,,,,,,,,,,,,,,,,,,,,,,,,,,,,,,,,,,,,,,,,,,,,,
,,,,,536568,001,2024-06-17_10h43.51.470,experiment,2024.1.5,Win32,40.03202562,66477ac3eb28c24f9eb87e44,667045947eb812cbdacbf325,66704969a19cdef8085ce035,,,,,,,,,,,,,,,,,,,,,,,,,,,,,,,,,,,,405.695,412.073,0,1,1,1,1,SoundStimuli/GoodGollyMissMolly_LittleRichard_Cover5S.wav,,,,,,,,,,,,,,,,,,,,,,,,,,,,,,,,,,,,,,,,,,,,,,,,,,,,,,,,,
,,,,,536568,001,2024-06-17_10h43.51.470,experiment,2024.1.5,Win32,40.03202562,66477ac3eb28c24f9eb87e44,667045947eb812cbdacbf325,66704969a19cdef8085ce035,,,,,,,,,,,,,,,,,,,,,,,,,,,,,,,,,,,,,,,,,,,,412.074,413.531,4.608333333,1.442,0,22,22,0,1,song_indices/GoodGollyMissMolly_LittleRichard.csv,,,,,,,,,,,,,,,,,,,,,,,,,,,,,,,,,,,,,,,,,,,,,,,
,,,,,536568,001,2024-06-17_10h43.51.470,experiment,2024.1.5,Win32,40.03202562,66477ac3eb28c24f9eb87e44,667045947eb812cbdacbf325,66704969a19cdef8085ce035,,,,,,,,,,,,,,,,,,,,,,,,,,,,,,,,,,,,,,,,,,,,,,,,,,,,,,413.531,429.043,space,15.458,,0,0,0,1,1,choose_song_b2.csv,,,,,,,,,,,,,,,,,,,,,,,,,,,,,,,,,,,,
,,,,,536568,001,2024-06-17_10h43.51.470,experiment,2024.1.5,Win32,40.03202562,66477ac3eb28c24f9eb87e44,667045947eb812cbdacbf325,66704969a19cdef8085ce035,,,,,,,,,,,,,,,,,,,,,,,,,,,,,,,,,,,,429.072,435.402,0,0,0,0,1,SoundStimuli/Mood_24kGoldnianndior_Original5S.wav,,,,,,,,,,,,,,,,,,,,,,,,,,,,,,,,,,,,,,,,,,,,,,,,,,,,,,,,,
,,,,,536568,001,2024-06-17_10h43.51.470,experiment,2024.1.5,Win32,40.03202562,66477ac3eb28c24f9eb87e44,667045947eb812cbdacbf325,66704969a19cdef8085ce035,,,,,,,,,,,,,,,,,,,,,,,,,,,,,,,,,,,,435.404,443.705,0,1,1,1,1,SoundStimuli/Mood_24kGoldnianndior_Cover5S.wav,,,,,,,,,,,,,,,,,,,,,,,,,,,,,,,,,,,,,,,,,,,,,,,,,,,,,,,,,
,,,,,536568,001,2024-06-17_10h43.51.470,experiment,2024.1.5,Win32,40.03202562,66477ac3eb28c24f9eb87e44,667045947eb812cbdacbf325,66704969a19cdef8085ce035,,,,,,,,,,,,,,,,,,,,,,,,,,,,,,,,,,,,,,,,,,,,443.707,445.379,1.425,1.655,0,0,0,5,1,song_indices/Mood_24kGoldnianndior.csv,,,,,,,,,,,,,,,,,,,,,,,,,,,,,,,,,,,,,,,,,,,,,,,
,,,,,536568,001,2024-06-17_10h43.51.470,experiment,2024.1.5,Win32,40.03202562,66477ac3eb28c24f9eb87e44,667045947eb812cbdacbf325,66704969a19cdef8085ce035,,,,,,,,,,,,,,,,,,,,,,,,,,,,,,,,,,,,445.395,452.279,0,0,0,1,1,SoundStimuli/IWannaDanceWithSomebody_WhitneyHouston_Cover5S.wav,,,,,,,,,,,,,,,,,,,,,,,,,,,,,,,,,,,,,,,,,,,,,,,,,,,,,,,,,
,,,,,536568,001,2024-06-17_10h43.51.470,experiment,2024.1.5,Win32,40.03202562,66477ac3eb28c24f9eb87e44,667045947eb812cbdacbf325,66704969a19cdef8085ce035,,,,,,,,,,,,,,,,,,,,,,,,,,,,,,,,,,,,452.284,457.909,0,1,1,0,1,SoundStimuli/IWannaDanceWithSomebody_WhitneyHouston_Original5S.wav,,,,,,,,,,,,,,,,,,,,,,,,,,,,,,,,,,,,,,,,,,,,,,,,,,,,,,,,,
,,,,,536568,001,2024-06-17_10h43.51.470,experiment,2024.1.5,Win32,40.03202562,66477ac3eb28c24f9eb87e44,667045947eb812cbdacbf325,66704969a19cdef8085ce035,,,,,,,,,,,,,,,,,,,,,,,,,,,,,,,,,,,,,,,,,,,,457.91,460.289,1.075,2.375,0,1,1,13,1,song_indices/IWannaDanceWithSomebody_WhitneyHouston.csv,,,,,,,,,,,,,,,,,,,,,,,,,,,,,,,,,,,,,,,,,,,,,,,
,,,,,536568,001,2024-06-17_10h43.51.470,experiment,2024.1.5,Win32,40.03202562,66477ac3eb28c24f9eb87e44,667045947eb812cbdacbf325,66704969a19cdef8085ce035,,,,,,,,,,,,,,,,,,,,,,,,,,,,,,,,,,,,460.298,466.532,0,0,0,0,1,SoundStimuli/LikeAPrayer_Madonna_Original5S.wav,,,,,,,,,,,,,,,,,,,,,,,,,,,,,,,,,,,,,,,,,,,,,,,,,,,,,,,,,
,,,,,536568,001,2024-06-17_10h43.51.470,experiment,2024.1.5,Win32,40.03202562,66477ac3eb28c24f9eb87e44,667045947eb812cbdacbf325,66704969a19cdef8085ce035,,,,,,,,,,,,,,,,,,,,,,,,,,,,,,,,,,,,466.535,472.788,0,1,1,1,1,SoundStimuli/LikeAPrayer_Madonna_Cover5S.wav,,,,,,,,,,,,,,,,,,,,,,,,,,,,,,,,,,,,,,,,,,,,,,,,,,,,,,,,,
,,,,,536568,001,2024-06-17_10h43.51.470,experiment,2024.1.5,Win32,40.03202562,66477ac3eb28c24f9eb87e44,667045947eb812cbdacbf325,66704969a19cdef8085ce035,,,,,,,,,,,,,,,,,,,,,,,,,,,,,,,,,,,,,,,,,,,,472.792,474.458,6.508333333,1.662,0,2,2,7,1,song_indices/LikeAPrayer_Madonna.csv,,,,,,,,,,,,,,,,,,,,,,,,,,,,,,,,,,,,,,,,,,,,,,,
,,,,,536568,001,2024-06-17_10h43.51.470,experiment,2024.1.5,Win32,40.03202562,66477ac3eb28c24f9eb87e44,667045947eb812cbdacbf325,66704969a19cdef8085ce035,,,,,,,,,,,,,,,,,,,,,,,,,,,,,,,,,,,,474.468,481.974,0,0,0,1,1,SoundStimuli/EndlessLove_DianaRossLionelRichie_Cover5S.wav,,,,,,,,,,,,,,,,,,,,,,,,,,,,,,,,,,,,,,,,,,,,,,,,,,,,,,,,,
,,,,,536568,001,2024-06-17_10h43.51.470,experiment,2024.1.5,Win32,40.03202562,66477ac3eb28c24f9eb87e44,667045947eb812cbdacbf325,66704969a19cdef8085ce035,,,,,,,,,,,,,,,,,,,,,,,,,,,,,,,,,,,,481.977,488.321,0,1,1,0,1,SoundStimuli/EndlessLove_DianaRossLionelRichie_Original5S.wav,,,,,,,,,,,,,,,,,,,,,,,,,,,,,,,,,,,,,,,,,,,,,,,,,,,,,,,,,
,,,,,536568,001,2024-06-17_10h43.51.470,experiment,2024.1.5,Win32,40.03202562,66477ac3eb28c24f9eb87e44,667045947eb812cbdacbf325,66704969a19cdef8085ce035,,,,,,,,,,,,,,,,,,,,,,,,,,,,,,,,,,,,,,,,,,,,488.322,490.077,6.008333333,1.752,0,3,3,3,1,song_indices/EndlessLove_DianaRossLionelRichie.csv,,,,,,,,,,,,,,,,,,,,,,,,,,,,,,,,,,,,,,,,,,,,,,,
,,,,,536568,001,2024-06-17_10h43.51.470,experiment,2024.1.5,Win32,40.03202562,66477ac3eb28c24f9eb87e44,667045947eb812cbdacbf325,66704969a19cdef8085ce035,,,,,,,,,,,,,,,,,,,,,,,,,,,,,,,,,,,,490.108,496.677,0,0,0,1,1,SoundStimuli/OldTownRoad_LilNasX_Cover5S.wav,,,,,,,,,,,,,,,,,,,,,,,,,,,,,,,,,,,,,,,,,,,,,,,,,,,,,,,,,
,,,,,536568,001,2024-06-17_10h43.51.470,experiment,2024.1.5,Win32,40.03202562,66477ac3eb28c24f9eb87e44,667045947eb812cbdacbf325,66704969a19cdef8085ce035,,,,,,,,,,,,,,,,,,,,,,,,,,,,,,,,,,,,496.684,504.105,0,1,1,0,1,SoundStimuli/OldTownRoad_LilNasX_Original5S.wav,,,,,,,,,,,,,,,,,,,,,,,,,,,,,,,,,,,,,,,,,,,,,,,,,,,,,,,,,
,,,,,536568,001,2024-06-17_10h43.51.470,experiment,2024.1.5,Win32,40.03202562,66477ac3eb28c24f9eb87e44,667045947eb812cbdacbf325,66704969a19cdef8085ce035,,,,,,,,,,,,,,,,,,,,,,,,,,,,,,,,,,,,,,,,,,,,504.106,505.548,3.533333333,1.437,0,4,4,20,1,song_indices/OldTownRoad_LilNasX.csv,,,,,,,,,,,,,,,,,,,,,,,,,,,,,,,,,,,,,,,,,,,,,,,
,,,,,536568,001,2024-06-17_10h43.51.470,experiment,2024.1.5,Win32,40.03202562,66477ac3eb28c24f9eb87e44,667045947eb812cbdacbf325,66704969a19cdef8085ce035,,,,,,,,,,,,,,,,,,,,,,,,,,,,,,,,,,,,505.56,511.702,0,0,0,0,1,SoundStimuli/StrawberryFieldsForever_TheBeatles_Original5S.wav,,,,,,,,,,,,,,,,,,,,,,,,,,,,,,,,,,,,,,,,,,,,,,,,,,,,,,,,,
,,,,,536568,001,2024-06-17_10h43.51.470,experiment,2024.1.5,Win32,40.03202562,66477ac3eb28c24f9eb87e44,667045947eb812cbdacbf325,66704969a19cdef8085ce035,,,,,,,,,,,,,,,,,,,,,,,,,,,,,,,,,,,,511.709,518.767,0,1,1,1,1,SoundStimuli/StrawberryFieldsForever_TheBeatles_Cover5S.wav,,,,,,,,,,,,,,,,,,,,,,,,,,,,,,,,,,,,,,,,,,,,,,,,,,,,,,,,,
,,,,,536568,001,2024-06-17_10h43.51.470,experiment,2024.1.5,Win32,40.03202562,66477ac3eb28c24f9eb87e44,667045947eb812cbdacbf325,66704969a19cdef8085ce035,,,,,,,,,,,,,,,,,,,,,,,,,,,,,,,,,,,,,,,,,,,,518.767,520.545,2.5,1.766,0,5,5,14,1,song_indices/StrawberryFieldsForever_TheBeatles.csv,,,,,,,,,,,,,,,,,,,,,,,,,,,,,,,,,,,,,,,,,,,,,,,
,,,,,536568,001,2024-06-17_10h43.51.470,experiment,2024.1.5,Win32,40.03202562,66477ac3eb28c24f9eb87e44,667045947eb812cbdacbf325,66704969a19cdef8085ce035,,,,,,,,,,,,,,,,,,,,,,,,,,,,,,,,,,,,520.572,529.166,0,0,0,1,1,SoundStimuli/HeatWaves_GlassAnimals_Cover5S.wav,,,,,,,,,,,,,,,,,,,,,,,,,,,,,,,,,,,,,,,,,,,,,,,,,,,,,,,,,
,,,,,536568,001,2024-06-17_10h43.51.470,experiment,2024.1.5,Win32,40.03202562,66477ac3eb28c24f9eb87e44,667045947eb812cbdacbf325,66704969a19cdef8085ce035,,,,,,,,,,,,,,,,,,,,,,,,,,,,,,,,,,,,529.167,535.297,0,1,1,0,1,SoundStimuli/HeatWaves_GlassAnimals_Original5S.wav,,,,,,,,,,,,,,,,,,,,,,,,,,,,,,,,,,,,,,,,,,,,,,,,,,,,,,,,,
,,,,,536568,001,2024-06-17_10h43.51.470,experiment,2024.1.5,Win32,40.03202562,66477ac3eb28c24f9eb87e44,667045947eb812cbdacbf325,66704969a19cdef8085ce035,,,,,,,,,,,,,,,,,,,,,,,,,,,,,,,,,,,,,,,,,,,,535.298,536.951,4.358333333,1.642,0,6,6,10,1,song_indices/HeatWaves_GlassAnimals.csv,,,,,,,,,,,,,,,,,,,,,,,,,,,,,,,,,,,,,,,,,,,,,,,
,,,,,536568,001,2024-06-17_10h43.51.470,experiment,2024.1.5,Win32,40.03202562,66477ac3eb28c24f9eb87e44,667045947eb812cbdacbf325,66704969a19cdef8085ce035,,,,,,,,,,,,,,,,,,,,,,,,,,,,,,,,,,,,536.965,543.563,0,0,0,1,1,SoundStimuli/Despacito_LuisFonsiDaddyYankee_Cover5S.wav,,,,,,,,,,,,,,,,,,,,,,,,,,,,,,,,,,,,,,,,,,,,,,,,,,,,,,,,,
,,,,,536568,001,2024-06-17_10h43.51.470,experiment,2024.1.5,Win32,40.03202562,66477ac3eb28c24f9eb87e44,667045947eb812cbdacbf325,66704969a19cdef8085ce035,,,,,,,,,,,,,,,,,,,,,,,,,,,,,,,,,,,,543.569,550.156,0,1,1,0,1,SoundStimuli/Despacito_LuisFonsiDaddyYankee_Original5S.wav,,,,,,,,,,,,,,,,,,,,,,,,,,,,,,,,,,,,,,,,,,,,,,,,,,,,,,,,,
,,,,,536568,001,2024-06-17_10h43.51.470,experiment,2024.1.5,Win32,40.03202562,66477ac3eb28c24f9eb87e44,667045947eb812cbdacbf325,66704969a19cdef8085ce035,,,,,,,,,,,,,,,,,,,,,,,,,,,,,,,,,,,,,,,,,,,,550.157,551.143,3.033333333,0.982,0,7,7,11,1,song_indices/Despacito_LuisFonsiDaddyYankee.csv,,,,,,,,,,,,,,,,,,,,,,,,,,,,,,,,,,,,,,,,,,,,,,,
,,,,,536568,001,2024-06-17_10h43.51.470,experiment,2024.1.5,Win32,40.03202562,66477ac3eb28c24f9eb87e44,667045947eb812cbdacbf325,66704969a19cdef8085ce035,,,,,,,,,,,,,,,,,,,,,,,,,,,,,,,,,,,,551.151,557.211,0,0,0,0,1,SoundStimuli/StayinAlive_BeeGees_Original5S.wav,,,,,,,,,,,,,,,,,,,,,,,,,,,,,,,,,,,,,,,,,,,,,,,,,,,,,,,,,
,,,,,536568,001,2024-06-17_10h43.51.470,experiment,2024.1.5,Win32,40.03202562,66477ac3eb28c24f9eb87e44,667045947eb812cbdacbf325,66704969a19cdef8085ce035,,,,,,,,,,,,,,,,,,,,,,,,,,,,,,,,,,,,557.213,563.061,0,1,1,1,1,SoundStimuli/StayinAlive_BeeGees_Cover5S.wav,,,,,,,,,,,,,,,,,,,,,,,,,,,,,,,,,,,,,,,,,,,,,,,,,,,,,,,,,
,,,,,536568,001,2024-06-17_10h43.51.470,experiment,2024.1.5,Win32,40.03202562,66477ac3eb28c24f9eb87e44,667045947eb812cbdacbf325,66704969a19cdef8085ce035,,,,,,,,,,,,,,,,,,,,,,,,,,,,,,,,,,,,,,,,,,,,563.061,564.353,5.966666667,1.288,0,8,8,2,1,song_indices/StayinAlive_BeeGees.csv,,,,,,,,,,,,,,,,,,,,,,,,,,,,,,,,,,,,,,,,,,,,,,,
,,,,,536568,001,2024-06-17_10h43.51.470,experiment,2024.1.5,Win32,40.03202562,66477ac3eb28c24f9eb87e44,667045947eb812cbdacbf325,66704969a19cdef8085ce035,,,,,,,,,,,,,,,,,,,,,,,,,,,,,,,,,,,,564.36,570.176,0,0,0,0,1,SoundStimuli/IWantToHoldYourHand_TheBeatles_Original5S.wav,,,,,,,,,,,,,,,,,,,,,,,,,,,,,,,,,,,,,,,,,,,,,,,,,,,,,,,,,
,,,,,536568,001,2024-06-17_10h43.51.470,experiment,2024.1.5,Win32,40.03202562,66477ac3eb28c24f9eb87e44,667045947eb812cbdacbf325,66704969a19cdef8085ce035,,,,,,,,,,,,,,,,,,,,,,,,,,,,,,,,,,,,570.186,576.265,0,1,1,1,1,SoundStimuli/IWantToHoldYourHand_TheBeatles_Cover5S.wav,,,,,,,,,,,,,,,,,,,,,,,,,,,,,,,,,,,,,,,,,,,,,,,,,,,,,,,,,
,,,,,536568,001,2024-06-17_10h43.51.470,experiment,2024.1.5,Win32,40.03202562,66477ac3eb28c24f9eb87e44,667045947eb812cbdacbf325,66704969a19cdef8085ce035,,,,,,,,,,,,,,,,,,,,,,,,,,,,,,,,,,,,,,,,,,,,576.266,578.77,3.041666667,2.498,0,9,9,19,1,song_indices/IWantToHoldYourHand_TheBeatles.csv,,,,,,,,,,,,,,,,,,,,,,,,,,,,,,,,,,,,,,,,,,,,,,,
,,,,,536568,001,2024-06-17_10h43.51.470,experiment,2024.1.5,Win32,40.03202562,66477ac3eb28c24f9eb87e44,667045947eb812cbdacbf325,66704969a19cdef8085ce035,,,,,,,,,,,,,,,,,,,,,,,,,,,,,,,,,,,,578.789,586.471,0,0,0,1,1,SoundStimuli/LivinOnAPrayer_BonJovi_Cover5S.wav,,,,,,,,,,,,,,,,,,,,,,,,,,,,,,,,,,,,,,,,,,,,,,,,,,,,,,,,,
,,,,,536568,001,2024-06-17_10h43.51.470,experiment,2024.1.5,Win32,40.03202562,66477ac3eb28c24f9eb87e44,667045947eb812cbdacbf325,66704969a19cdef8085ce035,,,,,,,,,,,,,,,,,,,,,,,,,,,,,,,,,,,,586.472,592.771,0,1,1,0,1,SoundStimuli/LivinOnAPrayer_BonJovi_Original5S.wav,,,,,,,,,,,,,,,,,,,,,,,,,,,,,,,,,,,,,,,,,,,,,,,,,,,,,,,,,
,,,,,536568,001,2024-06-17_10h43.51.470,experiment,2024.1.5,Win32,40.03202562,66477ac3eb28c24f9eb87e44,667045947eb812cbdacbf325,66704969a19cdef8085ce035,,,,,,,,,,,,,,,,,,,,,,,,,,,,,,,,,,,,,,,,,,,,592.771,594.993,1.075,2.216,0,10,10,16,1,song_indices/LivinOnAPrayer_BonJovi.csv,,,,,,,,,,,,,,,,,,,,,,,,,,,,,,,,,,,,,,,,,,,,,,,
,,,,,536568,001,2024-06-17_10h43.51.470,experiment,2024.1.5,Win32,40.03202562,66477ac3eb28c24f9eb87e44,667045947eb812cbdacbf325,66704969a19cdef8085ce035,,,,,,,,,,,,,,,,,,,,,,,,,,,,,,,,,,,,595.003,601.062,0,0,0,0,1,SoundStimuli/AChangeIsGonnaCome_SamCooke_Original5S.wav,,,,,,,,,,,,,,,,,,,,,,,,,,,,,,,,,,,,,,,,,,,,,,,,,,,,,,,,,
,,,,,536568,001,2024-06-17_10h43.51.470,experiment,2024.1.5,Win32,40.03202562,66477ac3eb28c24f9eb87e44,667045947eb812cbdacbf325,66704969a19cdef8085ce035,,,,,,,,,,,,,,,,,,,,,,,,,,,,,,,,,,,,601.071,605.832,0,1,1,1,1,SoundStimuli/AChangeIsGonnaCome_SamCooke_Cover5S.wav,,,,,,,,,,,,,,,,,,,,,,,,,,,,,,,,,,,,,,,,,,,,,,,,,,,,,,,,,
,,,,,536568,001,2024-06-17_10h43.51.470,experiment,2024.1.5,Win32,40.03202562,66477ac3eb28c24f9eb87e44,667045947eb812cbdacbf325,66704969a19cdef8085ce035,,,,,,,,,,,,,,,,,,,,,,,,,,,,,,,,,,,,,,,,,,,,605.833,607.207,2.875,1.36,0,11,11,17,1,song_indices/AChangeIsGonnaCome_SamCooke.csv,,,,,,,,,,,,,,,,,,,,,,,,,,,,,,,,,,,,,,,,,,,,,,,
,,,,,536568,001,2024-06-17_10h43.51.470,experiment,2024.1.5,Win32,40.03202562,66477ac3eb28c24f9eb87e44,667045947eb812cbdacbf325,66704969a19cdef8085ce035,,,,,,,,,,,,,,,,,,,,,,,,,,,,,,,,,,,,607.225,611.327,0,0,0,1,1,SoundStimuli/BohemianRhapsody_Queen_Cover5S.wav,,,,,,,,,,,,,,,,,,,,,,,,,,,,,,,,,,,,,,,,,,,,,,,,,,,,,,,,,
,,,,,536568,001,2024-06-17_10h43.51.470,experiment,2024.1.5,Win32,40.03202562,66477ac3eb28c24f9eb87e44,667045947eb812cbdacbf325,66704969a19cdef8085ce035,,,,,,,,,,,,,,,,,,,,,,,,,,,,,,,,,,,,611.329,617.311,0,1,1,0,1,SoundStimuli/BohemianRhapsody_Queen_Original5S.wav,,,,,,,,,,,,,,,,,,,,,,,,,,,,,,,,,,,,,,,,,,,,,,,,,,,,,,,,,
,,,,,536568,001,2024-06-17_10h43.51.470,experiment,2024.1.5,Win32,40.03202562,66477ac3eb28c24f9eb87e44,667045947eb812cbdacbf325,66704969a19cdef8085ce035,,,,,,,,,,,,,,,,,,,,,,,,,,,,,,,,,,,,,,,,,,,,617.313,619.1,3.391666667,1.78,0,12,12,18,1,song_indices/BohemianRhapsody_Queen.csv,,,,,,,,,,,,,,,,,,,,,,,,,,,,,,,,,,,,,,,,,,,,,,,
,,,,,536568,001,2024-06-17_10h43.51.470,experiment,2024.1.5,Win32,40.03202562,66477ac3eb28c24f9eb87e44,667045947eb812cbdacbf325,66704969a19cdef8085ce035,,,,,,,,,,,,,,,,,,,,,,,,,,,,,,,,,,,,619.112,625.075,0,0,0,1,1,SoundStimuli/IllMakeLoveToYou_BoyzIIMen_Cover5S.wav,,,,,,,,,,,,,,,,,,,,,,,,,,,,,,,,,,,,,,,,,,,,,,,,,,,,,,,,,
,,,,,536568,001,2024-06-17_10h43.51.470,experiment,2024.1.5,Win32,40.03202562,66477ac3eb28c24f9eb87e44,667045947eb812cbdacbf325,66704969a19cdef8085ce035,,,,,,,,,,,,,,,,,,,,,,,,,,,,,,,,,,,,625.077,631.21,0,1,1,0,1,SoundStimuli/IllMakeLoveToYou_BoyzIIMen_Original5S.wav,,,,,,,,,,,,,,,,,,,,,,,,,,,,,,,,,,,,,,,,,,,,,,,,,,,,,,,,,
,,,,,536568,001,2024-06-17_10h43.51.470,experiment,2024.1.5,Win32,40.03202562,66477ac3eb28c24f9eb87e44,667045947eb812cbdacbf325,66704969a19cdef8085ce035,,,,,,,,,,,,,,,,,,,,,,,,,,,,,,,,,,,,,,,,,,,,631.214,632.281,3.508333333,1.048,0,13,13,6,1,song_indices/IllMakeLoveToYou_BoyzIIMen.csv,,,,,,,,,,,,,,,,,,,,,,,,,,,,,,,,,,,,,,,,,,,,,,,
,,,,,536568,001,2024-06-17_10h43.51.470,experiment,2024.1.5,Win32,40.03202562,66477ac3eb28c24f9eb87e44,667045947eb812cbdacbf325,66704969a19cdef8085ce035,,,,,,,,,,,,,,,,,,,,,,,,,,,,,,,,,,,,632.312,638.564,0,0,0,0,1,SoundStimuli/GodOnlyKnows_TheBeachBoys_Original5S.wav,,,,,,,,,,,,,,,,,,,,,,,,,,,,,,,,,,,,,,,,,,,,,,,,,,,,,,,,,
,,,,,536568,001,2024-06-17_10h43.51.470,experiment,2024.1.5,Win32,40.03202562,66477ac3eb28c24f9eb87e44,667045947eb812cbdacbf325,66704969a19cdef8085ce035,,,,,,,,,,,,,,,,,,,,,,,,,,,,,,,,,,,,638.566,645.479,0,1,1,1,1,SoundStimuli/GodOnlyKnows_TheBeachBoys_Cover5S.wav,,,,,,,,,,,,,,,,,,,,,,,,,,,,,,,,,,,,,,,,,,,,,,,,,,,,,,,,,
,,,,,536568,001,2024-06-17_10h43.51.470,experiment,2024.1.5,Win32,40.03202562,66477ac3eb28c24f9eb87e44,667045947eb812cbdacbf325,66704969a19cdef8085ce035,,,,,,,,,,,,,,,,,,,,,,,,,,,,,,,,,,,,,,,,,,,,645.48,647.497,2.916666667,2.006,0,14,14,8,1,song_indices/GodOnlyKnows_TheBeachBoys.csv,,,,,,,,,,,,,,,,,,,,,,,,,,,,,,,,,,,,,,,,,,,,,,,
,,,,,536568,001,2024-06-17_10h43.51.470,experiment,2024.1.5,Win32,40.03202562,66477ac3eb28c24f9eb87e44,667045947eb812cbdacbf325,66704969a19cdef8085ce035,,,,,,,,,,,,,,,,,,,,,,,,,,,,,,,,,,,,647.51,655.651,0,0,0,1,1,SoundStimuli/AnotherOneBitesTheDust_Queen_Cover5S.wav,,,,,,,,,,,,,,,,,,,,,,,,,,,,,,,,,,,,,,,,,,,,,,,,,,,,,,,,,
,,,,,536568,001,2024-06-17_10h43.51.470,experiment,2024.1.5,Win32,40.03202562,66477ac3eb28c24f9eb87e44,667045947eb812cbdacbf325,66704969a19cdef8085ce035,,,,,,,,,,,,,,,,,,,,,,,,,,,,,,,,,,,,655.653,661.714,0,1,1,0,1,SoundStimuli/AnotherOneBitesTheDust_Queen_Original5S.wav,,,,,,,,,,,,,,,,,,,,,,,,,,,,,,,,,,,,,,,,,,,,,,,,,,,,,,,,,
,,,,,536568,001,2024-06-17_10h43.51.470,experiment,2024.1.5,Win32,40.03202562,66477ac3eb28c24f9eb87e44,667045947eb812cbdacbf325,66704969a19cdef8085ce035,,,,,,,,,,,,,,,,,,,,,,,,,,,,,,,,,,,,,,,,,,,,661.715,666.965,2.158333333,5.24,0,15,15,9,1,song_indices/AnotherOneBitesTheDust_Queen.csv,,,,,,,,,,,,,,,,,,,,,,,,,,,,,,,,,,,,,,,,,,,,,,,
,,,,,536568,001,2024-06-17_10h43.51.470,experiment,2024.1.5,Win32,40.03202562,66477ac3eb28c24f9eb87e44,667045947eb812cbdacbf325,66704969a19cdef8085ce035,,,,,,,,,,,,,,,,,,,,,,,,,,,,,,,,,,,,666.983,673.244,0,0,0,1,1,SoundStimuli/MackTheKnife_BobbyDarin_Cover5S.wav,,,,,,,,,,,,,,,,,,,,,,,,,,,,,,,,,,,,,,,,,,,,,,,,,,,,,,,,,
,,,,,536568,001,2024-06-17_10h43.51.470,experiment,2024.1.5,Win32,40.03202562,66477ac3eb28c24f9eb87e44,667045947eb812cbdacbf325,66704969a19cdef8085ce035,,,,,,,,,,,,,,,,,,,,,,,,,,,,,,,,,,,,673.246,679.408,0,1,1,0,1,SoundStimuli/MackTheKnife_BobbyDarin_Original5S.wav,,,,,,,,,,,,,,,,,,,,,,,,,,,,,,,,,,,,,,,,,,,,,,,,,,,,,,,,,
,,,,,536568,001,2024-06-17_10h43.51.470,experiment,2024.1.5,Win32,40.03202562,66477ac3eb28c24f9eb87e44,667045947eb812cbdacbf325,66704969a19cdef8085ce035,,,,,,,,,,,,,,,,,,,,,,,,,,,,,,,,,,,,,,,,,,,,679.409,680.687,1.925,1.271,0,16,16,21,1,song_indices/MackTheKnife_BobbyDarin.csv,,,,,,,,,,,,,,,,,,,,,,,,,,,,,,,,,,,,,,,,,,,,,,,
,,,,,536568,001,2024-06-17_10h43.51.470,experiment,2024.1.5,Win32,40.03202562,66477ac3eb28c24f9eb87e44,667045947eb812cbdacbf325,66704969a19cdef8085ce035,,,,,,,,,,,,,,,,,,,,,,,,,,,,,,,,,,,,680.698,687.201,0,0,0,0,1,SoundStimuli/BadDay_DanielPowter_Original5S.wav,,,,,,,,,,,,,,,,,,,,,,,,,,,,,,,,,,,,,,,,,,,,,,,,,,,,,,,,,
,,,,,536568,001,2024-06-17_10h43.51.470,experiment,2024.1.5,Win32,40.03202562,66477ac3eb28c24f9eb87e44,667045947eb812cbdacbf325,66704969a19cdef8085ce035,,,,,,,,,,,,,,,,,,,,,,,,,,,,,,,,,,,,687.202,694.739,0,1,1,1,1,SoundStimuli/BadDay_DanielPowter_Cover5S.wav,,,,,,,,,,,,,,,,,,,,,,,,,,,,,,,,,,,,,,,,,,,,,,,,,,,,,,,,,
,,,,,536568,001,2024-06-17_10h43.51.470,experiment,2024.1.5,Win32,40.03202562,66477ac3eb28c24f9eb87e44,667045947eb812cbdacbf325,66704969a19cdef8085ce035,,,,,,,,,,,,,,,,,,,,,,,,,,,,,,,,,,,,,,,,,,,,694.74,696.544,5.108333333,1.8,0,17,17,22,1,song_indices/BadDay_DanielPowter.csv,,,,,,,,,,,,,,,,,,,,,,,,,,,,,,,,,,,,,,,,,,,,,,,
,,,,,536568,001,2024-06-17_10h43.51.470,experiment,2024.1.5,Win32,40.03202562,66477ac3eb28c24f9eb87e44,667045947eb812cbdacbf325,66704969a19cdef8085ce035,,,,,,,,,,,,,,,,,,,,,,,,,,,,,,,,,,,,696.552,702.915,0,0,0,0,1,SoundStimuli/BridgeOverTroubledWater_SimonAndGarfunkel_Original5S.wav,,,,,,,,,,,,,,,,,,,,,,,,,,,,,,,,,,,,,,,,,,,,,,,,,,,,,,,,,
,,,,,536568,001,2024-06-17_10h43.51.470,experiment,2024.1.5,Win32,40.03202562,66477ac3eb28c24f9eb87e44,667045947eb812cbdacbf325,66704969a19cdef8085ce035,,,,,,,,,,,,,,,,,,,,,,,,,,,,,,,,,,,,702.925,709.662,0,1,1,1,1,SoundStimuli/BridgeOverTroubledWater_SimonAndGarfunkel_Cover5S.wav,,,,,,,,,,,,,,,,,,,,,,,,,,,,,,,,,,,,,,,,,,,,,,,,,,,,,,,,,
,,,,,536568,001,2024-06-17_10h43.51.470,experiment,2024.1.5,Win32,40.03202562,66477ac3eb28c24f9eb87e44,667045947eb812cbdacbf325,66704969a19cdef8085ce035,,,,,,,,,,,,,,,,,,,,,,,,,,,,,,,,,,,,,,,,,,,,709.663,712.956,3.191666667,3.283,0,18,18,1,1,song_indices/BridgeOverTroubledWater_SimonAndGarfunkel.csv,,,,,,,,,,,,,,,,,,,,,,,,,,,,,,,,,,,,,,,,,,,,,,,
,,,,,536568,001,2024-06-17_10h43.51.470,experiment,2024.1.5,Win32,40.03202562,66477ac3eb28c24f9eb87e44,667045947eb812cbdacbf325,66704969a19cdef8085ce035,,,,,,,,,,,,,,,,,,,,,,,,,,,,,,,,,,,,712.982,719.218,0,0,0,0,1,SoundStimuli/Smooth_SantanaRobThomas_Original5S.wav,,,,,,,,,,,,,,,,,,,,,,,,,,,,,,,,,,,,,,,,,,,,,,,,,,,,,,,,,
,,,,,536568,001,2024-06-17_10h43.51.470,experiment,2024.1.5,Win32,40.03202562,66477ac3eb28c24f9eb87e44,667045947eb812cbdacbf325,66704969a19cdef8085ce035,,,,,,,,,,,,,,,,,,,,,,,,,,,,,,,,,,,,719.22,725.399,0,1,1,1,1,SoundStimuli/Smooth_SantanaRobThomas_Cover5S.wav,,,,,,,,,,,,,,,,,,,,,,,,,,,,,,,,,,,,,,,,,,,,,,,,,,,,,,,,,
,,,,,536568,001,2024-06-17_10h43.51.470,experiment,2024.1.5,Win32,40.03202562,66477ac3eb28c24f9eb87e44,667045947eb812cbdacbf325,66704969a19cdef8085ce035,,,,,,,,,,,,,,,,,,,,,,,,,,,,,,,,,,,,,,,,,,,,725.4,726.906,5.141666667,1.49,0,19,19,4,1,song_indices/Smooth_SantanaRobThomas.csv,,,,,,,,,,,,,,,,,,,,,,,,,,,,,,,,,,,,,,,,,,,,,,,
,,,,,536568,001,2024-06-17_10h43.51.470,experiment,2024.1.5,Win32,40.03202562,66477ac3eb28c24f9eb87e44,667045947eb812cbdacbf325,66704969a19cdef8085ce035,,,,,,,,,,,,,,,,,,,,,,,,,,,,,,,,,,,,726.913,731.333,0,0,0,1,1,SoundStimuli/LikeARollingStone_BobDylan_Cover5S.wav,,,,,,,,,,,,,,,,,,,,,,,,,,,,,,,,,,,,,,,,,,,,,,,,,,,,,,,,,
,,,,,536568,001,2024-06-17_10h43.51.470,experiment,2024.1.5,Win32,40.03202562,66477ac3eb28c24f9eb87e44,667045947eb812cbdacbf325,66704969a19cdef8085ce035,,,,,,,,,,,,,,,,,,,,,,,,,,,,,,,,,,,,731.339,737.541,0,1,1,0,1,SoundStimuli/LikeARollingStone_BobDylan_Original5S.wav,,,,,,,,,,,,,,,,,,,,,,,,,,,,,,,,,,,,,,,,,,,,,,,,,,,,,,,,,
,,,,,536568,001,2024-06-17_10h43.51.470,experiment,2024.1.5,Win32,40.03202562,66477ac3eb28c24f9eb87e44,667045947eb812cbdacbf325,66704969a19cdef8085ce035,,,,,,,,,,,,,,,,,,,,,,,,,,,,,,,,,,,,,,,,,,,,737.542,739.116,4.808333333,1.563,0,20,20,12,1,song_indices/LikeARollingStone_BobDylan.csv,,,,,,,,,,,,,,,,,,,,,,,,,,,,,,,,,,,,,,,,,,,,,,,
,,,,,536568,001,2024-06-17_10h43.51.470,experiment,2024.1.5,Win32,40.03202562,66477ac3eb28c24f9eb87e44,667045947eb812cbdacbf325,66704969a19cdef8085ce035,,,,,,,,,,,,,,,,,,,,,,,,,,,,,,,,,,,,739.134,747.398,0,0,0,1,1,SoundStimuli/Perfect_EdSheeran_Cover5S.wav,,,,,,,,,,,,,,,,,,,,,,,,,,,,,,,,,,,,,,,,,,,,,,,,,,,,,,,,,
,,,,,536568,001,2024-06-17_10h43.51.470,experiment,2024.1.5,Win32,40.03202562,66477ac3eb28c24f9eb87e44,667045947eb812cbdacbf325,66704969a19cdef8085ce035,,,,,,,,,,,,,,,,,,,,,,,,,,,,,,,,,,,,747.399,756.275,0,1,1,0,1,SoundStimuli/Perfect_EdSheeran_Original5S.wav,,,,,,,,,,,,,,,,,,,,,,,,,,,,,,,,,,,,,,,,,,,,,,,,,,,,,,,,,
,,,,,536568,001,2024-06-17_10h43.51.470,experiment,2024.1.5,Win32,40.03202562,66477ac3eb28c24f9eb87e44,667045947eb812cbdacbf325,66704969a19cdef8085ce035,,,,,,,,,,,,,,,,,,,,,,,,,,,,,,,,,,,,,,,,,,,,756.276,757.412,4.566666667,1.129,0,21,21,0,1,song_indices/Perfect_EdSheeran.csv,,,,,,,,,,,,,,,,,,,,,,,,,,,,,,,,,,,,,,,,,,,,,,,
,,,,,536568,001,2024-06-17_10h43.51.470,experiment,2024.1.5,Win32,40.03202562,66477ac3eb28c24f9eb87e44,667045947eb812cbdacbf325,66704969a19cdef8085ce035,,,,,,,,,,,,,,,,,,,,,,,,,,,,,,,,,,,,757.426,765.095,0,0,0,1,1,SoundStimuli/MyGirl_TheTemptations_Cover5S.wav,,,,,,,,,,,,,,,,,,,,,,,,,,,,,,,,,,,,,,,,,,,,,,,,,,,,,,,,,
,,,,,536568,001,2024-06-17_10h43.51.470,experiment,2024.1.5,Win32,40.03202562,66477ac3eb28c24f9eb87e44,667045947eb812cbdacbf325,66704969a19cdef8085ce035,,,,,,,,,,,,,,,,,,,,,,,,,,,,,,,,,,,,765.104,771.52,0,1,1,0,1,SoundStimuli/MyGirl_TheTemptations_Original5S.wav,,,,,,,,,,,,,,,,,,,,,,,,,,,,,,,,,,,,,,,,,,,,,,,,,,,,,,,,,
,,,,,536568,001,2024-06-17_10h43.51.470,experiment,2024.1.5,Win32,40.03202562,66477ac3eb28c24f9eb87e44,667045947eb812cbdacbf325,66704969a19cdef8085ce035,,,,,,,,,,,,,,,,,,,,,,,,,,,,,,,,,,,,,,,,,,,,771.521,773.027,3.016666667,1.495,0,22,22,15,1,song_indices/MyGirl_TheTemptations.csv,,,,,,,,,,,,,,,,,,,,,,,,,,,,,,,,,,,,,,,,,,,,,,,
,,,,,536568,001,2024-06-17_10h43.51.470,experiment,2024.1.5,Win32,40.03202562,66477ac3eb28c24f9eb87e44,667045947eb812cbdacbf325,66704969a19cdef8085ce035,,,,,,,,,,,,,,,,,,,,,,,,,,,,,,,,,,,,,,,,,,,,,,,,,,,,,,773.027,835.87,space,62.801,,0,1,1,0,1,choose_song_b1.csv,,,,,,,,,,,,,,,,,,,,,,,,,,,,,,,,,,,,
,,,,,536568,001,2024-06-17_10h43.51.470,experiment,2024.1.5,Win32,40.03202562,66477ac3eb28c24f9eb87e44,667045947eb812cbdacbf325,66704969a19cdef8085ce035,,,,,,,,,,,,,,,,,,,,,,,,,,,,,,,,,,,,835.903,842.726,0,0,0,1,1,SoundStimuli/SomebodyThatIUsedtoKnow_Gotye_Cover5S.wav,,,,,,,,,,,,,,,,,,,,,,,,,,,,,,,,,,,,,,,,,,,,,,,,,,,,,,,,,
,,,,,536568,001,2024-06-17_10h43.51.470,experiment,2024.1.5,Win32,40.03202562,66477ac3eb28c24f9eb87e44,667045947eb812cbdacbf325,66704969a19cdef8085ce035,,,,,,,,,,,,,,,,,,,,,,,,,,,,,,,,,,,,842.727,849.964,0,1,1,0,1,SoundStimuli/SomebodyThatIUsedtoKnow_Gotye_Original5S.wav,,,,,,,,,,,,,,,,,,,,,,,,,,,,,,,,,,,,,,,,,,,,,,,,,,,,,,,,,
,,,,,536568,001,2024-06-17_10h43.51.470,experiment,2024.1.5,Win32,40.03202562,66477ac3eb28c24f9eb87e44,667045947eb812cbdacbf325,66704969a19cdef8085ce035,,,,,,,,,,,,,,,,,,,,,,,,,,,,,,,,,,,,,,,,,,,,849.965,851.901,5.691666667,1.931,0,0,0,7,1,song_indices/SomebodyThatIUsedtoKnow_Gotye.csv,,,,,,,,,,,,,,,,,,,,,,,,,,,,,,,,,,,,,,,,,,,,,,,
,,,,,536568,001,2024-06-17_10h43.51.470,experiment,2024.1.5,Win32,40.03202562,66477ac3eb28c24f9eb87e44,667045947eb812cbdacbf325,66704969a19cdef8085ce035,,,,,,,,,,,,,,,,,,,,,,,,,,,,,,,,,,,,851.905,858.359,0,0,0,1,1,SoundStimuli/YouLightUpMyLife_DebbyBoone_Cover5S.wav,,,,,,,,,,,,,,,,,,,,,,,,,,,,,,,,,,,,,,,,,,,,,,,,,,,,,,,,,
,,,,,536568,001,2024-06-17_10h43.51.470,experiment,2024.1.5,Win32,40.03202562,66477ac3eb28c24f9eb87e44,667045947eb812cbdacbf325,66704969a19cdef8085ce035,,,,,,,,,,,,,,,,,,,,,,,,,,,,,,,,,,,,858.364,864.463,0,1,1,0,1,SoundStimuli/YouLightUpMyLife_DebbyBoone_Original5S.wav,,,,,,,,,,,,,,,,,,,,,,,,,,,,,,,,,,,,,,,,,,,,,,,,,,,,,,,,,
,,,,,536568,001,2024-06-17_10h43.51.470,experiment,2024.1.5,Win32,40.03202562,66477ac3eb28c24f9eb87e44,667045947eb812cbdacbf325,66704969a19cdef8085ce035,,,,,,,,,,,,,,,,,,,,,,,,,,,,,,,,,,,,,,,,,,,,864.464,866.187,6.825,1.719,0,1,1,4,1,song_indices/YouLightUpMyLife_DebbyBoone.csv,,,,,,,,,,,,,,,,,,,,,,,,,,,,,,,,,,,,,,,,,,,,,,,
,,,,,536568,001,2024-06-17_10h43.51.470,experiment,2024.1.5,Win32,40.03202562,66477ac3eb28c24f9eb87e44,667045947eb812cbdacbf325,66704969a19cdef8085ce035,,,,,,,,,,,,,,,,,,,,,,,,,,,,,,,,,,,,866.193,872.485,0,0,0,1,1,SoundStimuli/Kiss_Prince_Cover5S.wav,,,,,,,,,,,,,,,,,,,,,,,,,,,,,,,,,,,,,,,,,,,,,,,,,,,,,,,,,
,,,,,536568,001,2024-06-17_10h43.51.470,experiment,2024.1.5,Win32,40.03202562,66477ac3eb28c24f9eb87e44,667045947eb812cbdacbf325,66704969a19cdef8085ce035,,,,,,,,,,,,,,,,,,,,,,,,,,,,,,,,,,,,872.486,879.956,0,1,1,0,1,SoundStimuli/Kiss_Prince_Original5S.wav,,,,,,,,,,,,,,,,,,,,,,,,,,,,,,,,,,,,,,,,,,,,,,,,,,,,,,,,,
,,,,,536568,001,2024-06-17_10h43.51.470,experiment,2024.1.5,Win32,40.03202562,66477ac3eb28c24f9eb87e44,667045947eb812cbdacbf325,66704969a19cdef8085ce035,,,,,,,,,,,,,,,,,,,,,,,,,,,,,,,,,,,,,,,,,,,,879.956,881.863,2.55,1.901,0,2,2,14,1,song_indices/Kiss_Prince.csv,,,,,,,,,,,,,,,,,,,,,,,,,,,,,,,,,,,,,,,,,,,,,,,
,,,,,536568,001,2024-06-17_10h43.51.470,experiment,2024.1.5,Win32,40.03202562,66477ac3eb28c24f9eb87e44,667045947eb812cbdacbf325,66704969a19cdef8085ce035,,,,,,,,,,,,,,,,,,,,,,,,,,,,,,,,,,,,881.869,888.009,0,0,0,1,1,SoundStimuli/TossinAndTurnin_BobbyLewis_Cover5S.wav,,,,,,,,,,,,,,,,,,,,,,,,,,,,,,,,,,,,,,,,,,,,,,,,,,,,,,,,,
,,,,,536568,001,2024-06-17_10h43.51.470,experiment,2024.1.5,Win32,40.03202562,66477ac3eb28c24f9eb87e44,667045947eb812cbdacbf325,66704969a19cdef8085ce035,,,,,,,,,,,,,,,,,,,,,,,,,,,,,,,,,,,,888.013,894.115,0,1,1,0,1,SoundStimuli/TossinAndTurnin_BobbyLewis_Original5S.wav,,,,,,,,,,,,,,,,,,,,,,,,,,,,,,,,,,,,,,,,,,,,,,,,,,,,,,,,,
,,,,,536568,001,2024-06-17_10h43.51.470,experiment,2024.1.5,Win32,40.03202562,66477ac3eb28c24f9eb87e44,667045947eb812cbdacbf325,66704969a19cdef8085ce035,,,,,,,,,,,,,,,,,,,,,,,,,,,,,,,,,,,,,,,,,,,,894.117,895.405,3.191666667,1.271,0,3,3,13,1,song_indices/TossinAndTurnin_BobbyLewis.csv,,,,,,,,,,,,,,,,,,,,,,,,,,,,,,,,,,,,,,,,,,,,,,,
,,,,,536568,001,2024-06-17_10h43.51.470,experiment,2024.1.5,Win32,40.03202562,66477ac3eb28c24f9eb87e44,667045947eb812cbdacbf325,66704969a19cdef8085ce035,,,,,,,,,,,,,,,,,,,,,,,,,,,,,,,,,,,,895.418,901.947,0,0,0,0,1,SoundStimuli/Dreams_FleetwoodMac_Original5S.wav,,,,,,,,,,,,,,,,,,,,,,,,,,,,,,,,,,,,,,,,,,,,,,,,,,,,,,,,,
,,,,,536568,001,2024-06-17_10h43.51.470,experiment,2024.1.5,Win32,40.03202562,66477ac3eb28c24f9eb87e44,667045947eb812cbdacbf325,66704969a19cdef8085ce035,,,,,,,,,,,,,,,,,,,,,,,,,,,,,,,,,,,,901.948,909.786,0,1,1,1,1,SoundStimuli/Dreams_FleetwoodMac_Cover5S.wav,,,,,,,,,,,,,,,,,,,,,,,,,,,,,,,,,,,,,,,,,,,,,,,,,,,,,,,,,
,,,,,536568,001,2024-06-17_10h43.51.470,experiment,2024.1.5,Win32,40.03202562,66477ac3eb28c24f9eb87e44,667045947eb812cbdacbf325,66704969a19cdef8085ce035,,,,,,,,,,,,,,,,,,,,,,,,,,,,,,,,,,,,,,,,,,,,909.787,911.661,2.991666667,1.849,0,4,4,1,1,song_indices/Dreams_FleetwoodMac.csv,,,,,,,,,,,,,,,,,,,,,,,,,,,,,,,,,,,,,,,,,,,,,,,
,,,,,536568,001,2024-06-17_10h43.51.470,experiment,2024.1.5,Win32,40.03202562,66477ac3eb28c24f9eb87e44,667045947eb812cbdacbf325,66704969a19cdef8085ce035,,,,,,,,,,,,,,,,,,,,,,,,,,,,,,,,,,,,911.67,918.72,0,0,0,0,1,SoundStimuli/PokerFace_LadyGaga_Original5S.wav,,,,,,,,,,,,,,,,,,,,,,,,,,,,,,,,,,,,,,,,,,,,,,,,,,,,,,,,,
,,,,,536568,001,2024-06-17_10h43.51.470,experiment,2024.1.5,Win32,40.03202562,66477ac3eb28c24f9eb87e44,667045947eb812cbdacbf325,66704969a19cdef8085ce035,,,,,,,,,,,,,,,,,,,,,,,,,,,,,,,,,,,,918.722,925.606,0,1,1,1,1,SoundStimuli/PokerFace_LadyGaga_Cover5S.wav,,,,,,,,,,,,,,,,,,,,,,,,,,,,,,,,,,,,,,,,,,,,,,,,,,,,,,,,,
,,,,,536568,001,2024-06-17_10h43.51.470,experiment,2024.1.5,Win32,40.03202562,66477ac3eb28c24f9eb87e44,667045947eb812cbdacbf325,66704969a19cdef8085ce035,,,,,,,,,,,,,,,,,,,,,,,,,,,,,,,,,,,,,,,,,,,,925.613,926.73,2.508333333,1.084,0,5,5,23,1,song_indices/PokerFace_LadyGaga.csv,,,,,,,,,,,,,,,,,,,,,,,,,,,,,,,,,,,,,,,,,,,,,,,
,,,,,536568,001,2024-06-17_10h43.51.470,experiment,2024.1.5,Win32,40.03202562,66477ac3eb28c24f9eb87e44,667045947eb812cbdacbf325,66704969a19cdef8085ce035,,,,,,,,,,,,,,,,,,,,,,,,,,,,,,,,,,,,926.75,932.643,0,0,0,0,1,SoundStimuli/Irreplaceable_Beyonce_Original5S.wav,,,,,,,,,,,,,,,,,,,,,,,,,,,,,,,,,,,,,,,,,,,,,,,,,,,,,,,,,
,,,,,536568,001,2024-06-17_10h43.51.470,experiment,2024.1.5,Win32,40.03202562,66477ac3eb28c24f9eb87e44,667045947eb812cbdacbf325,66704969a19cdef8085ce035,,,,,,,,,,,,,,,,,,,,,,,,,,,,,,,,,,,,932.645,938.592,0,1,1,1,1,SoundStimuli/Irreplaceable_Beyonce_Cover5S.wav,,,,,,,,,,,,,,,,,,,,,,,,,,,,,,,,,,,,,,,,,,,,,,,,,,,,,,,,,
,,,,,536568,001,2024-06-17_10h43.51.470,experiment,2024.1.5,Win32,40.03202562,66477ac3eb28c24f9eb87e44,667045947eb812cbdacbf325,66704969a19cdef8085ce035,,,,,,,,,,,,,,,,,,,,,,,,,,,,,,,,,,,,,,,,,,,,938.593,941.596,4.391666667,2.999,0,6,6,19,1,song_indices/Irreplaceable_Beyonce.csv,,,,,,,,,,,,,,,,,,,,,,,,,,,,,,,,,,,,,,,,,,,,,,,
,,,,,536568,001,2024-06-17_10h43.51.470,experiment,2024.1.5,Win32,40.03202562,66477ac3eb28c24f9eb87e44,667045947eb812cbdacbf325,66704969a19cdef8085ce035,,,,,,,,,,,,,,,,,,,,,,,,,,,,,,,,,,,,941.61,947.507,0,0,0,1,1,SoundStimuli/SaveYourTears_TheWeekndArianaGrande_Cover5S.wav,,,,,,,,,,,,,,,,,,,,,,,,,,,,,,,,,,,,,,,,,,,,,,,,,,,,,,,,,
,,,,,536568,001,2024-06-17_10h43.51.470,experiment,2024.1.5,Win32,40.03202562,66477ac3eb28c24f9eb87e44,667045947eb812cbdacbf325,66704969a19cdef8085ce035,,,,,,,,,,,,,,,,,,,,,,,,,,,,,,,,,,,,947.508,953.757,0,1,1,0,1,SoundStimuli/SaveYourTears_TheWeekndArianaGrande_Original5S.wav,,,,,,,,,,,,,,,,,,,,,,,,,,,,,,,,,,,,,,,,,,,,,,,,,,,,,,,,,
,,,,,536568,001,2024-06-17_10h43.51.470,experiment,2024.1.5,Win32,40.03202562,66477ac3eb28c24f9eb87e44,667045947eb812cbdacbf325,66704969a19cdef8085ce035,,,,,,,,,,,,,,,,,,,,,,,,,,,,,,,,,,,,,,,,,,,,953.76,954.941,3.008333333,1.169,0,7,7,12,1,song_indices/SaveYourTears_TheWeekndArianaGrande.csv,,,,,,,,,,,,,,,,,,,,,,,,,,,,,,,,,,,,,,,,,,,,,,,
,,,,,536568,001,2024-06-17_10h43.51.470,experiment,2024.1.5,Win32,40.03202562,66477ac3eb28c24f9eb87e44,667045947eb812cbdacbf325,66704969a19cdef8085ce035,,,,,,,,,,,,,,,,,,,,,,,,,,,,,,,,,,,,954.955,961.03,0,0,0,1,1,SoundStimuli/Respect_ArethaFranklin_Cover5S.wav,,,,,,,,,,,,,,,,,,,,,,,,,,,,,,,,,,,,,,,,,,,,,,,,,,,,,,,,,
,,,,,536568,001,2024-06-17_10h43.51.470,experiment,2024.1.5,Win32,40.03202562,66477ac3eb28c24f9eb87e44,667045947eb812cbdacbf325,66704969a19cdef8085ce035,,,,,,,,,,,,,,,,,,,,,,,,,,,,,,,,,,,,961.032,966.984,0,1,1,0,1,SoundStimuli/Respect_ArethaFranklin_Original5S.wav,,,,,,,,,,,,,,,,,,,,,,,,,,,,,,,,,,,,,,,,,,,,,,,,,,,,,,,,,
,,,,,536568,001,2024-06-17_10h43.51.470,experiment,2024.1.5,Win32,40.03202562,66477ac3eb28c24f9eb87e44,667045947eb812cbdacbf325,66704969a19cdef8085ce035,,,,,,,,,,,,,,,,,,,,,,,,,,,,,,,,,,,,,,,,,,,,966.985,968.951,1.15,1.959,0,8,8,0,1,song_indices/Respect_ArethaFranklin.csv,,,,,,,,,,,,,,,,,,,,,,,,,,,,,,,,,,,,,,,,,,,,,,,
,,,,,536568,001,2024-06-17_10h43.51.470,experiment,2024.1.5,Win32,40.03202562,66477ac3eb28c24f9eb87e44,667045947eb812cbdacbf325,66704969a19cdef8085ce035,,,,,,,,,,,,,,,,,,,,,,,,,,,,,,,,,,,,968.963,975.77,0,0,0,0,1,SoundStimuli/BlurredLines_RobinThicke_Original5S.wav,,,,,,,,,,,,,,,,,,,,,,,,,,,,,,,,,,,,,,,,,,,,,,,,,,,,,,,,,
,,,,,536568,001,2024-06-17_10h43.51.470,experiment,2024.1.5,Win32,40.03202562,66477ac3eb28c24f9eb87e44,667045947eb812cbdacbf325,66704969a19cdef8085ce035,,,,,,,,,,,,,,,,,,,,,,,,,,,,,,,,,,,,975.772,982.895,0,1,1,1,1,SoundStimuli/BlurredLines_RobinThicke_Cover5S.wav,,,,,,,,,,,,,,,,,,,,,,,,,,,,,,,,,,,,,,,,,,,,,,,,,,,,,,,,,
,,,,,536568,001,2024-06-17_10h43.51.470,experiment,2024.1.5,Win32,40.03202562,66477ac3eb28c24f9eb87e44,667045947eb812cbdacbf325,66704969a19cdef8085ce035,,,,,,,,,,,,,,,,,,,,,,,,,,,,,,,,,,,,,,,,,,,,982.896,983.907,5.925,1.004,0,9,9,9,1,song_indices/BlurredLines_RobinThicke.csv,,,,,,,,,,,,,,,,,,,,,,,,,,,,,,,,,,,,,,,,,,,,,,,
,,,,,536568,001,2024-06-17_10h43.51.470,experiment,2024.1.5,Win32,40.03202562,66477ac3eb28c24f9eb87e44,667045947eb812cbdacbf325,66704969a19cdef8085ce035,,,,,,,,,,,,,,,,,,,,,,,,,,,,,,,,,,,,983.914,987.925,0,0,0,1,1,SoundStimuli/UnbreakMyHeart_ToniBraxton_Cover5S.wav,,,,,,,,,,,,,,,,,,,,,,,,,,,,,,,,,,,,,,,,,,,,,,,,,,,,,,,,,
,,,,,536568,001,2024-06-17_10h43.51.470,experiment,2024.1.5,Win32,40.03202562,66477ac3eb28c24f9eb87e44,667045947eb812cbdacbf325,66704969a19cdef8085ce035,,,,,,,,,,,,,,,,,,,,,,,,,,,,,,,,,,,,987.926,994.052,0,1,1,0,1,SoundStimuli/UnbreakMyHeart_ToniBraxton_Original5S.wav,,,,,,,,,,,,,,,,,,,,,,,,,,,,,,,,,,,,,,,,,,,,,,,,,,,,,,,,,
,,,,,536568,001,2024-06-17_10h43.51.470,experiment,2024.1.5,Win32,40.03202562,66477ac3eb28c24f9eb87e44,667045947eb812cbdacbf325,66704969a19cdef8085ce035,,,,,,,,,,,,,,,,,,,,,,,,,,,,,,,,,,,,,,,,,,,,994.053,995.152,2.008333333,1.096,0,10,10,16,1,song_indices/UnbreakMyHeart_ToniBraxton.csv,,,,,,,,,,,,,,,,,,,,,,,,,,,,,,,,,,,,,,,,,,,,,,,
,,,,,536568,001,2024-06-17_10h43.51.470,experiment,2024.1.5,Win32,40.03202562,66477ac3eb28c24f9eb87e44,667045947eb812cbdacbf325,66704969a19cdef8085ce035,,,,,,,,,,,,,,,,,,,,,,,,,,,,,,,,,,,,995.163,1001.388,0,0,0,0,1,SoundStimuli/Dilemma_NellyKellyRowland_Original5S.wav,,,,,,,,,,,,,,,,,,,,,,,,,,,,,,,,,,,,,,,,,,,,,,,,,,,,,,,,,
,,,,,536568,001,2024-06-17_10h43.51.470,experiment,2024.1.5,Win32,40.03202562,66477ac3eb28c24f9eb87e44,667045947eb812cbdacbf325,66704969a19cdef8085ce035,,,,,,,,,,,,,,,,,,,,,,,,,,,,,,,,,,,,1001.39,1008.398,0,1,1,1,1,SoundStimuli/Dilemma_NellyKellyRowland_Cover5S.wav,,,,,,,,,,,,,,,,,,,,,,,,,,,,,,,,,,,,,,,,,,,,,,,,,,,,,,,,,
,,,,,536568,001,2024-06-17_10h43.51.470,experiment,2024.1.5,Win32,40.03202562,66477ac3eb28c24f9eb87e44,667045947eb812cbdacbf325,66704969a19cdef8085ce035,,,,,,,,,,,,,,,,,,,,,,,,,,,,,,,,,,,,,,,,,,,,1008.398,1009.592,1.166666667,1.186,0,11,11,2,1,song_indices/Dilemma_NellyKellyRowland.csv,,,,,,,,,,,,,,,,,,,,,,,,,,,,,,,,,,,,,,,,,,,,,,,
,,,,,536568,001,2024-06-17_10h43.51.470,experiment,2024.1.5,Win32,40.03202562,66477ac3eb28c24f9eb87e44,667045947eb812cbdacbf325,66704969a19cdef8085ce035,,,,,,,,,,,,,,,,,,,,,,,,,,,,,,,,,,,,1009.605,1015.146,0,0,0,1,1,SoundStimuli/LeFreak_Chic_Cover5S.wav,,,,,,,,,,,,,,,,,,,,,,,,,,,,,,,,,,,,,,,,,,,,,,,,,,,,,,,,,
,,,,,536568,001,2024-06-17_10h43.51.470,experiment,2024.1.5,Win32,40.03202562,66477ac3eb28c24f9eb87e44,667045947eb812cbdacbf325,66704969a19cdef8085ce035,,,,,,,,,,,,,,,,,,,,,,,,,,,,,,,,,,,,1015.147,1021.188,0,1,1,0,1,SoundStimuli/LeFreak_Chic_Original5S.wav,,,,,,,,,,,,,,,,,,,,,,,,,,,,,,,,,,,,,,,,,,,,,,,,,,,,,,,,,
,,,,,536568,001,2024-06-17_10h43.51.470,experiment,2024.1.5,Win32,40.03202562,66477ac3eb28c24f9eb87e44,667045947eb812cbdacbf325,66704969a19cdef8085ce035,,,,,,,,,,,,,,,,,,,,,,,,,,,,,,,,,,,,,,,,,,,,1021.19,1022.707,5.058333333,1.505,0,12,12,11,1,song_indices/LeFreak_Chic.csv,,,,,,,,,,,,,,,,,,,,,,,,,,,,,,,,,,,,,,,,,,,,,,,
,,,,,536568,001,2024-06-17_10h43.51.470,experiment,2024.1.5,Win32,40.03202562,66477ac3eb28c24f9eb87e44,667045947eb812cbdacbf325,66704969a19cdef8085ce035,,,,,,,,,,,,,,,,,,,,,,,,,,,,,,,,,,,,1022.721,1030.016,0,0,0,1,1,SoundStimuli/FlashdanceWhatAFeeling_IreneCara_Cover5S.wav,,,,,,,,,,,,,,,,,,,,,,,,,,,,,,,,,,,,,,,,,,,,,,,,,,,,,,,,,
,,,,,536568,001,2024-06-17_10h43.51.470,experiment,2024.1.5,Win32,40.03202562,66477ac3eb28c24f9eb87e44,667045947eb812cbdacbf325,66704969a19cdef8085ce035,,,,,,,,,,,,,,,,,,,,,,,,,,,,,,,,,,,,1030.017,1036.45,0,1,1,0,1,SoundStimuli/FlashdanceWhatAFeeling_IreneCara_Original5S.wav,,,,,,,,,,,,,,,,,,,,,,,,,,,,,,,,,,,,,,,,,,,,,,,,,,,,,,,,,
,,,,,536568,001,2024-06-17_10h43.51.470,experiment,2024.1.5,Win32,40.03202562,66477ac3eb28c24f9eb87e44,667045947eb812cbdacbf325,66704969a19cdef8085ce035,,,,,,,,,,,,,,,,,,,,,,,,,,,,,,,,,,,,,,,,,,,,1036.451,1037.718,4.533333333,1.258,0,13,13,18,1,song_indices/FlashdanceWhatAFeeling_IreneCara.csv,,,,,,,,,,,,,,,,,,,,,,,,,,,,,,,,,,,,,,,,,,,,,,,
,,,,,536568,001,2024-06-17_10h43.51.470,experiment,2024.1.5,Win32,40.03202562,66477ac3eb28c24f9eb87e44,667045947eb812cbdacbf325,66704969a19cdef8085ce035,,,,,,,,,,,,,,,,,,,,,,,,,,,,,,,,,,,,1037.736,1044.244,0,0,0,0,1,SoundStimuli/BlindingLights_TheWeeknd_Original5S.wav,,,,,,,,,,,,,,,,,,,,,,,,,,,,,,,,,,,,,,,,,,,,,,,,,,,,,,,,,
,,,,,536568,001,2024-06-17_10h43.51.470,experiment,2024.1.5,Win32,40.03202562,66477ac3eb28c24f9eb87e44,667045947eb812cbdacbf325,66704969a19cdef8085ce035,,,,,,,,,,,,,,,,,,,,,,,,,,,,,,,,,,,,1044.244,1051.111,0,1,1,1,1,SoundStimuli/BlindingLights_TheWeeknd_Cover5S.wav,,,,,,,,,,,,,,,,,,,,,,,,,,,,,,,,,,,,,,,,,,,,,,,,,,,,,,,,,
,,,,,536568,001,2024-06-17_10h43.51.470,experiment,2024.1.5,Win32,40.03202562,66477ac3eb28c24f9eb87e44,667045947eb812cbdacbf325,66704969a19cdef8085ce035,,,,,,,,,,,,,,,,,,,,,,,,,,,,,,,,,,,,,,,,,,,,1051.118,1052.348,3.425,1.191,0,14,14,21,1,song_indices/BlindingLights_TheWeeknd.csv,,,,,,,,,,,,,,,,,,,,,,,,,,,,,,,,,,,,,,,,,,,,,,,
,,,,,536568,001,2024-06-17_10h43.51.470,experiment,2024.1.5,Win32,40.03202562,66477ac3eb28c24f9eb87e44,667045947eb812cbdacbf325,66704969a19cdef8085ce035,,,,,,,,,,,,,,,,,,,,,,,,,,,,,,,,,,,,1052.359,1058.506,0,0,0,0,1,SoundStimuli/Superstition_StevieWonder_Original5S.wav,,,,,,,,,,,,,,,,,,,,,,,,,,,,,,,,,,,,,,,,,,,,,,,,,,,,,,,,,
,,,,,536568,001,2024-06-17_10h43.51.470,experiment,2024.1.5,Win32,40.03202562,66477ac3eb28c24f9eb87e44,667045947eb812cbdacbf325,66704969a19cdef8085ce035,,,,,,,,,,,,,,,,,,,,,,,,,,,,,,,,,,,,1058.508,1063.855,0,1,1,1,1,SoundStimuli/Superstition_StevieWonder_Cover5S.wav,,,,,,,,,,,,,,,,,,,,,,,,,,,,,,,,,,,,,,,,,,,,,,,,,,,,,,,,,
,,,,,536568,001,2024-06-17_10h43.51.470,experiment,2024.1.5,Win32,40.03202562,66477ac3eb28c24f9eb87e44,667045947eb812cbdacbf325,66704969a19cdef8085ce035,,,,,,,,,,,,,,,,,,,,,,,,,,,,,,,,,,,,,,,,,,,,1063.856,1065.294,2.808333333,1.433,0,15,15,15,1,song_indices/Superstition_StevieWonder.csv,,,,,,,,,,,,,,,,,,,,,,,,,,,,,,,,,,,,,,,,,,,,,,,
,,,,,536568,001,2024-06-17_10h43.51.470,experiment,2024.1.5,Win32,40.03202562,66477ac3eb28c24f9eb87e44,667045947eb812cbdacbf325,66704969a19cdef8085ce035,,,,,,,,,,,,,,,,,,,,,,,,,,,,,,,,,,,,1065.305,1071.319,0,0,0,0,1,SoundStimuli/Levitating_DuaLipa_Original5S.wav,,,,,,,,,,,,,,,,,,,,,,,,,,,,,,,,,,,,,,,,,,,,,,,,,,,,,,,,,
,,,,,536568,001,2024-06-17_10h43.51.470,experiment,2024.1.5,Win32,40.03202562,66477ac3eb28c24f9eb87e44,667045947eb812cbdacbf325,66704969a19cdef8085ce035,,,,,,,,,,,,,,,,,,,,,,,,,,,,,,,,,,,,1071.32,1077.095,0,1,1,1,1,SoundStimuli/Levitating_DuaLipa_Cover5S.wav,,,,,,,,,,,,,,,,,,,,,,,,,,,,,,,,,,,,,,,,,,,,,,,,,,,,,,,,,
,,,,,536568,001,2024-06-17_10h43.51.470,experiment,2024.1.5,Win32,40.03202562,66477ac3eb28c24f9eb87e44,667045947eb812cbdacbf325,66704969a19cdef8085ce035,,,,,,,,,,,,,,,,,,,,,,,,,,,,,,,,,,,,,,,,,,,,1077.096,1078.211,2.633333333,1.111,0,16,16,10,1,song_indices/Levitating_DuaLipa.csv,,,,,,,,,,,,,,,,,,,,,,,,,,,,,,,,,,,,,,,,,,,,,,,
,,,,,536568,001,2024-06-17_10h43.51.470,experiment,2024.1.5,Win32,40.03202562,66477ac3eb28c24f9eb87e44,667045947eb812cbdacbf325,66704969a19cdef8085ce035,,,,,,,,,,,,,,,,,,,,,,,,,,,,,,,,,,,,1078.219,1084.278,0,0,0,1,1,SoundStimuli/TheSign_AceOfBase_Cover5S.wav,,,,,,,,,,,,,,,,,,,,,,,,,,,,,,,,,,,,,,,,,,,,,,,,,,,,,,,,,
,,,,,536568,001,2024-06-17_10h43.51.470,experiment,2024.1.5,Win32,40.03202562,66477ac3eb28c24f9eb87e44,667045947eb812cbdacbf325,66704969a19cdef8085ce035,,,,,,,,,,,,,,,,,,,,,,,,,,,,,,,,,,,,1084.286,1090.472,0,1,1,0,1,SoundStimuli/TheSign_AceOfBase_Original5S.wav,,,,,,,,,,,,,,,,,,,,,,,,,,,,,,,,,,,,,,,,,,,,,,,,,,,,,,,,,
,,,,,536568,001,2024-06-17_10h43.51.470,experiment,2024.1.5,Win32,40.03202562,66477ac3eb28c24f9eb87e44,667045947eb812cbdacbf325,66704969a19cdef8085ce035,,,,,,,,,,,,,,,,,,,,,,,,,,,,,,,,,,,,,,,,,,,,1090.473,1091.904,2.991666667,1.424,0,17,17,5,1,song_indices/TheSign_AceOfBase.csv,,,,,,,,,,,,,,,,,,,,,,,,,,,,,,,,,,,,,,,,,,,,,,,
,,,,,536568,001,2024-06-17_10h43.51.470,experiment,2024.1.5,Win32,40.03202562,66477ac3eb28c24f9eb87e44,667045947eb812cbdacbf325,66704969a19cdef8085ce035,,,,,,,,,,,,,,,,,,,,,,,,,,,,,,,,,,,,1091.928,1098.633,0,0,0,1,1,SoundStimuli/LetsGetItOn_MarvinGaye_Cover5S.wav,,,,,,,,,,,,,,,,,,,,,,,,,,,,,,,,,,,,,,,,,,,,,,,,,,,,,,,,,
,,,,,536568,001,2024-06-17_10h43.51.470,experiment,2024.1.5,Win32,40.03202562,66477ac3eb28c24f9eb87e44,667045947eb812cbdacbf325,66704969a19cdef8085ce035,,,,,,,,,,,,,,,,,,,,,,,,,,,,,,,,,,,,1098.635,1104.997,0,1,1,0,1,SoundStimuli/LetsGetItOn_MarvinGaye_Original5S.wav,,,,,,,,,,,,,,,,,,,,,,,,,,,,,,,,,,,,,,,,,,,,,,,,,,,,,,,,,
,,,,,536568,001,2024-06-17_10h43.51.470,experiment,2024.1.5,Win32,40.03202562,66477ac3eb28c24f9eb87e44,667045947eb812cbdacbf325,66704969a19cdef8085ce035,,,,,,,,,,,,,,,,,,,,,,,,,,,,,,,,,,,,,,,,,,,,1104.998,1106.293,3.775,1.287,0,18,18,20,1,song_indices/LetsGetItOn_MarvinGaye.csv,,,,,,,,,,,,,,,,,,,,,,,,,,,,,,,,,,,,,,,,,,,,,,,
,,,,,536568,001,2024-06-17_10h43.51.470,experiment,2024.1.5,Win32,40.03202562,66477ac3eb28c24f9eb87e44,667045947eb812cbdacbf325,66704969a19cdef8085ce035,,,,,,,,,,,,,,,,,,,,,,,,,,,,,,,,,,,,1106.298,1113.867,0,0,0,1,1,SoundStimuli/TikTok_Kesha_Cover5S.wav,,,,,,,,,,,,,,,,,,,,,,,,,,,,,,,,,,,,,,,,,,,,,,,,,,,,,,,,,
,,,,,536568,001,2024-06-17_10h43.51.470,experiment,2024.1.5,Win32,40.03202562,66477ac3eb28c24f9eb87e44,667045947eb812cbdacbf325,66704969a19cdef8085ce035,,,,,,,,,,,,,,,,,,,,,,,,,,,,,,,,,,,,1113.876,1120.108,0,1,1,0,1,SoundStimuli/TikTok_Kesha_Original5S.wav,,,,,,,,,,,,,,,,,,,,,,,,,,,,,,,,,,,,,,,,,,,,,,,,,,,,,,,,,
,,,,,536568,001,2024-06-17_10h43.51.470,experiment,2024.1.5,Win32,40.03202562,66477ac3eb28c24f9eb87e44,667045947eb812cbdacbf325,66704969a19cdef8085ce035,,,,,,,,,,,,,,,,,,,,,,,,,,,,,,,,,,,,,,,,,,,,1120.109,1121.028,1.1,0.914,0,19,19,3,1,song_indices/TikTok_Kesha.csv,,,,,,,,,,,,,,,,,,,,,,,,,,,,,,,,,,,,,,,,,,,,,,,
,,,,,536568,001,2024-06-17_10h43.51.470,experiment,2024.1.5,Win32,40.03202562,66477ac3eb28c24f9eb87e44,667045947eb812cbdacbf325,66704969a19cdef8085ce035,,,,,,,,,,,,,,,,,,,,,,,,,,,,,,,,,,,,1121.039,1127.178,0,0,0,0,1,SoundStimuli/ComeAndGetYourLove_Redbone_Original5S.wav,,,,,,,,,,,,,,,,,,,,,,,,,,,,,,,,,,,,,,,,,,,,,,,,,,,,,,,,,
,,,,,536568,001,2024-06-17_10h43.51.470,experiment,2024.1.5,Win32,40.03202562,66477ac3eb28c24f9eb87e44,667045947eb812cbdacbf325,66704969a19cdef8085ce035,,,,,,,,,,,,,,,,,,,,,,,,,,,,,,,,,,,,1127.18,1134.297,0,1,1,1,1,SoundStimuli/ComeAndGetYourLove_Redbone_Cover5S.wav,,,,,,,,,,,,,,,,,,,,,,,,,,,,,,,,,,,,,,,,,,,,,,,,,,,,,,,,,
,,,,,536568,001,2024-06-17_10h43.51.470,experiment,2024.1.5,Win32,40.03202562,66477ac3eb28c24f9eb87e44,667045947eb812cbdacbf325,66704969a19cdef8085ce035,,,,,,,,,,,,,,,,,,,,,,,,,,,,,,,,,,,,,,,,,,,,1134.298,1135.553,2.075,1.247,0,20,20,22,1,song_indices/ComeAndGetYourLove_Redbone.csv,,,,,,,,,,,,,,,,,,,,,,,,,,,,,,,,,,,,,,,,,,,,,,,
,,,,,536568,001,2024-06-17_10h43.51.470,experiment,2024.1.5,Win32,40.03202562,66477ac3eb28c24f9eb87e44,667045947eb812cbdacbf325,66704969a19cdef8085ce035,,,,,,,,,,,,,,,,,,,,,,,,,,,,,,,,,,,,1135.563,1141.701,0,0,0,0,1,SoundStimuli/JoyToTheWorld_ThreeDogNight_Original5S.wav,,,,,,,,,,,,,,,,,,,,,,,,,,,,,,,,,,,,,,,,,,,,,,,,,,,,,,,,,
,,,,,536568,001,2024-06-17_10h43.51.470,experiment,2024.1.5,Win32,40.03202562,66477ac3eb28c24f9eb87e44,667045947eb812cbdacbf325,66704969a19cdef8085ce035,,,,,,,,,,,,,,,,,,,,,,,,,,,,,,,,,,,,1141.703,1146.883,0,1,1,1,1,SoundStimuli/JoyToTheWorld_ThreeDogNight_Cover5S.wav,,,,,,,,,,,,,,,,,,,,,,,,,,,,,,,,,,,,,,,,,,,,,,,,,,,,,,,,,
,,,,,536568,001,2024-06-17_10h43.51.470,experiment,2024.1.5,Win32,40.03202562,66477ac3eb28c24f9eb87e44,667045947eb812cbdacbf325,66704969a19cdef8085ce035,,,,,,,,,,,,,,,,,,,,,,,,,,,,,,,,,,,,,,,,,,,,1146.884,1148.815,3.016666667,1.92,0,21,21,8,1,song_indices/JoyToTheWorld_ThreeDogNight.csv,,,,,,,,,,,,,,,,,,,,,,,,,,,,,,,,,,,,,,,,,,,,,,,
,,,,,536568,001,2024-06-17_10h43.51.470,experiment,2024.1.5,Win32,40.03202562,66477ac3eb28c24f9eb87e44,667045947eb812cbdacbf325,66704969a19cdef8085ce035,,,,,,,,,,,,,,,,,,,,,,,,,,,,,,,,,,,,1148.83,1154.925,0,0,0,0,1,SoundStimuli/HowDoILive_LeAnnRimes_Original5S.wav,,,,,,,,,,,,,,,,,,,,,,,,,,,,,,,,,,,,,,,,,,,,,,,,,,,,,,,,,
,,,,,536568,001,2024-06-17_10h43.51.470,experiment,2024.1.5,Win32,40.03202562,66477ac3eb28c24f9eb87e44,667045947eb812cbdacbf325,66704969a19cdef8085ce035,,,,,,,,,,,,,,,,,,,,,,,,,,,,,,,,,,,,1154.929,1160.457,0,1,1,1,1,SoundStimuli/HowDoILive_LeAnnRimes_Cover5S.wav,,,,,,,,,,,,,,,,,,,,,,,,,,,,,,,,,,,,,,,,,,,,,,,,,,,,,,,,,
,,,,,536568,001,2024-06-17_10h43.51.470,experiment,2024.1.5,Win32,40.03202562,66477ac3eb28c24f9eb87e44,667045947eb812cbdacbf325,66704969a19cdef8085ce035,,,,,,,,,,,,,,,,,,,,,,,,,,,,,,,,,,,,,,,,,,,,1160.458,1161.753,4.983333333,1.279,0,22,22,17,1,song_indices/HowDoILive_LeAnnRimes.csv,,,,,,,,,,,,,,,,,,,,,,,,,,,,,,,,,,,,,,,,,,,,,,,
,,,,,536568,001,2024-06-17_10h43.51.470,experiment,2024.1.5,Win32,40.03202562,66477ac3eb28c24f9eb87e44,667045947eb812cbdacbf325,66704969a19cdef8085ce035,,,,,,,,,,,,,,,,,,,,,,,,,,,,,,,,,,,,1161.768,1168.263,0,0,0,1,1,SoundStimuli/Weak_SWV_Cover5S.wav,,,,,,,,,,,,,,,,,,,,,,,,,,,,,,,,,,,,,,,,,,,,,,,,,,,,,,,,,
,,,,,536568,001,2024-06-17_10h43.51.470,experiment,2024.1.5,Win32,40.03202562,66477ac3eb28c24f9eb87e44,667045947eb812cbdacbf325,66704969a19cdef8085ce035,,,,,,,,,,,,,,,,,,,,,,,,,,,,,,,,,,,,1168.264,1174.379,0,1,1,0,1,SoundStimuli/Weak_SWV_Original5S.wav,,,,,,,,,,,,,,,,,,,,,,,,,,,,,,,,,,,,,,,,,,,,,,,,,,,,,,,,,
,,,,,536568,001,2024-06-17_10h43.51.470,experiment,2024.1.5,Win32,40.03202562,66477ac3eb28c24f9eb87e44,667045947eb812cbdacbf325,66704969a19cdef8085ce035,,,,,,,,,,,,,,,,,,,,,,,,,,,,,,,,,,,,,,,,,,,,1174.38,1177.435,4.625,3.05,0,23,23,6,1,song_indices/Weak_SWV.csv,,,,,,,,,,,,,,,,,,,,,,,,,,,,,,,,,,,,,,,,,,,,,,,
,,,,,536568,001,2024-06-17_10h43.51.470,experiment,2024.1.5,Win32,40.03202562,66477ac3eb28c24f9eb87e44,667045947eb812cbdacbf325,66704969a19cdef8085ce035,,,,,,,,,,,,,,,,,,,,,,,,,,,,,,,,,,,,,,,,,,,,,,,,,,,,,,1177.435,1177.436,,,,0,2,2,2,1,choose_song_b3.csv,,,,,,,,,,,,,,,,,,,,,,,,,,,,,,,,,,,,
,,,,,536568,001,2024-06-17_10h43.51.470,experiment,2024.1.5,Win32,40.03202562,66477ac3eb28c24f9eb87e44,667045947eb812cbdacbf325,66704969a19cdef8085ce035,,,,,,,,,,,,,,,,,,,,,,,,,,,,,,,,,,,,,,,,,,,,,,,,,,,,,,,,,,,,,,,,,21,Item 4,"Classically trained pianist age 6-18, still play occasionally, but not often due to chronic tendonitis. Played for several choirs, musicals, churches, etc. as an accompanist.",Item 4,"Spotify, Video Games",4,3,"Playing games, working, driving, reading",Rarely,Sometimes,Rarely,Rarely,Rarely,Often,Rarely,Rarely,Rarely,Sometimes,Rarely,Always,Rarely,Rarely,Often,Rarely,Folk/indie,Alternative Rock,Pop,"Yes, I have slowly become more of a folk/indie and pop listener than a pure rock/alt rock listener.",Nothing else to add,0,0,0,0,1,,
,,,,,536568,001,2024-06-17_10h43.51.470,experiment,2024.1.5,Win32,40.03202562,66477ac3eb28c24f9eb87e44,667045947eb812cbdacbf325,66704969a19cdef8085ce035,,,,,,,,,,,,,,,,,,,,,,,,,,,,,,,,,,,,,,,,,,,,,,,,,,,,,,,,,,,,,,,,,,,,,,,,,,,,,,,,,,,,,,,,,,,,,,,,,,,1361.818,1363.718
