welcome.started,welcome.stopped,space_to_continue.keys,space_to_continue.rt,space_to_continue.duration,participant,session,date,expName,psychopyVersion,OS,frameRate,PROLIFIC_PID,STUDY_ID,SESSION_ID,consent.consent,consent.consent_recontact,consent_check.started,consent_check.stopped,calibration_ready.started,calibration_ready.stopped,cal_ready.keys,cal_ready.rt,cal_ready.duration,calibration.started,calibration.stopped,mouse.x,mouse.y,mouse.leftButton,mouse.midButton,mouse.rightButton,mouse.time,mouse.clicked_name,move_on.keys,move_on.rt,move_on.duration,instructions.started,instructions.stopped,next.keys,next.rt,next.duration,practice_trial.started,practice_trial.stopped,practice_slider.response,practice_slider.rt,ready.started,ready.stopped,key_resp.keys,key_resp.rt,key_resp.duration,play_sound.started,play_sound.stopped,trials.thisRepN,trials.thisTrialN,trials.thisN,trials.thisIndex,trials.ran,orig_or_cover,rating.started,rating.stopped,slider.response,slider.rt,songs.thisRepN,songs.thisTrialN,songs.thisN,songs.thisIndex,songs.ran,song_id,short_break.started,short_break.stopped,space_to_move_on.keys,space_to_move_on.rt,space_to_move_on.duration,blocks.thisRepN,blocks.thisTrialN,blocks.thisN,blocks.thisIndex,blocks.ran,block,survey.age,survey.musician,survey.music_making,survey.listen_time,survey.medium,survey.music_seeking,survey.music_choice,survey.activities,survey.question1.Reggae,survey.question1.Electronic (EDM),survey.question1.Classic rock,survey.question1.Ambient,survey.question1.Jazz,survey.question1.Country,survey.question1.Disco,survey.question1.Alternative rock,survey.question1.Latin,survey.question1.Hip hop,survey.question1.Pop,survey.question1.Classical,survey.question1.Folk/indie,survey.question1.R&B,survey.question1.A cappella,survey.question1.Metal,survey.other_genres,survey.genres_ranked.text1,survey.genres_ranked.text2,survey.genres_ranked.text3,survey.habit_change,survey.habits,experiment.thisRepN,experiment.thisTrialN,experiment.thisN,experiment.thisIndex,experiment.ran,goodbye.started,goodbye.stopped
0.0002,2.2726,space,2.2616,,589716,001,2024-06-17_11h50.36.459,experiment,2024.1.5,Win32,59.17159763,65a57b1b4ce0a142f5b59bf8,667045947eb812cbdacbf325,66705db8c99f10f913bff8d2,,,,,,,,,,,,,,,,,,,,,,,,,,,,,,,,,,,,,,,,,,,,,,,,,,,,,,,,,,,,,,,,,,,,,,,,,,,,,,,,,,,,,,,,,,,,,,,,,,,,,
,,,,,589716,001,2024-06-17_11h50.36.459,experiment,2024.1.5,Win32,59.17159763,65a57b1b4ce0a142f5b59bf8,667045947eb812cbdacbf325,66705db8c99f10f913bff8d2,yes,no,,,,,,,,,,,,,,,,,,,,,,,,,,,,,,,,,,,,,,,,,,,,,,,,,,,,,,,,,,,,,,,,,,,,,,,,,,,,,,,,,,,,,,,,,,,,,,,,,,,
,,,,,589716,001,2024-06-17_11h50.36.459,experiment,2024.1.5,Win32,59.17159763,65a57b1b4ce0a142f5b59bf8,667045947eb812cbdacbf325,66705db8c99f10f913bff8d2,,,17.1313,17.1313,,,,,,,,,,,,,,,,,,,,,,,,,,,,,,,,,,,,,,,,,,,,,,,,,,,,,,,,,,,,,,,,,,,,,,,,,,,,,,,,,,,,,,,,,,,,,,,,,
,,,,,589716,001,2024-06-17_11h50.36.459,experiment,2024.1.5,Win32,59.17159763,65a57b1b4ce0a142f5b59bf8,667045947eb812cbdacbf325,66705db8c99f10f913bff8d2,,,,,17.1324,19.4393,space,2.2831,,19.4393,80.2247,"[0.003703703703703704,0.000925925925925926,-0.012962962962962963,-0.003703703703703704,0.6583333333333333,0.8027777777777778,0.7148148148148148,0.5638888888888889,0.4185185185185185,0.42407407407407405,-0.007407407407407408,-0.007407407407407408,0.5203703703703704,0.5361111111111111,0.6370370370370371,0.8046296296296296,0.8703703703703703,0.8462962962962963,-0.34629629629629627,-0.525,-0.7361111111111112,-0.8888888888888888,-0.009523809523809525,-0.026455026455026454,-0.026455026455026454]","[-0.43148148148148147,-0.42962962962962964,-0.43333333333333335,-0.4166666666666667,0.16018518518518518,-0.4935185185185185,-0.48055555555555557,-0.4398148148148148,-0.4083333333333333,-0.39351851851851855,-0.4462962962962963,-0.44537037037037036,-0.48055555555555557,-0.48055555555555557,-0.49722222222222223,-0.40370370370370373,-0.37222222222222223,-0.27314814814814814,-0.3,-0.425,-0.4064814814814815,-0.03981481481481482,-0.4343915343915344,-0.3,-0.38571428571428573]","[1,1,1,1,1,1,1,1,1,0,1,1,1,1,1,1,1,1,1,1,1,1,1,1,1]","[0,0,0,0,0,0,0,0,0,0,0,0,0,0,0,0,0,0,0,0,0,0,0,0,0]","[0,0,0,0,0,0,0,0,0,1,0,0,0,0,0,0,0,0,0,0,0,0,0,0,0]","[3.014700000017882,9.481000000000002,20.76420000001788,22.797800000011918,23.314200000017877,30.014700000017882,30.281599999994043,30.497900000005956,30.831500000000005,31.131400000005968,35.903499999999994,36.60340000000596,37.25409999999404,37.487099999994044,37.703800000011924,37.95409999999404,38.15420000001788,38.42030000001192,38.787300000011925,39.054200000017886,39.28740000000596,39.5535,50.864700000017876,58.78159999999404,59.84840000000597]","[""play_button"",""play_button"",""play_button"",""play_button"",""play_button"",""play_button"",""play_button""]",right,50.7805,,80.2251,88.9225,space,8.6769,,88.9226,108.8228,1,19.8832,108.823,110.2564,space,1.4162,,110.2727,116.6563,0,0,0,0,1,SoundStimuli/MyGirl_TheTemptations_Original5S.wav,,,,,,,,,,,,,,,,,,,,,,,,,,,,,,,,,,,,,,,,,,,,,,,,,,,,,,,,,,
,,,,,589716,001,2024-06-17_11h50.36.459,experiment,2024.1.5,Win32,59.17159763,65a57b1b4ce0a142f5b59bf8,667045947eb812cbdacbf325,66705db8c99f10f913bff8d2,,,,,,,,,,,,,,,,,,,,,,,,,,,,,,,,,,,,116.657,124.323,0,1,1,1,1,SoundStimuli/MyGirl_TheTemptations_Cover5S.wav,,,,,,,,,,,,,,,,,,,,,,,,,,,,,,,,,,,,,,,,,,,,,,,,,,,,,,,,,,
,,,,,589716,001,2024-06-17_11h50.36.459,experiment,2024.1.5,Win32,59.17159763,65a57b1b4ce0a142f5b59bf8,667045947eb812cbdacbf325,66705db8c99f10f913bff8d2,,,,,,,,,,,,,,,,,,,,,,,,,,,,,,,,,,,,,,,,,,,,124.3323,125.556,1.987301587,1.214,0,0,0,15,1,song_indices/MyGirl_TheTemptations.csv,,,,,,,,,,,,,,,,,,,,,,,,,,,,,,,,,,,,,,,,,,,,,,,,
,,,,,589716,001,2024-06-17_11h50.36.459,experiment,2024.1.5,Win32,59.17159763,65a57b1b4ce0a142f5b59bf8,667045947eb812cbdacbf325,66705db8c99f10f913bff8d2,,,,,,,,,,,,,,,,,,,,,,,,,,,,,,,,,,,,125.5577,129.64,0,0,0,1,1,SoundStimuli/BohemianRhapsody_Queen_Cover5S.wav,,,,,,,,,,,,,,,,,,,,,,,,,,,,,,,,,,,,,,,,,,,,,,,,,,,,,,,,,,
,,,,,589716,001,2024-06-17_11h50.36.459,experiment,2024.1.5,Win32,59.17159763,65a57b1b4ce0a142f5b59bf8,667045947eb812cbdacbf325,66705db8c99f10f913bff8d2,,,,,,,,,,,,,,,,,,,,,,,,,,,,,,,,,,,,129.6491,135.6064,0,1,1,0,1,SoundStimuli/BohemianRhapsody_Queen_Original5S.wav,,,,,,,,,,,,,,,,,,,,,,,,,,,,,,,,,,,,,,,,,,,,,,,,,,,,,,,,,,
,,,,,589716,001,2024-06-17_11h50.36.459,experiment,2024.1.5,Win32,59.17159763,65a57b1b4ce0a142f5b59bf8,667045947eb812cbdacbf325,66705db8c99f10f913bff8d2,,,,,,,,,,,,,,,,,,,,,,,,,,,,,,,,,,,,,,,,,,,,135.6066,138.7726,2.984126984,3.1533,0,1,1,18,1,song_indices/BohemianRhapsody_Queen.csv,,,,,,,,,,,,,,,,,,,,,,,,,,,,,,,,,,,,,,,,,,,,,,,,
,,,,,589716,001,2024-06-17_11h50.36.459,experiment,2024.1.5,Win32,59.17159763,65a57b1b4ce0a142f5b59bf8,667045947eb812cbdacbf325,66705db8c99f10f913bff8d2,,,,,,,,,,,,,,,,,,,,,,,,,,,,,,,,,,,,138.7739,145.0403,0,0,0,1,1,SoundStimuli/MackTheKnife_BobbyDarin_Cover5S.wav,,,,,,,,,,,,,,,,,,,,,,,,,,,,,,,,,,,,,,,,,,,,,,,,,,,,,,,,,,
,,,,,589716,001,2024-06-17_11h50.36.459,experiment,2024.1.5,Win32,59.17159763,65a57b1b4ce0a142f5b59bf8,667045947eb812cbdacbf325,66705db8c99f10f913bff8d2,,,,,,,,,,,,,,,,,,,,,,,,,,,,,,,,,,,,145.0502,151.1902,0,1,1,0,1,SoundStimuli/MackTheKnife_BobbyDarin_Original5S.wav,,,,,,,,,,,,,,,,,,,,,,,,,,,,,,,,,,,,,,,,,,,,,,,,,,,,,,,,,,
,,,,,589716,001,2024-06-17_11h50.36.459,experiment,2024.1.5,Win32,59.17159763,65a57b1b4ce0a142f5b59bf8,667045947eb812cbdacbf325,66705db8c99f10f913bff8d2,,,,,,,,,,,,,,,,,,,,,,,,,,,,,,,,,,,,,,,,,,,,151.1904,152.4893,1.053968254,1.2772,0,2,2,21,1,song_indices/MackTheKnife_BobbyDarin.csv,,,,,,,,,,,,,,,,,,,,,,,,,,,,,,,,,,,,,,,,,,,,,,,,
,,,,,589716,001,2024-06-17_11h50.36.459,experiment,2024.1.5,Win32,59.17159763,65a57b1b4ce0a142f5b59bf8,667045947eb812cbdacbf325,66705db8c99f10f913bff8d2,,,,,,,,,,,,,,,,,,,,,,,,,,,,,,,,,,,,152.4904,158.69,0,0,0,0,1,SoundStimuli/LikeAPrayer_Madonna_Original5S.wav,,,,,,,,,,,,,,,,,,,,,,,,,,,,,,,,,,,,,,,,,,,,,,,,,,,,,,,,,,
,,,,,589716,001,2024-06-17_11h50.36.459,experiment,2024.1.5,Win32,59.17159763,65a57b1b4ce0a142f5b59bf8,667045947eb812cbdacbf325,66705db8c99f10f913bff8d2,,,,,,,,,,,,,,,,,,,,,,,,,,,,,,,,,,,,158.6994,164.9063,0,1,1,1,1,SoundStimuli/LikeAPrayer_Madonna_Cover5S.wav,,,,,,,,,,,,,,,,,,,,,,,,,,,,,,,,,,,,,,,,,,,,,,,,,,,,,,,,,,
,,,,,589716,001,2024-06-17_11h50.36.459,experiment,2024.1.5,Win32,59.17159763,65a57b1b4ce0a142f5b59bf8,667045947eb812cbdacbf325,66705db8c99f10f913bff8d2,,,,,,,,,,,,,,,,,,,,,,,,,,,,,,,,,,,,,,,,,,,,164.9066,166.2059,6.012698413,1.2792,0,3,3,7,1,song_indices/LikeAPrayer_Madonna.csv,,,,,,,,,,,,,,,,,,,,,,,,,,,,,,,,,,,,,,,,,,,,,,,,
,,,,,589716,001,2024-06-17_11h50.36.459,experiment,2024.1.5,Win32,59.17159763,65a57b1b4ce0a142f5b59bf8,667045947eb812cbdacbf325,66705db8c99f10f913bff8d2,,,,,,,,,,,,,,,,,,,,,,,,,,,,,,,,,,,,166.207,175.0564,0,0,0,0,1,SoundStimuli/Perfect_EdSheeran_Original5S.wav,,,,,,,,,,,,,,,,,,,,,,,,,,,,,,,,,,,,,,,,,,,,,,,,,,,,,,,,,,
,,,,,589716,001,2024-06-17_11h50.36.459,experiment,2024.1.5,Win32,59.17159763,65a57b1b4ce0a142f5b59bf8,667045947eb812cbdacbf325,66705db8c99f10f913bff8d2,,,,,,,,,,,,,,,,,,,,,,,,,,,,,,,,,,,,175.0661,183.3235,0,1,1,1,1,SoundStimuli/Perfect_EdSheeran_Cover5S.wav,,,,,,,,,,,,,,,,,,,,,,,,,,,,,,,,,,,,,,,,,,,,,,,,,,,,,,,,,,
,,,,,589716,001,2024-06-17_11h50.36.459,experiment,2024.1.5,Win32,59.17159763,65a57b1b4ce0a142f5b59bf8,667045947eb812cbdacbf325,66705db8c99f10f913bff8d2,,,,,,,,,,,,,,,,,,,,,,,,,,,,,,,,,,,,,,,,,,,,183.3237,184.2728,4.984126984,0.934,0,4,4,0,1,song_indices/Perfect_EdSheeran.csv,,,,,,,,,,,,,,,,,,,,,,,,,,,,,,,,,,,,,,,,,,,,,,,,
,,,,,589716,001,2024-06-17_11h50.36.459,experiment,2024.1.5,Win32,59.17159763,65a57b1b4ce0a142f5b59bf8,667045947eb812cbdacbf325,66705db8c99f10f913bff8d2,,,,,,,,,,,,,,,,,,,,,,,,,,,,,,,,,,,,184.2741,191.7732,0,0,0,1,1,SoundStimuli/BadDay_DanielPowter_Cover5S.wav,,,,,,,,,,,,,,,,,,,,,,,,,,,,,,,,,,,,,,,,,,,,,,,,,,,,,,,,,,
,,,,,589716,001,2024-06-17_11h50.36.459,experiment,2024.1.5,Win32,59.17159763,65a57b1b4ce0a142f5b59bf8,667045947eb812cbdacbf325,66705db8c99f10f913bff8d2,,,,,,,,,,,,,,,,,,,,,,,,,,,,,,,,,,,,191.7829,198.2232,0,1,1,0,1,SoundStimuli/BadDay_DanielPowter_Original5S.wav,,,,,,,,,,,,,,,,,,,,,,,,,,,,,,,,,,,,,,,,,,,,,,,,,,,,,,,,,,
,,,,,589716,001,2024-06-17_11h50.36.459,experiment,2024.1.5,Win32,59.17159763,65a57b1b4ce0a142f5b59bf8,667045947eb812cbdacbf325,66705db8c99f10f913bff8d2,,,,,,,,,,,,,,,,,,,,,,,,,,,,,,,,,,,,,,,,,,,,198.2235,199.1229,5.993650794,0.8797,0,5,5,22,1,song_indices/BadDay_DanielPowter.csv,,,,,,,,,,,,,,,,,,,,,,,,,,,,,,,,,,,,,,,,,,,,,,,,
,,,,,589716,001,2024-06-17_11h50.36.459,experiment,2024.1.5,Win32,59.17159763,65a57b1b4ce0a142f5b59bf8,667045947eb812cbdacbf325,66705db8c99f10f913bff8d2,,,,,,,,,,,,,,,,,,,,,,,,,,,,,,,,,,,,199.124,205.2234,0,0,0,0,1,SoundStimuli/HeatWaves_GlassAnimals_Original5S.wav,,,,,,,,,,,,,,,,,,,,,,,,,,,,,,,,,,,,,,,,,,,,,,,,,,,,,,,,,,
,,,,,589716,001,2024-06-17_11h50.36.459,experiment,2024.1.5,Win32,59.17159763,65a57b1b4ce0a142f5b59bf8,667045947eb812cbdacbf325,66705db8c99f10f913bff8d2,,,,,,,,,,,,,,,,,,,,,,,,,,,,,,,,,,,,205.2324,213.8233,0,1,1,1,1,SoundStimuli/HeatWaves_GlassAnimals_Cover5S.wav,,,,,,,,,,,,,,,,,,,,,,,,,,,,,,,,,,,,,,,,,,,,,,,,,,,,,,,,,,
,,,,,589716,001,2024-06-17_11h50.36.459,experiment,2024.1.5,Win32,59.17159763,65a57b1b4ce0a142f5b59bf8,667045947eb812cbdacbf325,66705db8c99f10f913bff8d2,,,,,,,,,,,,,,,,,,,,,,,,,,,,,,,,,,,,,,,,,,,,213.8237,214.8727,5.00952381,1.0324,0,6,6,10,1,song_indices/HeatWaves_GlassAnimals.csv,,,,,,,,,,,,,,,,,,,,,,,,,,,,,,,,,,,,,,,,,,,,,,,,
,,,,,589716,001,2024-06-17_11h50.36.459,experiment,2024.1.5,Win32,59.17159763,65a57b1b4ce0a142f5b59bf8,667045947eb812cbdacbf325,66705db8c99f10f913bff8d2,,,,,,,,,,,,,,,,,,,,,,,,,,,,,,,,,,,,214.8743,220.9065,0,0,0,1,1,SoundStimuli/IWantToHoldYourHand_TheBeatles_Cover5S.wav,,,,,,,,,,,,,,,,,,,,,,,,,,,,,,,,,,,,,,,,,,,,,,,,,,,,,,,,,,
,,,,,589716,001,2024-06-17_11h50.36.459,experiment,2024.1.5,Win32,59.17159763,65a57b1b4ce0a142f5b59bf8,667045947eb812cbdacbf325,66705db8c99f10f913bff8d2,,,,,,,,,,,,,,,,,,,,,,,,,,,,,,,,,,,,220.916,226.7067,0,1,1,0,1,SoundStimuli/IWantToHoldYourHand_TheBeatles_Original5S.wav,,,,,,,,,,,,,,,,,,,,,,,,,,,,,,,,,,,,,,,,,,,,,,,,,,,,,,,,,,
,,,,,589716,001,2024-06-17_11h50.36.459,experiment,2024.1.5,Win32,59.17159763,65a57b1b4ce0a142f5b59bf8,667045947eb812cbdacbf325,66705db8c99f10f913bff8d2,,,,,,,,,,,,,,,,,,,,,,,,,,,,,,,,,,,,,,,,,,,,226.7068,229.9727,6,3.2524,0,7,7,19,1,song_indices/IWantToHoldYourHand_TheBeatles.csv,,,,,,,,,,,,,,,,,,,,,,,,,,,,,,,,,,,,,,,,,,,,,,,,
,,,,,589716,001,2024-06-17_11h50.36.459,experiment,2024.1.5,Win32,59.17159763,65a57b1b4ce0a142f5b59bf8,667045947eb812cbdacbf325,66705db8c99f10f913bff8d2,,,,,,,,,,,,,,,,,,,,,,,,,,,,,,,,,,,,229.9733,235.9901,0,0,0,0,1,SoundStimuli/StayinAlive_BeeGees_Original5S.wav,,,,,,,,,,,,,,,,,,,,,,,,,,,,,,,,,,,,,,,,,,,,,,,,,,,,,,,,,,
,,,,,589716,001,2024-06-17_11h50.36.459,experiment,2024.1.5,Win32,59.17159763,65a57b1b4ce0a142f5b59bf8,667045947eb812cbdacbf325,66705db8c99f10f913bff8d2,,,,,,,,,,,,,,,,,,,,,,,,,,,,,,,,,,,,235.9996,241.8232,0,1,1,1,1,SoundStimuli/StayinAlive_BeeGees_Cover5S.wav,,,,,,,,,,,,,,,,,,,,,,,,,,,,,,,,,,,,,,,,,,,,,,,,,,,,,,,,,,
,,,,,589716,001,2024-06-17_11h50.36.459,experiment,2024.1.5,Win32,59.17159763,65a57b1b4ce0a142f5b59bf8,667045947eb812cbdacbf325,66705db8c99f10f913bff8d2,,,,,,,,,,,,,,,,,,,,,,,,,,,,,,,,,,,,,,,,,,,,241.8235,242.7729,5.022222222,0.9292,0,8,8,2,1,song_indices/StayinAlive_BeeGees.csv,,,,,,,,,,,,,,,,,,,,,,,,,,,,,,,,,,,,,,,,,,,,,,,,
,,,,,589716,001,2024-06-17_11h50.36.459,experiment,2024.1.5,Win32,59.17159763,65a57b1b4ce0a142f5b59bf8,667045947eb812cbdacbf325,66705db8c99f10f913bff8d2,,,,,,,,,,,,,,,,,,,,,,,,,,,,,,,,,,,,242.7741,250.1567,0,0,0,0,1,SoundStimuli/OldTownRoad_LilNasX_Original5S.wav,,,,,,,,,,,,,,,,,,,,,,,,,,,,,,,,,,,,,,,,,,,,,,,,,,,,,,,,,,
,,,,,589716,001,2024-06-17_11h50.36.459,experiment,2024.1.5,Win32,59.17159763,65a57b1b4ce0a142f5b59bf8,667045947eb812cbdacbf325,66705db8c99f10f913bff8d2,,,,,,,,,,,,,,,,,,,,,,,,,,,,,,,,,,,,250.1666,256.673,0,1,1,1,1,SoundStimuli/OldTownRoad_LilNasX_Cover5S.wav,,,,,,,,,,,,,,,,,,,,,,,,,,,,,,,,,,,,,,,,,,,,,,,,,,,,,,,,,,
,,,,,589716,001,2024-06-17_11h50.36.459,experiment,2024.1.5,Win32,59.17159763,65a57b1b4ce0a142f5b59bf8,667045947eb812cbdacbf325,66705db8c99f10f913bff8d2,,,,,,,,,,,,,,,,,,,,,,,,,,,,,,,,,,,,,,,,,,,,256.6732,257.5227,5.968253968,0.838,0,9,9,20,1,song_indices/OldTownRoad_LilNasX.csv,,,,,,,,,,,,,,,,,,,,,,,,,,,,,,,,,,,,,,,,,,,,,,,,
,,,,,589716,001,2024-06-17_11h50.36.459,experiment,2024.1.5,Win32,59.17159763,65a57b1b4ce0a142f5b59bf8,667045947eb812cbdacbf325,66705db8c99f10f913bff8d2,,,,,,,,,,,,,,,,,,,,,,,,,,,,,,,,,,,,257.5233,263.8234,0,0,0,0,1,SoundStimuli/Mood_24kGoldnianndior_Original5S.wav,,,,,,,,,,,,,,,,,,,,,,,,,,,,,,,,,,,,,,,,,,,,,,,,,,,,,,,,,,
,,,,,589716,001,2024-06-17_11h50.36.459,experiment,2024.1.5,Win32,59.17159763,65a57b1b4ce0a142f5b59bf8,667045947eb812cbdacbf325,66705db8c99f10f913bff8d2,,,,,,,,,,,,,,,,,,,,,,,,,,,,,,,,,,,,263.8311,272.1237,0,1,1,1,1,SoundStimuli/Mood_24kGoldnianndior_Cover5S.wav,,,,,,,,,,,,,,,,,,,,,,,,,,,,,,,,,,,,,,,,,,,,,,,,,,,,,,,,,,
,,,,,589716,001,2024-06-17_11h50.36.459,experiment,2024.1.5,Win32,59.17159763,65a57b1b4ce0a142f5b59bf8,667045947eb812cbdacbf325,66705db8c99f10f913bff8d2,,,,,,,,,,,,,,,,,,,,,,,,,,,,,,,,,,,,,,,,,,,,272.1238,273.9563,4.006349206,1.812,0,10,10,5,1,song_indices/Mood_24kGoldnianndior.csv,,,,,,,,,,,,,,,,,,,,,,,,,,,,,,,,,,,,,,,,,,,,,,,,
,,,,,589716,001,2024-06-17_11h50.36.459,experiment,2024.1.5,Win32,59.17159763,65a57b1b4ce0a142f5b59bf8,667045947eb812cbdacbf325,66705db8c99f10f913bff8d2,,,,,,,,,,,,,,,,,,,,,,,,,,,,,,,,,,,,273.9573,280.1734,0,0,0,0,1,SoundStimuli/Smooth_SantanaRobThomas_Original5S.wav,,,,,,,,,,,,,,,,,,,,,,,,,,,,,,,,,,,,,,,,,,,,,,,,,,,,,,,,,,
,,,,,589716,001,2024-06-17_11h50.36.459,experiment,2024.1.5,Win32,59.17159763,65a57b1b4ce0a142f5b59bf8,667045947eb812cbdacbf325,66705db8c99f10f913bff8d2,,,,,,,,,,,,,,,,,,,,,,,,,,,,,,,,,,,,280.1826,286.3065,0,1,1,1,1,SoundStimuli/Smooth_SantanaRobThomas_Cover5S.wav,,,,,,,,,,,,,,,,,,,,,,,,,,,,,,,,,,,,,,,,,,,,,,,,,,,,,,,,,,
,,,,,589716,001,2024-06-17_11h50.36.459,experiment,2024.1.5,Win32,59.17159763,65a57b1b4ce0a142f5b59bf8,667045947eb812cbdacbf325,66705db8c99f10f913bff8d2,,,,,,,,,,,,,,,,,,,,,,,,,,,,,,,,,,,,,,,,,,,,286.3067,287.8062,5.974603175,1.4844,0,11,11,4,1,song_indices/Smooth_SantanaRobThomas.csv,,,,,,,,,,,,,,,,,,,,,,,,,,,,,,,,,,,,,,,,,,,,,,,,
,,,,,589716,001,2024-06-17_11h50.36.459,experiment,2024.1.5,Win32,59.17159763,65a57b1b4ce0a142f5b59bf8,667045947eb812cbdacbf325,66705db8c99f10f913bff8d2,,,,,,,,,,,,,,,,,,,,,,,,,,,,,,,,,,,,287.8073,293.8898,0,0,0,0,1,SoundStimuli/IllMakeLoveToYou_BoyzIIMen_Original5S.wav,,,,,,,,,,,,,,,,,,,,,,,,,,,,,,,,,,,,,,,,,,,,,,,,,,,,,,,,,,
,,,,,589716,001,2024-06-17_11h50.36.459,experiment,2024.1.5,Win32,59.17159763,65a57b1b4ce0a142f5b59bf8,667045947eb812cbdacbf325,66705db8c99f10f913bff8d2,,,,,,,,,,,,,,,,,,,,,,,,,,,,,,,,,,,,293.8903,299.8402,0,1,1,1,1,SoundStimuli/IllMakeLoveToYou_BoyzIIMen_Cover5S.wav,,,,,,,,,,,,,,,,,,,,,,,,,,,,,,,,,,,,,,,,,,,,,,,,,,,,,,,,,,
,,,,,589716,001,2024-06-17_11h50.36.459,experiment,2024.1.5,Win32,59.17159763,65a57b1b4ce0a142f5b59bf8,667045947eb812cbdacbf325,66705db8c99f10f913bff8d2,,,,,,,,,,,,,,,,,,,,,,,,,,,,,,,,,,,,,,,,,,,,299.8404,301.8061,6.031746032,1.953,0,12,12,6,1,song_indices/IllMakeLoveToYou_BoyzIIMen.csv,,,,,,,,,,,,,,,,,,,,,,,,,,,,,,,,,,,,,,,,,,,,,,,,
,,,,,589716,001,2024-06-17_11h50.36.459,experiment,2024.1.5,Win32,59.17159763,65a57b1b4ce0a142f5b59bf8,667045947eb812cbdacbf325,66705db8c99f10f913bff8d2,,,,,,,,,,,,,,,,,,,,,,,,,,,,,,,,,,,,301.8068,308.3737,0,0,0,0,1,SoundStimuli/Despacito_LuisFonsiDaddyYankee_Original5S.wav,,,,,,,,,,,,,,,,,,,,,,,,,,,,,,,,,,,,,,,,,,,,,,,,,,,,,,,,,,
,,,,,589716,001,2024-06-17_11h50.36.459,experiment,2024.1.5,Win32,59.17159763,65a57b1b4ce0a142f5b59bf8,667045947eb812cbdacbf325,66705db8c99f10f913bff8d2,,,,,,,,,,,,,,,,,,,,,,,,,,,,,,,,,,,,308.3834,314.9562,0,1,1,1,1,SoundStimuli/Despacito_LuisFonsiDaddyYankee_Cover5S.wav,,,,,,,,,,,,,,,,,,,,,,,,,,,,,,,,,,,,,,,,,,,,,,,,,,,,,,,,,,
,,,,,589716,001,2024-06-17_11h50.36.459,experiment,2024.1.5,Win32,59.17159763,65a57b1b4ce0a142f5b59bf8,667045947eb812cbdacbf325,66705db8c99f10f913bff8d2,,,,,,,,,,,,,,,,,,,,,,,,,,,,,,,,,,,,,,,,,,,,314.9564,315.9894,5.993650794,1.0226,0,13,13,11,1,song_indices/Despacito_LuisFonsiDaddyYankee.csv,,,,,,,,,,,,,,,,,,,,,,,,,,,,,,,,,,,,,,,,,,,,,,,,
,,,,,589716,001,2024-06-17_11h50.36.459,experiment,2024.1.5,Win32,59.17159763,65a57b1b4ce0a142f5b59bf8,667045947eb812cbdacbf325,66705db8c99f10f913bff8d2,,,,,,,,,,,,,,,,,,,,,,,,,,,,,,,,,,,,315.9901,322.1401,0,0,0,0,1,SoundStimuli/LikeARollingStone_BobDylan_Original5S.wav,,,,,,,,,,,,,,,,,,,,,,,,,,,,,,,,,,,,,,,,,,,,,,,,,,,,,,,,,,
,,,,,589716,001,2024-06-17_11h50.36.459,experiment,2024.1.5,Win32,59.17159763,65a57b1b4ce0a142f5b59bf8,667045947eb812cbdacbf325,66705db8c99f10f913bff8d2,,,,,,,,,,,,,,,,,,,,,,,,,,,,,,,,,,,,322.149,326.54,0,1,1,1,1,SoundStimuli/LikeARollingStone_BobDylan_Cover5S.wav,,,,,,,,,,,,,,,,,,,,,,,,,,,,,,,,,,,,,,,,,,,,,,,,,,,,,,,,,,
,,,,,589716,001,2024-06-17_11h50.36.459,experiment,2024.1.5,Win32,59.17159763,65a57b1b4ce0a142f5b59bf8,667045947eb812cbdacbf325,66705db8c99f10f913bff8d2,,,,,,,,,,,,,,,,,,,,,,,,,,,,,,,,,,,,,,,,,,,,326.5401,327.6898,5.00952381,1.1327,0,14,14,12,1,song_indices/LikeARollingStone_BobDylan.csv,,,,,,,,,,,,,,,,,,,,,,,,,,,,,,,,,,,,,,,,,,,,,,,,
,,,,,589716,001,2024-06-17_11h50.36.459,experiment,2024.1.5,Win32,59.17159763,65a57b1b4ce0a142f5b59bf8,667045947eb812cbdacbf325,66705db8c99f10f913bff8d2,,,,,,,,,,,,,,,,,,,,,,,,,,,,,,,,,,,,327.6908,334.0069,0,0,0,0,1,SoundStimuli/BridgeOverTroubledWater_SimonAndGarfunkel_Original5S.wav,,,,,,,,,,,,,,,,,,,,,,,,,,,,,,,,,,,,,,,,,,,,,,,,,,,,,,,,,,
,,,,,589716,001,2024-06-17_11h50.36.459,experiment,2024.1.5,Win32,59.17159763,65a57b1b4ce0a142f5b59bf8,667045947eb812cbdacbf325,66705db8c99f10f913bff8d2,,,,,,,,,,,,,,,,,,,,,,,,,,,,,,,,,,,,334.0163,340.7069,0,1,1,1,1,SoundStimuli/BridgeOverTroubledWater_SimonAndGarfunkel_Cover5S.wav,,,,,,,,,,,,,,,,,,,,,,,,,,,,,,,,,,,,,,,,,,,,,,,,,,,,,,,,,,
,,,,,589716,001,2024-06-17_11h50.36.459,experiment,2024.1.5,Win32,59.17159763,65a57b1b4ce0a142f5b59bf8,667045947eb812cbdacbf325,66705db8c99f10f913bff8d2,,,,,,,,,,,,,,,,,,,,,,,,,,,,,,,,,,,,,,,,,,,,340.7071,342.6898,3.980952381,1.9637,0,15,15,1,1,song_indices/BridgeOverTroubledWater_SimonAndGarfunkel.csv,,,,,,,,,,,,,,,,,,,,,,,,,,,,,,,,,,,,,,,,,,,,,,,,
,,,,,589716,001,2024-06-17_11h50.36.459,experiment,2024.1.5,Win32,59.17159763,65a57b1b4ce0a142f5b59bf8,667045947eb812cbdacbf325,66705db8c99f10f913bff8d2,,,,,,,,,,,,,,,,,,,,,,,,,,,,,,,,,,,,342.6909,349.7235,0,0,0,1,1,SoundStimuli/StrawberryFieldsForever_TheBeatles_Cover5S.wav,,,,,,,,,,,,,,,,,,,,,,,,,,,,,,,,,,,,,,,,,,,,,,,,,,,,,,,,,,
,,,,,589716,001,2024-06-17_11h50.36.459,experiment,2024.1.5,Win32,59.17159763,65a57b1b4ce0a142f5b59bf8,667045947eb812cbdacbf325,66705db8c99f10f913bff8d2,,,,,,,,,,,,,,,,,,,,,,,,,,,,,,,,,,,,349.732,355.8568,0,1,1,0,1,SoundStimuli/StrawberryFieldsForever_TheBeatles_Original5S.wav,,,,,,,,,,,,,,,,,,,,,,,,,,,,,,,,,,,,,,,,,,,,,,,,,,,,,,,,,,
,,,,,589716,001,2024-06-17_11h50.36.459,experiment,2024.1.5,Win32,59.17159763,65a57b1b4ce0a142f5b59bf8,667045947eb812cbdacbf325,66705db8c99f10f913bff8d2,,,,,,,,,,,,,,,,,,,,,,,,,,,,,,,,,,,,,,,,,,,,355.857,357.1898,1.022222222,1.3119,0,16,16,14,1,song_indices/StrawberryFieldsForever_TheBeatles.csv,,,,,,,,,,,,,,,,,,,,,,,,,,,,,,,,,,,,,,,,,,,,,,,,
,,,,,589716,001,2024-06-17_11h50.36.459,experiment,2024.1.5,Win32,59.17159763,65a57b1b4ce0a142f5b59bf8,667045947eb812cbdacbf325,66705db8c99f10f913bff8d2,,,,,,,,,,,,,,,,,,,,,,,,,,,,,,,,,,,,357.1907,363.4402,0,0,0,0,1,SoundStimuli/LivinOnAPrayer_BonJovi_Original5S.wav,,,,,,,,,,,,,,,,,,,,,,,,,,,,,,,,,,,,,,,,,,,,,,,,,,,,,,,,,,
,,,,,589716,001,2024-06-17_11h50.36.459,experiment,2024.1.5,Win32,59.17159763,65a57b1b4ce0a142f5b59bf8,667045947eb812cbdacbf325,66705db8c99f10f913bff8d2,,,,,,,,,,,,,,,,,,,,,,,,,,,,,,,,,,,,363.4519,371.1236,0,1,1,1,1,SoundStimuli/LivinOnAPrayer_BonJovi_Cover5S.wav,,,,,,,,,,,,,,,,,,,,,,,,,,,,,,,,,,,,,,,,,,,,,,,,,,,,,,,,,,
,,,,,589716,001,2024-06-17_11h50.36.459,experiment,2024.1.5,Win32,59.17159763,65a57b1b4ce0a142f5b59bf8,667045947eb812cbdacbf325,66705db8c99f10f913bff8d2,,,,,,,,,,,,,,,,,,,,,,,,,,,,,,,,,,,,,,,,,,,,371.1238,372.1229,4.057142857,0.9806,0,17,17,16,1,song_indices/LivinOnAPrayer_BonJovi.csv,,,,,,,,,,,,,,,,,,,,,,,,,,,,,,,,,,,,,,,,,,,,,,,,
,,,,,589716,001,2024-06-17_11h50.36.459,experiment,2024.1.5,Win32,59.17159763,65a57b1b4ce0a142f5b59bf8,667045947eb812cbdacbf325,66705db8c99f10f913bff8d2,,,,,,,,,,,,,,,,,,,,,,,,,,,,,,,,,,,,372.1238,378.9569,0,0,0,1,1,SoundStimuli/IWannaDanceWithSomebody_WhitneyHouston_Cover5S.wav,,,,,,,,,,,,,,,,,,,,,,,,,,,,,,,,,,,,,,,,,,,,,,,,,,,,,,,,,,
,,,,,589716,001,2024-06-17_11h50.36.459,experiment,2024.1.5,Win32,59.17159763,65a57b1b4ce0a142f5b59bf8,667045947eb812cbdacbf325,66705db8c99f10f913bff8d2,,,,,,,,,,,,,,,,,,,,,,,,,,,,,,,,,,,,378.9659,384.5571,0,1,1,0,1,SoundStimuli/IWannaDanceWithSomebody_WhitneyHouston_Original5S.wav,,,,,,,,,,,,,,,,,,,,,,,,,,,,,,,,,,,,,,,,,,,,,,,,,,,,,,,,,,
,,,,,589716,001,2024-06-17_11h50.36.459,experiment,2024.1.5,Win32,59.17159763,65a57b1b4ce0a142f5b59bf8,667045947eb812cbdacbf325,66705db8c99f10f913bff8d2,,,,,,,,,,,,,,,,,,,,,,,,,,,,,,,,,,,,,,,,,,,,384.5573,385.2563,4.012698413,0.6841,0,18,18,13,1,song_indices/IWannaDanceWithSomebody_WhitneyHouston.csv,,,,,,,,,,,,,,,,,,,,,,,,,,,,,,,,,,,,,,,,,,,,,,,,
,,,,,589716,001,2024-06-17_11h50.36.459,experiment,2024.1.5,Win32,59.17159763,65a57b1b4ce0a142f5b59bf8,667045947eb812cbdacbf325,66705db8c99f10f913bff8d2,,,,,,,,,,,,,,,,,,,,,,,,,,,,,,,,,,,,385.2573,392.1233,0,0,0,1,1,SoundStimuli/GodOnlyKnows_TheBeachBoys_Cover5S.wav,,,,,,,,,,,,,,,,,,,,,,,,,,,,,,,,,,,,,,,,,,,,,,,,,,,,,,,,,,
,,,,,589716,001,2024-06-17_11h50.36.459,experiment,2024.1.5,Win32,59.17159763,65a57b1b4ce0a142f5b59bf8,667045947eb812cbdacbf325,66705db8c99f10f913bff8d2,,,,,,,,,,,,,,,,,,,,,,,,,,,,,,,,,,,,392.129,398.3739,0,1,1,0,1,SoundStimuli/GodOnlyKnows_TheBeachBoys_Original5S.wav,,,,,,,,,,,,,,,,,,,,,,,,,,,,,,,,,,,,,,,,,,,,,,,,,,,,,,,,,,
,,,,,589716,001,2024-06-17_11h50.36.459,experiment,2024.1.5,Win32,59.17159763,65a57b1b4ce0a142f5b59bf8,667045947eb812cbdacbf325,66705db8c99f10f913bff8d2,,,,,,,,,,,,,,,,,,,,,,,,,,,,,,,,,,,,,,,,,,,,398.374,400.7397,4.971428571,2.355,0,19,19,8,1,song_indices/GodOnlyKnows_TheBeachBoys.csv,,,,,,,,,,,,,,,,,,,,,,,,,,,,,,,,,,,,,,,,,,,,,,,,
,,,,,589716,001,2024-06-17_11h50.36.459,experiment,2024.1.5,Win32,59.17159763,65a57b1b4ce0a142f5b59bf8,667045947eb812cbdacbf325,66705db8c99f10f913bff8d2,,,,,,,,,,,,,,,,,,,,,,,,,,,,,,,,,,,,400.7405,408.8735,0,0,0,1,1,SoundStimuli/AnotherOneBitesTheDust_Queen_Cover5S.wav,,,,,,,,,,,,,,,,,,,,,,,,,,,,,,,,,,,,,,,,,,,,,,,,,,,,,,,,,,
,,,,,589716,001,2024-06-17_11h50.36.459,experiment,2024.1.5,Win32,59.17159763,65a57b1b4ce0a142f5b59bf8,667045947eb812cbdacbf325,66705db8c99f10f913bff8d2,,,,,,,,,,,,,,,,,,,,,,,,,,,,,,,,,,,,408.8827,414.9069,0,1,1,0,1,SoundStimuli/AnotherOneBitesTheDust_Queen_Original5S.wav,,,,,,,,,,,,,,,,,,,,,,,,,,,,,,,,,,,,,,,,,,,,,,,,,,,,,,,,,,
,,,,,589716,001,2024-06-17_11h50.36.459,experiment,2024.1.5,Win32,59.17159763,65a57b1b4ce0a142f5b59bf8,667045947eb812cbdacbf325,66705db8c99f10f913bff8d2,,,,,,,,,,,,,,,,,,,,,,,,,,,,,,,,,,,,,,,,,,,,414.9072,415.9564,2.952380952,1.0366,0,20,20,9,1,song_indices/AnotherOneBitesTheDust_Queen.csv,,,,,,,,,,,,,,,,,,,,,,,,,,,,,,,,,,,,,,,,,,,,,,,,
,,,,,589716,001,2024-06-17_11h50.36.459,experiment,2024.1.5,Win32,59.17159763,65a57b1b4ce0a142f5b59bf8,667045947eb812cbdacbf325,66705db8c99f10f913bff8d2,,,,,,,,,,,,,,,,,,,,,,,,,,,,,,,,,,,,415.9573,423.4737,0,0,0,1,1,SoundStimuli/EndlessLove_DianaRossLionelRichie_Cover5S.wav,,,,,,,,,,,,,,,,,,,,,,,,,,,,,,,,,,,,,,,,,,,,,,,,,,,,,,,,,,
,,,,,589716,001,2024-06-17_11h50.36.459,experiment,2024.1.5,Win32,59.17159763,65a57b1b4ce0a142f5b59bf8,667045947eb812cbdacbf325,66705db8c99f10f913bff8d2,,,,,,,,,,,,,,,,,,,,,,,,,,,,,,,,,,,,423.4838,429.8236,0,1,1,0,1,SoundStimuli/EndlessLove_DianaRossLionelRichie_Original5S.wav,,,,,,,,,,,,,,,,,,,,,,,,,,,,,,,,,,,,,,,,,,,,,,,,,,,,,,,,,,
,,,,,589716,001,2024-06-17_11h50.36.459,experiment,2024.1.5,Win32,59.17159763,65a57b1b4ce0a142f5b59bf8,667045947eb812cbdacbf325,66705db8c99f10f913bff8d2,,,,,,,,,,,,,,,,,,,,,,,,,,,,,,,,,,,,,,,,,,,,429.824,431.7565,5.003174603,1.9182,0,21,21,3,1,song_indices/EndlessLove_DianaRossLionelRichie.csv,,,,,,,,,,,,,,,,,,,,,,,,,,,,,,,,,,,,,,,,,,,,,,,,
,,,,,589716,001,2024-06-17_11h50.36.459,experiment,2024.1.5,Win32,59.17159763,65a57b1b4ce0a142f5b59bf8,667045947eb812cbdacbf325,66705db8c99f10f913bff8d2,,,,,,,,,,,,,,,,,,,,,,,,,,,,,,,,,,,,431.7577,437.8069,0,0,0,0,1,SoundStimuli/AChangeIsGonnaCome_SamCooke_Original5S.wav,,,,,,,,,,,,,,,,,,,,,,,,,,,,,,,,,,,,,,,,,,,,,,,,,,,,,,,,,,
,,,,,589716,001,2024-06-17_11h50.36.459,experiment,2024.1.5,Win32,59.17159763,65a57b1b4ce0a142f5b59bf8,667045947eb812cbdacbf325,66705db8c99f10f913bff8d2,,,,,,,,,,,,,,,,,,,,,,,,,,,,,,,,,,,,437.817,442.5237,0,1,1,1,1,SoundStimuli/AChangeIsGonnaCome_SamCooke_Cover5S.wav,,,,,,,,,,,,,,,,,,,,,,,,,,,,,,,,,,,,,,,,,,,,,,,,,,,,,,,,,,
,,,,,589716,001,2024-06-17_11h50.36.459,experiment,2024.1.5,Win32,59.17159763,65a57b1b4ce0a142f5b59bf8,667045947eb812cbdacbf325,66705db8c99f10f913bff8d2,,,,,,,,,,,,,,,,,,,,,,,,,,,,,,,,,,,,,,,,,,,,442.5239,444.8564,5.942857143,2.3129,0,22,22,17,1,song_indices/AChangeIsGonnaCome_SamCooke.csv,,,,,,,,,,,,,,,,,,,,,,,,,,,,,,,,,,,,,,,,,,,,,,,,
,,,,,589716,001,2024-06-17_11h50.36.459,experiment,2024.1.5,Win32,59.17159763,65a57b1b4ce0a142f5b59bf8,667045947eb812cbdacbf325,66705db8c99f10f913bff8d2,,,,,,,,,,,,,,,,,,,,,,,,,,,,,,,,,,,,,,,,,,,,,,,,,,,,,,444.857,447.6926,space,2.8178,,0,0,0,0,1,choose_song_b1.csv,,,,,,,,,,,,,,,,,,,,,,,,,,,,,,,,,,,,,
,,,,,589716,001,2024-06-17_11h50.36.459,experiment,2024.1.5,Win32,59.17159763,65a57b1b4ce0a142f5b59bf8,667045947eb812cbdacbf325,66705db8c99f10f913bff8d2,,,,,,,,,,,,,,,,,,,,,,,,,,,,,,,,,,,,447.6936,454.7902,0,0,0,1,1,SoundStimuli/BlurredLines_RobinThicke_Cover5S.wav,,,,,,,,,,,,,,,,,,,,,,,,,,,,,,,,,,,,,,,,,,,,,,,,,,,,,,,,,,
,,,,,589716,001,2024-06-17_11h50.36.459,experiment,2024.1.5,Win32,59.17159763,65a57b1b4ce0a142f5b59bf8,667045947eb812cbdacbf325,66705db8c99f10f913bff8d2,,,,,,,,,,,,,,,,,,,,,,,,,,,,,,,,,,,,454.8008,461.5573,0,1,1,0,1,SoundStimuli/BlurredLines_RobinThicke_Original5S.wav,,,,,,,,,,,,,,,,,,,,,,,,,,,,,,,,,,,,,,,,,,,,,,,,,,,,,,,,,,
,,,,,589716,001,2024-06-17_11h50.36.459,experiment,2024.1.5,Win32,59.17159763,65a57b1b4ce0a142f5b59bf8,667045947eb812cbdacbf325,66705db8c99f10f913bff8d2,,,,,,,,,,,,,,,,,,,,,,,,,,,,,,,,,,,,,,,,,,,,461.5574,462.3066,5.066666667,0.7411,0,0,0,9,1,song_indices/BlurredLines_RobinThicke.csv,,,,,,,,,,,,,,,,,,,,,,,,,,,,,,,,,,,,,,,,,,,,,,,,
,,,,,589716,001,2024-06-17_11h50.36.459,experiment,2024.1.5,Win32,59.17159763,65a57b1b4ce0a142f5b59bf8,667045947eb812cbdacbf325,66705db8c99f10f913bff8d2,,,,,,,,,,,,,,,,,,,,,,,,,,,,,,,,,,,,462.3075,469.3738,0,0,0,1,1,SoundStimuli/ComeAndGetYourLove_Redbone_Cover5S.wav,,,,,,,,,,,,,,,,,,,,,,,,,,,,,,,,,,,,,,,,,,,,,,,,,,,,,,,,,,
,,,,,589716,001,2024-06-17_11h50.36.459,experiment,2024.1.5,Win32,59.17159763,65a57b1b4ce0a142f5b59bf8,667045947eb812cbdacbf325,66705db8c99f10f913bff8d2,,,,,,,,,,,,,,,,,,,,,,,,,,,,,,,,,,,,469.3836,475.4739,0,1,1,0,1,SoundStimuli/ComeAndGetYourLove_Redbone_Original5S.wav,,,,,,,,,,,,,,,,,,,,,,,,,,,,,,,,,,,,,,,,,,,,,,,,,,,,,,,,,,
,,,,,589716,001,2024-06-17_11h50.36.459,experiment,2024.1.5,Win32,59.17159763,65a57b1b4ce0a142f5b59bf8,667045947eb812cbdacbf325,66705db8c99f10f913bff8d2,,,,,,,,,,,,,,,,,,,,,,,,,,,,,,,,,,,,,,,,,,,,475.4741,476.1898,4.93968254,0.695,0,1,1,22,1,song_indices/ComeAndGetYourLove_Redbone.csv,,,,,,,,,,,,,,,,,,,,,,,,,,,,,,,,,,,,,,,,,,,,,,,,
,,,,,589716,001,2024-06-17_11h50.36.459,experiment,2024.1.5,Win32,59.17159763,65a57b1b4ce0a142f5b59bf8,667045947eb812cbdacbf325,66705db8c99f10f913bff8d2,,,,,,,,,,,,,,,,,,,,,,,,,,,,,,,,,,,,476.1905,482.3072,0,0,0,0,1,SoundStimuli/JoyToTheWorld_ThreeDogNight_Original5S.wav,,,,,,,,,,,,,,,,,,,,,,,,,,,,,,,,,,,,,,,,,,,,,,,,,,,,,,,,,,
,,,,,589716,001,2024-06-17_11h50.36.459,experiment,2024.1.5,Win32,59.17159763,65a57b1b4ce0a142f5b59bf8,667045947eb812cbdacbf325,66705db8c99f10f913bff8d2,,,,,,,,,,,,,,,,,,,,,,,,,,,,,,,,,,,,482.3184,487.4405,0,1,1,1,1,SoundStimuli/JoyToTheWorld_ThreeDogNight_Cover5S.wav,,,,,,,,,,,,,,,,,,,,,,,,,,,,,,,,,,,,,,,,,,,,,,,,,,,,,,,,,,
,,,,,589716,001,2024-06-17_11h50.36.459,experiment,2024.1.5,Win32,59.17159763,65a57b1b4ce0a142f5b59bf8,667045947eb812cbdacbf325,66705db8c99f10f913bff8d2,,,,,,,,,,,,,,,,,,,,,,,,,,,,,,,,,,,,,,,,,,,,487.4406,488.5399,6.012698413,1.078,0,2,2,8,1,song_indices/JoyToTheWorld_ThreeDogNight.csv,,,,,,,,,,,,,,,,,,,,,,,,,,,,,,,,,,,,,,,,,,,,,,,,
,,,,,589716,001,2024-06-17_11h50.36.459,experiment,2024.1.5,Win32,59.17159763,65a57b1b4ce0a142f5b59bf8,667045947eb812cbdacbf325,66705db8c99f10f913bff8d2,,,,,,,,,,,,,,,,,,,,,,,,,,,,,,,,,,,,488.541,494.257,0,0,0,1,1,SoundStimuli/Levitating_DuaLipa_Cover5S.wav,,,,,,,,,,,,,,,,,,,,,,,,,,,,,,,,,,,,,,,,,,,,,,,,,,,,,,,,,,
,,,,,589716,001,2024-06-17_11h50.36.459,experiment,2024.1.5,Win32,59.17159763,65a57b1b4ce0a142f5b59bf8,667045947eb812cbdacbf325,66705db8c99f10f913bff8d2,,,,,,,,,,,,,,,,,,,,,,,,,,,,,,,,,,,,494.2642,500.2738,0,1,1,0,1,SoundStimuli/Levitating_DuaLipa_Original5S.wav,,,,,,,,,,,,,,,,,,,,,,,,,,,,,,,,,,,,,,,,,,,,,,,,,,,,,,,,,,
,,,,,589716,001,2024-06-17_11h50.36.459,experiment,2024.1.5,Win32,59.17159763,65a57b1b4ce0a142f5b59bf8,667045947eb812cbdacbf325,66705db8c99f10f913bff8d2,,,,,,,,,,,,,,,,,,,,,,,,,,,,,,,,,,,,,,,,,,,,500.274,502.4734,4.025396825,2.1804,0,3,3,10,1,song_indices/Levitating_DuaLipa.csv,,,,,,,,,,,,,,,,,,,,,,,,,,,,,,,,,,,,,,,,,,,,,,,,
,,,,,589716,001,2024-06-17_11h50.36.459,experiment,2024.1.5,Win32,59.17159763,65a57b1b4ce0a142f5b59bf8,667045947eb812cbdacbf325,66705db8c99f10f913bff8d2,,,,,,,,,,,,,,,,,,,,,,,,,,,,,,,,,,,,502.4745,508.874,0,0,0,0,1,SoundStimuli/FlashdanceWhatAFeeling_IreneCara_Original5S.wav,,,,,,,,,,,,,,,,,,,,,,,,,,,,,,,,,,,,,,,,,,,,,,,,,,,,,,,,,,
,,,,,589716,001,2024-06-17_11h50.36.459,experiment,2024.1.5,Win32,59.17159763,65a57b1b4ce0a142f5b59bf8,667045947eb812cbdacbf325,66705db8c99f10f913bff8d2,,,,,,,,,,,,,,,,,,,,,,,,,,,,,,,,,,,,508.8853,516.1572,0,1,1,1,1,SoundStimuli/FlashdanceWhatAFeeling_IreneCara_Cover5S.wav,,,,,,,,,,,,,,,,,,,,,,,,,,,,,,,,,,,,,,,,,,,,,,,,,,,,,,,,,,
,,,,,589716,001,2024-06-17_11h50.36.459,experiment,2024.1.5,Win32,59.17159763,65a57b1b4ce0a142f5b59bf8,667045947eb812cbdacbf325,66705db8c99f10f913bff8d2,,,,,,,,,,,,,,,,,,,,,,,,,,,,,,,,,,,,,,,,,,,,516.1574,519.1234,5.923809524,2.946,0,4,4,18,1,song_indices/FlashdanceWhatAFeeling_IreneCara.csv,,,,,,,,,,,,,,,,,,,,,,,,,,,,,,,,,,,,,,,,,,,,,,,,
,,,,,589716,001,2024-06-17_11h50.36.459,experiment,2024.1.5,Win32,59.17159763,65a57b1b4ce0a142f5b59bf8,667045947eb812cbdacbf325,66705db8c99f10f913bff8d2,,,,,,,,,,,,,,,,,,,,,,,,,,,,,,,,,,,,519.1247,525.3241,0,0,0,0,1,SoundStimuli/SaveYourTears_TheWeekndArianaGrande_Original5S.wav,,,,,,,,,,,,,,,,,,,,,,,,,,,,,,,,,,,,,,,,,,,,,,,,,,,,,,,,,,
,,,,,589716,001,2024-06-17_11h50.36.459,experiment,2024.1.5,Win32,59.17159763,65a57b1b4ce0a142f5b59bf8,667045947eb812cbdacbf325,66705db8c99f10f913bff8d2,,,,,,,,,,,,,,,,,,,,,,,,,,,,,,,,,,,,525.3329,531.224,0,1,1,1,1,SoundStimuli/SaveYourTears_TheWeekndArianaGrande_Cover5S.wav,,,,,,,,,,,,,,,,,,,,,,,,,,,,,,,,,,,,,,,,,,,,,,,,,,,,,,,,,,
,,,,,589716,001,2024-06-17_11h50.36.459,experiment,2024.1.5,Win32,59.17159763,65a57b1b4ce0a142f5b59bf8,667045947eb812cbdacbf325,66705db8c99f10f913bff8d2,,,,,,,,,,,,,,,,,,,,,,,,,,,,,,,,,,,,,,,,,,,,531.2241,532.4733,2.958730159,1.2396,0,5,5,12,1,song_indices/SaveYourTears_TheWeekndArianaGrande.csv,,,,,,,,,,,,,,,,,,,,,,,,,,,,,,,,,,,,,,,,,,,,,,,,
,,,,,589716,001,2024-06-17_11h50.36.459,experiment,2024.1.5,Win32,59.17159763,65a57b1b4ce0a142f5b59bf8,667045947eb812cbdacbf325,66705db8c99f10f913bff8d2,,,,,,,,,,,,,,,,,,,,,,,,,,,,,,,,,,,,532.474,539.4739,0,0,0,1,1,SoundStimuli/Dilemma_NellyKellyRowland_Cover5S.wav,,,,,,,,,,,,,,,,,,,,,,,,,,,,,,,,,,,,,,,,,,,,,,,,,,,,,,,,,,
,,,,,589716,001,2024-06-17_11h50.36.459,experiment,2024.1.5,Win32,59.17159763,65a57b1b4ce0a142f5b59bf8,667045947eb812cbdacbf325,66705db8c99f10f913bff8d2,,,,,,,,,,,,,,,,,,,,,,,,,,,,,,,,,,,,539.4844,545.674,0,1,1,0,1,SoundStimuli/Dilemma_NellyKellyRowland_Original5S.wav,,,,,,,,,,,,,,,,,,,,,,,,,,,,,,,,,,,,,,,,,,,,,,,,,,,,,,,,,,
,,,,,589716,001,2024-06-17_11h50.36.459,experiment,2024.1.5,Win32,59.17159763,65a57b1b4ce0a142f5b59bf8,667045947eb812cbdacbf325,66705db8c99f10f913bff8d2,,,,,,,,,,,,,,,,,,,,,,,,,,,,,,,,,,,,,,,,,,,,545.6741,548.1567,1.980952381,2.4698,0,6,6,2,1,song_indices/Dilemma_NellyKellyRowland.csv,,,,,,,,,,,,,,,,,,,,,,,,,,,,,,,,,,,,,,,,,,,,,,,,
,,,,,589716,001,2024-06-17_11h50.36.459,experiment,2024.1.5,Win32,59.17159763,65a57b1b4ce0a142f5b59bf8,667045947eb812cbdacbf325,66705db8c99f10f913bff8d2,,,,,,,,,,,,,,,,,,,,,,,,,,,,,,,,,,,,548.1572,554.6404,0,0,0,1,1,SoundStimuli/Weak_SWV_Cover5S.wav,,,,,,,,,,,,,,,,,,,,,,,,,,,,,,,,,,,,,,,,,,,,,,,,,,,,,,,,,,
,,,,,589716,001,2024-06-17_11h50.36.459,experiment,2024.1.5,Win32,59.17159763,65a57b1b4ce0a142f5b59bf8,667045947eb812cbdacbf325,66705db8c99f10f913bff8d2,,,,,,,,,,,,,,,,,,,,,,,,,,,,,,,,,,,,554.6498,560.7238,0,1,1,0,1,SoundStimuli/Weak_SWV_Original5S.wav,,,,,,,,,,,,,,,,,,,,,,,,,,,,,,,,,,,,,,,,,,,,,,,,,,,,,,,,,,
,,,,,589716,001,2024-06-17_11h50.36.459,experiment,2024.1.5,Win32,59.17159763,65a57b1b4ce0a142f5b59bf8,667045947eb812cbdacbf325,66705db8c99f10f913bff8d2,,,,,,,,,,,,,,,,,,,,,,,,,,,,,,,,,,,,,,,,,,,,560.7239,561.9568,2.99047619,1.2137,0,7,7,6,1,song_indices/Weak_SWV.csv,,,,,,,,,,,,,,,,,,,,,,,,,,,,,,,,,,,,,,,,,,,,,,,,
,,,,,589716,001,2024-06-17_11h50.36.459,experiment,2024.1.5,Win32,59.17159763,65a57b1b4ce0a142f5b59bf8,667045947eb812cbdacbf325,66705db8c99f10f913bff8d2,,,,,,,,,,,,,,,,,,,,,,,,,,,,,,,,,,,,561.9579,568.4406,0,0,0,0,1,SoundStimuli/BlindingLights_TheWeeknd_Original5S.wav,,,,,,,,,,,,,,,,,,,,,,,,,,,,,,,,,,,,,,,,,,,,,,,,,,,,,,,,,,
,,,,,589716,001,2024-06-17_11h50.36.459,experiment,2024.1.5,Win32,59.17159763,65a57b1b4ce0a142f5b59bf8,667045947eb812cbdacbf325,66705db8c99f10f913bff8d2,,,,,,,,,,,,,,,,,,,,,,,,,,,,,,,,,,,,568.4502,575.2404,0,1,1,1,1,SoundStimuli/BlindingLights_TheWeeknd_Cover5S.wav,,,,,,,,,,,,,,,,,,,,,,,,,,,,,,,,,,,,,,,,,,,,,,,,,,,,,,,,,,
,,,,,589716,001,2024-06-17_11h50.36.459,experiment,2024.1.5,Win32,59.17159763,65a57b1b4ce0a142f5b59bf8,667045947eb812cbdacbf325,66705db8c99f10f913bff8d2,,,,,,,,,,,,,,,,,,,,,,,,,,,,,,,,,,,,,,,,,,,,575.2406,578.2237,4.958730159,2.9678,0,8,8,21,1,song_indices/BlindingLights_TheWeeknd.csv,,,,,,,,,,,,,,,,,,,,,,,,,,,,,,,,,,,,,,,,,,,,,,,,
,,,,,589716,001,2024-06-17_11h50.36.459,experiment,2024.1.5,Win32,59.17159763,65a57b1b4ce0a142f5b59bf8,667045947eb812cbdacbf325,66705db8c99f10f913bff8d2,,,,,,,,,,,,,,,,,,,,,,,,,,,,,,,,,,,,578.2248,584.3401,0,0,0,1,1,SoundStimuli/TossinAndTurnin_BobbyLewis_Cover5S.wav,,,,,,,,,,,,,,,,,,,,,,,,,,,,,,,,,,,,,,,,,,,,,,,,,,,,,,,,,,
,,,,,589716,001,2024-06-17_11h50.36.459,experiment,2024.1.5,Win32,59.17159763,65a57b1b4ce0a142f5b59bf8,667045947eb812cbdacbf325,66705db8c99f10f913bff8d2,,,,,,,,,,,,,,,,,,,,,,,,,,,,,,,,,,,,584.3474,590.4074,0,1,1,0,1,SoundStimuli/TossinAndTurnin_BobbyLewis_Original5S.wav,,,,,,,,,,,,,,,,,,,,,,,,,,,,,,,,,,,,,,,,,,,,,,,,,,,,,,,,,,
,,,,,589716,001,2024-06-17_11h50.36.459,experiment,2024.1.5,Win32,59.17159763,65a57b1b4ce0a142f5b59bf8,667045947eb812cbdacbf325,66705db8c99f10f913bff8d2,,,,,,,,,,,,,,,,,,,,,,,,,,,,,,,,,,,,,,,,,,,,590.4075,591.5571,1.993650794,1.1288,0,9,9,13,1,song_indices/TossinAndTurnin_BobbyLewis.csv,,,,,,,,,,,,,,,,,,,,,,,,,,,,,,,,,,,,,,,,,,,,,,,,
,,,,,589716,001,2024-06-17_11h50.36.459,experiment,2024.1.5,Win32,59.17159763,65a57b1b4ce0a142f5b59bf8,667045947eb812cbdacbf325,66705db8c99f10f913bff8d2,,,,,,,,,,,,,,,,,,,,,,,,,,,,,,,,,,,,591.558,598.4072,0,0,0,1,1,SoundStimuli/PokerFace_LadyGaga_Cover5S.wav,,,,,,,,,,,,,,,,,,,,,,,,,,,,,,,,,,,,,,,,,,,,,,,,,,,,,,,,,,
,,,,,589716,001,2024-06-17_11h50.36.459,experiment,2024.1.5,Win32,59.17159763,65a57b1b4ce0a142f5b59bf8,667045947eb812cbdacbf325,66705db8c99f10f913bff8d2,,,,,,,,,,,,,,,,,,,,,,,,,,,,,,,,,,,,598.4173,605.4245,0,1,1,0,1,SoundStimuli/PokerFace_LadyGaga_Original5S.wav,,,,,,,,,,,,,,,,,,,,,,,,,,,,,,,,,,,,,,,,,,,,,,,,,,,,,,,,,,
,,,,,589716,001,2024-06-17_11h50.36.459,experiment,2024.1.5,Win32,59.17159763,65a57b1b4ce0a142f5b59bf8,667045947eb812cbdacbf325,66705db8c99f10f913bff8d2,,,,,,,,,,,,,,,,,,,,,,,,,,,,,,,,,,,,,,,,,,,,605.4247,607.0569,2.977777778,1.6103,0,10,10,23,1,song_indices/PokerFace_LadyGaga.csv,,,,,,,,,,,,,,,,,,,,,,,,,,,,,,,,,,,,,,,,,,,,,,,,
,,,,,589716,001,2024-06-17_11h50.36.459,experiment,2024.1.5,Win32,59.17159763,65a57b1b4ce0a142f5b59bf8,667045947eb812cbdacbf325,66705db8c99f10f913bff8d2,,,,,,,,,,,,,,,,,,,,,,,,,,,,,,,,,,,,607.0579,613.1243,0,0,0,1,1,SoundStimuli/Respect_ArethaFranklin_Cover5S.wav,,,,,,,,,,,,,,,,,,,,,,,,,,,,,,,,,,,,,,,,,,,,,,,,,,,,,,,,,,
,,,,,589716,001,2024-06-17_11h50.36.459,experiment,2024.1.5,Win32,59.17159763,65a57b1b4ce0a142f5b59bf8,667045947eb812cbdacbf325,66705db8c99f10f913bff8d2,,,,,,,,,,,,,,,,,,,,,,,,,,,,,,,,,,,,613.1333,619.0575,0,1,1,0,1,SoundStimuli/Respect_ArethaFranklin_Original5S.wav,,,,,,,,,,,,,,,,,,,,,,,,,,,,,,,,,,,,,,,,,,,,,,,,,,,,,,,,,,
,,,,,589716,001,2024-06-17_11h50.36.459,experiment,2024.1.5,Win32,59.17159763,65a57b1b4ce0a142f5b59bf8,667045947eb812cbdacbf325,66705db8c99f10f913bff8d2,,,,,,,,,,,,,,,,,,,,,,,,,,,,,,,,,,,,,,,,,,,,619.0576,619.8899,2.031746032,0.822,0,11,11,0,1,song_indices/Respect_ArethaFranklin.csv,,,,,,,,,,,,,,,,,,,,,,,,,,,,,,,,,,,,,,,,,,,,,,,,
,,,,,589716,001,2024-06-17_11h50.36.459,experiment,2024.1.5,Win32,59.17159763,65a57b1b4ce0a142f5b59bf8,667045947eb812cbdacbf325,66705db8c99f10f913bff8d2,,,,,,,,,,,,,,,,,,,,,,,,,,,,,,,,,,,,619.8905,626.0238,0,0,0,0,1,SoundStimuli/Superstition_StevieWonder_Original5S.wav,,,,,,,,,,,,,,,,,,,,,,,,,,,,,,,,,,,,,,,,,,,,,,,,,,,,,,,,,,
,,,,,589716,001,2024-06-17_11h50.36.459,experiment,2024.1.5,Win32,59.17159763,65a57b1b4ce0a142f5b59bf8,667045947eb812cbdacbf325,66705db8c99f10f913bff8d2,,,,,,,,,,,,,,,,,,,,,,,,,,,,,,,,,,,,626.0312,631.3242,0,1,1,1,1,SoundStimuli/Superstition_StevieWonder_Cover5S.wav,,,,,,,,,,,,,,,,,,,,,,,,,,,,,,,,,,,,,,,,,,,,,,,,,,,,,,,,,,
,,,,,589716,001,2024-06-17_11h50.36.459,experiment,2024.1.5,Win32,59.17159763,65a57b1b4ce0a142f5b59bf8,667045947eb812cbdacbf325,66705db8c99f10f913bff8d2,,,,,,,,,,,,,,,,,,,,,,,,,,,,,,,,,,,,,,,,,,,,631.3244,633.5068,4.996825397,2.1733,0,12,12,15,1,song_indices/Superstition_StevieWonder.csv,,,,,,,,,,,,,,,,,,,,,,,,,,,,,,,,,,,,,,,,,,,,,,,,
,,,,,589716,001,2024-06-17_11h50.36.459,experiment,2024.1.5,Win32,59.17159763,65a57b1b4ce0a142f5b59bf8,667045947eb812cbdacbf325,66705db8c99f10f913bff8d2,,,,,,,,,,,,,,,,,,,,,,,,,,,,,,,,,,,,633.5079,639.6741,0,0,0,0,1,SoundStimuli/TheSign_AceOfBase_Original5S.wav,,,,,,,,,,,,,,,,,,,,,,,,,,,,,,,,,,,,,,,,,,,,,,,,,,,,,,,,,,
,,,,,589716,001,2024-06-17_11h50.36.459,experiment,2024.1.5,Win32,59.17159763,65a57b1b4ce0a142f5b59bf8,667045947eb812cbdacbf325,66705db8c99f10f913bff8d2,,,,,,,,,,,,,,,,,,,,,,,,,,,,,,,,,,,,639.6828,645.6907,0,1,1,1,1,SoundStimuli/TheSign_AceOfBase_Cover5S.wav,,,,,,,,,,,,,,,,,,,,,,,,,,,,,,,,,,,,,,,,,,,,,,,,,,,,,,,,,,
,,,,,589716,001,2024-06-17_11h50.36.459,experiment,2024.1.5,Win32,59.17159763,65a57b1b4ce0a142f5b59bf8,667045947eb812cbdacbf325,66705db8c99f10f913bff8d2,,,,,,,,,,,,,,,,,,,,,,,,,,,,,,,,,,,,,,,,,,,,645.6908,648.5903,3.949206349,2.8795,0,13,13,5,1,song_indices/TheSign_AceOfBase.csv,,,,,,,,,,,,,,,,,,,,,,,,,,,,,,,,,,,,,,,,,,,,,,,,
,,,,,589716,001,2024-06-17_11h50.36.459,experiment,2024.1.5,Win32,59.17159763,65a57b1b4ce0a142f5b59bf8,667045947eb812cbdacbf325,66705db8c99f10f913bff8d2,,,,,,,,,,,,,,,,,,,,,,,,,,,,,,,,,,,,648.5913,656.024,0,0,0,0,1,SoundStimuli/Kiss_Prince_Original5S.wav,,,,,,,,,,,,,,,,,,,,,,,,,,,,,,,,,,,,,,,,,,,,,,,,,,,,,,,,,,
,,,,,589716,001,2024-06-17_11h50.36.459,experiment,2024.1.5,Win32,59.17159763,65a57b1b4ce0a142f5b59bf8,667045947eb812cbdacbf325,66705db8c99f10f913bff8d2,,,,,,,,,,,,,,,,,,,,,,,,,,,,,,,,,,,,656.0347,662.3075,0,1,1,1,1,SoundStimuli/Kiss_Prince_Cover5S.wav,,,,,,,,,,,,,,,,,,,,,,,,,,,,,,,,,,,,,,,,,,,,,,,,,,,,,,,,,,
,,,,,589716,001,2024-06-17_11h50.36.459,experiment,2024.1.5,Win32,59.17159763,65a57b1b4ce0a142f5b59bf8,667045947eb812cbdacbf325,66705db8c99f10f913bff8d2,,,,,,,,,,,,,,,,,,,,,,,,,,,,,,,,,,,,,,,,,,,,662.3077,663.0734,1.980952381,0.7553,0,14,14,14,1,song_indices/Kiss_Prince.csv,,,,,,,,,,,,,,,,,,,,,,,,,,,,,,,,,,,,,,,,,,,,,,,,
,,,,,589716,001,2024-06-17_11h50.36.459,experiment,2024.1.5,Win32,59.17159763,65a57b1b4ce0a142f5b59bf8,667045947eb812cbdacbf325,66705db8c99f10f913bff8d2,,,,,,,,,,,,,,,,,,,,,,,,,,,,,,,,,,,,663.0739,668.9407,0,0,0,0,1,SoundStimuli/Irreplaceable_Beyonce_Original5S.wav,,,,,,,,,,,,,,,,,,,,,,,,,,,,,,,,,,,,,,,,,,,,,,,,,,,,,,,,,,
,,,,,589716,001,2024-06-17_11h50.36.459,experiment,2024.1.5,Win32,59.17159763,65a57b1b4ce0a142f5b59bf8,667045947eb812cbdacbf325,66705db8c99f10f913bff8d2,,,,,,,,,,,,,,,,,,,,,,,,,,,,,,,,,,,,668.9502,674.8573,0,1,1,1,1,SoundStimuli/Irreplaceable_Beyonce_Cover5S.wav,,,,,,,,,,,,,,,,,,,,,,,,,,,,,,,,,,,,,,,,,,,,,,,,,,,,,,,,,,
,,,,,589716,001,2024-06-17_11h50.36.459,experiment,2024.1.5,Win32,59.17159763,65a57b1b4ce0a142f5b59bf8,667045947eb812cbdacbf325,66705db8c99f10f913bff8d2,,,,,,,,,,,,,,,,,,,,,,,,,,,,,,,,,,,,,,,,,,,,674.8575,678.4238,4.031746032,3.5447,0,15,15,19,1,song_indices/Irreplaceable_Beyonce.csv,,,,,,,,,,,,,,,,,,,,,,,,,,,,,,,,,,,,,,,,,,,,,,,,
,,,,,589716,001,2024-06-17_11h50.36.459,experiment,2024.1.5,Win32,59.17159763,65a57b1b4ce0a142f5b59bf8,667045947eb812cbdacbf325,66705db8c99f10f913bff8d2,,,,,,,,,,,,,,,,,,,,,,,,,,,,,,,,,,,,678.4249,684.8743,0,0,0,1,1,SoundStimuli/YouLightUpMyLife_DebbyBoone_Cover5S.wav,,,,,,,,,,,,,,,,,,,,,,,,,,,,,,,,,,,,,,,,,,,,,,,,,,,,,,,,,,
,,,,,589716,001,2024-06-17_11h50.36.459,experiment,2024.1.5,Win32,59.17159763,65a57b1b4ce0a142f5b59bf8,667045947eb812cbdacbf325,66705db8c99f10f913bff8d2,,,,,,,,,,,,,,,,,,,,,,,,,,,,,,,,,,,,684.8844,690.9575,0,1,1,0,1,SoundStimuli/YouLightUpMyLife_DebbyBoone_Original5S.wav,,,,,,,,,,,,,,,,,,,,,,,,,,,,,,,,,,,,,,,,,,,,,,,,,,,,,,,,,,
,,,,,589716,001,2024-06-17_11h50.36.459,experiment,2024.1.5,Win32,59.17159763,65a57b1b4ce0a142f5b59bf8,667045947eb812cbdacbf325,66705db8c99f10f913bff8d2,,,,,,,,,,,,,,,,,,,,,,,,,,,,,,,,,,,,,,,,,,,,690.9578,692.457,6.977777778,1.4757,0,16,16,4,1,song_indices/YouLightUpMyLife_DebbyBoone.csv,,,,,,,,,,,,,,,,,,,,,,,,,,,,,,,,,,,,,,,,,,,,,,,,
,,,,,589716,001,2024-06-17_11h50.36.459,experiment,2024.1.5,Win32,59.17159763,65a57b1b4ce0a142f5b59bf8,667045947eb812cbdacbf325,66705db8c99f10f913bff8d2,,,,,,,,,,,,,,,,,,,,,,,,,,,,,,,,,,,,692.458,698.5574,0,0,0,0,1,SoundStimuli/UnbreakMyHeart_ToniBraxton_Original5S.wav,,,,,,,,,,,,,,,,,,,,,,,,,,,,,,,,,,,,,,,,,,,,,,,,,,,,,,,,,,
,,,,,589716,001,2024-06-17_11h50.36.459,experiment,2024.1.5,Win32,59.17159763,65a57b1b4ce0a142f5b59bf8,667045947eb812cbdacbf325,66705db8c99f10f913bff8d2,,,,,,,,,,,,,,,,,,,,,,,,,,,,,,,,,,,,698.5679,702.5406,0,1,1,1,1,SoundStimuli/UnbreakMyHeart_ToniBraxton_Cover5S.wav,,,,,,,,,,,,,,,,,,,,,,,,,,,,,,,,,,,,,,,,,,,,,,,,,,,,,,,,,,
,,,,,589716,001,2024-06-17_11h50.36.459,experiment,2024.1.5,Win32,59.17159763,65a57b1b4ce0a142f5b59bf8,667045947eb812cbdacbf325,66705db8c99f10f913bff8d2,,,,,,,,,,,,,,,,,,,,,,,,,,,,,,,,,,,,,,,,,,,,702.5408,704.0903,3.047619048,1.5374,0,17,17,16,1,song_indices/UnbreakMyHeart_ToniBraxton.csv,,,,,,,,,,,,,,,,,,,,,,,,,,,,,,,,,,,,,,,,,,,,,,,,
,,,,,589716,001,2024-06-17_11h50.36.459,experiment,2024.1.5,Win32,59.17159763,65a57b1b4ce0a142f5b59bf8,667045947eb812cbdacbf325,66705db8c99f10f913bff8d2,,,,,,,,,,,,,,,,,,,,,,,,,,,,,,,,,,,,704.0908,710.7407,0,0,0,1,1,SoundStimuli/LetsGetItOn_MarvinGaye_Cover5S.wav,,,,,,,,,,,,,,,,,,,,,,,,,,,,,,,,,,,,,,,,,,,,,,,,,,,,,,,,,,
,,,,,589716,001,2024-06-17_11h50.36.459,experiment,2024.1.5,Win32,59.17159763,65a57b1b4ce0a142f5b59bf8,667045947eb812cbdacbf325,66705db8c99f10f913bff8d2,,,,,,,,,,,,,,,,,,,,,,,,,,,,,,,,,,,,710.7506,717.041,0,1,1,0,1,SoundStimuli/LetsGetItOn_MarvinGaye_Original5S.wav,,,,,,,,,,,,,,,,,,,,,,,,,,,,,,,,,,,,,,,,,,,,,,,,,,,,,,,,,,
,,,,,589716,001,2024-06-17_11h50.36.459,experiment,2024.1.5,Win32,59.17159763,65a57b1b4ce0a142f5b59bf8,667045947eb812cbdacbf325,66705db8c99f10f913bff8d2,,,,,,,,,,,,,,,,,,,,,,,,,,,,,,,,,,,,,,,,,,,,717.0412,718.8569,1.923809524,1.799,0,18,18,20,1,song_indices/LetsGetItOn_MarvinGaye.csv,,,,,,,,,,,,,,,,,,,,,,,,,,,,,,,,,,,,,,,,,,,,,,,,
,,,,,589716,001,2024-06-17_11h50.36.459,experiment,2024.1.5,Win32,59.17159763,65a57b1b4ce0a142f5b59bf8,667045947eb812cbdacbf325,66705db8c99f10f913bff8d2,,,,,,,,,,,,,,,,,,,,,,,,,,,,,,,,,,,,718.8579,724.8907,0,0,0,0,1,SoundStimuli/HowDoILive_LeAnnRimes_Original5S.wav,,,,,,,,,,,,,,,,,,,,,,,,,,,,,,,,,,,,,,,,,,,,,,,,,,,,,,,,,,
,,,,,589716,001,2024-06-17_11h50.36.459,experiment,2024.1.5,Win32,59.17159763,65a57b1b4ce0a142f5b59bf8,667045947eb812cbdacbf325,66705db8c99f10f913bff8d2,,,,,,,,,,,,,,,,,,,,,,,,,,,,,,,,,,,,724.9007,730.3744,0,1,1,1,1,SoundStimuli/HowDoILive_LeAnnRimes_Cover5S.wav,,,,,,,,,,,,,,,,,,,,,,,,,,,,,,,,,,,,,,,,,,,,,,,,,,,,,,,,,,
,,,,,589716,001,2024-06-17_11h50.36.459,experiment,2024.1.5,Win32,59.17159763,65a57b1b4ce0a142f5b59bf8,667045947eb812cbdacbf325,66705db8c99f10f913bff8d2,,,,,,,,,,,,,,,,,,,,,,,,,,,,,,,,,,,,,,,,,,,,730.3745,731.4072,6,1.0136,0,19,19,17,1,song_indices/HowDoILive_LeAnnRimes.csv,,,,,,,,,,,,,,,,,,,,,,,,,,,,,,,,,,,,,,,,,,,,,,,,
,,,,,589716,001,2024-06-17_11h50.36.459,experiment,2024.1.5,Win32,59.17159763,65a57b1b4ce0a142f5b59bf8,667045947eb812cbdacbf325,66705db8c99f10f913bff8d2,,,,,,,,,,,,,,,,,,,,,,,,,,,,,,,,,,,,731.4079,738.6408,0,0,0,0,1,SoundStimuli/SomebodyThatIUsedtoKnow_Gotye_Original5S.wav,,,,,,,,,,,,,,,,,,,,,,,,,,,,,,,,,,,,,,,,,,,,,,,,,,,,,,,,,,
,,,,,589716,001,2024-06-17_11h50.36.459,experiment,2024.1.5,Win32,59.17159763,65a57b1b4ce0a142f5b59bf8,667045947eb812cbdacbf325,66705db8c99f10f913bff8d2,,,,,,,,,,,,,,,,,,,,,,,,,,,,,,,,,,,,738.6535,745.4407,0,1,1,1,1,SoundStimuli/SomebodyThatIUsedtoKnow_Gotye_Cover5S.wav,,,,,,,,,,,,,,,,,,,,,,,,,,,,,,,,,,,,,,,,,,,,,,,,,,,,,,,,,,
,,,,,589716,001,2024-06-17_11h50.36.459,experiment,2024.1.5,Win32,59.17159763,65a57b1b4ce0a142f5b59bf8,667045947eb812cbdacbf325,66705db8c99f10f913bff8d2,,,,,,,,,,,,,,,,,,,,,,,,,,,,,,,,,,,,,,,,,,,,745.4412,746.2238,6.977777778,0.7664,0,20,20,7,1,song_indices/SomebodyThatIUsedtoKnow_Gotye.csv,,,,,,,,,,,,,,,,,,,,,,,,,,,,,,,,,,,,,,,,,,,,,,,,
,,,,,589716,001,2024-06-17_11h50.36.459,experiment,2024.1.5,Win32,59.17159763,65a57b1b4ce0a142f5b59bf8,667045947eb812cbdacbf325,66705db8c99f10f913bff8d2,,,,,,,,,,,,,,,,,,,,,,,,,,,,,,,,,,,,746.2247,752.7407,0,0,0,0,1,SoundStimuli/Dreams_FleetwoodMac_Original5S.wav,,,,,,,,,,,,,,,,,,,,,,,,,,,,,,,,,,,,,,,,,,,,,,,,,,,,,,,,,,
,,,,,589716,001,2024-06-17_11h50.36.459,experiment,2024.1.5,Win32,59.17159763,65a57b1b4ce0a142f5b59bf8,667045947eb812cbdacbf325,66705db8c99f10f913bff8d2,,,,,,,,,,,,,,,,,,,,,,,,,,,,,,,,,,,,752.7508,760.5744,0,1,1,1,1,SoundStimuli/Dreams_FleetwoodMac_Cover5S.wav,,,,,,,,,,,,,,,,,,,,,,,,,,,,,,,,,,,,,,,,,,,,,,,,,,,,,,,,,,
,,,,,589716,001,2024-06-17_11h50.36.459,experiment,2024.1.5,Win32,59.17159763,65a57b1b4ce0a142f5b59bf8,667045947eb812cbdacbf325,66705db8c99f10f913bff8d2,,,,,,,,,,,,,,,,,,,,,,,,,,,,,,,,,,,,,,,,,,,,760.5746,761.3404,4.044444444,0.7537,0,21,21,1,1,song_indices/Dreams_FleetwoodMac.csv,,,,,,,,,,,,,,,,,,,,,,,,,,,,,,,,,,,,,,,,,,,,,,,,
,,,,,589716,001,2024-06-17_11h50.36.459,experiment,2024.1.5,Win32,59.17159763,65a57b1b4ce0a142f5b59bf8,667045947eb812cbdacbf325,66705db8c99f10f913bff8d2,,,,,,,,,,,,,,,,,,,,,,,,,,,,,,,,,,,,761.3411,767.5578,0,0,0,0,1,SoundStimuli/TikTok_Kesha_Original5S.wav,,,,,,,,,,,,,,,,,,,,,,,,,,,,,,,,,,,,,,,,,,,,,,,,,,,,,,,,,,
,,,,,589716,001,2024-06-17_11h50.36.459,experiment,2024.1.5,Win32,59.17159763,65a57b1b4ce0a142f5b59bf8,667045947eb812cbdacbf325,66705db8c99f10f913bff8d2,,,,,,,,,,,,,,,,,,,,,,,,,,,,,,,,,,,,767.5674,775.0909,0,1,1,1,1,SoundStimuli/TikTok_Kesha_Cover5S.wav,,,,,,,,,,,,,,,,,,,,,,,,,,,,,,,,,,,,,,,,,,,,,,,,,,,,,,,,,,
,,,,,589716,001,2024-06-17_11h50.36.459,experiment,2024.1.5,Win32,59.17159763,65a57b1b4ce0a142f5b59bf8,667045947eb812cbdacbf325,66705db8c99f10f913bff8d2,,,,,,,,,,,,,,,,,,,,,,,,,,,,,,,,,,,,,,,,,,,,775.0911,777.0572,4.984126984,1.948,0,22,22,3,1,song_indices/TikTok_Kesha.csv,,,,,,,,,,,,,,,,,,,,,,,,,,,,,,,,,,,,,,,,,,,,,,,,
,,,,,589716,001,2024-06-17_11h50.36.459,experiment,2024.1.5,Win32,59.17159763,65a57b1b4ce0a142f5b59bf8,667045947eb812cbdacbf325,66705db8c99f10f913bff8d2,,,,,,,,,,,,,,,,,,,,,,,,,,,,,,,,,,,,777.0582,783.0909,0,0,0,0,1,SoundStimuli/LeFreak_Chic_Original5S.wav,,,,,,,,,,,,,,,,,,,,,,,,,,,,,,,,,,,,,,,,,,,,,,,,,,,,,,,,,,
,,,,,589716,001,2024-06-17_11h50.36.459,experiment,2024.1.5,Win32,59.17159763,65a57b1b4ce0a142f5b59bf8,667045947eb812cbdacbf325,66705db8c99f10f913bff8d2,,,,,,,,,,,,,,,,,,,,,,,,,,,,,,,,,,,,783.1005,788.6078,0,1,1,1,1,SoundStimuli/LeFreak_Chic_Cover5S.wav,,,,,,,,,,,,,,,,,,,,,,,,,,,,,,,,,,,,,,,,,,,,,,,,,,,,,,,,,,
,,,,,589716,001,2024-06-17_11h50.36.459,experiment,2024.1.5,Win32,59.17159763,65a57b1b4ce0a142f5b59bf8,667045947eb812cbdacbf325,66705db8c99f10f913bff8d2,,,,,,,,,,,,,,,,,,,,,,,,,,,,,,,,,,,,,,,,,,,,788.6079,790.2572,5.041269841,1.6286,0,23,23,11,1,song_indices/LeFreak_Chic.csv,,,,,,,,,,,,,,,,,,,,,,,,,,,,,,,,,,,,,,,,,,,,,,,,
,,,,,589716,001,2024-06-17_11h50.36.459,experiment,2024.1.5,Win32,59.17159763,65a57b1b4ce0a142f5b59bf8,667045947eb812cbdacbf325,66705db8c99f10f913bff8d2,,,,,,,,,,,,,,,,,,,,,,,,,,,,,,,,,,,,,,,,,,,,,,,,,,,,,,790.2573,800.6988,space,10.4285,,0,1,1,2,1,choose_song_b3.csv,,,,,,,,,,,,,,,,,,,,,,,,,,,,,,,,,,,,,
,,,,,589716,001,2024-06-17_11h50.36.459,experiment,2024.1.5,Win32,59.17159763,65a57b1b4ce0a142f5b59bf8,667045947eb812cbdacbf325,66705db8c99f10f913bff8d2,,,,,,,,,,,,,,,,,,,,,,,,,,,,,,,,,,,,800.6998,807.4745,0,0,0,1,1,SoundStimuli/PartyRockAnthem_LMFAO_Cover5S.wav,,,,,,,,,,,,,,,,,,,,,,,,,,,,,,,,,,,,,,,,,,,,,,,,,,,,,,,,,,
,,,,,589716,001,2024-06-17_11h50.36.459,experiment,2024.1.5,Win32,59.17159763,65a57b1b4ce0a142f5b59bf8,667045947eb812cbdacbf325,66705db8c99f10f913bff8d2,,,,,,,,,,,,,,,,,,,,,,,,,,,,,,,,,,,,807.4847,814.2243,0,1,1,0,1,SoundStimuli/PartyRockAnthem_LMFAO_Original5S.wav,,,,,,,,,,,,,,,,,,,,,,,,,,,,,,,,,,,,,,,,,,,,,,,,,,,,,,,,,,
,,,,,589716,001,2024-06-17_11h50.36.459,experiment,2024.1.5,Win32,59.17159763,65a57b1b4ce0a142f5b59bf8,667045947eb812cbdacbf325,66705db8c99f10f913bff8d2,,,,,,,,,,,,,,,,,,,,,,,,,,,,,,,,,,,,,,,,,,,,814.2245,814.9405,5.015873016,0.7038,0,0,0,2,1,song_indices/PartyRockAnthem_LMFAO.csv,,,,,,,,,,,,,,,,,,,,,,,,,,,,,,,,,,,,,,,,,,,,,,,,
,,,,,589716,001,2024-06-17_11h50.36.459,experiment,2024.1.5,Win32,59.17159763,65a57b1b4ce0a142f5b59bf8,667045947eb812cbdacbf325,66705db8c99f10f913bff8d2,,,,,,,,,,,,,,,,,,,,,,,,,,,,,,,,,,,,814.9416,821.3244,0,0,0,0,1,SoundStimuli/IWillAlwaysLoveYou_WhitneyHouston_Original5S.wav,,,,,,,,,,,,,,,,,,,,,,,,,,,,,,,,,,,,,,,,,,,,,,,,,,,,,,,,,,
,,,,,589716,001,2024-06-17_11h50.36.459,experiment,2024.1.5,Win32,59.17159763,65a57b1b4ce0a142f5b59bf8,667045947eb812cbdacbf325,66705db8c99f10f913bff8d2,,,,,,,,,,,,,,,,,,,,,,,,,,,,,,,,,,,,821.3347,827.1748,0,1,1,1,1,SoundStimuli/IWillAlwaysLoveYou_WhitneyHouston_Cover5S.wav,,,,,,,,,,,,,,,,,,,,,,,,,,,,,,,,,,,,,,,,,,,,,,,,,,,,,,,,,,
,,,,,589716,001,2024-06-17_11h50.36.459,experiment,2024.1.5,Win32,59.17159763,65a57b1b4ce0a142f5b59bf8,667045947eb812cbdacbf325,66705db8c99f10f913bff8d2,,,,,,,,,,,,,,,,,,,,,,,,,,,,,,,,,,,,,,,,,,,,827.175,828.4738,6.984126984,1.2802,0,1,1,10,1,song_indices/IWillAlwaysLoveYou_WhitneyHouston.csv,,,,,,,,,,,,,,,,,,,,,,,,,,,,,,,,,,,,,,,,,,,,,,,,
,,,,,589716,001,2024-06-17_11h50.36.459,experiment,2024.1.5,Win32,59.17159763,65a57b1b4ce0a142f5b59bf8,667045947eb812cbdacbf325,66705db8c99f10f913bff8d2,,,,,,,,,,,,,,,,,,,,,,,,,,,,,,,,,,,,828.4745,834.4577,0,0,0,0,1,SoundStimuli/IWalkTheLine_JohnnyCash_Original5S.wav,,,,,,,,,,,,,,,,,,,,,,,,,,,,,,,,,,,,,,,,,,,,,,,,,,,,,,,,,,
,,,,,589716,001,2024-06-17_11h50.36.459,experiment,2024.1.5,Win32,59.17159763,65a57b1b4ce0a142f5b59bf8,667045947eb812cbdacbf325,66705db8c99f10f913bff8d2,,,,,,,,,,,,,,,,,,,,,,,,,,,,,,,,,,,,834.467,841.6078,0,1,1,1,1,SoundStimuli/IWalkTheLine_JohnnyCash_Cover5S.wav,,,,,,,,,,,,,,,,,,,,,,,,,,,,,,,,,,,,,,,,,,,,,,,,,,,,,,,,,,
,,,,,589716,001,2024-06-17_11h50.36.459,experiment,2024.1.5,Win32,59.17159763,65a57b1b4ce0a142f5b59bf8,667045947eb812cbdacbf325,66705db8c99f10f913bff8d2,,,,,,,,,,,,,,,,,,,,,,,,,,,,,,,,,,,,,,,,,,,,841.608,842.4441,6.088888889,0.824,0,2,2,17,1,song_indices/IWalkTheLine_JohnnyCash.csv,,,,,,,,,,,,,,,,,,,,,,,,,,,,,,,,,,,,,,,,,,,,,,,,
,,,,,589716,001,2024-06-17_11h50.36.459,experiment,2024.1.5,Win32,59.17159763,65a57b1b4ce0a142f5b59bf8,667045947eb812cbdacbf325,66705db8c99f10f913bff8d2,,,,,,,,,,,,,,,,,,,,,,,,,,,,,,,,,,,,842.4446,848.9911,0,0,0,0,1,SoundStimuli/CrazyInLove_BeyonceFtJayZ_Original5S.wav,,,,,,,,,,,,,,,,,,,,,,,,,,,,,,,,,,,,,,,,,,,,,,,,,,,,,,,,,,
,,,,,589716,001,2024-06-17_11h50.36.459,experiment,2024.1.5,Win32,59.17159763,65a57b1b4ce0a142f5b59bf8,667045947eb812cbdacbf325,66705db8c99f10f913bff8d2,,,,,,,,,,,,,,,,,,,,,,,,,,,,,,,,,,,,849.0009,859.2411,0,1,1,1,1,SoundStimuli/CrazyInLove_BeyonceFtJayZ_Cover5S.wav,,,,,,,,,,,,,,,,,,,,,,,,,,,,,,,,,,,,,,,,,,,,,,,,,,,,,,,,,,
,,,,,589716,001,2024-06-17_11h50.36.459,experiment,2024.1.5,Win32,59.17159763,65a57b1b4ce0a142f5b59bf8,667045947eb812cbdacbf325,66705db8c99f10f913bff8d2,,,,,,,,,,,,,,,,,,,,,,,,,,,,,,,,,,,,,,,,,,,,859.2412,860.8574,4.088888889,1.6019,0,3,3,3,1,song_indices/CrazyInLove_BeyonceFtJayZ.csv,,,,,,,,,,,,,,,,,,,,,,,,,,,,,,,,,,,,,,,,,,,,,,,,
,,,,,589716,001,2024-06-17_11h50.36.459,experiment,2024.1.5,Win32,59.17159763,65a57b1b4ce0a142f5b59bf8,667045947eb812cbdacbf325,66705db8c99f10f913bff8d2,,,,,,,,,,,,,,,,,,,,,,,,,,,,,,,,,,,,860.8585,867.441,0,0,0,1,1,SoundStimuli/GetUrFreakOn_MissyElliot_Cover5S.wav,,,,,,,,,,,,,,,,,,,,,,,,,,,,,,,,,,,,,,,,,,,,,,,,,,,,,,,,,,
,,,,,589716,001,2024-06-17_11h50.36.459,experiment,2024.1.5,Win32,59.17159763,65a57b1b4ce0a142f5b59bf8,667045947eb812cbdacbf325,66705db8c99f10f913bff8d2,,,,,,,,,,,,,,,,,,,,,,,,,,,,,,,,,,,,867.4516,873.5245,0,1,1,0,1,SoundStimuli/GetUrFreakOn_MissyElliot_Original5S.wav,,,,,,,,,,,,,,,,,,,,,,,,,,,,,,,,,,,,,,,,,,,,,,,,,,,,,,,,,,
,,,,,589716,001,2024-06-17_11h50.36.459,experiment,2024.1.5,Win32,59.17159763,65a57b1b4ce0a142f5b59bf8,667045947eb812cbdacbf325,66705db8c99f10f913bff8d2,,,,,,,,,,,,,,,,,,,,,,,,,,,,,,,,,,,,,,,,,,,,873.5247,874.8239,2.996825397,1.2829,0,4,4,18,1,song_indices/GetUrFreakOn_MissyElliot.csv,,,,,,,,,,,,,,,,,,,,,,,,,,,,,,,,,,,,,,,,,,,,,,,,
,,,,,589716,001,2024-06-17_11h50.36.459,experiment,2024.1.5,Win32,59.17159763,65a57b1b4ce0a142f5b59bf8,667045947eb812cbdacbf325,66705db8c99f10f913bff8d2,,,,,,,,,,,,,,,,,,,,,,,,,,,,,,,,,,,,874.8245,881.1411,0,0,0,0,1,SoundStimuli/RockWithYou_MichaelJackson_Original5S.wav,,,,,,,,,,,,,,,,,,,,,,,,,,,,,,,,,,,,,,,,,,,,,,,,,,,,,,,,,,
,,,,,589716,001,2024-06-17_11h50.36.459,experiment,2024.1.5,Win32,59.17159763,65a57b1b4ce0a142f5b59bf8,667045947eb812cbdacbf325,66705db8c99f10f913bff8d2,,,,,,,,,,,,,,,,,,,,,,,,,,,,,,,,,,,,881.1491,887.2082,0,1,1,1,1,SoundStimuli/RockWithYou_MichaelJackson_Cover5S.wav,,,,,,,,,,,,,,,,,,,,,,,,,,,,,,,,,,,,,,,,,,,,,,,,,,,,,,,,,,
,,,,,589716,001,2024-06-17_11h50.36.459,experiment,2024.1.5,Win32,59.17159763,65a57b1b4ce0a142f5b59bf8,667045947eb812cbdacbf325,66705db8c99f10f913bff8d2,,,,,,,,,,,,,,,,,,,,,,,,,,,,,,,,,,,,,,,,,,,,887.2083,888.8738,2.977777778,1.6583,0,5,5,16,1,song_indices/RockWithYou_MichaelJackson.csv,,,,,,,,,,,,,,,,,,,,,,,,,,,,,,,,,,,,,,,,,,,,,,,,
,,,,,589716,001,2024-06-17_11h50.36.459,experiment,2024.1.5,Win32,59.17159763,65a57b1b4ce0a142f5b59bf8,667045947eb812cbdacbf325,66705db8c99f10f913bff8d2,,,,,,,,,,,,,,,,,,,,,,,,,,,,,,,,,,,,888.8743,894.7579,0,0,0,0,1,SoundStimuli/EyeOfTheTiger_Survivor_Original5S.wav,,,,,,,,,,,,,,,,,,,,,,,,,,,,,,,,,,,,,,,,,,,,,,,,,,,,,,,,,,
,,,,,589716,001,2024-06-17_11h50.36.459,experiment,2024.1.5,Win32,59.17159763,65a57b1b4ce0a142f5b59bf8,667045947eb812cbdacbf325,66705db8c99f10f913bff8d2,,,,,,,,,,,,,,,,,,,,,,,,,,,,,,,,,,,,894.7675,900.8913,0,1,1,1,1,SoundStimuli/EyeOfTheTiger_Survivor_Cover5S.wav,,,,,,,,,,,,,,,,,,,,,,,,,,,,,,,,,,,,,,,,,,,,,,,,,,,,,,,,,,
,,,,,589716,001,2024-06-17_11h50.36.459,experiment,2024.1.5,Win32,59.17159763,65a57b1b4ce0a142f5b59bf8,667045947eb812cbdacbf325,66705db8c99f10f913bff8d2,,,,,,,,,,,,,,,,,,,,,,,,,,,,,,,,,,,,,,,,,,,,900.8915,901.7573,5.923809524,0.8456,0,6,6,11,1,song_indices/EyeOfTheTiger_Survivor.csv,,,,,,,,,,,,,,,,,,,,,,,,,,,,,,,,,,,,,,,,,,,,,,,,
,,,,,589716,001,2024-06-17_11h50.36.459,experiment,2024.1.5,Win32,59.17159763,65a57b1b4ce0a142f5b59bf8,667045947eb812cbdacbf325,66705db8c99f10f913bff8d2,,,,,,,,,,,,,,,,,,,,,,,,,,,,,,,,,,,,901.7585,907.8583,0,0,0,0,1,SoundStimuli/GimmeShelter_RollingStones_Original5S.wav,,,,,,,,,,,,,,,,,,,,,,,,,,,,,,,,,,,,,,,,,,,,,,,,,,,,,,,,,,
,,,,,589716,001,2024-06-17_11h50.36.459,experiment,2024.1.5,Win32,59.17159763,65a57b1b4ce0a142f5b59bf8,667045947eb812cbdacbf325,66705db8c99f10f913bff8d2,,,,,,,,,,,,,,,,,,,,,,,,,,,,,,,,,,,,907.8683,914.0747,0,1,1,1,1,SoundStimuli/GimmeShelter_RollingStones_Cover5S.wav,,,,,,,,,,,,,,,,,,,,,,,,,,,,,,,,,,,,,,,,,,,,,,,,,,,,,,,,,,
,,,,,589716,001,2024-06-17_11h50.36.459,experiment,2024.1.5,Win32,59.17159763,65a57b1b4ce0a142f5b59bf8,667045947eb812cbdacbf325,66705db8c99f10f913bff8d2,,,,,,,,,,,,,,,,,,,,,,,,,,,,,,,,,,,,,,,,,,,,914.0749,915.1908,5.892063492,1.0979,0,7,7,20,1,song_indices/GimmeShelter_RollingStones.csv,,,,,,,,,,,,,,,,,,,,,,,,,,,,,,,,,,,,,,,,,,,,,,,,
,,,,,589716,001,2024-06-17_11h50.36.459,experiment,2024.1.5,Win32,59.17159763,65a57b1b4ce0a142f5b59bf8,667045947eb812cbdacbf325,66705db8c99f10f913bff8d2,,,,,,,,,,,,,,,,,,,,,,,,,,,,,,,,,,,,915.1919,922.4246,0,0,0,0,1,SoundStimuli/UptownFunk_MarkRonson_Original5S.wav,,,,,,,,,,,,,,,,,,,,,,,,,,,,,,,,,,,,,,,,,,,,,,,,,,,,,,,,,,
,,,,,589716,001,2024-06-17_11h50.36.459,experiment,2024.1.5,Win32,59.17159763,65a57b1b4ce0a142f5b59bf8,667045947eb812cbdacbf325,66705db8c99f10f913bff8d2,,,,,,,,,,,,,,,,,,,,,,,,,,,,,,,,,,,,922.4336,929.4413,0,1,1,1,1,SoundStimuli/UptownFunk_MarkRonson_Cover5S.wav,,,,,,,,,,,,,,,,,,,,,,,,,,,,,,,,,,,,,,,,,,,,,,,,,,,,,,,,,,
,,,,,589716,001,2024-06-17_11h50.36.459,experiment,2024.1.5,Win32,59.17159763,65a57b1b4ce0a142f5b59bf8,667045947eb812cbdacbf325,66705db8c99f10f913bff8d2,,,,,,,,,,,,,,,,,,,,,,,,,,,,,,,,,,,,,,,,,,,,929.4415,930.2909,6.958730159,0.8321,0,8,8,15,1,song_indices/UptownFunk_MarkRonson.csv,,,,,,,,,,,,,,,,,,,,,,,,,,,,,,,,,,,,,,,,,,,,,,,,
,,,,,589716,001,2024-06-17_11h50.36.459,experiment,2024.1.5,Win32,59.17159763,65a57b1b4ce0a142f5b59bf8,667045947eb812cbdacbf325,66705db8c99f10f913bff8d2,,,,,,,,,,,,,,,,,,,,,,,,,,,,,,,,,,,,930.2919,936.5913,0,0,0,0,1,SoundStimuli/HeyYa_Outkast_Original5S.wav,,,,,,,,,,,,,,,,,,,,,,,,,,,,,,,,,,,,,,,,,,,,,,,,,,,,,,,,,,
,,,,,589716,001,2024-06-17_11h50.36.459,experiment,2024.1.5,Win32,59.17159763,65a57b1b4ce0a142f5b59bf8,667045947eb812cbdacbf325,66705db8c99f10f913bff8d2,,,,,,,,,,,,,,,,,,,,,,,,,,,,,,,,,,,,936.6016,945.5081,0,1,1,1,1,SoundStimuli/HeyYa_Outkast_Cover5S.wav,,,,,,,,,,,,,,,,,,,,,,,,,,,,,,,,,,,,,,,,,,,,,,,,,,,,,,,,,,
,,,,,589716,001,2024-06-17_11h50.36.459,experiment,2024.1.5,Win32,59.17159763,65a57b1b4ce0a142f5b59bf8,667045947eb812cbdacbf325,66705db8c99f10f913bff8d2,,,,,,,,,,,,,,,,,,,,,,,,,,,,,,,,,,,,,,,,,,,,945.5082,946.5242,1.028571429,1.0022,0,9,9,22,1,song_indices/HeyYa_Outkast.csv,,,,,,,,,,,,,,,,,,,,,,,,,,,,,,,,,,,,,,,,,,,,,,,,
,,,,,589716,001,2024-06-17_11h50.36.459,experiment,2024.1.5,Win32,59.17159763,65a57b1b4ce0a142f5b59bf8,667045947eb812cbdacbf325,66705db8c99f10f913bff8d2,,,,,,,,,,,,,,,,,,,,,,,,,,,,,,,,,,,,946.5251,954.508,0,0,0,1,1,SoundStimuli/TheBattleOfNewOrleans_JohnnyHorton_Cover5S.wav,,,,,,,,,,,,,,,,,,,,,,,,,,,,,,,,,,,,,,,,,,,,,,,,,,,,,,,,,,
,,,,,589716,001,2024-06-17_11h50.36.459,experiment,2024.1.5,Win32,59.17159763,65a57b1b4ce0a142f5b59bf8,667045947eb812cbdacbf325,66705db8c99f10f913bff8d2,,,,,,,,,,,,,,,,,,,,,,,,,,,,,,,,,,,,954.5191,960.7246,0,1,1,0,1,SoundStimuli/TheBattleOfNewOrleans_JohnnyHorton_Original5S.wav,,,,,,,,,,,,,,,,,,,,,,,,,,,,,,,,,,,,,,,,,,,,,,,,,,,,,,,,,,
,,,,,589716,001,2024-06-17_11h50.36.459,experiment,2024.1.5,Win32,59.17159763,65a57b1b4ce0a142f5b59bf8,667045947eb812cbdacbf325,66705db8c99f10f913bff8d2,,,,,,,,,,,,,,,,,,,,,,,,,,,,,,,,,,,,,,,,,,,,960.7248,964.5075,1.015873016,3.7706,0,10,10,4,1,song_indices/TheBattleOfNewOrleans_JohnnyHorton.csv,,,,,,,,,,,,,,,,,,,,,,,,,,,,,,,,,,,,,,,,,,,,,,,,
,,,,,589716,001,2024-06-17_11h50.36.459,experiment,2024.1.5,Win32,59.17159763,65a57b1b4ce0a142f5b59bf8,667045947eb812cbdacbf325,66705db8c99f10f913bff8d2,,,,,,,,,,,,,,,,,,,,,,,,,,,,,,,,,,,,964.5082,970.6915,0,0,0,0,1,SoundStimuli/NoScrubs_TLC_Original5S.wav,,,,,,,,,,,,,,,,,,,,,,,,,,,,,,,,,,,,,,,,,,,,,,,,,,,,,,,,,,
,,,,,589716,001,2024-06-17_11h50.36.459,experiment,2024.1.5,Win32,59.17159763,65a57b1b4ce0a142f5b59bf8,667045947eb812cbdacbf325,66705db8c99f10f913bff8d2,,,,,,,,,,,,,,,,,,,,,,,,,,,,,,,,,,,,970.7017,976.8255,0,1,1,1,1,SoundStimuli/NoScrubs_TLC_Cover5S.wav,,,,,,,,,,,,,,,,,,,,,,,,,,,,,,,,,,,,,,,,,,,,,,,,,,,,,,,,,,
,,,,,589716,001,2024-06-17_11h50.36.459,experiment,2024.1.5,Win32,59.17159763,65a57b1b4ce0a142f5b59bf8,667045947eb812cbdacbf325,66705db8c99f10f913bff8d2,,,,,,,,,,,,,,,,,,,,,,,,,,,,,,,,,,,,,,,,,,,,976.8258,978.9742,6.996825397,2.1324,0,11,11,14,1,song_indices/NoScrubs_TLC.csv,,,,,,,,,,,,,,,,,,,,,,,,,,,,,,,,,,,,,,,,,,,,,,,,
,,,,,589716,001,2024-06-17_11h50.36.459,experiment,2024.1.5,Win32,59.17159763,65a57b1b4ce0a142f5b59bf8,667045947eb812cbdacbf325,66705db8c99f10f913bff8d2,,,,,,,,,,,,,,,,,,,,,,,,,,,,,,,,,,,,978.9754,984.9248,0,0,0,1,1,SoundStimuli/TheBoyIsMine_BrandyMonica_Cover5S.wav,,,,,,,,,,,,,,,,,,,,,,,,,,,,,,,,,,,,,,,,,,,,,,,,,,,,,,,,,,
,,,,,589716,001,2024-06-17_11h50.36.459,experiment,2024.1.5,Win32,59.17159763,65a57b1b4ce0a142f5b59bf8,667045947eb812cbdacbf325,66705db8c99f10f913bff8d2,,,,,,,,,,,,,,,,,,,,,,,,,,,,,,,,,,,,984.9254,991.1416,0,1,1,0,1,SoundStimuli/TheBoyIsMine_BrandyMonica_Original5S.wav,,,,,,,,,,,,,,,,,,,,,,,,,,,,,,,,,,,,,,,,,,,,,,,,,,,,,,,,,,
,,,,,589716,001,2024-06-17_11h50.36.459,experiment,2024.1.5,Win32,59.17159763,65a57b1b4ce0a142f5b59bf8,667045947eb812cbdacbf325,66705db8c99f10f913bff8d2,,,,,,,,,,,,,,,,,,,,,,,,,,,,,,,,,,,,,,,,,,,,991.1417,993.4741,6.958730159,2.3232,0,12,12,6,1,song_indices/TheBoyIsMine_BrandyMonica.csv,,,,,,,,,,,,,,,,,,,,,,,,,,,,,,,,,,,,,,,,,,,,,,,,
,,,,,589716,001,2024-06-17_11h50.36.459,experiment,2024.1.5,Win32,59.17159763,65a57b1b4ce0a142f5b59bf8,667045947eb812cbdacbf325,66705db8c99f10f913bff8d2,,,,,,,,,,,,,,,,,,,,,,,,,,,,,,,,,,,,993.4746,999.4081,0,0,0,0,1,SoundStimuli/StandByMe_BenEKing_Original5S.wav,,,,,,,,,,,,,,,,,,,,,,,,,,,,,,,,,,,,,,,,,,,,,,,,,,,,,,,,,,
,,,,,589716,001,2024-06-17_11h50.36.459,experiment,2024.1.5,Win32,59.17159763,65a57b1b4ce0a142f5b59bf8,667045947eb812cbdacbf325,66705db8c99f10f913bff8d2,,,,,,,,,,,,,,,,,,,,,,,,,,,,,,,,,,,,999.4155,1005.4414,0,1,1,1,1,SoundStimuli/StandByMe_BenEKing_Cover5S.wav,,,,,,,,,,,,,,,,,,,,,,,,,,,,,,,,,,,,,,,,,,,,,,,,,,,,,,,,,,
,,,,,589716,001,2024-06-17_11h50.36.459,experiment,2024.1.5,Win32,59.17159763,65a57b1b4ce0a142f5b59bf8,667045947eb812cbdacbf325,66705db8c99f10f913bff8d2,,,,,,,,,,,,,,,,,,,,,,,,,,,,,,,,,,,,,,,,,,,,1005.4415,1008.5244,4.907936508,3.0632,0,13,13,1,1,song_indices/StandByMe_BenEKing.csv,,,,,,,,,,,,,,,,,,,,,,,,,,,,,,,,,,,,,,,,,,,,,,,,
,,,,,589716,001,2024-06-17_11h50.36.459,experiment,2024.1.5,Win32,59.17159763,65a57b1b4ce0a142f5b59bf8,667045947eb812cbdacbf325,66705db8c99f10f913bff8d2,,,,,,,,,,,,,,,,,,,,,,,,,,,,,,,,,,,,1008.5254,1014.7415,0,0,0,0,1,SoundStimuli/SmellsLikeTeenSpirit_Nirvana_Original5S.wav,,,,,,,,,,,,,,,,,,,,,,,,,,,,,,,,,,,,,,,,,,,,,,,,,,,,,,,,,,
,,,,,589716,001,2024-06-17_11h50.36.459,experiment,2024.1.5,Win32,59.17159763,65a57b1b4ce0a142f5b59bf8,667045947eb812cbdacbf325,66705db8c99f10f913bff8d2,,,,,,,,,,,,,,,,,,,,,,,,,,,,,,,,,,,,1014.749,1020.5082,0,1,1,1,1,SoundStimuli/SmellsLikeTeenSpirit_Nirvana_Cover5S.wav,,,,,,,,,,,,,,,,,,,,,,,,,,,,,,,,,,,,,,,,,,,,,,,,,,,,,,,,,,
,,,,,589716,001,2024-06-17_11h50.36.459,experiment,2024.1.5,Win32,59.17159763,65a57b1b4ce0a142f5b59bf8,667045947eb812cbdacbf325,66705db8c99f10f913bff8d2,,,,,,,,,,,,,,,,,,,,,,,,,,,,,,,,,,,,,,,,,,,,1020.5084,1021.274,6.914285714,0.7546,0,14,14,8,1,song_indices/SmellsLikeTeenSpirit_Nirvana.csv,,,,,,,,,,,,,,,,,,,,,,,,,,,,,,,,,,,,,,,,,,,,,,,,
,,,,,589716,001,2024-06-17_11h50.36.459,experiment,2024.1.5,Win32,59.17159763,65a57b1b4ce0a142f5b59bf8,667045947eb812cbdacbf325,66705db8c99f10f913bff8d2,,,,,,,,,,,,,,,,,,,,,,,,,,,,,,,,,,,,1021.2746,1027.5914,0,0,0,1,1,SoundStimuli/Stronger_KanyeWest_Cover5S.wav,,,,,,,,,,,,,,,,,,,,,,,,,,,,,,,,,,,,,,,,,,,,,,,,,,,,,,,,,,
,,,,,589716,001,2024-06-17_11h50.36.459,experiment,2024.1.5,Win32,59.17159763,65a57b1b4ce0a142f5b59bf8,667045947eb812cbdacbf325,66705db8c99f10f913bff8d2,,,,,,,,,,,,,,,,,,,,,,,,,,,,,,,,,,,,1027.6011,1033.6582,0,1,1,0,1,SoundStimuli/Stronger_KanyeWest_Original5S.wav,,,,,,,,,,,,,,,,,,,,,,,,,,,,,,,,,,,,,,,,,,,,,,,,,,,,,,,,,,
,,,,,589716,001,2024-06-17_11h50.36.459,experiment,2024.1.5,Win32,59.17159763,65a57b1b4ce0a142f5b59bf8,667045947eb812cbdacbf325,66705db8c99f10f913bff8d2,,,,,,,,,,,,,,,,,,,,,,,,,,,,,,,,,,,,,,,,,,,,1033.6585,1037.9743,1.993650794,4.2977,0,15,15,9,1,song_indices/Stronger_KanyeWest.csv,,,,,,,,,,,,,,,,,,,,,,,,,,,,,,,,,,,,,,,,,,,,,,,,
,,,,,589716,001,2024-06-17_11h50.36.459,experiment,2024.1.5,Win32,59.17159763,65a57b1b4ce0a142f5b59bf8,667045947eb812cbdacbf325,66705db8c99f10f913bff8d2,,,,,,,,,,,,,,,,,,,,,,,,,,,,,,,,,,,,1037.9755,1044.4083,0,0,0,1,1,SoundStimuli/Fallin_AliciaKeys_Cover5S.wav,,,,,,,,,,,,,,,,,,,,,,,,,,,,,,,,,,,,,,,,,,,,,,,,,,,,,,,,,,
,,,,,589716,001,2024-06-17_11h50.36.459,experiment,2024.1.5,Win32,59.17159763,65a57b1b4ce0a142f5b59bf8,667045947eb812cbdacbf325,66705db8c99f10f913bff8d2,,,,,,,,,,,,,,,,,,,,,,,,,,,,,,,,,,,,1044.4185,1050.5916,0,1,1,0,1,SoundStimuli/Fallin_AliciaKeys_Original5S.wav,,,,,,,,,,,,,,,,,,,,,,,,,,,,,,,,,,,,,,,,,,,,,,,,,,,,,,,,,,
,,,,,589716,001,2024-06-17_11h50.36.459,experiment,2024.1.5,Win32,59.17159763,65a57b1b4ce0a142f5b59bf8,667045947eb812cbdacbf325,66705db8c99f10f913bff8d2,,,,,,,,,,,,,,,,,,,,,,,,,,,,,,,,,,,,,,,,,,,,1050.5918,1051.5078,5.980952381,0.9022,0,16,16,12,1,song_indices/Fallin_AliciaKeys.csv,,,,,,,,,,,,,,,,,,,,,,,,,,,,,,,,,,,,,,,,,,,,,,,,
,,,,,589716,001,2024-06-17_11h50.36.459,experiment,2024.1.5,Win32,59.17159763,65a57b1b4ce0a142f5b59bf8,667045947eb812cbdacbf325,66705db8c99f10f913bff8d2,,,,,,,,,,,,,,,,,,,,,,,,,,,,,,,,,,,,1051.5088,1057.5749,0,0,0,0,1,SoundStimuli/GoodGollyMissMolly_LittleRichard_Original5S.wav,,,,,,,,,,,,,,,,,,,,,,,,,,,,,,,,,,,,,,,,,,,,,,,,,,,,,,,,,,
,,,,,589716,001,2024-06-17_11h50.36.459,experiment,2024.1.5,Win32,59.17159763,65a57b1b4ce0a142f5b59bf8,667045947eb812cbdacbf325,66705db8c99f10f913bff8d2,,,,,,,,,,,,,,,,,,,,,,,,,,,,,,,,,,,,1057.5851,1063.9419,0,1,1,1,1,SoundStimuli/GoodGollyMissMolly_LittleRichard_Cover5S.wav,,,,,,,,,,,,,,,,,,,,,,,,,,,,,,,,,,,,,,,,,,,,,,,,,,,,,,,,,,
,,,,,589716,001,2024-06-17_11h50.36.459,experiment,2024.1.5,Win32,59.17159763,65a57b1b4ce0a142f5b59bf8,667045947eb812cbdacbf325,66705db8c99f10f913bff8d2,,,,,,,,,,,,,,,,,,,,,,,,,,,,,,,,,,,,,,,,,,,,1063.9421,1065.0911,6.012698413,1.1331,0,17,17,0,1,song_indices/GoodGollyMissMolly_LittleRichard.csv,,,,,,,,,,,,,,,,,,,,,,,,,,,,,,,,,,,,,,,,,,,,,,,,
,,,,,589716,001,2024-06-17_11h50.36.459,experiment,2024.1.5,Win32,59.17159763,65a57b1b4ce0a142f5b59bf8,667045947eb812cbdacbf325,66705db8c99f10f913bff8d2,,,,,,,,,,,,,,,,,,,,,,,,,,,,,,,,,,,,1065.0921,1071.5581,0,0,0,0,1,SoundStimuli/ShapeofYou_EdSheeran_Original5S.wav,,,,,,,,,,,,,,,,,,,,,,,,,,,,,,,,,,,,,,,,,,,,,,,,,,,,,,,,,,
,,,,,589716,001,2024-06-17_11h50.36.459,experiment,2024.1.5,Win32,59.17159763,65a57b1b4ce0a142f5b59bf8,667045947eb812cbdacbf325,66705db8c99f10f913bff8d2,,,,,,,,,,,,,,,,,,,,,,,,,,,,,,,,,,,,1071.5684,1077.8749,0,1,1,1,1,SoundStimuli/ShapeofYou_EdSheeran_Cover5S.wav,,,,,,,,,,,,,,,,,,,,,,,,,,,,,,,,,,,,,,,,,,,,,,,,,,,,,,,,,,
,,,,,589716,001,2024-06-17_11h50.36.459,experiment,2024.1.5,Win32,59.17159763,65a57b1b4ce0a142f5b59bf8,667045947eb812cbdacbf325,66705db8c99f10f913bff8d2,,,,,,,,,,,,,,,,,,,,,,,,,,,,,,,,,,,,,,,,,,,,1077.8751,1078.6243,6.025396825,0.7335,0,18,18,21,1,song_indices/ShapeofYou_EdSheeran.csv,,,,,,,,,,,,,,,,,,,,,,,,,,,,,,,,,,,,,,,,,,,,,,,,
,,,,,589716,001,2024-06-17_11h50.36.459,experiment,2024.1.5,Win32,59.17159763,65a57b1b4ce0a142f5b59bf8,667045947eb812cbdacbf325,66705db8c99f10f913bff8d2,,,,,,,,,,,,,,,,,,,,,,,,,,,,,,,,,,,,1078.6249,1085.9916,0,0,0,1,1,SoundStimuli/Happy_PharellWilliams_Cover5S.wav,,,,,,,,,,,,,,,,,,,,,,,,,,,,,,,,,,,,,,,,,,,,,,,,,,,,,,,,,,
,,,,,589716,001,2024-06-17_11h50.36.459,experiment,2024.1.5,Win32,59.17159763,65a57b1b4ce0a142f5b59bf8,667045947eb812cbdacbf325,66705db8c99f10f913bff8d2,,,,,,,,,,,,,,,,,,,,,,,,,,,,,,,,,,,,1086.0023,1093.3588,0,1,1,0,1,SoundStimuli/Happy_PharellWilliams_Original5S.wav,,,,,,,,,,,,,,,,,,,,,,,,,,,,,,,,,,,,,,,,,,,,,,,,,,,,,,,,,,
,,,,,589716,001,2024-06-17_11h50.36.459,experiment,2024.1.5,Win32,59.17159763,65a57b1b4ce0a142f5b59bf8,667045947eb812cbdacbf325,66705db8c99f10f913bff8d2,,,,,,,,,,,,,,,,,,,,,,,,,,,,,,,,,,,,,,,,,,,,1093.3589,1094.9411,6.965079365,1.5629,0,19,19,7,1,song_indices/Happy_PharellWilliams.csv,,,,,,,,,,,,,,,,,,,,,,,,,,,,,,,,,,,,,,,,,,,,,,,,
,,,,,589716,001,2024-06-17_11h50.36.459,experiment,2024.1.5,Win32,59.17159763,65a57b1b4ce0a142f5b59bf8,667045947eb812cbdacbf325,66705db8c99f10f913bff8d2,,,,,,,,,,,,,,,,,,,,,,,,,,,,,,,,,,,,1094.9422,1101.1583,0,0,0,0,1,SoundStimuli/BetteDavisEyes_KimCarnes_Original5S.wav,,,,,,,,,,,,,,,,,,,,,,,,,,,,,,,,,,,,,,,,,,,,,,,,,,,,,,,,,,
,,,,,589716,001,2024-06-17_11h50.36.459,experiment,2024.1.5,Win32,59.17159763,65a57b1b4ce0a142f5b59bf8,667045947eb812cbdacbf325,66705db8c99f10f913bff8d2,,,,,,,,,,,,,,,,,,,,,,,,,,,,,,,,,,,,1101.1678,1106.8584,0,1,1,1,1,SoundStimuli/BetteDavisEyes_KimCarnes_Cover5S.wav,,,,,,,,,,,,,,,,,,,,,,,,,,,,,,,,,,,,,,,,,,,,,,,,,,,,,,,,,,
,,,,,589716,001,2024-06-17_11h50.36.459,experiment,2024.1.5,Win32,59.17159763,65a57b1b4ce0a142f5b59bf8,667045947eb812cbdacbf325,66705db8c99f10f913bff8d2,,,,,,,,,,,,,,,,,,,,,,,,,,,,,,,,,,,,,,,,,,,,1106.8586,1107.7911,4.996825397,0.9105,0,20,20,5,1,song_indices/BetteDavisEyes_KimCarnes.csv,,,,,,,,,,,,,,,,,,,,,,,,,,,,,,,,,,,,,,,,,,,,,,,,
,,,,,589716,001,2024-06-17_11h50.36.459,experiment,2024.1.5,Win32,59.17159763,65a57b1b4ce0a142f5b59bf8,667045947eb812cbdacbf325,66705db8c99f10f913bff8d2,,,,,,,,,,,,,,,,,,,,,,,,,,,,,,,,,,,,1107.7921,1115.5248,0,0,0,0,1,SoundStimuli/NoOne_AliciaKeys_Original5S.wav,,,,,,,,,,,,,,,,,,,,,,,,,,,,,,,,,,,,,,,,,,,,,,,,,,,,,,,,,,
,,,,,589716,001,2024-06-17_11h50.36.459,experiment,2024.1.5,Win32,59.17159763,65a57b1b4ce0a142f5b59bf8,667045947eb812cbdacbf325,66705db8c99f10f913bff8d2,,,,,,,,,,,,,,,,,,,,,,,,,,,,,,,,,,,,1115.5337,1121.7417,0,1,1,1,1,SoundStimuli/NoOne_AliciaKeys_Cover5S.wav,,,,,,,,,,,,,,,,,,,,,,,,,,,,,,,,,,,,,,,,,,,,,,,,,,,,,,,,,,
,,,,,589716,001,2024-06-17_11h50.36.459,experiment,2024.1.5,Win32,59.17159763,65a57b1b4ce0a142f5b59bf8,667045947eb812cbdacbf325,66705db8c99f10f913bff8d2,,,,,,,,,,,,,,,,,,,,,,,,,,,,,,,,,,,,,,,,,,,,1121.7418,1126.4245,4.996825397,4.6675,0,21,21,19,1,song_indices/NoOne_AliciaKeys.csv,,,,,,,,,,,,,,,,,,,,,,,,,,,,,,,,,,,,,,,,,,,,,,,,
,,,,,589716,001,2024-06-17_11h50.36.459,experiment,2024.1.5,Win32,59.17159763,65a57b1b4ce0a142f5b59bf8,667045947eb812cbdacbf325,66705db8c99f10f913bff8d2,,,,,,,,,,,,,,,,,,,,,,,,,,,,,,,,,,,,1126.4256,1132.6917,0,0,0,0,1,SoundStimuli/ItsAllInTheGame_TommyEdwards_Original5S.wav,,,,,,,,,,,,,,,,,,,,,,,,,,,,,,,,,,,,,,,,,,,,,,,,,,,,,,,,,,
,,,,,589716,001,2024-06-17_11h50.36.459,experiment,2024.1.5,Win32,59.17159763,65a57b1b4ce0a142f5b59bf8,667045947eb812cbdacbf325,66705db8c99f10f913bff8d2,,,,,,,,,,,,,,,,,,,,,,,,,,,,,,,,,,,,1132.7024,1138.9253,0,1,1,1,1,SoundStimuli/ItsAllInTheGame_TommyEdwards_Cover5S.wav,,,,,,,,,,,,,,,,,,,,,,,,,,,,,,,,,,,,,,,,,,,,,,,,,,,,,,,,,,
,,,,,589716,001,2024-06-17_11h50.36.459,experiment,2024.1.5,Win32,59.17159763,65a57b1b4ce0a142f5b59bf8,667045947eb812cbdacbf325,66705db8c99f10f913bff8d2,,,,,,,,,,,,,,,,,,,,,,,,,,,,,,,,,,,,,,,,,,,,1138.9254,1140.6245,5.003174603,1.6796,0,22,22,13,1,song_indices/ItsAllInTheGame_TommyEdwards.csv,,,,,,,,,,,,,,,,,,,,,,,,,,,,,,,,,,,,,,,,,,,,,,,,
,,,,,589716,001,2024-06-17_11h50.36.459,experiment,2024.1.5,Win32,59.17159763,65a57b1b4ce0a142f5b59bf8,667045947eb812cbdacbf325,66705db8c99f10f913bff8d2,,,,,,,,,,,,,,,,,,,,,,,,,,,,,,,,,,,,,,,,,,,,,,,,,,,,,,1140.6246,1140.6248,,,,0,2,2,1,1,choose_song_b2.csv,,,,,,,,,,,,,,,,,,,,,,,,,,,,,,,,,,,,,
,,,,,589716,001,2024-06-17_11h50.36.459,experiment,2024.1.5,Win32,59.17159763,65a57b1b4ce0a142f5b59bf8,667045947eb812cbdacbf325,66705db8c99f10f913bff8d2,,,,,,,,,,,,,,,,,,,,,,,,,,,,,,,,,,,,,,,,,,,,,,,,,,,,,,,,,,,,,,,,,42,Item 3,"classically trained pianist playing lessons 8 to 14, self-taught guitar",Item 3,"radio, youtube, apple music",5,4,"driving, exercising, relaxing",Rarely,Never,Often,Sometimes,Rarely,Rarely,Often,Rarely,Rarely,Rarely,Always,Always,Rarely,Rarely,Sometimes,Never,religious,rock,pop,classical,more variety as I get older,just whenever i need to keep my mind of other things and relax,0,0,0,0,1,,
,,,,,589716,001,2024-06-17_11h50.36.459,experiment,2024.1.5,Win32,59.17159763,65a57b1b4ce0a142f5b59bf8,667045947eb812cbdacbf325,66705db8c99f10f913bff8d2,,,,,,,,,,,,,,,,,,,,,,,,,,,,,,,,,,,,,,,,,,,,,,,,,,,,,,,,,,,,,,,,,,,,,,,,,,,,,,,,,,,,,,,,,,,,,,,,,,,,1403.9327,1406.2257
