welcome.started,welcome.stopped,space_to_continue.keys,space_to_continue.rt,space_to_continue.duration,participant,session,date,expName,psychopyVersion,OS,frameRate,PROLIFIC_PID,STUDY_ID,SESSION_ID,consent.consent,consent.consent_recontact,consent_check.started,consent_check.stopped,calibration_ready.started,calibration_ready.stopped,cal_ready.keys,cal_ready.rt,cal_ready.duration,calibration.started,calibration.stopped,mouse.x,mouse.y,mouse.leftButton,mouse.midButton,mouse.rightButton,mouse.time,mouse.clicked_name,move_on.keys,move_on.rt,move_on.duration,instructions.started,instructions.stopped,next.keys,next.rt,next.duration,practice_trial.started,practice_trial.stopped,practice_slider.response,practice_slider.rt,ready.started,ready.stopped,key_resp.keys,key_resp.rt,key_resp.duration,play_sound.started,play_sound.stopped,trials.thisRepN,trials.thisTrialN,trials.thisN,trials.thisIndex,trials.ran,orig_or_cover,rating.started,rating.stopped,slider.response,slider.rt,songs.thisRepN,songs.thisTrialN,songs.thisN,songs.thisIndex,songs.ran,song_id,short_break.started,short_break.stopped,space_to_move_on.keys,space_to_move_on.rt,space_to_move_on.duration,blocks.thisRepN,blocks.thisTrialN,blocks.thisN,blocks.thisIndex,blocks.ran,block,survey.age,survey.musician,survey.music_making,survey.listen_time,survey.medium,survey.music_seeking,survey.music_choice,survey.activities,survey.question1.Jazz,survey.question1.Folk/indie,survey.question1.Hip hop,survey.question1.A cappella,survey.question1.Alternative rock,survey.question1.Ambient,survey.question1.Electronic (EDM),survey.question1.Metal,survey.question1.Pop,survey.question1.Country,survey.question1.Reggae,survey.question1.Classic rock,survey.question1.Classical,survey.question1.R&B,survey.question1.Disco,survey.question1.Latin,survey.other_genres,survey.genres_ranked.text1,survey.genres_ranked.text2,survey.genres_ranked.text3,survey.habit_change,experiment.thisRepN,experiment.thisTrialN,experiment.thisN,experiment.thisIndex,experiment.ran,goodbye.started,goodbye.stopped
0.0004,1.7642,space,1.7383,,604662,001,2024-06-14_09h37.36.810,experiment,2024.1.5,Win32,60.97560976,62dc65fdd3bbfeff289f1500,666b5f73dbba3f0cd916b177,666c71674bdd03cbd0f7a5dc,,,,,,,,,,,,,,,,,,,,,,,,,,,,,,,,,,,,,,,,,,,,,,,,,,,,,,,,,,,,,,,,,,,,,,,,,,,,,,,,,,,,,,,,,,,,,,,,,,,,
,,,,,604662,001,2024-06-14_09h37.36.810,experiment,2024.1.5,Win32,60.97560976,62dc65fdd3bbfeff289f1500,666b5f73dbba3f0cd916b177,666c71674bdd03cbd0f7a5dc,yes,yes,,,,,,,,,,,,,,,,,,,,,,,,,,,,,,,,,,,,,,,,,,,,,,,,,,,,,,,,,,,,,,,,,,,,,,,,,,,,,,,,,,,,,,,,,,,,,,,,,,
,,,,,604662,001,2024-06-14_09h37.36.810,experiment,2024.1.5,Win32,60.97560976,62dc65fdd3bbfeff289f1500,666b5f73dbba3f0cd916b177,666c71674bdd03cbd0f7a5dc,,,16.5808,16.581,,,,,,,,,,,,,,,,,,,,,,,,,,,,,,,,,,,,,,,,,,,,,,,,,,,,,,,,,,,,,,,,,,,,,,,,,,,,,,,,,,,,,,,,,,,,,,,,
,,,,,604662,001,2024-06-14_09h37.36.810,experiment,2024.1.5,Win32,60.97560976,62dc65fdd3bbfeff289f1500,666b5f73dbba3f0cd916b177,666c71674bdd03cbd0f7a5dc,,,,,16.5837,27.317,space,10.718,,27.3173,72.8018,"[-0.027085590465872156,0,0,-0.005417118093174431,0.009750812567713976,0.009750812567713976,0.009750812567713976,-0.24052004333694474,-0.024918743228602384]","[-0.4198266522210184,-0.43282773564463706,-0.43282773564463706,-0.42416034669555797,-0.42741061755146265,-0.42741061755146265,-0.42741061755146265,0.21072589382448537,-0.42632719393282775]","[1,1,1,1,1,1,1,1,1]","[0,0,0,0,0,0,0,0,0]","[0,0,0,0,0,0,0,0,0]","[7.0772999999523165,10.601700000047686,16.57229999995232,29.63259999990464,33.63529999995232,34.18589999985696,34.58629999995232,35.65479999995232,41.12459999990463]","[""play_button"",""play_button"",""play_button"",""play_button"",""play_button"",""play_button""]",right,35.4606,,72.8024,83.7589,space,10.9313,,83.7592,109.0647,1.802816901,25.2906,109.0653,111.1639,space,2.0856,,111.201,120.0542,0,0,0,0,1,SoundStimuli/Perfect_EdSheeran_Original5S.wav,,,,,,,,,,,,,,,,,,,,,,,,,,,,,,,,,,,,,,,,,,,,,,,,,,,,,,,,,
,,,,,604662,001,2024-06-14_09h37.36.810,experiment,2024.1.5,Win32,60.97560976,62dc65fdd3bbfeff289f1500,666b5f73dbba3f0cd916b177,666c71674bdd03cbd0f7a5dc,,,,,,,,,,,,,,,,,,,,,,,,,,,,,,,,,,,,120.0648,128.3089,0,1,1,1,1,SoundStimuli/Perfect_EdSheeran_Cover5S.wav,,,,,,,,,,,,,,,,,,,,,,,,,,,,,,,,,,,,,,,,,,,,,,,,,,,,,,,,,
,,,,,604662,001,2024-06-14_09h37.36.810,experiment,2024.1.5,Win32,60.97560976,62dc65fdd3bbfeff289f1500,666b5f73dbba3f0cd916b177,666c71674bdd03cbd0f7a5dc,,,,,,,,,,,,,,,,,,,,,,,,,,,,,,,,,,,,,,,,,,,,128.3205,130.611,6.938244854,2.2823,0,0,0,0,1,song_indices/Perfect_EdSheeran.csv,,,,,,,,,,,,,,,,,,,,,,,,,,,,,,,,,,,,,,,,,,,,,,,
,,,,,604662,001,2024-06-14_09h37.36.810,experiment,2024.1.5,Win32,60.97560976,62dc65fdd3bbfeff289f1500,666b5f73dbba3f0cd916b177,666c71674bdd03cbd0f7a5dc,,,,,,,,,,,,,,,,,,,,,,,,,,,,,,,,,,,,130.6149,137.1819,0,0,0,0,1,SoundStimuli/Despacito_LuisFonsiDaddyYankee_Original5S.wav,,,,,,,,,,,,,,,,,,,,,,,,,,,,,,,,,,,,,,,,,,,,,,,,,,,,,,,,,
,,,,,604662,001,2024-06-14_09h37.36.810,experiment,2024.1.5,Win32,60.97560976,62dc65fdd3bbfeff289f1500,666b5f73dbba3f0cd916b177,666c71674bdd03cbd0f7a5dc,,,,,,,,,,,,,,,,,,,,,,,,,,,,,,,,,,,,137.1934,143.7711,0,1,1,1,1,SoundStimuli/Despacito_LuisFonsiDaddyYankee_Cover5S.wav,,,,,,,,,,,,,,,,,,,,,,,,,,,,,,,,,,,,,,,,,,,,,,,,,,,,,,,,,
,,,,,604662,001,2024-06-14_09h37.36.810,experiment,2024.1.5,Win32,60.97560976,62dc65fdd3bbfeff289f1500,666b5f73dbba3f0cd916b177,666c71674bdd03cbd0f7a5dc,,,,,,,,,,,,,,,,,,,,,,,,,,,,,,,,,,,,,,,,,,,,143.7714,145.2388,3.005417118,1.4475,0,1,1,11,1,song_indices/Despacito_LuisFonsiDaddyYankee.csv,,,,,,,,,,,,,,,,,,,,,,,,,,,,,,,,,,,,,,,,,,,,,,,
,,,,,604662,001,2024-06-14_09h37.36.810,experiment,2024.1.5,Win32,60.97560976,62dc65fdd3bbfeff289f1500,666b5f73dbba3f0cd916b177,666c71674bdd03cbd0f7a5dc,,,,,,,,,,,,,,,,,,,,,,,,,,,,,,,,,,,,145.2441,152.6277,0,0,0,0,1,SoundStimuli/OldTownRoad_LilNasX_Original5S.wav,,,,,,,,,,,,,,,,,,,,,,,,,,,,,,,,,,,,,,,,,,,,,,,,,,,,,,,,,
,,,,,604662,001,2024-06-14_09h37.36.810,experiment,2024.1.5,Win32,60.97560976,62dc65fdd3bbfeff289f1500,666b5f73dbba3f0cd916b177,666c71674bdd03cbd0f7a5dc,,,,,,,,,,,,,,,,,,,,,,,,,,,,,,,,,,,,152.6381,159.1486,0,1,1,1,1,SoundStimuli/OldTownRoad_LilNasX_Cover5S.wav,,,,,,,,,,,,,,,,,,,,,,,,,,,,,,,,,,,,,,,,,,,,,,,,,,,,,,,,,
,,,,,604662,001,2024-06-14_09h37.36.810,experiment,2024.1.5,Win32,60.97560976,62dc65fdd3bbfeff289f1500,666b5f73dbba3f0cd916b177,666c71674bdd03cbd0f7a5dc,,,,,,,,,,,,,,,,,,,,,,,,,,,,,,,,,,,,,,,,,,,,159.1492,160.3666,4.981581798,1.2069,0,2,2,20,1,song_indices/OldTownRoad_LilNasX.csv,,,,,,,,,,,,,,,,,,,,,,,,,,,,,,,,,,,,,,,,,,,,,,,
,,,,,604662,001,2024-06-14_09h37.36.810,experiment,2024.1.5,Win32,60.97560976,62dc65fdd3bbfeff289f1500,666b5f73dbba3f0cd916b177,666c71674bdd03cbd0f7a5dc,,,,,,,,,,,,,,,,,,,,,,,,,,,,,,,,,,,,160.37,166.3382,0,0,0,0,1,SoundStimuli/BohemianRhapsody_Queen_Original5S.wav,,,,,,,,,,,,,,,,,,,,,,,,,,,,,,,,,,,,,,,,,,,,,,,,,,,,,,,,,
,,,,,604662,001,2024-06-14_09h37.36.810,experiment,2024.1.5,Win32,60.97560976,62dc65fdd3bbfeff289f1500,666b5f73dbba3f0cd916b177,666c71674bdd03cbd0f7a5dc,,,,,,,,,,,,,,,,,,,,,,,,,,,,,,,,,,,,166.3481,170.4074,0,1,1,1,1,SoundStimuli/BohemianRhapsody_Queen_Cover5S.wav,,,,,,,,,,,,,,,,,,,,,,,,,,,,,,,,,,,,,,,,,,,,,,,,,,,,,,,,,
,,,,,604662,001,2024-06-14_09h37.36.810,experiment,2024.1.5,Win32,60.97560976,62dc65fdd3bbfeff289f1500,666b5f73dbba3f0cd916b177,666c71674bdd03cbd0f7a5dc,,,,,,,,,,,,,,,,,,,,,,,,,,,,,,,,,,,,,,,,,,,,170.4078,171.7417,3.928494041,1.3225,0,3,3,18,1,song_indices/BohemianRhapsody_Queen.csv,,,,,,,,,,,,,,,,,,,,,,,,,,,,,,,,,,,,,,,,,,,,,,,
,,,,,604662,001,2024-06-14_09h37.36.810,experiment,2024.1.5,Win32,60.97560976,62dc65fdd3bbfeff289f1500,666b5f73dbba3f0cd916b177,666c71674bdd03cbd0f7a5dc,,,,,,,,,,,,,,,,,,,,,,,,,,,,,,,,,,,,171.7469,180.032,0,0,0,1,1,SoundStimuli/Mood_24kGoldnianndior_Cover5S.wav,,,,,,,,,,,,,,,,,,,,,,,,,,,,,,,,,,,,,,,,,,,,,,,,,,,,,,,,,
,,,,,604662,001,2024-06-14_09h37.36.810,experiment,2024.1.5,Win32,60.97560976,62dc65fdd3bbfeff289f1500,666b5f73dbba3f0cd916b177,666c71674bdd03cbd0f7a5dc,,,,,,,,,,,,,,,,,,,,,,,,,,,,,,,,,,,,180.0447,186.3368,0,1,1,0,1,SoundStimuli/Mood_24kGoldnianndior_Original5S.wav,,,,,,,,,,,,,,,,,,,,,,,,,,,,,,,,,,,,,,,,,,,,,,,,,,,,,,,,,
,,,,,604662,001,2024-06-14_09h37.36.810,experiment,2024.1.5,Win32,60.97560976,62dc65fdd3bbfeff289f1500,666b5f73dbba3f0cd916b177,666c71674bdd03cbd0f7a5dc,,,,,,,,,,,,,,,,,,,,,,,,,,,,,,,,,,,,,,,,,,,,186.3373,187.4379,2.914409534,1.0896,0,4,4,5,1,song_indices/Mood_24kGoldnianndior.csv,,,,,,,,,,,,,,,,,,,,,,,,,,,,,,,,,,,,,,,,,,,,,,,
,,,,,604662,001,2024-06-14_09h37.36.810,experiment,2024.1.5,Win32,60.97560976,62dc65fdd3bbfeff289f1500,666b5f73dbba3f0cd916b177,666c71674bdd03cbd0f7a5dc,,,,,,,,,,,,,,,,,,,,,,,,,,,,,,,,,,,,187.4418,192.1577,0,0,0,1,1,SoundStimuli/AChangeIsGonnaCome_SamCooke_Cover5S.wav,,,,,,,,,,,,,,,,,,,,,,,,,,,,,,,,,,,,,,,,,,,,,,,,,,,,,,,,,
,,,,,604662,001,2024-06-14_09h37.36.810,experiment,2024.1.5,Win32,60.97560976,62dc65fdd3bbfeff289f1500,666b5f73dbba3f0cd916b177,666c71674bdd03cbd0f7a5dc,,,,,,,,,,,,,,,,,,,,,,,,,,,,,,,,,,,,192.1672,198.1965,0,1,1,0,1,SoundStimuli/AChangeIsGonnaCome_SamCooke_Original5S.wav,,,,,,,,,,,,,,,,,,,,,,,,,,,,,,,,,,,,,,,,,,,,,,,,,,,,,,,,,
,,,,,604662,001,2024-06-14_09h37.36.810,experiment,2024.1.5,Win32,60.97560976,62dc65fdd3bbfeff289f1500,666b5f73dbba3f0cd916b177,666c71674bdd03cbd0f7a5dc,,,,,,,,,,,,,,,,,,,,,,,,,,,,,,,,,,,,,,,,,,,,198.1984,199.3459,1.952329361,1.1309,0,5,5,17,1,song_indices/AChangeIsGonnaCome_SamCooke.csv,,,,,,,,,,,,,,,,,,,,,,,,,,,,,,,,,,,,,,,,,,,,,,,
,,,,,604662,001,2024-06-14_09h37.36.810,experiment,2024.1.5,Win32,60.97560976,62dc65fdd3bbfeff289f1500,666b5f73dbba3f0cd916b177,666c71674bdd03cbd0f7a5dc,,,,,,,,,,,,,,,,,,,,,,,,,,,,,,,,,,,,199.3503,207.9528,0,0,0,1,1,SoundStimuli/HeatWaves_GlassAnimals_Cover5S.wav,,,,,,,,,,,,,,,,,,,,,,,,,,,,,,,,,,,,,,,,,,,,,,,,,,,,,,,,,
,,,,,604662,001,2024-06-14_09h37.36.810,experiment,2024.1.5,Win32,60.97560976,62dc65fdd3bbfeff289f1500,666b5f73dbba3f0cd916b177,666c71674bdd03cbd0f7a5dc,,,,,,,,,,,,,,,,,,,,,,,,,,,,,,,,,,,,207.9639,214.0575,0,1,1,0,1,SoundStimuli/HeatWaves_GlassAnimals_Original5S.wav,,,,,,,,,,,,,,,,,,,,,,,,,,,,,,,,,,,,,,,,,,,,,,,,,,,,,,,,,
,,,,,604662,001,2024-06-14_09h37.36.810,experiment,2024.1.5,Win32,60.97560976,62dc65fdd3bbfeff289f1500,666b5f73dbba3f0cd916b177,666c71674bdd03cbd0f7a5dc,,,,,,,,,,,,,,,,,,,,,,,,,,,,,,,,,,,,,,,,,,,,214.058,218.094,1.048754063,4.0167,0,6,6,10,1,song_indices/HeatWaves_GlassAnimals.csv,,,,,,,,,,,,,,,,,,,,,,,,,,,,,,,,,,,,,,,,,,,,,,,
,,,,,604662,001,2024-06-14_09h37.36.810,experiment,2024.1.5,Win32,60.97560976,62dc65fdd3bbfeff289f1500,666b5f73dbba3f0cd916b177,666c71674bdd03cbd0f7a5dc,,,,,,,,,,,,,,,,,,,,,,,,,,,,,,,,,,,,218.0977,224.1321,0,0,0,1,1,SoundStimuli/IWantToHoldYourHand_TheBeatles_Cover5S.wav,,,,,,,,,,,,,,,,,,,,,,,,,,,,,,,,,,,,,,,,,,,,,,,,,,,,,,,,,
,,,,,604662,001,2024-06-14_09h37.36.810,experiment,2024.1.5,Win32,60.97560976,62dc65fdd3bbfeff289f1500,666b5f73dbba3f0cd916b177,666c71674bdd03cbd0f7a5dc,,,,,,,,,,,,,,,,,,,,,,,,,,,,,,,,,,,,224.1426,229.9194,0,1,1,0,1,SoundStimuli/IWantToHoldYourHand_TheBeatles_Original5S.wav,,,,,,,,,,,,,,,,,,,,,,,,,,,,,,,,,,,,,,,,,,,,,,,,,,,,,,,,,
,,,,,604662,001,2024-06-14_09h37.36.810,experiment,2024.1.5,Win32,60.97560976,62dc65fdd3bbfeff289f1500,666b5f73dbba3f0cd916b177,666c71674bdd03cbd0f7a5dc,,,,,,,,,,,,,,,,,,,,,,,,,,,,,,,,,,,,,,,,,,,,229.9197,230.4531,1.048754063,0.5199,0,7,7,19,1,song_indices/IWantToHoldYourHand_TheBeatles.csv,,,,,,,,,,,,,,,,,,,,,,,,,,,,,,,,,,,,,,,,,,,,,,,
,,,,,604662,001,2024-06-14_09h37.36.810,experiment,2024.1.5,Win32,60.97560976,62dc65fdd3bbfeff289f1500,666b5f73dbba3f0cd916b177,666c71674bdd03cbd0f7a5dc,,,,,,,,,,,,,,,,,,,,,,,,,,,,,,,,,,,,230.4581,237.1583,0,0,0,1,1,SoundStimuli/BridgeOverTroubledWater_SimonAndGarfunkel_Cover5S.wav,,,,,,,,,,,,,,,,,,,,,,,,,,,,,,,,,,,,,,,,,,,,,,,,,,,,,,,,,
,,,,,604662,001,2024-06-14_09h37.36.810,experiment,2024.1.5,Win32,60.97560976,62dc65fdd3bbfeff289f1500,666b5f73dbba3f0cd916b177,666c71674bdd03cbd0f7a5dc,,,,,,,,,,,,,,,,,,,,,,,,,,,,,,,,,,,,237.1688,243.4794,0,1,1,0,1,SoundStimuli/BridgeOverTroubledWater_SimonAndGarfunkel_Original5S.wav,,,,,,,,,,,,,,,,,,,,,,,,,,,,,,,,,,,,,,,,,,,,,,,,,,,,,,,,,
,,,,,604662,001,2024-06-14_09h37.36.810,experiment,2024.1.5,Win32,60.97560976,62dc65fdd3bbfeff289f1500,666b5f73dbba3f0cd916b177,666c71674bdd03cbd0f7a5dc,,,,,,,,,,,,,,,,,,,,,,,,,,,,,,,,,,,,,,,,,,,,243.4799,244.5304,5.93716143,1.0335,0,8,8,1,1,song_indices/BridgeOverTroubledWater_SimonAndGarfunkel.csv,,,,,,,,,,,,,,,,,,,,,,,,,,,,,,,,,,,,,,,,,,,,,,,
,,,,,604662,001,2024-06-14_09h37.36.810,experiment,2024.1.5,Win32,60.97560976,62dc65fdd3bbfeff289f1500,666b5f73dbba3f0cd916b177,666c71674bdd03cbd0f7a5dc,,,,,,,,,,,,,,,,,,,,,,,,,,,,,,,,,,,,244.5345,250.8017,0,0,0,1,1,SoundStimuli/MackTheKnife_BobbyDarin_Cover5S.wav,,,,,,,,,,,,,,,,,,,,,,,,,,,,,,,,,,,,,,,,,,,,,,,,,,,,,,,,,
,,,,,604662,001,2024-06-14_09h37.36.810,experiment,2024.1.5,Win32,60.97560976,62dc65fdd3bbfeff289f1500,666b5f73dbba3f0cd916b177,666c71674bdd03cbd0f7a5dc,,,,,,,,,,,,,,,,,,,,,,,,,,,,,,,,,,,,250.8109,256.9417,0,1,1,0,1,SoundStimuli/MackTheKnife_BobbyDarin_Original5S.wav,,,,,,,,,,,,,,,,,,,,,,,,,,,,,,,,,,,,,,,,,,,,,,,,,,,,,,,,,
,,,,,604662,001,2024-06-14_09h37.36.810,experiment,2024.1.5,Win32,60.97560976,62dc65fdd3bbfeff289f1500,666b5f73dbba3f0cd916b177,666c71674bdd03cbd0f7a5dc,,,,,,,,,,,,,,,,,,,,,,,,,,,,,,,,,,,,,,,,,,,,256.943,257.7237,3.980498375,0.7651,0,9,9,21,1,song_indices/MackTheKnife_BobbyDarin.csv,,,,,,,,,,,,,,,,,,,,,,,,,,,,,,,,,,,,,,,,,,,,,,,
,,,,,604662,001,2024-06-14_09h37.36.810,experiment,2024.1.5,Win32,60.97560976,62dc65fdd3bbfeff289f1500,666b5f73dbba3f0cd916b177,666c71674bdd03cbd0f7a5dc,,,,,,,,,,,,,,,,,,,,,,,,,,,,,,,,,,,,257.7272,265.2292,0,0,0,1,1,SoundStimuli/BadDay_DanielPowter_Cover5S.wav,,,,,,,,,,,,,,,,,,,,,,,,,,,,,,,,,,,,,,,,,,,,,,,,,,,,,,,,,
,,,,,604662,001,2024-06-14_09h37.36.810,experiment,2024.1.5,Win32,60.97560976,62dc65fdd3bbfeff289f1500,666b5f73dbba3f0cd916b177,666c71674bdd03cbd0f7a5dc,,,,,,,,,,,,,,,,,,,,,,,,,,,,,,,,,,,,265.2409,271.6841,0,1,1,0,1,SoundStimuli/BadDay_DanielPowter_Original5S.wav,,,,,,,,,,,,,,,,,,,,,,,,,,,,,,,,,,,,,,,,,,,,,,,,,,,,,,,,,
,,,,,604662,001,2024-06-14_09h37.36.810,experiment,2024.1.5,Win32,60.97560976,62dc65fdd3bbfeff289f1500,666b5f73dbba3f0cd916b177,666c71674bdd03cbd0f7a5dc,,,,,,,,,,,,,,,,,,,,,,,,,,,,,,,,,,,,,,,,,,,,271.6844,272.7691,6.008667389,1.0651,0,10,10,22,1,song_indices/BadDay_DanielPowter.csv,,,,,,,,,,,,,,,,,,,,,,,,,,,,,,,,,,,,,,,,,,,,,,,
,,,,,604662,001,2024-06-14_09h37.36.810,experiment,2024.1.5,Win32,60.97560976,62dc65fdd3bbfeff289f1500,666b5f73dbba3f0cd916b177,666c71674bdd03cbd0f7a5dc,,,,,,,,,,,,,,,,,,,,,,,,,,,,,,,,,,,,272.7718,278.9902,0,0,0,0,1,SoundStimuli/Smooth_SantanaRobThomas_Original5S.wav,,,,,,,,,,,,,,,,,,,,,,,,,,,,,,,,,,,,,,,,,,,,,,,,,,,,,,,,,
,,,,,604662,001,2024-06-14_09h37.36.810,experiment,2024.1.5,Win32,60.97560976,62dc65fdd3bbfeff289f1500,666b5f73dbba3f0cd916b177,666c71674bdd03cbd0f7a5dc,,,,,,,,,,,,,,,,,,,,,,,,,,,,,,,,,,,,279,285.1287,0,1,1,1,1,SoundStimuli/Smooth_SantanaRobThomas_Cover5S.wav,,,,,,,,,,,,,,,,,,,,,,,,,,,,,,,,,,,,,,,,,,,,,,,,,,,,,,,,,
,,,,,604662,001,2024-06-14_09h37.36.810,experiment,2024.1.5,Win32,60.97560976,62dc65fdd3bbfeff289f1500,666b5f73dbba3f0cd916b177,666c71674bdd03cbd0f7a5dc,,,,,,,,,,,,,,,,,,,,,,,,,,,,,,,,,,,,,,,,,,,,285.129,285.9789,4.026002167,0.8314,0,11,11,4,1,song_indices/Smooth_SantanaRobThomas.csv,,,,,,,,,,,,,,,,,,,,,,,,,,,,,,,,,,,,,,,,,,,,,,,
,,,,,604662,001,2024-06-14_09h37.36.810,experiment,2024.1.5,Win32,60.97560976,62dc65fdd3bbfeff289f1500,666b5f73dbba3f0cd916b177,666c71674bdd03cbd0f7a5dc,,,,,,,,,,,,,,,,,,,,,,,,,,,,,,,,,,,,285.9829,292.0167,0,0,0,0,1,SoundStimuli/AnotherOneBitesTheDust_Queen_Original5S.wav,,,,,,,,,,,,,,,,,,,,,,,,,,,,,,,,,,,,,,,,,,,,,,,,,,,,,,,,,
,,,,,604662,001,2024-06-14_09h37.36.810,experiment,2024.1.5,Win32,60.97560976,62dc65fdd3bbfeff289f1500,666b5f73dbba3f0cd916b177,666c71674bdd03cbd0f7a5dc,,,,,,,,,,,,,,,,,,,,,,,,,,,,,,,,,,,,292.0265,300.1392,0,1,1,1,1,SoundStimuli/AnotherOneBitesTheDust_Queen_Cover5S.wav,,,,,,,,,,,,,,,,,,,,,,,,,,,,,,,,,,,,,,,,,,,,,,,,,,,,,,,,,
,,,,,604662,001,2024-06-14_09h37.36.810,experiment,2024.1.5,Win32,60.97560976,62dc65fdd3bbfeff289f1500,666b5f73dbba3f0cd916b177,666c71674bdd03cbd0f7a5dc,,,,,,,,,,,,,,,,,,,,,,,,,,,,,,,,,,,,,,,,,,,,300.1396,301.8908,4.032502709,1.7298,0,12,12,9,1,song_indices/AnotherOneBitesTheDust_Queen.csv,,,,,,,,,,,,,,,,,,,,,,,,,,,,,,,,,,,,,,,,,,,,,,,
,,,,,604662,001,2024-06-14_09h37.36.810,experiment,2024.1.5,Win32,60.97560976,62dc65fdd3bbfeff289f1500,666b5f73dbba3f0cd916b177,666c71674bdd03cbd0f7a5dc,,,,,,,,,,,,,,,,,,,,,,,,,,,,,,,,,,,,301.8951,308.1121,0,0,0,1,1,SoundStimuli/LikeAPrayer_Madonna_Cover5S.wav,,,,,,,,,,,,,,,,,,,,,,,,,,,,,,,,,,,,,,,,,,,,,,,,,,,,,,,,,
,,,,,604662,001,2024-06-14_09h37.36.810,experiment,2024.1.5,Win32,60.97560976,62dc65fdd3bbfeff289f1500,666b5f73dbba3f0cd916b177,666c71674bdd03cbd0f7a5dc,,,,,,,,,,,,,,,,,,,,,,,,,,,,,,,,,,,,308.1222,314.3002,0,1,1,0,1,SoundStimuli/LikeAPrayer_Madonna_Original5S.wav,,,,,,,,,,,,,,,,,,,,,,,,,,,,,,,,,,,,,,,,,,,,,,,,,,,,,,,,,
,,,,,604662,001,2024-06-14_09h37.36.810,experiment,2024.1.5,Win32,60.97560976,62dc65fdd3bbfeff289f1500,666b5f73dbba3f0cd916b177,666c71674bdd03cbd0f7a5dc,,,,,,,,,,,,,,,,,,,,,,,,,,,,,,,,,,,,,,,,,,,,314.3006,316.1179,5.963163597,1.8023,0,13,13,7,1,song_indices/LikeAPrayer_Madonna.csv,,,,,,,,,,,,,,,,,,,,,,,,,,,,,,,,,,,,,,,,,,,,,,,
,,,,,604662,001,2024-06-14_09h37.36.810,experiment,2024.1.5,Win32,60.97560976,62dc65fdd3bbfeff289f1500,666b5f73dbba3f0cd916b177,666c71674bdd03cbd0f7a5dc,,,,,,,,,,,,,,,,,,,,,,,,,,,,,,,,,,,,316.1213,321.7223,0,0,0,0,1,SoundStimuli/IWannaDanceWithSomebody_WhitneyHouston_Original5S.wav,,,,,,,,,,,,,,,,,,,,,,,,,,,,,,,,,,,,,,,,,,,,,,,,,,,,,,,,,
,,,,,604662,001,2024-06-14_09h37.36.810,experiment,2024.1.5,Win32,60.97560976,62dc65fdd3bbfeff289f1500,666b5f73dbba3f0cd916b177,666c71674bdd03cbd0f7a5dc,,,,,,,,,,,,,,,,,,,,,,,,,,,,,,,,,,,,321.7316,328.5623,0,1,1,1,1,SoundStimuli/IWannaDanceWithSomebody_WhitneyHouston_Cover5S.wav,,,,,,,,,,,,,,,,,,,,,,,,,,,,,,,,,,,,,,,,,,,,,,,,,,,,,,,,,
,,,,,604662,001,2024-06-14_09h37.36.810,experiment,2024.1.5,Win32,60.97560976,62dc65fdd3bbfeff289f1500,666b5f73dbba3f0cd916b177,666c71674bdd03cbd0f7a5dc,,,,,,,,,,,,,,,,,,,,,,,,,,,,,,,,,,,,,,,,,,,,328.5625,329.4975,1.984832069,0.921,0,14,14,13,1,song_indices/IWannaDanceWithSomebody_WhitneyHouston.csv,,,,,,,,,,,,,,,,,,,,,,,,,,,,,,,,,,,,,,,,,,,,,,,
,,,,,604662,001,2024-06-14_09h37.36.810,experiment,2024.1.5,Win32,60.97560976,62dc65fdd3bbfeff289f1500,666b5f73dbba3f0cd916b177,666c71674bdd03cbd0f7a5dc,,,,,,,,,,,,,,,,,,,,,,,,,,,,,,,,,,,,329.5002,335.4495,0,0,0,1,1,SoundStimuli/IllMakeLoveToYou_BoyzIIMen_Cover5S.wav,,,,,,,,,,,,,,,,,,,,,,,,,,,,,,,,,,,,,,,,,,,,,,,,,,,,,,,,,
,,,,,604662,001,2024-06-14_09h37.36.810,experiment,2024.1.5,Win32,60.97560976,62dc65fdd3bbfeff289f1500,666b5f73dbba3f0cd916b177,666c71674bdd03cbd0f7a5dc,,,,,,,,,,,,,,,,,,,,,,,,,,,,,,,,,,,,335.4601,341.5379,0,1,1,0,1,SoundStimuli/IllMakeLoveToYou_BoyzIIMen_Original5S.wav,,,,,,,,,,,,,,,,,,,,,,,,,,,,,,,,,,,,,,,,,,,,,,,,,,,,,,,,,
,,,,,604662,001,2024-06-14_09h37.36.810,experiment,2024.1.5,Win32,60.97560976,62dc65fdd3bbfeff289f1500,666b5f73dbba3f0cd916b177,666c71674bdd03cbd0f7a5dc,,,,,,,,,,,,,,,,,,,,,,,,,,,,,,,,,,,,,,,,,,,,341.5382,342.9554,4.026002167,1.3982,0,15,15,6,1,song_indices/IllMakeLoveToYou_BoyzIIMen.csv,,,,,,,,,,,,,,,,,,,,,,,,,,,,,,,,,,,,,,,,,,,,,,,
,,,,,604662,001,2024-06-14_09h37.36.810,experiment,2024.1.5,Win32,60.97560976,62dc65fdd3bbfeff289f1500,666b5f73dbba3f0cd916b177,666c71674bdd03cbd0f7a5dc,,,,,,,,,,,,,,,,,,,,,,,,,,,,,,,,,,,,342.9595,349.9775,0,0,0,1,1,SoundStimuli/StrawberryFieldsForever_TheBeatles_Cover5S.wav,,,,,,,,,,,,,,,,,,,,,,,,,,,,,,,,,,,,,,,,,,,,,,,,,,,,,,,,,
,,,,,604662,001,2024-06-14_09h37.36.810,experiment,2024.1.5,Win32,60.97560976,62dc65fdd3bbfeff289f1500,666b5f73dbba3f0cd916b177,666c71674bdd03cbd0f7a5dc,,,,,,,,,,,,,,,,,,,,,,,,,,,,,,,,,,,,349.987,356.1151,0,1,1,0,1,SoundStimuli/StrawberryFieldsForever_TheBeatles_Original5S.wav,,,,,,,,,,,,,,,,,,,,,,,,,,,,,,,,,,,,,,,,,,,,,,,,,,,,,,,,,
,,,,,604662,001,2024-06-14_09h37.36.810,experiment,2024.1.5,Win32,60.97560976,62dc65fdd3bbfeff289f1500,666b5f73dbba3f0cd916b177,666c71674bdd03cbd0f7a5dc,,,,,,,,,,,,,,,,,,,,,,,,,,,,,,,,,,,,,,,,,,,,356.1154,357.0994,1.913326111,0.9655,0,16,16,14,1,song_indices/StrawberryFieldsForever_TheBeatles.csv,,,,,,,,,,,,,,,,,,,,,,,,,,,,,,,,,,,,,,,,,,,,,,,
,,,,,604662,001,2024-06-14_09h37.36.810,experiment,2024.1.5,Win32,60.97560976,62dc65fdd3bbfeff289f1500,666b5f73dbba3f0cd916b177,666c71674bdd03cbd0f7a5dc,,,,,,,,,,,,,,,,,,,,,,,,,,,,,,,,,,,,357.1033,363.9714,0,0,0,1,1,SoundStimuli/GodOnlyKnows_TheBeachBoys_Cover5S.wav,,,,,,,,,,,,,,,,,,,,,,,,,,,,,,,,,,,,,,,,,,,,,,,,,,,,,,,,,
,,,,,604662,001,2024-06-14_09h37.36.810,experiment,2024.1.5,Win32,60.97560976,62dc65fdd3bbfeff289f1500,666b5f73dbba3f0cd916b177,666c71674bdd03cbd0f7a5dc,,,,,,,,,,,,,,,,,,,,,,,,,,,,,,,,,,,,363.9809,370.2097,0,1,1,0,1,SoundStimuli/GodOnlyKnows_TheBeachBoys_Original5S.wav,,,,,,,,,,,,,,,,,,,,,,,,,,,,,,,,,,,,,,,,,,,,,,,,,,,,,,,,,
,,,,,604662,001,2024-06-14_09h37.36.810,experiment,2024.1.5,Win32,60.97560976,62dc65fdd3bbfeff289f1500,666b5f73dbba3f0cd916b177,666c71674bdd03cbd0f7a5dc,,,,,,,,,,,,,,,,,,,,,,,,,,,,,,,,,,,,,,,,,,,,370.2101,382.4184,5.911159263,12.2009,0,17,17,8,1,song_indices/GodOnlyKnows_TheBeachBoys.csv,,,,,,,,,,,,,,,,,,,,,,,,,,,,,,,,,,,,,,,,,,,,,,,
,,,,,604662,001,2024-06-14_09h37.36.810,experiment,2024.1.5,Win32,60.97560976,62dc65fdd3bbfeff289f1500,666b5f73dbba3f0cd916b177,666c71674bdd03cbd0f7a5dc,,,,,,,,,,,,,,,,,,,,,,,,,,,,,,,,,,,,382.4207,390.1079,0,0,0,1,1,SoundStimuli/LivinOnAPrayer_BonJovi_Cover5S.wav,,,,,,,,,,,,,,,,,,,,,,,,,,,,,,,,,,,,,,,,,,,,,,,,,,,,,,,,,
,,,,,604662,001,2024-06-14_09h37.36.810,experiment,2024.1.5,Win32,60.97560976,62dc65fdd3bbfeff289f1500,666b5f73dbba3f0cd916b177,666c71674bdd03cbd0f7a5dc,,,,,,,,,,,,,,,,,,,,,,,,,,,,,,,,,,,,390.1183,396.3628,0,1,1,0,1,SoundStimuli/LivinOnAPrayer_BonJovi_Original5S.wav,,,,,,,,,,,,,,,,,,,,,,,,,,,,,,,,,,,,,,,,,,,,,,,,,,,,,,,,,
,,,,,604662,001,2024-06-14_09h37.36.810,experiment,2024.1.5,Win32,60.97560976,62dc65fdd3bbfeff289f1500,666b5f73dbba3f0cd916b177,666c71674bdd03cbd0f7a5dc,,,,,,,,,,,,,,,,,,,,,,,,,,,,,,,,,,,,,,,,,,,,396.363,397.0661,1.913326111,0.6922,0,18,18,16,1,song_indices/LivinOnAPrayer_BonJovi.csv,,,,,,,,,,,,,,,,,,,,,,,,,,,,,,,,,,,,,,,,,,,,,,,
,,,,,604662,001,2024-06-14_09h37.36.810,experiment,2024.1.5,Win32,60.97560976,62dc65fdd3bbfeff289f1500,666b5f73dbba3f0cd916b177,666c71674bdd03cbd0f7a5dc,,,,,,,,,,,,,,,,,,,,,,,,,,,,,,,,,,,,397.0686,404.5691,0,0,0,1,1,SoundStimuli/EndlessLove_DianaRossLionelRichie_Cover5S.wav,,,,,,,,,,,,,,,,,,,,,,,,,,,,,,,,,,,,,,,,,,,,,,,,,,,,,,,,,
,,,,,604662,001,2024-06-14_09h37.36.810,experiment,2024.1.5,Win32,60.97560976,62dc65fdd3bbfeff289f1500,666b5f73dbba3f0cd916b177,666c71674bdd03cbd0f7a5dc,,,,,,,,,,,,,,,,,,,,,,,,,,,,,,,,,,,,404.5794,410.9076,0,1,1,0,1,SoundStimuli/EndlessLove_DianaRossLionelRichie_Original5S.wav,,,,,,,,,,,,,,,,,,,,,,,,,,,,,,,,,,,,,,,,,,,,,,,,,,,,,,,,,
,,,,,604662,001,2024-06-14_09h37.36.810,experiment,2024.1.5,Win32,60.97560976,62dc65fdd3bbfeff289f1500,666b5f73dbba3f0cd916b177,666c71674bdd03cbd0f7a5dc,,,,,,,,,,,,,,,,,,,,,,,,,,,,,,,,,,,,,,,,,,,,410.9079,411.9576,1,1.0314,0,19,19,3,1,song_indices/EndlessLove_DianaRossLionelRichie.csv,,,,,,,,,,,,,,,,,,,,,,,,,,,,,,,,,,,,,,,,,,,,,,,
,,,,,604662,001,2024-06-14_09h37.36.810,experiment,2024.1.5,Win32,60.97560976,62dc65fdd3bbfeff289f1500,666b5f73dbba3f0cd916b177,666c71674bdd03cbd0f7a5dc,,,,,,,,,,,,,,,,,,,,,,,,,,,,,,,,,,,,411.9617,419.6306,0,0,0,1,1,SoundStimuli/MyGirl_TheTemptations_Cover5S.wav,,,,,,,,,,,,,,,,,,,,,,,,,,,,,,,,,,,,,,,,,,,,,,,,,,,,,,,,,
,,,,,604662,001,2024-06-14_09h37.36.810,experiment,2024.1.5,Win32,60.97560976,62dc65fdd3bbfeff289f1500,666b5f73dbba3f0cd916b177,666c71674bdd03cbd0f7a5dc,,,,,,,,,,,,,,,,,,,,,,,,,,,,,,,,,,,,419.6414,426.0183,0,1,1,0,1,SoundStimuli/MyGirl_TheTemptations_Original5S.wav,,,,,,,,,,,,,,,,,,,,,,,,,,,,,,,,,,,,,,,,,,,,,,,,,,,,,,,,,
,,,,,604662,001,2024-06-14_09h37.36.810,experiment,2024.1.5,Win32,60.97560976,62dc65fdd3bbfeff289f1500,666b5f73dbba3f0cd916b177,666c71674bdd03cbd0f7a5dc,,,,,,,,,,,,,,,,,,,,,,,,,,,,,,,,,,,,,,,,,,,,426.0188,427.4365,5.995666306,1.399,0,20,20,15,1,song_indices/MyGirl_TheTemptations.csv,,,,,,,,,,,,,,,,,,,,,,,,,,,,,,,,,,,,,,,,,,,,,,,
,,,,,604662,001,2024-06-14_09h37.36.810,experiment,2024.1.5,Win32,60.97560976,62dc65fdd3bbfeff289f1500,666b5f73dbba3f0cd916b177,666c71674bdd03cbd0f7a5dc,,,,,,,,,,,,,,,,,,,,,,,,,,,,,,,,,,,,427.441,433.4576,0,0,0,0,1,SoundStimuli/StayinAlive_BeeGees_Original5S.wav,,,,,,,,,,,,,,,,,,,,,,,,,,,,,,,,,,,,,,,,,,,,,,,,,,,,,,,,,
,,,,,604662,001,2024-06-14_09h37.36.810,experiment,2024.1.5,Win32,60.97560976,62dc65fdd3bbfeff289f1500,666b5f73dbba3f0cd916b177,666c71674bdd03cbd0f7a5dc,,,,,,,,,,,,,,,,,,,,,,,,,,,,,,,,,,,,433.4679,439.2955,0,1,1,1,1,SoundStimuli/StayinAlive_BeeGees_Cover5S.wav,,,,,,,,,,,,,,,,,,,,,,,,,,,,,,,,,,,,,,,,,,,,,,,,,,,,,,,,,
,,,,,604662,001,2024-06-14_09h37.36.810,experiment,2024.1.5,Win32,60.97560976,62dc65fdd3bbfeff289f1500,666b5f73dbba3f0cd916b177,666c71674bdd03cbd0f7a5dc,,,,,,,,,,,,,,,,,,,,,,,,,,,,,,,,,,,,,,,,,,,,439.2959,441.1636,6.834236186,1.8479,0,21,21,2,1,song_indices/StayinAlive_BeeGees.csv,,,,,,,,,,,,,,,,,,,,,,,,,,,,,,,,,,,,,,,,,,,,,,,
,,,,,604662,001,2024-06-14_09h37.36.810,experiment,2024.1.5,Win32,60.97560976,62dc65fdd3bbfeff289f1500,666b5f73dbba3f0cd916b177,666c71674bdd03cbd0f7a5dc,,,,,,,,,,,,,,,,,,,,,,,,,,,,,,,,,,,,441.167,445.5669,0,0,0,1,1,SoundStimuli/LikeARollingStone_BobDylan_Cover5S.wav,,,,,,,,,,,,,,,,,,,,,,,,,,,,,,,,,,,,,,,,,,,,,,,,,,,,,,,,,
,,,,,604662,001,2024-06-14_09h37.36.810,experiment,2024.1.5,Win32,60.97560976,62dc65fdd3bbfeff289f1500,666b5f73dbba3f0cd916b177,666c71674bdd03cbd0f7a5dc,,,,,,,,,,,,,,,,,,,,,,,,,,,,,,,,,,,,445.5769,451.7212,0,1,1,0,1,SoundStimuli/LikeARollingStone_BobDylan_Original5S.wav,,,,,,,,,,,,,,,,,,,,,,,,,,,,,,,,,,,,,,,,,,,,,,,,,,,,,,,,,
,,,,,604662,001,2024-06-14_09h37.36.810,experiment,2024.1.5,Win32,60.97560976,62dc65fdd3bbfeff289f1500,666b5f73dbba3f0cd916b177,666c71674bdd03cbd0f7a5dc,,,,,,,,,,,,,,,,,,,,,,,,,,,,,,,,,,,,,,,,,,,,451.7217,452.6408,3.895991333,0.9072,0,22,22,12,1,song_indices/LikeARollingStone_BobDylan.csv,,,,,,,,,,,,,,,,,,,,,,,,,,,,,,,,,,,,,,,,,,,,,,,
,,,,,604662,001,2024-06-14_09h37.36.810,experiment,2024.1.5,Win32,60.97560976,62dc65fdd3bbfeff289f1500,666b5f73dbba3f0cd916b177,666c71674bdd03cbd0f7a5dc,,,,,,,,,,,,,,,,,,,,,,,,,,,,,,,,,,,,,,,,,,,,,,,,,,,,,,452.6434,474.1508,space,21.4796,,0,0,0,0,1,choose_song_b1.csv,,,,,,,,,,,,,,,,,,,,,,,,,,,,,,,,,,,,
,,,,,604662,001,2024-06-14_09h37.36.810,experiment,2024.1.5,Win32,60.97560976,62dc65fdd3bbfeff289f1500,666b5f73dbba3f0cd916b177,666c71674bdd03cbd0f7a5dc,,,,,,,,,,,,,,,,,,,,,,,,,,,,,,,,,,,,474.1549,480.1267,0,0,0,0,1,SoundStimuli/IWalkTheLine_JohnnyCash_Original5S.wav,,,,,,,,,,,,,,,,,,,,,,,,,,,,,,,,,,,,,,,,,,,,,,,,,,,,,,,,,
,,,,,604662,001,2024-06-14_09h37.36.810,experiment,2024.1.5,Win32,60.97560976,62dc65fdd3bbfeff289f1500,666b5f73dbba3f0cd916b177,666c71674bdd03cbd0f7a5dc,,,,,,,,,,,,,,,,,,,,,,,,,,,,,,,,,,,,480.1374,487.2822,0,1,1,1,1,SoundStimuli/IWalkTheLine_JohnnyCash_Cover5S.wav,,,,,,,,,,,,,,,,,,,,,,,,,,,,,,,,,,,,,,,,,,,,,,,,,,,,,,,,,
,,,,,604662,001,2024-06-14_09h37.36.810,experiment,2024.1.5,Win32,60.97560976,62dc65fdd3bbfeff289f1500,666b5f73dbba3f0cd916b177,666c71674bdd03cbd0f7a5dc,,,,,,,,,,,,,,,,,,,,,,,,,,,,,,,,,,,,,,,,,,,,487.2835,488.1162,3.993499458,0.8199,0,0,0,17,1,song_indices/IWalkTheLine_JohnnyCash.csv,,,,,,,,,,,,,,,,,,,,,,,,,,,,,,,,,,,,,,,,,,,,,,,
,,,,,604662,001,2024-06-14_09h37.36.810,experiment,2024.1.5,Win32,60.97560976,62dc65fdd3bbfeff289f1500,666b5f73dbba3f0cd916b177,666c71674bdd03cbd0f7a5dc,,,,,,,,,,,,,,,,,,,,,,,,,,,,,,,,,,,,488.1202,494.3874,0,0,0,0,1,SoundStimuli/ItsAllInTheGame_TommyEdwards_Original5S.wav,,,,,,,,,,,,,,,,,,,,,,,,,,,,,,,,,,,,,,,,,,,,,,,,,,,,,,,,,
,,,,,604662,001,2024-06-14_09h37.36.810,experiment,2024.1.5,Win32,60.97560976,62dc65fdd3bbfeff289f1500,666b5f73dbba3f0cd916b177,666c71674bdd03cbd0f7a5dc,,,,,,,,,,,,,,,,,,,,,,,,,,,,,,,,,,,,494.3993,500.6254,0,1,1,1,1,SoundStimuli/ItsAllInTheGame_TommyEdwards_Cover5S.wav,,,,,,,,,,,,,,,,,,,,,,,,,,,,,,,,,,,,,,,,,,,,,,,,,,,,,,,,,
,,,,,604662,001,2024-06-14_09h37.36.810,experiment,2024.1.5,Win32,60.97560976,62dc65fdd3bbfeff289f1500,666b5f73dbba3f0cd916b177,666c71674bdd03cbd0f7a5dc,,,,,,,,,,,,,,,,,,,,,,,,,,,,,,,,,,,,,,,,,,,,500.6259,501.3942,3.993499458,0.7527,0,1,1,13,1,song_indices/ItsAllInTheGame_TommyEdwards.csv,,,,,,,,,,,,,,,,,,,,,,,,,,,,,,,,,,,,,,,,,,,,,,,
,,,,,604662,001,2024-06-14_09h37.36.810,experiment,2024.1.5,Win32,60.97560976,62dc65fdd3bbfeff289f1500,666b5f73dbba3f0cd916b177,666c71674bdd03cbd0f7a5dc,,,,,,,,,,,,,,,,,,,,,,,,,,,,,,,,,,,,501.397,507.9814,0,0,0,1,1,SoundStimuli/GetUrFreakOn_MissyElliot_Cover5S.wav,,,,,,,,,,,,,,,,,,,,,,,,,,,,,,,,,,,,,,,,,,,,,,,,,,,,,,,,,
,,,,,604662,001,2024-06-14_09h37.36.810,experiment,2024.1.5,Win32,60.97560976,62dc65fdd3bbfeff289f1500,666b5f73dbba3f0cd916b177,666c71674bdd03cbd0f7a5dc,,,,,,,,,,,,,,,,,,,,,,,,,,,,,,,,,,,,507.9924,514.0687,0,1,1,0,1,SoundStimuli/GetUrFreakOn_MissyElliot_Original5S.wav,,,,,,,,,,,,,,,,,,,,,,,,,,,,,,,,,,,,,,,,,,,,,,,,,,,,,,,,,
,,,,,604662,001,2024-06-14_09h37.36.810,experiment,2024.1.5,Win32,60.97560976,62dc65fdd3bbfeff289f1500,666b5f73dbba3f0cd916b177,666c71674bdd03cbd0f7a5dc,,,,,,,,,,,,,,,,,,,,,,,,,,,,,,,,,,,,,,,,,,,,514.0696,515.2869,6.84723727,1.2051,0,2,2,18,1,song_indices/GetUrFreakOn_MissyElliot.csv,,,,,,,,,,,,,,,,,,,,,,,,,,,,,,,,,,,,,,,,,,,,,,,
,,,,,604662,001,2024-06-14_09h37.36.810,experiment,2024.1.5,Win32,60.97560976,62dc65fdd3bbfeff289f1500,666b5f73dbba3f0cd916b177,666c71674bdd03cbd0f7a5dc,,,,,,,,,,,,,,,,,,,,,,,,,,,,,,,,,,,,515.2905,524.2096,0,0,0,1,1,SoundStimuli/HeyYa_Outkast_Cover5S.wav,,,,,,,,,,,,,,,,,,,,,,,,,,,,,,,,,,,,,,,,,,,,,,,,,,,,,,,,,
,,,,,604662,001,2024-06-14_09h37.36.810,experiment,2024.1.5,Win32,60.97560976,62dc65fdd3bbfeff289f1500,666b5f73dbba3f0cd916b177,666c71674bdd03cbd0f7a5dc,,,,,,,,,,,,,,,,,,,,,,,,,,,,,,,,,,,,524.2211,530.515,0,1,1,0,1,SoundStimuli/HeyYa_Outkast_Original5S.wav,,,,,,,,,,,,,,,,,,,,,,,,,,,,,,,,,,,,,,,,,,,,,,,,,,,,,,,,,
,,,,,604662,001,2024-06-14_09h37.36.810,experiment,2024.1.5,Win32,60.97560976,62dc65fdd3bbfeff289f1500,666b5f73dbba3f0cd916b177,666c71674bdd03cbd0f7a5dc,,,,,,,,,,,,,,,,,,,,,,,,,,,,,,,,,,,,,,,,,,,,530.5153,532.2167,3.05092091,1.6812,0,3,3,22,1,song_indices/HeyYa_Outkast.csv,,,,,,,,,,,,,,,,,,,,,,,,,,,,,,,,,,,,,,,,,,,,,,,
,,,,,604662,001,2024-06-14_09h37.36.810,experiment,2024.1.5,Win32,60.97560976,62dc65fdd3bbfeff289f1500,666b5f73dbba3f0cd916b177,666c71674bdd03cbd0f7a5dc,,,,,,,,,,,,,,,,,,,,,,,,,,,,,,,,,,,,532.2209,539.2386,0,0,0,1,1,SoundStimuli/UptownFunk_MarkRonson_Cover5S.wav,,,,,,,,,,,,,,,,,,,,,,,,,,,,,,,,,,,,,,,,,,,,,,,,,,,,,,,,,
,,,,,604662,001,2024-06-14_09h37.36.810,experiment,2024.1.5,Win32,60.97560976,62dc65fdd3bbfeff289f1500,666b5f73dbba3f0cd916b177,666c71674bdd03cbd0f7a5dc,,,,,,,,,,,,,,,,,,,,,,,,,,,,,,,,,,,,539.2517,546.4775,0,1,1,0,1,SoundStimuli/UptownFunk_MarkRonson_Original5S.wav,,,,,,,,,,,,,,,,,,,,,,,,,,,,,,,,,,,,,,,,,,,,,,,,,,,,,,,,,
,,,,,604662,001,2024-06-14_09h37.36.810,experiment,2024.1.5,Win32,60.97560976,62dc65fdd3bbfeff289f1500,666b5f73dbba3f0cd916b177,666c71674bdd03cbd0f7a5dc,,,,,,,,,,,,,,,,,,,,,,,,,,,,,,,,,,,,,,,,,,,,546.478,548.4954,6.92524377,1.9958,0,4,4,15,1,song_indices/UptownFunk_MarkRonson.csv,,,,,,,,,,,,,,,,,,,,,,,,,,,,,,,,,,,,,,,,,,,,,,,
,,,,,604662,001,2024-06-14_09h37.36.810,experiment,2024.1.5,Win32,60.97560976,62dc65fdd3bbfeff289f1500,666b5f73dbba3f0cd916b177,666c71674bdd03cbd0f7a5dc,,,,,,,,,,,,,,,,,,,,,,,,,,,,,,,,,,,,548.4985,554.8343,0,0,0,1,1,SoundStimuli/Stronger_KanyeWest_Cover5S.wav,,,,,,,,,,,,,,,,,,,,,,,,,,,,,,,,,,,,,,,,,,,,,,,,,,,,,,,,,
,,,,,604662,001,2024-06-14_09h37.36.810,experiment,2024.1.5,Win32,60.97560976,62dc65fdd3bbfeff289f1500,666b5f73dbba3f0cd916b177,666c71674bdd03cbd0f7a5dc,,,,,,,,,,,,,,,,,,,,,,,,,,,,,,,,,,,,554.8447,560.9046,0,1,1,0,1,SoundStimuli/Stronger_KanyeWest_Original5S.wav,,,,,,,,,,,,,,,,,,,,,,,,,,,,,,,,,,,,,,,,,,,,,,,,,,,,,,,,,
,,,,,604662,001,2024-06-14_09h37.36.810,experiment,2024.1.5,Win32,60.97560976,62dc65fdd3bbfeff289f1500,666b5f73dbba3f0cd916b177,666c71674bdd03cbd0f7a5dc,,,,,,,,,,,,,,,,,,,,,,,,,,,,,,,,,,,,,,,,,,,,560.9049,561.655,5.97616468,0.7325,0,5,5,9,1,song_indices/Stronger_KanyeWest.csv,,,,,,,,,,,,,,,,,,,,,,,,,,,,,,,,,,,,,,,,,,,,,,,
,,,,,604662,001,2024-06-14_09h37.36.810,experiment,2024.1.5,Win32,60.97560976,62dc65fdd3bbfeff289f1500,666b5f73dbba3f0cd916b177,666c71674bdd03cbd0f7a5dc,,,,,,,,,,,,,,,,,,,,,,,,,,,,,,,,,,,,561.659,567.8765,0,0,0,0,1,SoundStimuli/TheBattleOfNewOrleans_JohnnyHorton_Original5S.wav,,,,,,,,,,,,,,,,,,,,,,,,,,,,,,,,,,,,,,,,,,,,,,,,,,,,,,,,,
,,,,,604662,001,2024-06-14_09h37.36.810,experiment,2024.1.5,Win32,60.97560976,62dc65fdd3bbfeff289f1500,666b5f73dbba3f0cd916b177,666c71674bdd03cbd0f7a5dc,,,,,,,,,,,,,,,,,,,,,,,,,,,,,,,,,,,,567.8866,575.8662,0,1,1,1,1,SoundStimuli/TheBattleOfNewOrleans_JohnnyHorton_Cover5S.wav,,,,,,,,,,,,,,,,,,,,,,,,,,,,,,,,,,,,,,,,,,,,,,,,,,,,,,,,,
,,,,,604662,001,2024-06-14_09h37.36.810,experiment,2024.1.5,Win32,60.97560976,62dc65fdd3bbfeff289f1500,666b5f73dbba3f0cd916b177,666c71674bdd03cbd0f7a5dc,,,,,,,,,,,,,,,,,,,,,,,,,,,,,,,,,,,,,,,,,,,,575.8666,576.7001,2.043336945,0.8177,0,6,6,4,1,song_indices/TheBattleOfNewOrleans_JohnnyHorton.csv,,,,,,,,,,,,,,,,,,,,,,,,,,,,,,,,,,,,,,,,,,,,,,,
,,,,,604662,001,2024-06-14_09h37.36.810,experiment,2024.1.5,Win32,60.97560976,62dc65fdd3bbfeff289f1500,666b5f73dbba3f0cd916b177,666c71674bdd03cbd0f7a5dc,,,,,,,,,,,,,,,,,,,,,,,,,,,,,,,,,,,,576.7043,583.042,0,0,0,0,1,SoundStimuli/RockWithYou_MichaelJackson_Original5S.wav,,,,,,,,,,,,,,,,,,,,,,,,,,,,,,,,,,,,,,,,,,,,,,,,,,,,,,,,,
,,,,,604662,001,2024-06-14_09h37.36.810,experiment,2024.1.5,Win32,60.97560976,62dc65fdd3bbfeff289f1500,666b5f73dbba3f0cd916b177,666c71674bdd03cbd0f7a5dc,,,,,,,,,,,,,,,,,,,,,,,,,,,,,,,,,,,,583.053,589.1098,0,1,1,1,1,SoundStimuli/RockWithYou_MichaelJackson_Cover5S.wav,,,,,,,,,,,,,,,,,,,,,,,,,,,,,,,,,,,,,,,,,,,,,,,,,,,,,,,,,
,,,,,604662,001,2024-06-14_09h37.36.810,experiment,2024.1.5,Win32,60.97560976,62dc65fdd3bbfeff289f1500,666b5f73dbba3f0cd916b177,666c71674bdd03cbd0f7a5dc,,,,,,,,,,,,,,,,,,,,,,,,,,,,,,,,,,,,,,,,,,,,589.1101,590.394,3.037919827,1.2644,0,7,7,16,1,song_indices/RockWithYou_MichaelJackson.csv,,,,,,,,,,,,,,,,,,,,,,,,,,,,,,,,,,,,,,,,,,,,,,,
,,,,,604662,001,2024-06-14_09h37.36.810,experiment,2024.1.5,Win32,60.97560976,62dc65fdd3bbfeff289f1500,666b5f73dbba3f0cd916b177,666c71674bdd03cbd0f7a5dc,,,,,,,,,,,,,,,,,,,,,,,,,,,,,,,,,,,,590.3983,596.5985,0,0,0,0,1,SoundStimuli/NoScrubs_TLC_Original5S.wav,,,,,,,,,,,,,,,,,,,,,,,,,,,,,,,,,,,,,,,,,,,,,,,,,,,,,,,,,
,,,,,604662,001,2024-06-14_09h37.36.810,experiment,2024.1.5,Win32,60.97560976,62dc65fdd3bbfeff289f1500,666b5f73dbba3f0cd916b177,666c71674bdd03cbd0f7a5dc,,,,,,,,,,,,,,,,,,,,,,,,,,,,,,,,,,,,596.6079,602.7403,0,1,1,1,1,SoundStimuli/NoScrubs_TLC_Cover5S.wav,,,,,,,,,,,,,,,,,,,,,,,,,,,,,,,,,,,,,,,,,,,,,,,,,,,,,,,,,
,,,,,604662,001,2024-06-14_09h37.36.810,experiment,2024.1.5,Win32,60.97560976,62dc65fdd3bbfeff289f1500,666b5f73dbba3f0cd916b177,666c71674bdd03cbd0f7a5dc,,,,,,,,,,,,,,,,,,,,,,,,,,,,,,,,,,,,,,,,,,,,602.7406,603.9377,6.977248104,1.1772,0,8,8,14,1,song_indices/NoScrubs_TLC.csv,,,,,,,,,,,,,,,,,,,,,,,,,,,,,,,,,,,,,,,,,,,,,,,
,,,,,604662,001,2024-06-14_09h37.36.810,experiment,2024.1.5,Win32,60.97560976,62dc65fdd3bbfeff289f1500,666b5f73dbba3f0cd916b177,666c71674bdd03cbd0f7a5dc,,,,,,,,,,,,,,,,,,,,,,,,,,,,,,,,,,,,603.9422,610.2426,0,0,0,1,1,SoundStimuli/ShapeofYou_EdSheeran_Cover5S.wav,,,,,,,,,,,,,,,,,,,,,,,,,,,,,,,,,,,,,,,,,,,,,,,,,,,,,,,,,
,,,,,604662,001,2024-06-14_09h37.36.810,experiment,2024.1.5,Win32,60.97560976,62dc65fdd3bbfeff289f1500,666b5f73dbba3f0cd916b177,666c71674bdd03cbd0f7a5dc,,,,,,,,,,,,,,,,,,,,,,,,,,,,,,,,,,,,610.2538,616.7139,0,1,1,0,1,SoundStimuli/ShapeofYou_EdSheeran_Original5S.wav,,,,,,,,,,,,,,,,,,,,,,,,,,,,,,,,,,,,,,,,,,,,,,,,,,,,,,,,,
,,,,,604662,001,2024-06-14_09h37.36.810,experiment,2024.1.5,Win32,60.97560976,62dc65fdd3bbfeff289f1500,666b5f73dbba3f0cd916b177,666c71674bdd03cbd0f7a5dc,,,,,,,,,,,,,,,,,,,,,,,,,,,,,,,,,,,,,,,,,,,,616.7146,618.0314,6.996749729,1.3025,0,9,9,21,1,song_indices/ShapeofYou_EdSheeran.csv,,,,,,,,,,,,,,,,,,,,,,,,,,,,,,,,,,,,,,,,,,,,,,,
,,,,,604662,001,2024-06-14_09h37.36.810,experiment,2024.1.5,Win32,60.97560976,62dc65fdd3bbfeff289f1500,666b5f73dbba3f0cd916b177,666c71674bdd03cbd0f7a5dc,,,,,,,,,,,,,,,,,,,,,,,,,,,,,,,,,,,,618.0352,624.3858,0,0,0,1,1,SoundStimuli/GoodGollyMissMolly_LittleRichard_Cover5S.wav,,,,,,,,,,,,,,,,,,,,,,,,,,,,,,,,,,,,,,,,,,,,,,,,,,,,,,,,,
,,,,,604662,001,2024-06-14_09h37.36.810,experiment,2024.1.5,Win32,60.97560976,62dc65fdd3bbfeff289f1500,666b5f73dbba3f0cd916b177,666c71674bdd03cbd0f7a5dc,,,,,,,,,,,,,,,,,,,,,,,,,,,,,,,,,,,,624.397,630.4575,0,1,1,0,1,SoundStimuli/GoodGollyMissMolly_LittleRichard_Original5S.wav,,,,,,,,,,,,,,,,,,,,,,,,,,,,,,,,,,,,,,,,,,,,,,,,,,,,,,,,,
,,,,,604662,001,2024-06-14_09h37.36.810,experiment,2024.1.5,Win32,60.97560976,62dc65fdd3bbfeff289f1500,666b5f73dbba3f0cd916b177,666c71674bdd03cbd0f7a5dc,,,,,,,,,,,,,,,,,,,,,,,,,,,,,,,,,,,,,,,,,,,,630.4582,632.3613,3.850487541,1.8889,0,10,10,0,1,song_indices/GoodGollyMissMolly_LittleRichard.csv,,,,,,,,,,,,,,,,,,,,,,,,,,,,,,,,,,,,,,,,,,,,,,,
,,,,,604662,001,2024-06-14_09h37.36.810,experiment,2024.1.5,Win32,60.97560976,62dc65fdd3bbfeff289f1500,666b5f73dbba3f0cd916b177,666c71674bdd03cbd0f7a5dc,,,,,,,,,,,,,,,,,,,,,,,,,,,,,,,,,,,,632.3638,639.7151,0,0,0,1,1,SoundStimuli/Happy_PharellWilliams_Cover5S.wav,,,,,,,,,,,,,,,,,,,,,,,,,,,,,,,,,,,,,,,,,,,,,,,,,,,,,,,,,
,,,,,604662,001,2024-06-14_09h37.36.810,experiment,2024.1.5,Win32,60.97560976,62dc65fdd3bbfeff289f1500,666b5f73dbba3f0cd916b177,666c71674bdd03cbd0f7a5dc,,,,,,,,,,,,,,,,,,,,,,,,,,,,,,,,,,,,639.7325,659.4296,0,1,1,0,1,SoundStimuli/Happy_PharellWilliams_Original5S.wav,,,,,,,,,,,,,,,,,,,,,,,,,,,,,,,,,,,,,,,,,,,,,,,,,,,,,,,,,
,,,,,604662,001,2024-06-14_09h37.36.810,experiment,2024.1.5,Win32,60.97560976,62dc65fdd3bbfeff289f1500,666b5f73dbba3f0cd916b177,666c71674bdd03cbd0f7a5dc,,,,,,,,,,,,,,,,,,,,,,,,,,,,,,,,,,,,,,,,,,,,659.43,661.1162,5.02708559,1.6739,0,11,11,7,1,song_indices/Happy_PharellWilliams.csv,,,,,,,,,,,,,,,,,,,,,,,,,,,,,,,,,,,,,,,,,,,,,,,
,,,,,604662,001,2024-06-14_09h37.36.810,experiment,2024.1.5,Win32,60.97560976,62dc65fdd3bbfeff289f1500,666b5f73dbba3f0cd916b177,666c71674bdd03cbd0f7a5dc,,,,,,,,,,,,,,,,,,,,,,,,,,,,,,,,,,,,661.1197,666.9686,0,0,0,1,1,SoundStimuli/IWillAlwaysLoveYou_WhitneyHouston_Cover5S.wav,,,,,,,,,,,,,,,,,,,,,,,,,,,,,,,,,,,,,,,,,,,,,,,,,,,,,,,,,
,,,,,604662,001,2024-06-14_09h37.36.810,experiment,2024.1.5,Win32,60.97560976,62dc65fdd3bbfeff289f1500,666b5f73dbba3f0cd916b177,666c71674bdd03cbd0f7a5dc,,,,,,,,,,,,,,,,,,,,,,,,,,,,,,,,,,,,666.9785,673.3564,0,1,1,0,1,SoundStimuli/IWillAlwaysLoveYou_WhitneyHouston_Original5S.wav,,,,,,,,,,,,,,,,,,,,,,,,,,,,,,,,,,,,,,,,,,,,,,,,,,,,,,,,,
,,,,,604662,001,2024-06-14_09h37.36.810,experiment,2024.1.5,Win32,60.97560976,62dc65fdd3bbfeff289f1500,666b5f73dbba3f0cd916b177,666c71674bdd03cbd0f7a5dc,,,,,,,,,,,,,,,,,,,,,,,,,,,,,,,,,,,,,,,,,,,,673.3568,675.0076,6.905742145,1.6333,0,12,12,10,1,song_indices/IWillAlwaysLoveYou_WhitneyHouston.csv,,,,,,,,,,,,,,,,,,,,,,,,,,,,,,,,,,,,,,,,,,,,,,,
,,,,,604662,001,2024-06-14_09h37.36.810,experiment,2024.1.5,Win32,60.97560976,62dc65fdd3bbfeff289f1500,666b5f73dbba3f0cd916b177,666c71674bdd03cbd0f7a5dc,,,,,,,,,,,,,,,,,,,,,,,,,,,,,,,,,,,,675.0114,681.2293,0,0,0,1,1,SoundStimuli/NoOne_AliciaKeys_Cover5S.wav,,,,,,,,,,,,,,,,,,,,,,,,,,,,,,,,,,,,,,,,,,,,,,,,,,,,,,,,,
,,,,,604662,001,2024-06-14_09h37.36.810,experiment,2024.1.5,Win32,60.97560976,62dc65fdd3bbfeff289f1500,666b5f73dbba3f0cd916b177,666c71674bdd03cbd0f7a5dc,,,,,,,,,,,,,,,,,,,,,,,,,,,,,,,,,,,,681.2393,688.9522,0,1,1,0,1,SoundStimuli/NoOne_AliciaKeys_Original5S.wav,,,,,,,,,,,,,,,,,,,,,,,,,,,,,,,,,,,,,,,,,,,,,,,,,,,,,,,,,
,,,,,604662,001,2024-06-14_09h37.36.810,experiment,2024.1.5,Win32,60.97560976,62dc65fdd3bbfeff289f1500,666b5f73dbba3f0cd916b177,666c71674bdd03cbd0f7a5dc,,,,,,,,,,,,,,,,,,,,,,,,,,,,,,,,,,,,,,,,,,,,688.9525,689.7192,2.06283857,0.7515,0,13,13,19,1,song_indices/NoOne_AliciaKeys.csv,,,,,,,,,,,,,,,,,,,,,,,,,,,,,,,,,,,,,,,,,,,,,,,
,,,,,604662,001,2024-06-14_09h37.36.810,experiment,2024.1.5,Win32,60.97560976,62dc65fdd3bbfeff289f1500,666b5f73dbba3f0cd916b177,666c71674bdd03cbd0f7a5dc,,,,,,,,,,,,,,,,,,,,,,,,,,,,,,,,,,,,689.7225,695.9405,0,0,0,1,1,SoundStimuli/GimmeShelter_RollingStones_Cover5S.wav,,,,,,,,,,,,,,,,,,,,,,,,,,,,,,,,,,,,,,,,,,,,,,,,,,,,,,,,,
,,,,,604662,001,2024-06-14_09h37.36.810,experiment,2024.1.5,Win32,60.97560976,62dc65fdd3bbfeff289f1500,666b5f73dbba3f0cd916b177,666c71674bdd03cbd0f7a5dc,,,,,,,,,,,,,,,,,,,,,,,,,,,,,,,,,,,,695.9507,702.0447,0,1,1,0,1,SoundStimuli/GimmeShelter_RollingStones_Original5S.wav,,,,,,,,,,,,,,,,,,,,,,,,,,,,,,,,,,,,,,,,,,,,,,,,,,,,,,,,,
,,,,,604662,001,2024-06-14_09h37.36.810,experiment,2024.1.5,Win32,60.97560976,62dc65fdd3bbfeff289f1500,666b5f73dbba3f0cd916b177,666c71674bdd03cbd0f7a5dc,,,,,,,,,,,,,,,,,,,,,,,,,,,,,,,,,,,,,,,,,,,,702.0451,705.5985,2.985915493,3.5346,0,14,14,20,1,song_indices/GimmeShelter_RollingStones.csv,,,,,,,,,,,,,,,,,,,,,,,,,,,,,,,,,,,,,,,,,,,,,,,
,,,,,604662,001,2024-06-14_09h37.36.810,experiment,2024.1.5,Win32,60.97560976,62dc65fdd3bbfeff289f1500,666b5f73dbba3f0cd916b177,666c71674bdd03cbd0f7a5dc,,,,,,,,,,,,,,,,,,,,,,,,,,,,,,,,,,,,705.6018,711.8191,0,0,0,0,1,SoundStimuli/BetteDavisEyes_KimCarnes_Original5S.wav,,,,,,,,,,,,,,,,,,,,,,,,,,,,,,,,,,,,,,,,,,,,,,,,,,,,,,,,,
,,,,,604662,001,2024-06-14_09h37.36.810,experiment,2024.1.5,Win32,60.97560976,62dc65fdd3bbfeff289f1500,666b5f73dbba3f0cd916b177,666c71674bdd03cbd0f7a5dc,,,,,,,,,,,,,,,,,,,,,,,,,,,,,,,,,,,,711.8289,717.5238,0,1,1,1,1,SoundStimuli/BetteDavisEyes_KimCarnes_Cover5S.wav,,,,,,,,,,,,,,,,,,,,,,,,,,,,,,,,,,,,,,,,,,,,,,,,,,,,,,,,,
,,,,,604662,001,2024-06-14_09h37.36.810,experiment,2024.1.5,Win32,60.97560976,62dc65fdd3bbfeff289f1500,666b5f73dbba3f0cd916b177,666c71674bdd03cbd0f7a5dc,,,,,,,,,,,,,,,,,,,,,,,,,,,,,,,,,,,,,,,,,,,,717.524,747.4629,3.102925244,29.9195,0,15,15,5,1,song_indices/BetteDavisEyes_KimCarnes.csv,,,,,,,,,,,,,,,,,,,,,,,,,,,,,,,,,,,,,,,,,,,,,,,
,,,,,604662,001,2024-06-14_09h37.36.810,experiment,2024.1.5,Win32,60.97560976,62dc65fdd3bbfeff289f1500,666b5f73dbba3f0cd916b177,666c71674bdd03cbd0f7a5dc,,,,,,,,,,,,,,,,,,,,,,,,,,,,,,,,,,,,747.4675,753.6346,0,0,0,0,1,SoundStimuli/Fallin_AliciaKeys_Original5S.wav,,,,,,,,,,,,,,,,,,,,,,,,,,,,,,,,,,,,,,,,,,,,,,,,,,,,,,,,,
,,,,,604662,001,2024-06-14_09h37.36.810,experiment,2024.1.5,Win32,60.97560976,62dc65fdd3bbfeff289f1500,666b5f73dbba3f0cd916b177,666c71674bdd03cbd0f7a5dc,,,,,,,,,,,,,,,,,,,,,,,,,,,,,,,,,,,,753.6451,760.0736,0,1,1,1,1,SoundStimuli/Fallin_AliciaKeys_Cover5S.wav,,,,,,,,,,,,,,,,,,,,,,,,,,,,,,,,,,,,,,,,,,,,,,,,,,,,,,,,,
,,,,,604662,001,2024-06-14_09h37.36.810,experiment,2024.1.5,Win32,60.97560976,62dc65fdd3bbfeff289f1500,666b5f73dbba3f0cd916b177,666c71674bdd03cbd0f7a5dc,,,,,,,,,,,,,,,,,,,,,,,,,,,,,,,,,,,,,,,,,,,,760.0739,761.0901,4.923076923,0.9969,0,16,16,12,1,song_indices/Fallin_AliciaKeys.csv,,,,,,,,,,,,,,,,,,,,,,,,,,,,,,,,,,,,,,,,,,,,,,,
,,,,,604662,001,2024-06-14_09h37.36.810,experiment,2024.1.5,Win32,60.97560976,62dc65fdd3bbfeff289f1500,666b5f73dbba3f0cd916b177,666c71674bdd03cbd0f7a5dc,,,,,,,,,,,,,,,,,,,,,,,,,,,,,,,,,,,,761.0944,766.9946,0,0,0,0,1,SoundStimuli/EyeOfTheTiger_Survivor_Original5S.wav,,,,,,,,,,,,,,,,,,,,,,,,,,,,,,,,,,,,,,,,,,,,,,,,,,,,,,,,,
,,,,,604662,001,2024-06-14_09h37.36.810,experiment,2024.1.5,Win32,60.97560976,62dc65fdd3bbfeff289f1500,666b5f73dbba3f0cd916b177,666c71674bdd03cbd0f7a5dc,,,,,,,,,,,,,,,,,,,,,,,,,,,,,,,,,,,,767.0042,773.1158,0,1,1,1,1,SoundStimuli/EyeOfTheTiger_Survivor_Cover5S.wav,,,,,,,,,,,,,,,,,,,,,,,,,,,,,,,,,,,,,,,,,,,,,,,,,,,,,,,,,
,,,,,604662,001,2024-06-14_09h37.36.810,experiment,2024.1.5,Win32,60.97560976,62dc65fdd3bbfeff289f1500,666b5f73dbba3f0cd916b177,666c71674bdd03cbd0f7a5dc,,,,,,,,,,,,,,,,,,,,,,,,,,,,,,,,,,,,,,,,,,,,773.1166,774.3834,4.936078007,1.2481,0,17,17,11,1,song_indices/EyeOfTheTiger_Survivor.csv,,,,,,,,,,,,,,,,,,,,,,,,,,,,,,,,,,,,,,,,,,,,,,,
,,,,,604662,001,2024-06-14_09h37.36.810,experiment,2024.1.5,Win32,60.97560976,62dc65fdd3bbfeff289f1500,666b5f73dbba3f0cd916b177,666c71674bdd03cbd0f7a5dc,,,,,,,,,,,,,,,,,,,,,,,,,,,,,,,,,,,,774.3877,780.4217,0,0,0,1,1,SoundStimuli/StandByMe_BenEKing_Cover5S.wav,,,,,,,,,,,,,,,,,,,,,,,,,,,,,,,,,,,,,,,,,,,,,,,,,,,,,,,,,
,,,,,604662,001,2024-06-14_09h37.36.810,experiment,2024.1.5,Win32,60.97560976,62dc65fdd3bbfeff289f1500,666b5f73dbba3f0cd916b177,666c71674bdd03cbd0f7a5dc,,,,,,,,,,,,,,,,,,,,,,,,,,,,,,,,,,,,780.4331,786.3445,0,1,1,0,1,SoundStimuli/StandByMe_BenEKing_Original5S.wav,,,,,,,,,,,,,,,,,,,,,,,,,,,,,,,,,,,,,,,,,,,,,,,,,,,,,,,,,
,,,,,604662,001,2024-06-14_09h37.36.810,experiment,2024.1.5,Win32,60.97560976,62dc65fdd3bbfeff289f1500,666b5f73dbba3f0cd916b177,666c71674bdd03cbd0f7a5dc,,,,,,,,,,,,,,,,,,,,,,,,,,,,,,,,,,,,,,,,,,,,786.346,787.9772,3.986998917,1.6153,0,18,18,1,1,song_indices/StandByMe_BenEKing.csv,,,,,,,,,,,,,,,,,,,,,,,,,,,,,,,,,,,,,,,,,,,,,,,
,,,,,604662,001,2024-06-14_09h37.36.810,experiment,2024.1.5,Win32,60.97560976,62dc65fdd3bbfeff289f1500,666b5f73dbba3f0cd916b177,666c71674bdd03cbd0f7a5dc,,,,,,,,,,,,,,,,,,,,,,,,,,,,,,,,,,,,787.9816,794.7665,0,0,0,1,1,SoundStimuli/PartyRockAnthem_LMFAO_Cover5S.wav,,,,,,,,,,,,,,,,,,,,,,,,,,,,,,,,,,,,,,,,,,,,,,,,,,,,,,,,,
,,,,,604662,001,2024-06-14_09h37.36.810,experiment,2024.1.5,Win32,60.97560976,62dc65fdd3bbfeff289f1500,666b5f73dbba3f0cd916b177,666c71674bdd03cbd0f7a5dc,,,,,,,,,,,,,,,,,,,,,,,,,,,,,,,,,,,,794.776,801.5212,0,1,1,0,1,SoundStimuli/PartyRockAnthem_LMFAO_Original5S.wav,,,,,,,,,,,,,,,,,,,,,,,,,,,,,,,,,,,,,,,,,,,,,,,,,,,,,,,,,
,,,,,604662,001,2024-06-14_09h37.36.810,experiment,2024.1.5,Win32,60.97560976,62dc65fdd3bbfeff289f1500,666b5f73dbba3f0cd916b177,666c71674bdd03cbd0f7a5dc,,,,,,,,,,,,,,,,,,,,,,,,,,,,,,,,,,,,,,,,,,,,801.5214,803.2551,1.991332611,1.7203,0,19,19,2,1,song_indices/PartyRockAnthem_LMFAO.csv,,,,,,,,,,,,,,,,,,,,,,,,,,,,,,,,,,,,,,,,,,,,,,,
,,,,,604662,001,2024-06-14_09h37.36.810,experiment,2024.1.5,Win32,60.97560976,62dc65fdd3bbfeff289f1500,666b5f73dbba3f0cd916b177,666c71674bdd03cbd0f7a5dc,,,,,,,,,,,,,,,,,,,,,,,,,,,,,,,,,,,,803.2587,809.2102,0,0,0,1,1,SoundStimuli/TheBoyIsMine_BrandyMonica_Cover5S.wav,,,,,,,,,,,,,,,,,,,,,,,,,,,,,,,,,,,,,,,,,,,,,,,,,,,,,,,,,
,,,,,604662,001,2024-06-14_09h37.36.810,experiment,2024.1.5,Win32,60.97560976,62dc65fdd3bbfeff289f1500,666b5f73dbba3f0cd916b177,666c71674bdd03cbd0f7a5dc,,,,,,,,,,,,,,,,,,,,,,,,,,,,,,,,,,,,809.2199,815.4317,0,1,1,0,1,SoundStimuli/TheBoyIsMine_BrandyMonica_Original5S.wav,,,,,,,,,,,,,,,,,,,,,,,,,,,,,,,,,,,,,,,,,,,,,,,,,,,,,,,,,
,,,,,604662,001,2024-06-14_09h37.36.810,experiment,2024.1.5,Win32,60.97560976,62dc65fdd3bbfeff289f1500,666b5f73dbba3f0cd916b177,666c71674bdd03cbd0f7a5dc,,,,,,,,,,,,,,,,,,,,,,,,,,,,,,,,,,,,,,,,,,,,815.4321,816.6326,4.03900325,1.1794,0,20,20,6,1,song_indices/TheBoyIsMine_BrandyMonica.csv,,,,,,,,,,,,,,,,,,,,,,,,,,,,,,,,,,,,,,,,,,,,,,,
,,,,,604662,001,2024-06-14_09h37.36.810,experiment,2024.1.5,Win32,60.97560976,62dc65fdd3bbfeff289f1500,666b5f73dbba3f0cd916b177,666c71674bdd03cbd0f7a5dc,,,,,,,,,,,,,,,,,,,,,,,,,,,,,,,,,,,,816.6369,822.4036,0,0,0,1,1,SoundStimuli/SmellsLikeTeenSpirit_Nirvana_Cover5S.wav,,,,,,,,,,,,,,,,,,,,,,,,,,,,,,,,,,,,,,,,,,,,,,,,,,,,,,,,,
,,,,,604662,001,2024-06-14_09h37.36.810,experiment,2024.1.5,Win32,60.97560976,62dc65fdd3bbfeff289f1500,666b5f73dbba3f0cd916b177,666c71674bdd03cbd0f7a5dc,,,,,,,,,,,,,,,,,,,,,,,,,,,,,,,,,,,,822.4147,828.6081,0,1,1,0,1,SoundStimuli/SmellsLikeTeenSpirit_Nirvana_Original5S.wav,,,,,,,,,,,,,,,,,,,,,,,,,,,,,,,,,,,,,,,,,,,,,,,,,,,,,,,,,
,,,,,604662,001,2024-06-14_09h37.36.810,experiment,2024.1.5,Win32,60.97560976,62dc65fdd3bbfeff289f1500,666b5f73dbba3f0cd916b177,666c71674bdd03cbd0f7a5dc,,,,,,,,,,,,,,,,,,,,,,,,,,,,,,,,,,,,,,,,,,,,828.6085,829.2589,4.975081257,0.6311,0,21,21,8,1,song_indices/SmellsLikeTeenSpirit_Nirvana.csv,,,,,,,,,,,,,,,,,,,,,,,,,,,,,,,,,,,,,,,,,,,,,,,
,,,,,604662,001,2024-06-14_09h37.36.810,experiment,2024.1.5,Win32,60.97560976,62dc65fdd3bbfeff289f1500,666b5f73dbba3f0cd916b177,666c71674bdd03cbd0f7a5dc,,,,,,,,,,,,,,,,,,,,,,,,,,,,,,,,,,,,829.2622,835.7965,0,0,0,0,1,SoundStimuli/CrazyInLove_BeyonceFtJayZ_Original5S.wav,,,,,,,,,,,,,,,,,,,,,,,,,,,,,,,,,,,,,,,,,,,,,,,,,,,,,,,,,
,,,,,604662,001,2024-06-14_09h37.36.810,experiment,2024.1.5,Win32,60.97560976,62dc65fdd3bbfeff289f1500,666b5f73dbba3f0cd916b177,666c71674bdd03cbd0f7a5dc,,,,,,,,,,,,,,,,,,,,,,,,,,,,,,,,,,,,835.8071,846.0543,0,1,1,1,1,SoundStimuli/CrazyInLove_BeyonceFtJayZ_Cover5S.wav,,,,,,,,,,,,,,,,,,,,,,,,,,,,,,,,,,,,,,,,,,,,,,,,,,,,,,,,,
,,,,,604662,001,2024-06-14_09h37.36.810,experiment,2024.1.5,Win32,60.97560976,62dc65fdd3bbfeff289f1500,666b5f73dbba3f0cd916b177,666c71674bdd03cbd0f7a5dc,,,,,,,,,,,,,,,,,,,,,,,,,,,,,,,,,,,,,,,,,,,,846.0544,847.4555,6.093174431,1.3717,0,22,22,3,1,song_indices/CrazyInLove_BeyonceFtJayZ.csv,,,,,,,,,,,,,,,,,,,,,,,,,,,,,,,,,,,,,,,,,,,,,,,
,,,,,604662,001,2024-06-14_09h37.36.810,experiment,2024.1.5,Win32,60.97560976,62dc65fdd3bbfeff289f1500,666b5f73dbba3f0cd916b177,666c71674bdd03cbd0f7a5dc,,,,,,,,,,,,,,,,,,,,,,,,,,,,,,,,,,,,,,,,,,,,,,,,,,,,,,847.4565,933.0373,space,85.5511,,0,1,1,1,1,choose_song_b2.csv,,,,,,,,,,,,,,,,,,,,,,,,,,,,,,,,,,,,
,,,,,604662,001,2024-06-14_09h37.36.810,experiment,2024.1.5,Win32,60.97560976,62dc65fdd3bbfeff289f1500,666b5f73dbba3f0cd916b177,666c71674bdd03cbd0f7a5dc,,,,,,,,,,,,,,,,,,,,,,,,,,,,,,,,,,,,933.0438,939.2425,0,0,0,0,1,SoundStimuli/SaveYourTears_TheWeekndArianaGrande_Original5S.wav,,,,,,,,,,,,,,,,,,,,,,,,,,,,,,,,,,,,,,,,,,,,,,,,,,,,,,,,,
,,,,,604662,001,2024-06-14_09h37.36.810,experiment,2024.1.5,Win32,60.97560976,62dc65fdd3bbfeff289f1500,666b5f73dbba3f0cd916b177,666c71674bdd03cbd0f7a5dc,,,,,,,,,,,,,,,,,,,,,,,,,,,,,,,,,,,,939.2548,945.1316,0,1,1,1,1,SoundStimuli/SaveYourTears_TheWeekndArianaGrande_Cover5S.wav,,,,,,,,,,,,,,,,,,,,,,,,,,,,,,,,,,,,,,,,,,,,,,,,,,,,,,,,,
,,,,,604662,001,2024-06-14_09h37.36.810,experiment,2024.1.5,Win32,60.97560976,62dc65fdd3bbfeff289f1500,666b5f73dbba3f0cd916b177,666c71674bdd03cbd0f7a5dc,,,,,,,,,,,,,,,,,,,,,,,,,,,,,,,,,,,,,,,,,,,,945.132,945.9806,2.004333694,0.8275,0,0,0,12,1,song_indices/SaveYourTears_TheWeekndArianaGrande.csv,,,,,,,,,,,,,,,,,,,,,,,,,,,,,,,,,,,,,,,,,,,,,,,
,,,,,604662,001,2024-06-14_09h37.36.810,experiment,2024.1.5,Win32,60.97560976,62dc65fdd3bbfeff289f1500,666b5f73dbba3f0cd916b177,666c71674bdd03cbd0f7a5dc,,,,,,,,,,,,,,,,,,,,,,,,,,,,,,,,,,,,945.9862,952.0537,0,0,0,1,1,SoundStimuli/Respect_ArethaFranklin_Cover5S.wav,,,,,,,,,,,,,,,,,,,,,,,,,,,,,,,,,,,,,,,,,,,,,,,,,,,,,,,,,
,,,,,604662,001,2024-06-14_09h37.36.810,experiment,2024.1.5,Win32,60.97560976,62dc65fdd3bbfeff289f1500,666b5f73dbba3f0cd916b177,666c71674bdd03cbd0f7a5dc,,,,,,,,,,,,,,,,,,,,,,,,,,,,,,,,,,,,952.067,957.9925,0,1,1,0,1,SoundStimuli/Respect_ArethaFranklin_Original5S.wav,,,,,,,,,,,,,,,,,,,,,,,,,,,,,,,,,,,,,,,,,,,,,,,,,,,,,,,,,
,,,,,604662,001,2024-06-14_09h37.36.810,experiment,2024.1.5,Win32,60.97560976,62dc65fdd3bbfeff289f1500,666b5f73dbba3f0cd916b177,666c71674bdd03cbd0f7a5dc,,,,,,,,,,,,,,,,,,,,,,,,,,,,,,,,,,,,,,,,,,,,957.993,959.2404,2.082340195,1.2362,0,1,1,0,1,song_indices/Respect_ArethaFranklin.csv,,,,,,,,,,,,,,,,,,,,,,,,,,,,,,,,,,,,,,,,,,,,,,,
,,,,,604662,001,2024-06-14_09h37.36.810,experiment,2024.1.5,Win32,60.97560976,62dc65fdd3bbfeff289f1500,666b5f73dbba3f0cd916b177,666c71674bdd03cbd0f7a5dc,,,,,,,,,,,,,,,,,,,,,,,,,,,,,,,,,,,,959.2438,965.3288,0,0,0,0,1,SoundStimuli/YouLightUpMyLife_DebbyBoone_Original5S.wav,,,,,,,,,,,,,,,,,,,,,,,,,,,,,,,,,,,,,,,,,,,,,,,,,,,,,,,,,
,,,,,604662,001,2024-06-14_09h37.36.810,experiment,2024.1.5,Win32,60.97560976,62dc65fdd3bbfeff289f1500,666b5f73dbba3f0cd916b177,666c71674bdd03cbd0f7a5dc,,,,,,,,,,,,,,,,,,,,,,,,,,,,,,,,,,,,965.3385,971.7832,0,1,1,1,1,SoundStimuli/YouLightUpMyLife_DebbyBoone_Cover5S.wav,,,,,,,,,,,,,,,,,,,,,,,,,,,,,,,,,,,,,,,,,,,,,,,,,,,,,,,,,
,,,,,604662,001,2024-06-14_09h37.36.810,experiment,2024.1.5,Win32,60.97560976,62dc65fdd3bbfeff289f1500,666b5f73dbba3f0cd916b177,666c71674bdd03cbd0f7a5dc,,,,,,,,,,,,,,,,,,,,,,,,,,,,,,,,,,,,,,,,,,,,971.7835,972.9682,6.964247021,1.1699,0,2,2,4,1,song_indices/YouLightUpMyLife_DebbyBoone.csv,,,,,,,,,,,,,,,,,,,,,,,,,,,,,,,,,,,,,,,,,,,,,,,
,,,,,604662,001,2024-06-14_09h37.36.810,experiment,2024.1.5,Win32,60.97560976,62dc65fdd3bbfeff289f1500,666b5f73dbba3f0cd916b177,666c71674bdd03cbd0f7a5dc,,,,,,,,,,,,,,,,,,,,,,,,,,,,,,,,,,,,972.972,979.8229,0,0,0,1,1,SoundStimuli/PokerFace_LadyGaga_Cover5S.wav,,,,,,,,,,,,,,,,,,,,,,,,,,,,,,,,,,,,,,,,,,,,,,,,,,,,,,,,,
,,,,,604662,001,2024-06-14_09h37.36.810,experiment,2024.1.5,Win32,60.97560976,62dc65fdd3bbfeff289f1500,666b5f73dbba3f0cd916b177,666c71674bdd03cbd0f7a5dc,,,,,,,,,,,,,,,,,,,,,,,,,,,,,,,,,,,,979.8331,986.8459,0,1,1,0,1,SoundStimuli/PokerFace_LadyGaga_Original5S.wav,,,,,,,,,,,,,,,,,,,,,,,,,,,,,,,,,,,,,,,,,,,,,,,,,,,,,,,,,
,,,,,604662,001,2024-06-14_09h37.36.810,experiment,2024.1.5,Win32,60.97560976,62dc65fdd3bbfeff289f1500,666b5f73dbba3f0cd916b177,666c71674bdd03cbd0f7a5dc,,,,,,,,,,,,,,,,,,,,,,,,,,,,,,,,,,,,,,,,,,,,986.846,987.5793,6.918743229,0.7146,0,3,3,23,1,song_indices/PokerFace_LadyGaga.csv,,,,,,,,,,,,,,,,,,,,,,,,,,,,,,,,,,,,,,,,,,,,,,,
,,,,,604662,001,2024-06-14_09h37.36.810,experiment,2024.1.5,Win32,60.97560976,62dc65fdd3bbfeff289f1500,666b5f73dbba3f0cd916b177,666c71674bdd03cbd0f7a5dc,,,,,,,,,,,,,,,,,,,,,,,,,,,,,,,,,,,,987.5833,993.8006,0,0,0,0,1,SoundStimuli/TikTok_Kesha_Original5S.wav,,,,,,,,,,,,,,,,,,,,,,,,,,,,,,,,,,,,,,,,,,,,,,,,,,,,,,,,,
,,,,,604662,001,2024-06-14_09h37.36.810,experiment,2024.1.5,Win32,60.97560976,62dc65fdd3bbfeff289f1500,666b5f73dbba3f0cd916b177,666c71674bdd03cbd0f7a5dc,,,,,,,,,,,,,,,,,,,,,,,,,,,,,,,,,,,,993.8103,1001.3397,0,1,1,1,1,SoundStimuli/TikTok_Kesha_Cover5S.wav,,,,,,,,,,,,,,,,,,,,,,,,,,,,,,,,,,,,,,,,,,,,,,,,,,,,,,,,,
,,,,,604662,001,2024-06-14_09h37.36.810,experiment,2024.1.5,Win32,60.97560976,62dc65fdd3bbfeff289f1500,666b5f73dbba3f0cd916b177,666c71674bdd03cbd0f7a5dc,,,,,,,,,,,,,,,,,,,,,,,,,,,,,,,,,,,,,,,,,,,,1001.34,1002.2401,4.065005417,0.8814,0,4,4,3,1,song_indices/TikTok_Kesha.csv,,,,,,,,,,,,,,,,,,,,,,,,,,,,,,,,,,,,,,,,,,,,,,,
,,,,,604662,001,2024-06-14_09h37.36.810,experiment,2024.1.5,Win32,60.97560976,62dc65fdd3bbfeff289f1500,666b5f73dbba3f0cd916b177,666c71674bdd03cbd0f7a5dc,,,,,,,,,,,,,,,,,,,,,,,,,,,,,,,,,,,,1002.2442,1008.7283,0,0,0,0,1,SoundStimuli/BlindingLights_TheWeeknd_Original5S.wav,,,,,,,,,,,,,,,,,,,,,,,,,,,,,,,,,,,,,,,,,,,,,,,,,,,,,,,,,
,,,,,604662,001,2024-06-14_09h37.36.810,experiment,2024.1.5,Win32,60.97560976,62dc65fdd3bbfeff289f1500,666b5f73dbba3f0cd916b177,666c71674bdd03cbd0f7a5dc,,,,,,,,,,,,,,,,,,,,,,,,,,,,,,,,,,,,1008.7376,1015.5349,0,1,1,1,1,SoundStimuli/BlindingLights_TheWeeknd_Cover5S.wav,,,,,,,,,,,,,,,,,,,,,,,,,,,,,,,,,,,,,,,,,,,,,,,,,,,,,,,,,
,,,,,604662,001,2024-06-14_09h37.36.810,experiment,2024.1.5,Win32,60.97560976,62dc65fdd3bbfeff289f1500,666b5f73dbba3f0cd916b177,666c71674bdd03cbd0f7a5dc,,,,,,,,,,,,,,,,,,,,,,,,,,,,,,,,,,,,,,,,,,,,1015.5353,1016.6513,2.927410618,1.0966,0,5,5,21,1,song_indices/BlindingLights_TheWeeknd.csv,,,,,,,,,,,,,,,,,,,,,,,,,,,,,,,,,,,,,,,,,,,,,,,
,,,,,604662,001,2024-06-14_09h37.36.810,experiment,2024.1.5,Win32,60.97560976,62dc65fdd3bbfeff289f1500,666b5f73dbba3f0cd916b177,666c71674bdd03cbd0f7a5dc,,,,,,,,,,,,,,,,,,,,,,,,,,,,,,,,,,,,1016.6558,1022.7553,0,0,0,0,1,SoundStimuli/ComeAndGetYourLove_Redbone_Original5S.wav,,,,,,,,,,,,,,,,,,,,,,,,,,,,,,,,,,,,,,,,,,,,,,,,,,,,,,,,,
,,,,,604662,001,2024-06-14_09h37.36.810,experiment,2024.1.5,Win32,60.97560976,62dc65fdd3bbfeff289f1500,666b5f73dbba3f0cd916b177,666c71674bdd03cbd0f7a5dc,,,,,,,,,,,,,,,,,,,,,,,,,,,,,,,,,,,,1022.7656,1029.8284,0,1,1,1,1,SoundStimuli/ComeAndGetYourLove_Redbone_Cover5S.wav,,,,,,,,,,,,,,,,,,,,,,,,,,,,,,,,,,,,,,,,,,,,,,,,,,,,,,,,,
,,,,,604662,001,2024-06-14_09h37.36.810,experiment,2024.1.5,Win32,60.97560976,62dc65fdd3bbfeff289f1500,666b5f73dbba3f0cd916b177,666c71674bdd03cbd0f7a5dc,,,,,,,,,,,,,,,,,,,,,,,,,,,,,,,,,,,,,,,,,,,,1029.8291,1030.9623,3.031419285,1.1118,0,6,6,22,1,song_indices/ComeAndGetYourLove_Redbone.csv,,,,,,,,,,,,,,,,,,,,,,,,,,,,,,,,,,,,,,,,,,,,,,,
,,,,,604662,001,2024-06-14_09h37.36.810,experiment,2024.1.5,Win32,60.97560976,62dc65fdd3bbfeff289f1500,666b5f73dbba3f0cd916b177,666c71674bdd03cbd0f7a5dc,,,,,,,,,,,,,,,,,,,,,,,,,,,,,,,,,,,,1030.9668,1037.2502,0,0,0,1,1,SoundStimuli/Kiss_Prince_Cover5S.wav,,,,,,,,,,,,,,,,,,,,,,,,,,,,,,,,,,,,,,,,,,,,,,,,,,,,,,,,,
,,,,,604662,001,2024-06-14_09h37.36.810,experiment,2024.1.5,Win32,60.97560976,62dc65fdd3bbfeff289f1500,666b5f73dbba3f0cd916b177,666c71674bdd03cbd0f7a5dc,,,,,,,,,,,,,,,,,,,,,,,,,,,,,,,,,,,,1037.2618,1044.689,0,1,1,0,1,SoundStimuli/Kiss_Prince_Original5S.wav,,,,,,,,,,,,,,,,,,,,,,,,,,,,,,,,,,,,,,,,,,,,,,,,,,,,,,,,,
,,,,,604662,001,2024-06-14_09h37.36.810,experiment,2024.1.5,Win32,60.97560976,62dc65fdd3bbfeff289f1500,666b5f73dbba3f0cd916b177,666c71674bdd03cbd0f7a5dc,,,,,,,,,,,,,,,,,,,,,,,,,,,,,,,,,,,,,,,,,,,,1044.6894,1045.5397,4,0.8369,0,7,7,14,1,song_indices/Kiss_Prince.csv,,,,,,,,,,,,,,,,,,,,,,,,,,,,,,,,,,,,,,,,,,,,,,,
,,,,,604662,001,2024-06-14_09h37.36.810,experiment,2024.1.5,Win32,60.97560976,62dc65fdd3bbfeff289f1500,666b5f73dbba3f0cd916b177,666c71674bdd03cbd0f7a5dc,,,,,,,,,,,,,,,,,,,,,,,,,,,,,,,,,,,,1045.5435,1051.661,0,0,0,1,1,SoundStimuli/TossinAndTurnin_BobbyLewis_Cover5S.wav,,,,,,,,,,,,,,,,,,,,,,,,,,,,,,,,,,,,,,,,,,,,,,,,,,,,,,,,,
,,,,,604662,001,2024-06-14_09h37.36.810,experiment,2024.1.5,Win32,60.97560976,62dc65fdd3bbfeff289f1500,666b5f73dbba3f0cd916b177,666c71674bdd03cbd0f7a5dc,,,,,,,,,,,,,,,,,,,,,,,,,,,,,,,,,,,,1051.6709,1101.9404,0,1,1,0,1,SoundStimuli/TossinAndTurnin_BobbyLewis_Original5S.wav,,,,,,,,,,,,,,,,,,,,,,,,,,,,,,,,,,,,,,,,,,,,,,,,,,,,,,,,,
,,,,,604662,001,2024-06-14_09h37.36.810,experiment,2024.1.5,Win32,60.97560976,62dc65fdd3bbfeff289f1500,666b5f73dbba3f0cd916b177,666c71674bdd03cbd0f7a5dc,,,,,,,,,,,,,,,,,,,,,,,,,,,,,,,,,,,,,,,,,,,,1101.9407,1104.8512,4.929577465,2.892,0,8,8,13,1,song_indices/TossinAndTurnin_BobbyLewis.csv,,,,,,,,,,,,,,,,,,,,,,,,,,,,,,,,,,,,,,,,,,,,,,,
,,,,,604662,001,2024-06-14_09h37.36.810,experiment,2024.1.5,Win32,60.97560976,62dc65fdd3bbfeff289f1500,666b5f73dbba3f0cd916b177,666c71674bdd03cbd0f7a5dc,,,,,,,,,,,,,,,,,,,,,,,,,,,,,,,,,,,,1104.8554,1112.09,0,0,0,0,1,SoundStimuli/SomebodyThatIUsedtoKnow_Gotye_Original5S.wav,,,,,,,,,,,,,,,,,,,,,,,,,,,,,,,,,,,,,,,,,,,,,,,,,,,,,,,,,
,,,,,604662,001,2024-06-14_09h37.36.810,experiment,2024.1.5,Win32,60.97560976,62dc65fdd3bbfeff289f1500,666b5f73dbba3f0cd916b177,666c71674bdd03cbd0f7a5dc,,,,,,,,,,,,,,,,,,,,,,,,,,,,,,,,,,,,1112.1033,1118.8951,0,1,1,1,1,SoundStimuli/SomebodyThatIUsedtoKnow_Gotye_Cover5S.wav,,,,,,,,,,,,,,,,,,,,,,,,,,,,,,,,,,,,,,,,,,,,,,,,,,,,,,,,,
,,,,,604662,001,2024-06-14_09h37.36.810,experiment,2024.1.5,Win32,60.97560976,62dc65fdd3bbfeff289f1500,666b5f73dbba3f0cd916b177,666c71674bdd03cbd0f7a5dc,,,,,,,,,,,,,,,,,,,,,,,,,,,,,,,,,,,,,,,,,,,,1118.8954,1119.9464,6.964247021,1.0321,0,9,9,7,1,song_indices/SomebodyThatIUsedtoKnow_Gotye.csv,,,,,,,,,,,,,,,,,,,,,,,,,,,,,,,,,,,,,,,,,,,,,,,
,,,,,604662,001,2024-06-14_09h37.36.810,experiment,2024.1.5,Win32,60.97560976,62dc65fdd3bbfeff289f1500,666b5f73dbba3f0cd916b177,666c71674bdd03cbd0f7a5dc,,,,,,,,,,,,,,,,,,,,,,,,,,,,,,,,,,,,1119.9506,1126.0506,0,0,0,0,1,SoundStimuli/UnbreakMyHeart_ToniBraxton_Original5S.wav,,,,,,,,,,,,,,,,,,,,,,,,,,,,,,,,,,,,,,,,,,,,,,,,,,,,,,,,,
,,,,,604662,001,2024-06-14_09h37.36.810,experiment,2024.1.5,Win32,60.97560976,62dc65fdd3bbfeff289f1500,666b5f73dbba3f0cd916b177,666c71674bdd03cbd0f7a5dc,,,,,,,,,,,,,,,,,,,,,,,,,,,,,,,,,,,,1126.0607,1130.0372,0,1,1,1,1,SoundStimuli/UnbreakMyHeart_ToniBraxton_Cover5S.wav,,,,,,,,,,,,,,,,,,,,,,,,,,,,,,,,,,,,,,,,,,,,,,,,,,,,,,,,,
,,,,,604662,001,2024-06-14_09h37.36.810,experiment,2024.1.5,Win32,60.97560976,62dc65fdd3bbfeff289f1500,666b5f73dbba3f0cd916b177,666c71674bdd03cbd0f7a5dc,,,,,,,,,,,,,,,,,,,,,,,,,,,,,,,,,,,,,,,,,,,,1130.0379,1131.205,5.995666306,1.1464,0,10,10,16,1,song_indices/UnbreakMyHeart_ToniBraxton.csv,,,,,,,,,,,,,,,,,,,,,,,,,,,,,,,,,,,,,,,,,,,,,,,
,,,,,604662,001,2024-06-14_09h37.36.810,experiment,2024.1.5,Win32,60.97560976,62dc65fdd3bbfeff289f1500,666b5f73dbba3f0cd916b177,666c71674bdd03cbd0f7a5dc,,,,,,,,,,,,,,,,,,,,,,,,,,,,,,,,,,,,1131.2094,1137.9603,0,0,0,0,1,SoundStimuli/BlurredLines_RobinThicke_Original5S.wav,,,,,,,,,,,,,,,,,,,,,,,,,,,,,,,,,,,,,,,,,,,,,,,,,,,,,,,,,
,,,,,604662,001,2024-06-14_09h37.36.810,experiment,2024.1.5,Win32,60.97560976,62dc65fdd3bbfeff289f1500,666b5f73dbba3f0cd916b177,666c71674bdd03cbd0f7a5dc,,,,,,,,,,,,,,,,,,,,,,,,,,,,,,,,,,,,1137.9706,1145.065,0,1,1,1,1,SoundStimuli/BlurredLines_RobinThicke_Cover5S.wav,,,,,,,,,,,,,,,,,,,,,,,,,,,,,,,,,,,,,,,,,,,,,,,,,,,,,,,,,
,,,,,604662,001,2024-06-14_09h37.36.810,experiment,2024.1.5,Win32,60.97560976,62dc65fdd3bbfeff289f1500,666b5f73dbba3f0cd916b177,666c71674bdd03cbd0f7a5dc,,,,,,,,,,,,,,,,,,,,,,,,,,,,,,,,,,,,,,,,,,,,1145.0654,1146.7165,5.956663055,1.6277,0,11,11,9,1,song_indices/BlurredLines_RobinThicke.csv,,,,,,,,,,,,,,,,,,,,,,,,,,,,,,,,,,,,,,,,,,,,,,,
,,,,,604662,001,2024-06-14_09h37.36.810,experiment,2024.1.5,Win32,60.97560976,62dc65fdd3bbfeff289f1500,666b5f73dbba3f0cd916b177,666c71674bdd03cbd0f7a5dc,,,,,,,,,,,,,,,,,,,,,,,,,,,,,,,,,,,,1146.7206,1153.0052,0,0,0,0,1,SoundStimuli/LetsGetItOn_MarvinGaye_Original5S.wav,,,,,,,,,,,,,,,,,,,,,,,,,,,,,,,,,,,,,,,,,,,,,,,,,,,,,,,,,
,,,,,604662,001,2024-06-14_09h37.36.810,experiment,2024.1.5,Win32,60.97560976,62dc65fdd3bbfeff289f1500,666b5f73dbba3f0cd916b177,666c71674bdd03cbd0f7a5dc,,,,,,,,,,,,,,,,,,,,,,,,,,,,,,,,,,,,1153.0166,1159.6607,0,1,1,1,1,SoundStimuli/LetsGetItOn_MarvinGaye_Cover5S.wav,,,,,,,,,,,,,,,,,,,,,,,,,,,,,,,,,,,,,,,,,,,,,,,,,,,,,,,,,
,,,,,604662,001,2024-06-14_09h37.36.810,experiment,2024.1.5,Win32,60.97560976,62dc65fdd3bbfeff289f1500,666b5f73dbba3f0cd916b177,666c71674bdd03cbd0f7a5dc,,,,,,,,,,,,,,,,,,,,,,,,,,,,,,,,,,,,,,,,,,,,1159.6617,1160.6938,2.049837486,1.0118,0,12,12,20,1,song_indices/LetsGetItOn_MarvinGaye.csv,,,,,,,,,,,,,,,,,,,,,,,,,,,,,,,,,,,,,,,,,,,,,,,
,,,,,604662,001,2024-06-14_09h37.36.810,experiment,2024.1.5,Win32,60.97560976,62dc65fdd3bbfeff289f1500,666b5f73dbba3f0cd916b177,666c71674bdd03cbd0f7a5dc,,,,,,,,,,,,,,,,,,,,,,,,,,,,,,,,,,,,1160.6977,1166.6989,0,0,0,0,1,SoundStimuli/Levitating_DuaLipa_Original5S.wav,,,,,,,,,,,,,,,,,,,,,,,,,,,,,,,,,,,,,,,,,,,,,,,,,,,,,,,,,
,,,,,604662,001,2024-06-14_09h37.36.810,experiment,2024.1.5,Win32,60.97560976,62dc65fdd3bbfeff289f1500,666b5f73dbba3f0cd916b177,666c71674bdd03cbd0f7a5dc,,,,,,,,,,,,,,,,,,,,,,,,,,,,,,,,,,,,1166.7106,1172.4195,0,1,1,1,1,SoundStimuli/Levitating_DuaLipa_Cover5S.wav,,,,,,,,,,,,,,,,,,,,,,,,,,,,,,,,,,,,,,,,,,,,,,,,,,,,,,,,,
,,,,,604662,001,2024-06-14_09h37.36.810,experiment,2024.1.5,Win32,60.97560976,62dc65fdd3bbfeff289f1500,666b5f73dbba3f0cd916b177,666c71674bdd03cbd0f7a5dc,,,,,,,,,,,,,,,,,,,,,,,,,,,,,,,,,,,,,,,,,,,,1172.4201,1217.4037,4.942578548,44.9615,0,13,13,10,1,song_indices/Levitating_DuaLipa.csv,,,,,,,,,,,,,,,,,,,,,,,,,,,,,,,,,,,,,,,,,,,,,,,
,,,,,604662,001,2024-06-14_09h37.36.810,experiment,2024.1.5,Win32,60.97560976,62dc65fdd3bbfeff289f1500,666b5f73dbba3f0cd916b177,666c71674bdd03cbd0f7a5dc,,,,,,,,,,,,,,,,,,,,,,,,,,,,,,,,,,,,1217.4085,1223.7919,0,0,0,0,1,SoundStimuli/FlashdanceWhatAFeeling_IreneCara_Original5S.wav,,,,,,,,,,,,,,,,,,,,,,,,,,,,,,,,,,,,,,,,,,,,,,,,,,,,,,,,,
,,,,,604662,001,2024-06-14_09h37.36.810,experiment,2024.1.5,Win32,60.97560976,62dc65fdd3bbfeff289f1500,666b5f73dbba3f0cd916b177,666c71674bdd03cbd0f7a5dc,,,,,,,,,,,,,,,,,,,,,,,,,,,,,,,,,,,,1223.8031,1231.0811,0,1,1,1,1,SoundStimuli/FlashdanceWhatAFeeling_IreneCara_Cover5S.wav,,,,,,,,,,,,,,,,,,,,,,,,,,,,,,,,,,,,,,,,,,,,,,,,,,,,,,,,,
,,,,,604662,001,2024-06-14_09h37.36.810,experiment,2024.1.5,Win32,60.97560976,62dc65fdd3bbfeff289f1500,666b5f73dbba3f0cd916b177,666c71674bdd03cbd0f7a5dc,,,,,,,,,,,,,,,,,,,,,,,,,,,,,,,,,,,,,,,,,,,,1231.0818,1232.0157,6.938244854,0.9176,0,14,14,18,1,song_indices/FlashdanceWhatAFeeling_IreneCara.csv,,,,,,,,,,,,,,,,,,,,,,,,,,,,,,,,,,,,,,,,,,,,,,,
,,,,,604662,001,2024-06-14_09h37.36.810,experiment,2024.1.5,Win32,60.97560976,62dc65fdd3bbfeff289f1500,666b5f73dbba3f0cd916b177,666c71674bdd03cbd0f7a5dc,,,,,,,,,,,,,,,,,,,,,,,,,,,,,,,,,,,,1232.0188,1237.5032,0,0,0,1,1,SoundStimuli/HowDoILive_LeAnnRimes_Cover5S.wav,,,,,,,,,,,,,,,,,,,,,,,,,,,,,,,,,,,,,,,,,,,,,,,,,,,,,,,,,
,,,,,604662,001,2024-06-14_09h37.36.810,experiment,2024.1.5,Win32,60.97560976,62dc65fdd3bbfeff289f1500,666b5f73dbba3f0cd916b177,666c71674bdd03cbd0f7a5dc,,,,,,,,,,,,,,,,,,,,,,,,,,,,,,,,,,,,1237.5128,1243.5413,0,1,1,0,1,SoundStimuli/HowDoILive_LeAnnRimes_Original5S.wav,,,,,,,,,,,,,,,,,,,,,,,,,,,,,,,,,,,,,,,,,,,,,,,,,,,,,,,,,
,,,,,604662,001,2024-06-14_09h37.36.810,experiment,2024.1.5,Win32,60.97560976,62dc65fdd3bbfeff289f1500,666b5f73dbba3f0cd916b177,666c71674bdd03cbd0f7a5dc,,,,,,,,,,,,,,,,,,,,,,,,,,,,,,,,,,,,,,,,,,,,1243.5418,1244.4741,6.983748646,0.9203,0,15,15,17,1,song_indices/HowDoILive_LeAnnRimes.csv,,,,,,,,,,,,,,,,,,,,,,,,,,,,,,,,,,,,,,,,,,,,,,,
,,,,,604662,001,2024-06-14_09h37.36.810,experiment,2024.1.5,Win32,60.97560976,62dc65fdd3bbfeff289f1500,666b5f73dbba3f0cd916b177,666c71674bdd03cbd0f7a5dc,,,,,,,,,,,,,,,,,,,,,,,,,,,,,,,,,,,,1244.4777,1250.5621,0,0,0,0,1,SoundStimuli/Weak_SWV_Original5S.wav,,,,,,,,,,,,,,,,,,,,,,,,,,,,,,,,,,,,,,,,,,,,,,,,,,,,,,,,,
,,,,,604662,001,2024-06-14_09h37.36.810,experiment,2024.1.5,Win32,60.97560976,62dc65fdd3bbfeff289f1500,666b5f73dbba3f0cd916b177,666c71674bdd03cbd0f7a5dc,,,,,,,,,,,,,,,,,,,,,,,,,,,,,,,,,,,,1250.5728,1257.0503,0,1,1,1,1,SoundStimuli/Weak_SWV_Cover5S.wav,,,,,,,,,,,,,,,,,,,,,,,,,,,,,,,,,,,,,,,,,,,,,,,,,,,,,,,,,
,,,,,604662,001,2024-06-14_09h37.36.810,experiment,2024.1.5,Win32,60.97560976,62dc65fdd3bbfeff289f1500,666b5f73dbba3f0cd916b177,666c71674bdd03cbd0f7a5dc,,,,,,,,,,,,,,,,,,,,,,,,,,,,,,,,,,,,,,,,,,,,1257.0509,1257.9844,3.01191766,0.9141,0,16,16,6,1,song_indices/Weak_SWV.csv,,,,,,,,,,,,,,,,,,,,,,,,,,,,,,,,,,,,,,,,,,,,,,,
,,,,,604662,001,2024-06-14_09h37.36.810,experiment,2024.1.5,Win32,60.97560976,62dc65fdd3bbfeff289f1500,666b5f73dbba3f0cd916b177,666c71674bdd03cbd0f7a5dc,,,,,,,,,,,,,,,,,,,,,,,,,,,,,,,,,,,,1257.9885,1264.4893,0,0,0,0,1,SoundStimuli/Dreams_FleetwoodMac_Original5S.wav,,,,,,,,,,,,,,,,,,,,,,,,,,,,,,,,,,,,,,,,,,,,,,,,,,,,,,,,,
,,,,,604662,001,2024-06-14_09h37.36.810,experiment,2024.1.5,Win32,60.97560976,62dc65fdd3bbfeff289f1500,666b5f73dbba3f0cd916b177,666c71674bdd03cbd0f7a5dc,,,,,,,,,,,,,,,,,,,,,,,,,,,,,,,,,,,,1264.4982,1281.3497,0,1,1,1,1,SoundStimuli/Dreams_FleetwoodMac_Cover5S.wav,,,,,,,,,,,,,,,,,,,,,,,,,,,,,,,,,,,,,,,,,,,,,,,,,,,,,,,,,
,,,,,604662,001,2024-06-14_09h37.36.810,experiment,2024.1.5,Win32,60.97560976,62dc65fdd3bbfeff289f1500,666b5f73dbba3f0cd916b177,666c71674bdd03cbd0f7a5dc,,,,,,,,,,,,,,,,,,,,,,,,,,,,,,,,,,,,,,,,,,,,1281.3504,1321.9828,1.932827736,40.5896,0,17,17,1,1,song_indices/Dreams_FleetwoodMac.csv,,,,,,,,,,,,,,,,,,,,,,,,,,,,,,,,,,,,,,,,,,,,,,,
,,,,,604662,001,2024-06-14_09h37.36.810,experiment,2024.1.5,Win32,60.97560976,62dc65fdd3bbfeff289f1500,666b5f73dbba3f0cd916b177,666c71674bdd03cbd0f7a5dc,,,,,,,,,,,,,,,,,,,,,,,,,,,,,,,,,,,,1321.9864,1328.1545,0,0,0,0,1,SoundStimuli/TheSign_AceOfBase_Original5S.wav,,,,,,,,,,,,,,,,,,,,,,,,,,,,,,,,,,,,,,,,,,,,,,,,,,,,,,,,,
,,,,,604662,001,2024-06-14_09h37.36.810,experiment,2024.1.5,Win32,60.97560976,62dc65fdd3bbfeff289f1500,666b5f73dbba3f0cd916b177,666c71674bdd03cbd0f7a5dc,,,,,,,,,,,,,,,,,,,,,,,,,,,,,,,,,,,,1328.1648,1334.1762,0,1,1,1,1,SoundStimuli/TheSign_AceOfBase_Cover5S.wav,,,,,,,,,,,,,,,,,,,,,,,,,,,,,,,,,,,,,,,,,,,,,,,,,,,,,,,,,
,,,,,604662,001,2024-06-14_09h37.36.810,experiment,2024.1.5,Win32,60.97560976,62dc65fdd3bbfeff289f1500,666b5f73dbba3f0cd916b177,666c71674bdd03cbd0f7a5dc,,,,,,,,,,,,,,,,,,,,,,,,,,,,,,,,,,,,,,,,,,,,1334.1765,1335.6939,6.028169014,1.4974,0,18,18,5,1,song_indices/TheSign_AceOfBase.csv,,,,,,,,,,,,,,,,,,,,,,,,,,,,,,,,,,,,,,,,,,,,,,,
,,,,,604662,001,2024-06-14_09h37.36.810,experiment,2024.1.5,Win32,60.97560976,62dc65fdd3bbfeff289f1500,666b5f73dbba3f0cd916b177,666c71674bdd03cbd0f7a5dc,,,,,,,,,,,,,,,,,,,,,,,,,,,,,,,,,,,,1335.6984,1341.2142,0,0,0,1,1,SoundStimuli/LeFreak_Chic_Cover5S.wav,,,,,,,,,,,,,,,,,,,,,,,,,,,,,,,,,,,,,,,,,,,,,,,,,,,,,,,,,
,,,,,604662,001,2024-06-14_09h37.36.810,experiment,2024.1.5,Win32,60.97560976,62dc65fdd3bbfeff289f1500,666b5f73dbba3f0cd916b177,666c71674bdd03cbd0f7a5dc,,,,,,,,,,,,,,,,,,,,,,,,,,,,,,,,,,,,1341.2234,1347.2522,0,1,1,0,1,SoundStimuli/LeFreak_Chic_Original5S.wav,,,,,,,,,,,,,,,,,,,,,,,,,,,,,,,,,,,,,,,,,,,,,,,,,,,,,,,,,
,,,,,604662,001,2024-06-14_09h37.36.810,experiment,2024.1.5,Win32,60.97560976,62dc65fdd3bbfeff289f1500,666b5f73dbba3f0cd916b177,666c71674bdd03cbd0f7a5dc,,,,,,,,,,,,,,,,,,,,,,,,,,,,,,,,,,,,,,,,,,,,1347.2525,1348.3695,1.048754063,1.0981,0,19,19,11,1,song_indices/LeFreak_Chic.csv,,,,,,,,,,,,,,,,,,,,,,,,,,,,,,,,,,,,,,,,,,,,,,,
,,,,,604662,001,2024-06-14_09h37.36.810,experiment,2024.1.5,Win32,60.97560976,62dc65fdd3bbfeff289f1500,666b5f73dbba3f0cd916b177,666c71674bdd03cbd0f7a5dc,,,,,,,,,,,,,,,,,,,,,,,,,,,,,,,,,,,,1348.3727,1354.2412,0,0,0,0,1,SoundStimuli/Irreplaceable_Beyonce_Original5S.wav,,,,,,,,,,,,,,,,,,,,,,,,,,,,,,,,,,,,,,,,,,,,,,,,,,,,,,,,,
,,,,,604662,001,2024-06-14_09h37.36.810,experiment,2024.1.5,Win32,60.97560976,62dc65fdd3bbfeff289f1500,666b5f73dbba3f0cd916b177,666c71674bdd03cbd0f7a5dc,,,,,,,,,,,,,,,,,,,,,,,,,,,,,,,,,,,,1354.2512,1360.163,0,1,1,1,1,SoundStimuli/Irreplaceable_Beyonce_Cover5S.wav,,,,,,,,,,,,,,,,,,,,,,,,,,,,,,,,,,,,,,,,,,,,,,,,,,,,,,,,,
,,,,,604662,001,2024-06-14_09h37.36.810,experiment,2024.1.5,Win32,60.97560976,62dc65fdd3bbfeff289f1500,666b5f73dbba3f0cd916b177,666c71674bdd03cbd0f7a5dc,,,,,,,,,,,,,,,,,,,,,,,,,,,,,,,,,,,,,,,,,,,,1360.1636,1361.2465,6.034669556,1.065,0,20,20,19,1,song_indices/Irreplaceable_Beyonce.csv,,,,,,,,,,,,,,,,,,,,,,,,,,,,,,,,,,,,,,,,,,,,,,,
,,,,,604662,001,2024-06-14_09h37.36.810,experiment,2024.1.5,Win32,60.97560976,62dc65fdd3bbfeff289f1500,666b5f73dbba3f0cd916b177,666c71674bdd03cbd0f7a5dc,,,,,,,,,,,,,,,,,,,,,,,,,,,,,,,,,,,,1361.2507,1367.4511,0,0,0,0,1,SoundStimuli/Dilemma_NellyKellyRowland_Original5S.wav,,,,,,,,,,,,,,,,,,,,,,,,,,,,,,,,,,,,,,,,,,,,,,,,,,,,,,,,,
,,,,,604662,001,2024-06-14_09h37.36.810,experiment,2024.1.5,Win32,60.97560976,62dc65fdd3bbfeff289f1500,666b5f73dbba3f0cd916b177,666c71674bdd03cbd0f7a5dc,,,,,,,,,,,,,,,,,,,,,,,,,,,,,,,,,,,,1367.4606,1428.9865,0,1,1,1,1,SoundStimuli/Dilemma_NellyKellyRowland_Cover5S.wav,,,,,,,,,,,,,,,,,,,,,,,,,,,,,,,,,,,,,,,,,,,,,,,,,,,,,,,,,
,,,,,604662,001,2024-06-14_09h37.36.810,experiment,2024.1.5,Win32,60.97560976,62dc65fdd3bbfeff289f1500,666b5f73dbba3f0cd916b177,666c71674bdd03cbd0f7a5dc,,,,,,,,,,,,,,,,,,,,,,,,,,,,,,,,,,,,,,,,,,,,1428.9869,1431.9833,5.02708559,2.9739,0,21,21,2,1,song_indices/Dilemma_NellyKellyRowland.csv,,,,,,,,,,,,,,,,,,,,,,,,,,,,,,,,,,,,,,,,,,,,,,,
,,,,,604662,001,2024-06-14_09h37.36.810,experiment,2024.1.5,Win32,60.97560976,62dc65fdd3bbfeff289f1500,666b5f73dbba3f0cd916b177,666c71674bdd03cbd0f7a5dc,,,,,,,,,,,,,,,,,,,,,,,,,,,,,,,,,,,,1431.9879,1437.1215,0,0,0,1,1,SoundStimuli/JoyToTheWorld_ThreeDogNight_Cover5S.wav,,,,,,,,,,,,,,,,,,,,,,,,,,,,,,,,,,,,,,,,,,,,,,,,,,,,,,,,,
,,,,,604662,001,2024-06-14_09h37.36.810,experiment,2024.1.5,Win32,60.97560976,62dc65fdd3bbfeff289f1500,666b5f73dbba3f0cd916b177,666c71674bdd03cbd0f7a5dc,,,,,,,,,,,,,,,,,,,,,,,,,,,,,,,,,,,,1437.1317,1443.2424,0,1,1,0,1,SoundStimuli/JoyToTheWorld_ThreeDogNight_Original5S.wav,,,,,,,,,,,,,,,,,,,,,,,,,,,,,,,,,,,,,,,,,,,,,,,,,,,,,,,,,
,,,,,604662,001,2024-06-14_09h37.36.810,experiment,2024.1.5,Win32,60.97560976,62dc65fdd3bbfeff289f1500,666b5f73dbba3f0cd916b177,666c71674bdd03cbd0f7a5dc,,,,,,,,,,,,,,,,,,,,,,,,,,,,,,,,,,,,,,,,,,,,1443.243,1444.2259,2.985915493,0.9652,0,22,22,8,1,song_indices/JoyToTheWorld_ThreeDogNight.csv,,,,,,,,,,,,,,,,,,,,,,,,,,,,,,,,,,,,,,,,,,,,,,,
,,,,,604662,001,2024-06-14_09h37.36.810,experiment,2024.1.5,Win32,60.97560976,62dc65fdd3bbfeff289f1500,666b5f73dbba3f0cd916b177,666c71674bdd03cbd0f7a5dc,,,,,,,,,,,,,,,,,,,,,,,,,,,,,,,,,,,,1444.2293,1450.3637,0,0,0,0,1,SoundStimuli/Superstition_StevieWonder_Original5S.wav,,,,,,,,,,,,,,,,,,,,,,,,,,,,,,,,,,,,,,,,,,,,,,,,,,,,,,,,,
,,,,,604662,001,2024-06-14_09h37.36.810,experiment,2024.1.5,Win32,60.97560976,62dc65fdd3bbfeff289f1500,666b5f73dbba3f0cd916b177,666c71674bdd03cbd0f7a5dc,,,,,,,,,,,,,,,,,,,,,,,,,,,,,,,,,,,,1450.3732,1455.6683,0,1,1,1,1,SoundStimuli/Superstition_StevieWonder_Cover5S.wav,,,,,,,,,,,,,,,,,,,,,,,,,,,,,,,,,,,,,,,,,,,,,,,,,,,,,,,,,
,,,,,604662,001,2024-06-14_09h37.36.810,experiment,2024.1.5,Win32,60.97560976,62dc65fdd3bbfeff289f1500,666b5f73dbba3f0cd916b177,666c71674bdd03cbd0f7a5dc,,,,,,,,,,,,,,,,,,,,,,,,,,,,,,,,,,,,,,,,,,,,1455.6687,1457.6876,2.017334778,2.0058,0,23,23,15,1,song_indices/Superstition_StevieWonder.csv,,,,,,,,,,,,,,,,,,,,,,,,,,,,,,,,,,,,,,,,,,,,,,,
,,,,,604662,001,2024-06-14_09h37.36.810,experiment,2024.1.5,Win32,60.97560976,62dc65fdd3bbfeff289f1500,666b5f73dbba3f0cd916b177,666c71674bdd03cbd0f7a5dc,,,,,,,,,,,,,,,,,,,,,,,,,,,,,,,,,,,,,,,,,,,,,,,,,,,,,,1457.688,1457.6887,,,,0,2,2,2,1,choose_song_b3.csv,,,,,,,,,,,,,,,,,,,,,,,,,,,,,,,,,,,,
,,,,,604662,001,2024-06-14_09h37.36.810,experiment,2024.1.5,Win32,60.97560976,62dc65fdd3bbfeff289f1500,666b5f73dbba3f0cd916b177,666c71674bdd03cbd0f7a5dc,,,,,,,,,,,,,,,,,,,,,,,,,,,,,,,,,,,,,,,,,,,,,,,,,,,,,,,,,,,,,,,,,51,Item 4,"I've been playing drums for over 40 years. Have spent time as a session drummer and had a progressive rock band that did decent-ish numbers, we'd sell about 5-10K copies of each album there in the 90s. Nowadays that'd be pretty good numbers in physical sales. Played all over, some festivals, headlined a couple small festivals.",Item 6,"CDs, Sirius, YouTube",5,6,"Driving, working, walking, hanging out, any time I'm not watching TV or something pretty much.",Sometimes,Sometimes,Never,Never,Sometimes,Rarely,Never,Often,Sometimes,Never,Rarely,Often,Rarely,Sometimes,Rarely,Never,"Punk, Progressive Rock",Progressive Rock,Punk,Metal,They really haven't. I've always been obsessed with music.,0,0,0,0,1,,
,,,,,604662,001,2024-06-14_09h37.36.810,experiment,2024.1.5,Win32,60.97560976,62dc65fdd3bbfeff289f1500,666b5f73dbba3f0cd916b177,666c71674bdd03cbd0f7a5dc,,,,,,,,,,,,,,,,,,,,,,,,,,,,,,,,,,,,,,,,,,,,,,,,,,,,,,,,,,,,,,,,,,,,,,,,,,,,,,,,,,,,,,,,,,,,,,,,,,,1688.3699,1690.6306
