welcome.started,welcome.stopped,space_to_continue.keys,space_to_continue.rt,space_to_continue.duration,participant,session,date,expName,psychopyVersion,OS,frameRate,PROLIFIC_PID,STUDY_ID,SESSION_ID,consent.consent,consent.consent_recontact,consent_check.started,consent_check.stopped,calibration_ready.started,calibration_ready.stopped,cal_ready.keys,cal_ready.rt,cal_ready.duration,calibration.started,calibration.stopped,mouse.x,mouse.y,mouse.leftButton,mouse.midButton,mouse.rightButton,mouse.time,mouse.clicked_name,move_on.keys,move_on.rt,move_on.duration,instructions.started,instructions.stopped,next.keys,next.rt,next.duration,practice_trial.started,practice_trial.stopped,practice_slider.response,practice_slider.rt,ready.started,ready.stopped,key_resp.keys,key_resp.rt,key_resp.duration,play_sound.started,play_sound.stopped,trials.thisRepN,trials.thisTrialN,trials.thisN,trials.thisIndex,trials.ran,orig_or_cover,rating.started,rating.stopped,slider.response,slider.rt,songs.thisRepN,songs.thisTrialN,songs.thisN,songs.thisIndex,songs.ran,song_id,short_break.started,short_break.stopped,space_to_move_on.keys,space_to_move_on.rt,space_to_move_on.duration,blocks.thisRepN,blocks.thisTrialN,blocks.thisN,blocks.thisIndex,blocks.ran,block,survey.age,survey.musician,survey.music_making,survey.listen_time,survey.medium,survey.music_seeking,survey.music_choice,survey.activities,survey.question1.Reggae,survey.question1.A cappella,survey.question1.Pop,survey.question1.Folk/indie,survey.question1.Country,survey.question1.Hip hop,survey.question1.Classic rock,survey.question1.Electronic (EDM),survey.question1.Disco,survey.question1.Ambient,survey.question1.Metal,survey.question1.Classical,survey.question1.Latin,survey.question1.R&B,survey.question1.Jazz,survey.question1.Alternative rock,survey.other_genres,survey.genres_ranked.text1,survey.genres_ranked.text2,survey.genres_ranked.text3,survey.habit_change,survey.habits,experiment.thisRepN,experiment.thisTrialN,experiment.thisN,experiment.thisIndex,experiment.ran,goodbye.started,goodbye.stopped
0.0002,1.6688,space,1.6494,,616299,001,2024-06-17_09h40.27.772,experiment,2024.1.5,Win32,60.24096386,62e15dfab54f025985de6b5c,667045947eb812cbdacbf325,66704a7dad60bee6413ece91,,,,,,,,,,,,,,,,,,,,,,,,,,,,,,,,,,,,,,,,,,,,,,,,,,,,,,,,,,,,,,,,,,,,,,,,,,,,,,,,,,,,,,,,,,,,,,,,,,,,,
,,,,,616299,001,2024-06-17_09h40.27.772,experiment,2024.1.5,Win32,60.24096386,62e15dfab54f025985de6b5c,667045947eb812cbdacbf325,66704a7dad60bee6413ece91,yes,yes,,,,,,,,,,,,,,,,,,,,,,,,,,,,,,,,,,,,,,,,,,,,,,,,,,,,,,,,,,,,,,,,,,,,,,,,,,,,,,,,,,,,,,,,,,,,,,,,,,,
,,,,,616299,001,2024-06-17_09h40.27.772,experiment,2024.1.5,Win32,60.24096386,62e15dfab54f025985de6b5c,667045947eb812cbdacbf325,66704a7dad60bee6413ece91,,,179.695,179.6952,,,,,,,,,,,,,,,,,,,,,,,,,,,,,,,,,,,,,,,,,,,,,,,,,,,,,,,,,,,,,,,,,,,,,,,,,,,,,,,,,,,,,,,,,,,,,,,,,
,,,,,616299,001,2024-06-17_09h40.27.772,experiment,2024.1.5,Win32,60.24096386,62e15dfab54f025985de6b5c,667045947eb812cbdacbf325,66704a7dad60bee6413ece91,,,,,179.6967,196.7683,space,17.0362,,196.7684,238.0853,"[-0.0018518235948350695,-0.0018518235948350695,-0.0018518235948350695]","[-0.4175925784640842,-0.4175925784640842,-0.4175925784640842]","[1,1,1]","[0,0,0]","[0,0,0]","[16.49640000003575,36.38270000004769,37.49810000002384]","[""play_button"",""play_button"",""play_button""]",right,31.2876,,238.0856,253.1186,space,15.01,,253.1189,271.0715,3.977777693,17.9506,271.0717,274.1186,space,3.0276,,274.1374,280.3385,0,0,0,0,1,SoundStimuli/LikeAPrayer_Madonna_Original5S.wav,,,,,,,,,,,,,,,,,,,,,,,,,,,,,,,,,,,,,,,,,,,,,,,,,,,,,,,,,,
,,,,,616299,001,2024-06-17_09h40.27.772,experiment,2024.1.5,Win32,60.24096386,62e15dfab54f025985de6b5c,667045947eb812cbdacbf325,66704a7dad60bee6413ece91,,,,,,,,,,,,,,,,,,,,,,,,,,,,,,,,,,,,280.3392,286.5513,0,1,1,1,1,SoundStimuli/LikeAPrayer_Madonna_Cover5S.wav,,,,,,,,,,,,,,,,,,,,,,,,,,,,,,,,,,,,,,,,,,,,,,,,,,,,,,,,,,
,,,,,616299,001,2024-06-17_09h40.27.772,experiment,2024.1.5,Win32,60.24096386,62e15dfab54f025985de6b5c,667045947eb812cbdacbf325,66704a7dad60bee6413ece91,,,,,,,,,,,,,,,,,,,,,,,,,,,,,,,,,,,,,,,,,,,,286.5518,289.5349,5.972222222,2.979,0,0,0,7,1,song_indices/LikeAPrayer_Madonna.csv,,,,,,,,,,,,,,,,,,,,,,,,,,,,,,,,,,,,,,,,,,,,,,,,
,,,,,616299,001,2024-06-17_09h40.27.772,experiment,2024.1.5,Win32,60.24096386,62e15dfab54f025985de6b5c,667045947eb812cbdacbf325,66704a7dad60bee6413ece91,,,,,,,,,,,,,,,,,,,,,,,,,,,,,,,,,,,,289.5363,295.6206,0,0,0,0,1,SoundStimuli/IllMakeLoveToYou_BoyzIIMen_Original5S.wav,,,,,,,,,,,,,,,,,,,,,,,,,,,,,,,,,,,,,,,,,,,,,,,,,,,,,,,,,,
,,,,,616299,001,2024-06-17_09h40.27.772,experiment,2024.1.5,Win32,60.24096386,62e15dfab54f025985de6b5c,667045947eb812cbdacbf325,66704a7dad60bee6413ece91,,,,,,,,,,,,,,,,,,,,,,,,,,,,,,,,,,,,295.6209,301.5679,0,1,1,1,1,SoundStimuli/IllMakeLoveToYou_BoyzIIMen_Cover5S.wav,,,,,,,,,,,,,,,,,,,,,,,,,,,,,,,,,,,,,,,,,,,,,,,,,,,,,,,,,,
,,,,,616299,001,2024-06-17_09h40.27.772,experiment,2024.1.5,Win32,60.24096386,62e15dfab54f025985de6b5c,667045947eb812cbdacbf325,66704a7dad60bee6413ece91,,,,,,,,,,,,,,,,,,,,,,,,,,,,,,,,,,,,,,,,,,,,301.568,303.0039,2.977777693,1.4352,0,1,1,6,1,song_indices/IllMakeLoveToYou_BoyzIIMen.csv,,,,,,,,,,,,,,,,,,,,,,,,,,,,,,,,,,,,,,,,,,,,,,,,
,,,,,616299,001,2024-06-17_09h40.27.772,experiment,2024.1.5,Win32,60.24096386,62e15dfab54f025985de6b5c,667045947eb812cbdacbf325,66704a7dad60bee6413ece91,,,,,,,,,,,,,,,,,,,,,,,,,,,,,,,,,,,,303.0049,309.0512,0,0,0,0,1,SoundStimuli/AChangeIsGonnaCome_SamCooke_Original5S.wav,,,,,,,,,,,,,,,,,,,,,,,,,,,,,,,,,,,,,,,,,,,,,,,,,,,,,,,,,,
,,,,,616299,001,2024-06-17_09h40.27.772,experiment,2024.1.5,Win32,60.24096386,62e15dfab54f025985de6b5c,667045947eb812cbdacbf325,66704a7dad60bee6413ece91,,,,,,,,,,,,,,,,,,,,,,,,,,,,,,,,,,,,309.0515,313.7707,0,1,1,1,1,SoundStimuli/AChangeIsGonnaCome_SamCooke_Cover5S.wav,,,,,,,,,,,,,,,,,,,,,,,,,,,,,,,,,,,,,,,,,,,,,,,,,,,,,,,,,,
,,,,,616299,001,2024-06-17_09h40.27.772,experiment,2024.1.5,Win32,60.24096386,62e15dfab54f025985de6b5c,667045947eb812cbdacbf325,66704a7dad60bee6413ece91,,,,,,,,,,,,,,,,,,,,,,,,,,,,,,,,,,,,,,,,,,,,313.7708,315.3182,2.944444444,1.5371,0,2,2,17,1,song_indices/AChangeIsGonnaCome_SamCooke.csv,,,,,,,,,,,,,,,,,,,,,,,,,,,,,,,,,,,,,,,,,,,,,,,,
,,,,,616299,001,2024-06-17_09h40.27.772,experiment,2024.1.5,Win32,60.24096386,62e15dfab54f025985de6b5c,667045947eb812cbdacbf325,66704a7dad60bee6413ece91,,,,,,,,,,,,,,,,,,,,,,,,,,,,,,,,,,,,315.3198,323.0013,0,0,0,1,1,SoundStimuli/LivinOnAPrayer_BonJovi_Cover5S.wav,,,,,,,,,,,,,,,,,,,,,,,,,,,,,,,,,,,,,,,,,,,,,,,,,,,,,,,,,,
,,,,,616299,001,2024-06-17_09h40.27.772,experiment,2024.1.5,Win32,60.24096386,62e15dfab54f025985de6b5c,667045947eb812cbdacbf325,66704a7dad60bee6413ece91,,,,,,,,,,,,,,,,,,,,,,,,,,,,,,,,,,,,323.0022,329.2519,0,1,1,0,1,SoundStimuli/LivinOnAPrayer_BonJovi_Original5S.wav,,,,,,,,,,,,,,,,,,,,,,,,,,,,,,,,,,,,,,,,,,,,,,,,,,,,,,,,,,
,,,,,616299,001,2024-06-17_09h40.27.772,experiment,2024.1.5,Win32,60.24096386,62e15dfab54f025985de6b5c,667045947eb812cbdacbf325,66704a7dad60bee6413ece91,,,,,,,,,,,,,,,,,,,,,,,,,,,,,,,,,,,,,,,,,,,,329.2521,331.9019,3.938888974,2.6364,0,3,3,16,1,song_indices/LivinOnAPrayer_BonJovi.csv,,,,,,,,,,,,,,,,,,,,,,,,,,,,,,,,,,,,,,,,,,,,,,,,
,,,,,616299,001,2024-06-17_09h40.27.772,experiment,2024.1.5,Win32,60.24096386,62e15dfab54f025985de6b5c,667045947eb812cbdacbf325,66704a7dad60bee6413ece91,,,,,,,,,,,,,,,,,,,,,,,,,,,,,,,,,,,,331.9036,340.7682,0,0,0,0,1,SoundStimuli/Perfect_EdSheeran_Original5S.wav,,,,,,,,,,,,,,,,,,,,,,,,,,,,,,,,,,,,,,,,,,,,,,,,,,,,,,,,,,
,,,,,616299,001,2024-06-17_09h40.27.772,experiment,2024.1.5,Win32,60.24096386,62e15dfab54f025985de6b5c,667045947eb812cbdacbf325,66704a7dad60bee6413ece91,,,,,,,,,,,,,,,,,,,,,,,,,,,,,,,,,,,,340.7686,349.0349,0,1,1,1,1,SoundStimuli/Perfect_EdSheeran_Cover5S.wav,,,,,,,,,,,,,,,,,,,,,,,,,,,,,,,,,,,,,,,,,,,,,,,,,,,,,,,,,,
,,,,,616299,001,2024-06-17_09h40.27.772,experiment,2024.1.5,Win32,60.24096386,62e15dfab54f025985de6b5c,667045947eb812cbdacbf325,66704a7dad60bee6413ece91,,,,,,,,,,,,,,,,,,,,,,,,,,,,,,,,,,,,,,,,,,,,349.0351,350.5039,5.955555386,1.4679,0,4,4,0,1,song_indices/Perfect_EdSheeran.csv,,,,,,,,,,,,,,,,,,,,,,,,,,,,,,,,,,,,,,,,,,,,,,,,
,,,,,616299,001,2024-06-17_09h40.27.772,experiment,2024.1.5,Win32,60.24096386,62e15dfab54f025985de6b5c,667045947eb812cbdacbf325,66704a7dad60bee6413ece91,,,,,,,,,,,,,,,,,,,,,,,,,,,,,,,,,,,,350.5046,356.8185,0,0,0,0,1,SoundStimuli/BridgeOverTroubledWater_SimonAndGarfunkel_Original5S.wav,,,,,,,,,,,,,,,,,,,,,,,,,,,,,,,,,,,,,,,,,,,,,,,,,,,,,,,,,,
,,,,,616299,001,2024-06-17_09h40.27.772,experiment,2024.1.5,Win32,60.24096386,62e15dfab54f025985de6b5c,667045947eb812cbdacbf325,66704a7dad60bee6413ece91,,,,,,,,,,,,,,,,,,,,,,,,,,,,,,,,,,,,356.819,363.5184,0,1,1,1,1,SoundStimuli/BridgeOverTroubledWater_SimonAndGarfunkel_Cover5S.wav,,,,,,,,,,,,,,,,,,,,,,,,,,,,,,,,,,,,,,,,,,,,,,,,,,,,,,,,,,
,,,,,616299,001,2024-06-17_09h40.27.772,experiment,2024.1.5,Win32,60.24096386,62e15dfab54f025985de6b5c,667045947eb812cbdacbf325,66704a7dad60bee6413ece91,,,,,,,,,,,,,,,,,,,,,,,,,,,,,,,,,,,,,,,,,,,,363.5186,365.9014,2.938888974,2.3786,0,5,5,1,1,song_indices/BridgeOverTroubledWater_SimonAndGarfunkel.csv,,,,,,,,,,,,,,,,,,,,,,,,,,,,,,,,,,,,,,,,,,,,,,,,
,,,,,616299,001,2024-06-17_09h40.27.772,experiment,2024.1.5,Win32,60.24096386,62e15dfab54f025985de6b5c,667045947eb812cbdacbf325,66704a7dad60bee6413ece91,,,,,,,,,,,,,,,,,,,,,,,,,,,,,,,,,,,,365.9024,372.0345,0,0,0,1,1,SoundStimuli/Smooth_SantanaRobThomas_Cover5S.wav,,,,,,,,,,,,,,,,,,,,,,,,,,,,,,,,,,,,,,,,,,,,,,,,,,,,,,,,,,
,,,,,616299,001,2024-06-17_09h40.27.772,experiment,2024.1.5,Win32,60.24096386,62e15dfab54f025985de6b5c,667045947eb812cbdacbf325,66704a7dad60bee6413ece91,,,,,,,,,,,,,,,,,,,,,,,,,,,,,,,,,,,,372.0349,378.2517,0,1,1,0,1,SoundStimuli/Smooth_SantanaRobThomas_Original5S.wav,,,,,,,,,,,,,,,,,,,,,,,,,,,,,,,,,,,,,,,,,,,,,,,,,,,,,,,,,,
,,,,,616299,001,2024-06-17_09h40.27.772,experiment,2024.1.5,Win32,60.24096386,62e15dfab54f025985de6b5c,667045947eb812cbdacbf325,66704a7dad60bee6413ece91,,,,,,,,,,,,,,,,,,,,,,,,,,,,,,,,,,,,,,,,,,,,378.2518,379.7877,6.038888719,1.5351,0,6,6,4,1,song_indices/Smooth_SantanaRobThomas.csv,,,,,,,,,,,,,,,,,,,,,,,,,,,,,,,,,,,,,,,,,,,,,,,,
,,,,,616299,001,2024-06-17_09h40.27.772,experiment,2024.1.5,Win32,60.24096386,62e15dfab54f025985de6b5c,667045947eb812cbdacbf325,66704a7dad60bee6413ece91,,,,,,,,,,,,,,,,,,,,,,,,,,,,,,,,,,,,379.7885,386.1866,0,0,0,0,1,SoundStimuli/MyGirl_TheTemptations_Original5S.wav,,,,,,,,,,,,,,,,,,,,,,,,,,,,,,,,,,,,,,,,,,,,,,,,,,,,,,,,,,
,,,,,616299,001,2024-06-17_09h40.27.772,experiment,2024.1.5,Win32,60.24096386,62e15dfab54f025985de6b5c,667045947eb812cbdacbf325,66704a7dad60bee6413ece91,,,,,,,,,,,,,,,,,,,,,,,,,,,,,,,,,,,,386.1869,393.8513,0,1,1,1,1,SoundStimuli/MyGirl_TheTemptations_Cover5S.wav,,,,,,,,,,,,,,,,,,,,,,,,,,,,,,,,,,,,,,,,,,,,,,,,,,,,,,,,,,
,,,,,616299,001,2024-06-17_09h40.27.772,experiment,2024.1.5,Win32,60.24096386,62e15dfab54f025985de6b5c,667045947eb812cbdacbf325,66704a7dad60bee6413ece91,,,,,,,,,,,,,,,,,,,,,,,,,,,,,,,,,,,,,,,,,,,,393.8514,397.7013,4.038889143,3.8466,0,7,7,15,1,song_indices/MyGirl_TheTemptations.csv,,,,,,,,,,,,,,,,,,,,,,,,,,,,,,,,,,,,,,,,,,,,,,,,
,,,,,616299,001,2024-06-17_09h40.27.772,experiment,2024.1.5,Win32,60.24096386,62e15dfab54f025985de6b5c,667045947eb812cbdacbf325,66704a7dad60bee6413ece91,,,,,,,,,,,,,,,,,,,,,,,,,,,,,,,,,,,,397.7028,404.0012,0,0,0,0,1,SoundStimuli/Mood_24kGoldnianndior_Original5S.wav,,,,,,,,,,,,,,,,,,,,,,,,,,,,,,,,,,,,,,,,,,,,,,,,,,,,,,,,,,
,,,,,616299,001,2024-06-17_09h40.27.772,experiment,2024.1.5,Win32,60.24096386,62e15dfab54f025985de6b5c,667045947eb812cbdacbf325,66704a7dad60bee6413ece91,,,,,,,,,,,,,,,,,,,,,,,,,,,,,,,,,,,,404.0016,412.3013,0,1,1,1,1,SoundStimuli/Mood_24kGoldnianndior_Cover5S.wav,,,,,,,,,,,,,,,,,,,,,,,,,,,,,,,,,,,,,,,,,,,,,,,,,,,,,,,,,,
,,,,,616299,001,2024-06-17_09h40.27.772,experiment,2024.1.5,Win32,60.24096386,62e15dfab54f025985de6b5c,667045947eb812cbdacbf325,66704a7dad60bee6413ece91,,,,,,,,,,,,,,,,,,,,,,,,,,,,,,,,,,,,,,,,,,,,412.3013,415.1012,2.983333588,2.7977,0,8,8,5,1,song_indices/Mood_24kGoldnianndior.csv,,,,,,,,,,,,,,,,,,,,,,,,,,,,,,,,,,,,,,,,,,,,,,,,
,,,,,616299,001,2024-06-17_09h40.27.772,experiment,2024.1.5,Win32,60.24096386,62e15dfab54f025985de6b5c,667045947eb812cbdacbf325,66704a7dad60bee6413ece91,,,,,,,,,,,,,,,,,,,,,,,,,,,,,,,,,,,,415.1022,421.1346,0,0,0,0,1,SoundStimuli/StayinAlive_BeeGees_Original5S.wav,,,,,,,,,,,,,,,,,,,,,,,,,,,,,,,,,,,,,,,,,,,,,,,,,,,,,,,,,,
,,,,,616299,001,2024-06-17_09h40.27.772,experiment,2024.1.5,Win32,60.24096386,62e15dfab54f025985de6b5c,667045947eb812cbdacbf325,66704a7dad60bee6413ece91,,,,,,,,,,,,,,,,,,,,,,,,,,,,,,,,,,,,421.1351,426.9679,0,1,1,1,1,SoundStimuli/StayinAlive_BeeGees_Cover5S.wav,,,,,,,,,,,,,,,,,,,,,,,,,,,,,,,,,,,,,,,,,,,,,,,,,,,,,,,,,,
,,,,,616299,001,2024-06-17_09h40.27.772,experiment,2024.1.5,Win32,60.24096386,62e15dfab54f025985de6b5c,667045947eb812cbdacbf325,66704a7dad60bee6413ece91,,,,,,,,,,,,,,,,,,,,,,,,,,,,,,,,,,,,,,,,,,,,426.9681,428.4542,5.994444953,1.4854,0,9,9,2,1,song_indices/StayinAlive_BeeGees.csv,,,,,,,,,,,,,,,,,,,,,,,,,,,,,,,,,,,,,,,,,,,,,,,,
,,,,,616299,001,2024-06-17_09h40.27.772,experiment,2024.1.5,Win32,60.24096386,62e15dfab54f025985de6b5c,667045947eb812cbdacbf325,66704a7dad60bee6413ece91,,,,,,,,,,,,,,,,,,,,,,,,,,,,,,,,,,,,428.4548,437.0517,0,0,0,1,1,SoundStimuli/HeatWaves_GlassAnimals_Cover5S.wav,,,,,,,,,,,,,,,,,,,,,,,,,,,,,,,,,,,,,,,,,,,,,,,,,,,,,,,,,,
,,,,,616299,001,2024-06-17_09h40.27.772,experiment,2024.1.5,Win32,60.24096386,62e15dfab54f025985de6b5c,667045947eb812cbdacbf325,66704a7dad60bee6413ece91,,,,,,,,,,,,,,,,,,,,,,,,,,,,,,,,,,,,437.0521,443.1544,0,1,1,0,1,SoundStimuli/HeatWaves_GlassAnimals_Original5S.wav,,,,,,,,,,,,,,,,,,,,,,,,,,,,,,,,,,,,,,,,,,,,,,,,,,,,,,,,,,
,,,,,616299,001,2024-06-17_09h40.27.772,experiment,2024.1.5,Win32,60.24096386,62e15dfab54f025985de6b5c,667045947eb812cbdacbf325,66704a7dad60bee6413ece91,,,,,,,,,,,,,,,,,,,,,,,,,,,,,,,,,,,,,,,,,,,,443.1546,444.7017,5.033333249,1.535,0,10,10,10,1,song_indices/HeatWaves_GlassAnimals.csv,,,,,,,,,,,,,,,,,,,,,,,,,,,,,,,,,,,,,,,,,,,,,,,,
,,,,,616299,001,2024-06-17_09h40.27.772,experiment,2024.1.5,Win32,60.24096386,62e15dfab54f025985de6b5c,667045947eb812cbdacbf325,66704a7dad60bee6413ece91,,,,,,,,,,,,,,,,,,,,,,,,,,,,,,,,,,,,444.7026,450.9519,0,0,0,0,1,SoundStimuli/GodOnlyKnows_TheBeachBoys_Original5S.wav,,,,,,,,,,,,,,,,,,,,,,,,,,,,,,,,,,,,,,,,,,,,,,,,,,,,,,,,,,
,,,,,616299,001,2024-06-17_09h40.27.772,experiment,2024.1.5,Win32,60.24096386,62e15dfab54f025985de6b5c,667045947eb812cbdacbf325,66704a7dad60bee6413ece91,,,,,,,,,,,,,,,,,,,,,,,,,,,,,,,,,,,,450.9524,457.8203,0,1,1,1,1,SoundStimuli/GodOnlyKnows_TheBeachBoys_Cover5S.wav,,,,,,,,,,,,,,,,,,,,,,,,,,,,,,,,,,,,,,,,,,,,,,,,,,,,,,,,,,
,,,,,616299,001,2024-06-17_09h40.27.772,experiment,2024.1.5,Win32,60.24096386,62e15dfab54f025985de6b5c,667045947eb812cbdacbf325,66704a7dad60bee6413ece91,,,,,,,,,,,,,,,,,,,,,,,,,,,,,,,,,,,,,,,,,,,,457.8205,459.5014,3.005555471,1.6699,0,11,11,8,1,song_indices/GodOnlyKnows_TheBeachBoys.csv,,,,,,,,,,,,,,,,,,,,,,,,,,,,,,,,,,,,,,,,,,,,,,,,
,,,,,616299,001,2024-06-17_09h40.27.772,experiment,2024.1.5,Win32,60.24096386,62e15dfab54f025985de6b5c,667045947eb812cbdacbf325,66704a7dad60bee6413ece91,,,,,,,,,,,,,,,,,,,,,,,,,,,,,,,,,,,,459.5022,465.468,0,0,0,0,1,SoundStimuli/BohemianRhapsody_Queen_Original5S.wav,,,,,,,,,,,,,,,,,,,,,,,,,,,,,,,,,,,,,,,,,,,,,,,,,,,,,,,,,,
,,,,,616299,001,2024-06-17_09h40.27.772,experiment,2024.1.5,Win32,60.24096386,62e15dfab54f025985de6b5c,667045947eb812cbdacbf325,66704a7dad60bee6413ece91,,,,,,,,,,,,,,,,,,,,,,,,,,,,,,,,,,,,465.4682,469.5378,0,1,1,1,1,SoundStimuli/BohemianRhapsody_Queen_Cover5S.wav,,,,,,,,,,,,,,,,,,,,,,,,,,,,,,,,,,,,,,,,,,,,,,,,,,,,,,,,,,
,,,,,616299,001,2024-06-17_09h40.27.772,experiment,2024.1.5,Win32,60.24096386,62e15dfab54f025985de6b5c,667045947eb812cbdacbf325,66704a7dad60bee6413ece91,,,,,,,,,,,,,,,,,,,,,,,,,,,,,,,,,,,,,,,,,,,,469.5379,471.2713,1.966666751,1.7327,0,12,12,18,1,song_indices/BohemianRhapsody_Queen.csv,,,,,,,,,,,,,,,,,,,,,,,,,,,,,,,,,,,,,,,,,,,,,,,,
,,,,,616299,001,2024-06-17_09h40.27.772,experiment,2024.1.5,Win32,60.24096386,62e15dfab54f025985de6b5c,667045947eb812cbdacbf325,66704a7dad60bee6413ece91,,,,,,,,,,,,,,,,,,,,,,,,,,,,,,,,,,,,471.2718,478.768,0,0,0,1,1,SoundStimuli/BadDay_DanielPowter_Cover5S.wav,,,,,,,,,,,,,,,,,,,,,,,,,,,,,,,,,,,,,,,,,,,,,,,,,,,,,,,,,,
,,,,,616299,001,2024-06-17_09h40.27.772,experiment,2024.1.5,Win32,60.24096386,62e15dfab54f025985de6b5c,667045947eb812cbdacbf325,66704a7dad60bee6413ece91,,,,,,,,,,,,,,,,,,,,,,,,,,,,,,,,,,,,478.7683,485.218,0,1,1,0,1,SoundStimuli/BadDay_DanielPowter_Original5S.wav,,,,,,,,,,,,,,,,,,,,,,,,,,,,,,,,,,,,,,,,,,,,,,,,,,,,,,,,,,
,,,,,616299,001,2024-06-17_09h40.27.772,experiment,2024.1.5,Win32,60.24096386,62e15dfab54f025985de6b5c,667045947eb812cbdacbf325,66704a7dad60bee6413ece91,,,,,,,,,,,,,,,,,,,,,,,,,,,,,,,,,,,,,,,,,,,,485.2182,487.1683,3.038889143,1.9382,0,13,13,22,1,song_indices/BadDay_DanielPowter.csv,,,,,,,,,,,,,,,,,,,,,,,,,,,,,,,,,,,,,,,,,,,,,,,,
,,,,,616299,001,2024-06-17_09h40.27.772,experiment,2024.1.5,Win32,60.24096386,62e15dfab54f025985de6b5c,667045947eb812cbdacbf325,66704a7dad60bee6413ece91,,,,,,,,,,,,,,,,,,,,,,,,,,,,,,,,,,,,487.1699,494.2033,0,0,0,1,1,SoundStimuli/StrawberryFieldsForever_TheBeatles_Cover5S.wav,,,,,,,,,,,,,,,,,,,,,,,,,,,,,,,,,,,,,,,,,,,,,,,,,,,,,,,,,,
,,,,,616299,001,2024-06-17_09h40.27.772,experiment,2024.1.5,Win32,60.24096386,62e15dfab54f025985de6b5c,667045947eb812cbdacbf325,66704a7dad60bee6413ece91,,,,,,,,,,,,,,,,,,,,,,,,,,,,,,,,,,,,494.2036,500.3378,0,1,1,0,1,SoundStimuli/StrawberryFieldsForever_TheBeatles_Original5S.wav,,,,,,,,,,,,,,,,,,,,,,,,,,,,,,,,,,,,,,,,,,,,,,,,,,,,,,,,,,
,,,,,616299,001,2024-06-17_09h40.27.772,experiment,2024.1.5,Win32,60.24096386,62e15dfab54f025985de6b5c,667045947eb812cbdacbf325,66704a7dad60bee6413ece91,,,,,,,,,,,,,,,,,,,,,,,,,,,,,,,,,,,,,,,,,,,,500.3379,501.5519,1.888888889,1.2005,0,14,14,14,1,song_indices/StrawberryFieldsForever_TheBeatles.csv,,,,,,,,,,,,,,,,,,,,,,,,,,,,,,,,,,,,,,,,,,,,,,,,
,,,,,616299,001,2024-06-17_09h40.27.772,experiment,2024.1.5,Win32,60.24096386,62e15dfab54f025985de6b5c,667045947eb812cbdacbf325,66704a7dad60bee6413ece91,,,,,,,,,,,,,,,,,,,,,,,,,,,,,,,,,,,,501.5536,508.1183,0,0,0,0,1,SoundStimuli/Despacito_LuisFonsiDaddyYankee_Original5S.wav,,,,,,,,,,,,,,,,,,,,,,,,,,,,,,,,,,,,,,,,,,,,,,,,,,,,,,,,,,
,,,,,616299,001,2024-06-17_09h40.27.772,experiment,2024.1.5,Win32,60.24096386,62e15dfab54f025985de6b5c,667045947eb812cbdacbf325,66704a7dad60bee6413ece91,,,,,,,,,,,,,,,,,,,,,,,,,,,,,,,,,,,,508.1187,514.7041,0,1,1,1,1,SoundStimuli/Despacito_LuisFonsiDaddyYankee_Cover5S.wav,,,,,,,,,,,,,,,,,,,,,,,,,,,,,,,,,,,,,,,,,,,,,,,,,,,,,,,,,,
,,,,,616299,001,2024-06-17_09h40.27.772,experiment,2024.1.5,Win32,60.24096386,62e15dfab54f025985de6b5c,667045947eb812cbdacbf325,66704a7dad60bee6413ece91,,,,,,,,,,,,,,,,,,,,,,,,,,,,,,,,,,,,,,,,,,,,514.7041,517.1515,3.011111365,2.4372,0,15,15,11,1,song_indices/Despacito_LuisFonsiDaddyYankee.csv,,,,,,,,,,,,,,,,,,,,,,,,,,,,,,,,,,,,,,,,,,,,,,,,
,,,,,616299,001,2024-06-17_09h40.27.772,experiment,2024.1.5,Win32,60.24096386,62e15dfab54f025985de6b5c,667045947eb812cbdacbf325,66704a7dad60bee6413ece91,,,,,,,,,,,,,,,,,,,,,,,,,,,,,,,,,,,,517.1527,523.4185,0,0,0,1,1,SoundStimuli/MackTheKnife_BobbyDarin_Cover5S.wav,,,,,,,,,,,,,,,,,,,,,,,,,,,,,,,,,,,,,,,,,,,,,,,,,,,,,,,,,,
,,,,,616299,001,2024-06-17_09h40.27.772,experiment,2024.1.5,Win32,60.24096386,62e15dfab54f025985de6b5c,667045947eb812cbdacbf325,66704a7dad60bee6413ece91,,,,,,,,,,,,,,,,,,,,,,,,,,,,,,,,,,,,523.4191,529.5707,0,1,1,0,1,SoundStimuli/MackTheKnife_BobbyDarin_Original5S.wav,,,,,,,,,,,,,,,,,,,,,,,,,,,,,,,,,,,,,,,,,,,,,,,,,,,,,,,,,,
,,,,,616299,001,2024-06-17_09h40.27.772,experiment,2024.1.5,Win32,60.24096386,62e15dfab54f025985de6b5c,667045947eb812cbdacbf325,66704a7dad60bee6413ece91,,,,,,,,,,,,,,,,,,,,,,,,,,,,,,,,,,,,,,,,,,,,529.5709,531.4347,1.077777863,1.8629,0,16,16,21,1,song_indices/MackTheKnife_BobbyDarin.csv,,,,,,,,,,,,,,,,,,,,,,,,,,,,,,,,,,,,,,,,,,,,,,,,
,,,,,616299,001,2024-06-17_09h40.27.772,experiment,2024.1.5,Win32,60.24096386,62e15dfab54f025985de6b5c,667045947eb812cbdacbf325,66704a7dad60bee6413ece91,,,,,,,,,,,,,,,,,,,,,,,,,,,,,,,,,,,,531.4356,537.0348,0,0,0,0,1,SoundStimuli/IWannaDanceWithSomebody_WhitneyHouston_Original5S.wav,,,,,,,,,,,,,,,,,,,,,,,,,,,,,,,,,,,,,,,,,,,,,,,,,,,,,,,,,,
,,,,,616299,001,2024-06-17_09h40.27.772,experiment,2024.1.5,Win32,60.24096386,62e15dfab54f025985de6b5c,667045947eb812cbdacbf325,66704a7dad60bee6413ece91,,,,,,,,,,,,,,,,,,,,,,,,,,,,,,,,,,,,537.0354,543.8516,0,1,1,1,1,SoundStimuli/IWannaDanceWithSomebody_WhitneyHouston_Cover5S.wav,,,,,,,,,,,,,,,,,,,,,,,,,,,,,,,,,,,,,,,,,,,,,,,,,,,,,,,,,,
,,,,,616299,001,2024-06-17_09h40.27.772,experiment,2024.1.5,Win32,60.24096386,62e15dfab54f025985de6b5c,667045947eb812cbdacbf325,66704a7dad60bee6413ece91,,,,,,,,,,,,,,,,,,,,,,,,,,,,,,,,,,,,,,,,,,,,543.8518,545.3346,2.03333346,1.4714,0,17,17,13,1,song_indices/IWannaDanceWithSomebody_WhitneyHouston.csv,,,,,,,,,,,,,,,,,,,,,,,,,,,,,,,,,,,,,,,,,,,,,,,,
,,,,,616299,001,2024-06-17_09h40.27.772,experiment,2024.1.5,Win32,60.24096386,62e15dfab54f025985de6b5c,667045947eb812cbdacbf325,66704a7dad60bee6413ece91,,,,,,,,,,,,,,,,,,,,,,,,,,,,,,,,,,,,545.3358,551.1346,0,0,0,0,1,SoundStimuli/IWantToHoldYourHand_TheBeatles_Original5S.wav,,,,,,,,,,,,,,,,,,,,,,,,,,,,,,,,,,,,,,,,,,,,,,,,,,,,,,,,,,
,,,,,616299,001,2024-06-17_09h40.27.772,experiment,2024.1.5,Win32,60.24096386,62e15dfab54f025985de6b5c,667045947eb812cbdacbf325,66704a7dad60bee6413ece91,,,,,,,,,,,,,,,,,,,,,,,,,,,,,,,,,,,,551.1349,557.1711,0,1,1,1,1,SoundStimuli/IWantToHoldYourHand_TheBeatles_Cover5S.wav,,,,,,,,,,,,,,,,,,,,,,,,,,,,,,,,,,,,,,,,,,,,,,,,,,,,,,,,,,
,,,,,616299,001,2024-06-17_09h40.27.772,experiment,2024.1.5,Win32,60.24096386,62e15dfab54f025985de6b5c,667045947eb812cbdacbf325,66704a7dad60bee6413ece91,,,,,,,,,,,,,,,,,,,,,,,,,,,,,,,,,,,,,,,,,,,,557.1712,559.3714,2.044444402,2.1993,0,18,18,19,1,song_indices/IWantToHoldYourHand_TheBeatles.csv,,,,,,,,,,,,,,,,,,,,,,,,,,,,,,,,,,,,,,,,,,,,,,,,
,,,,,616299,001,2024-06-17_09h40.27.772,experiment,2024.1.5,Win32,60.24096386,62e15dfab54f025985de6b5c,667045947eb812cbdacbf325,66704a7dad60bee6413ece91,,,,,,,,,,,,,,,,,,,,,,,,,,,,,,,,,,,,559.3722,566.8846,0,0,0,1,1,SoundStimuli/EndlessLove_DianaRossLionelRichie_Cover5S.wav,,,,,,,,,,,,,,,,,,,,,,,,,,,,,,,,,,,,,,,,,,,,,,,,,,,,,,,,,,
,,,,,616299,001,2024-06-17_09h40.27.772,experiment,2024.1.5,Win32,60.24096386,62e15dfab54f025985de6b5c,667045947eb812cbdacbf325,66704a7dad60bee6413ece91,,,,,,,,,,,,,,,,,,,,,,,,,,,,,,,,,,,,566.885,573.2349,0,1,1,0,1,SoundStimuli/EndlessLove_DianaRossLionelRichie_Original5S.wav,,,,,,,,,,,,,,,,,,,,,,,,,,,,,,,,,,,,,,,,,,,,,,,,,,,,,,,,,,
,,,,,616299,001,2024-06-17_09h40.27.772,experiment,2024.1.5,Win32,60.24096386,62e15dfab54f025985de6b5c,667045947eb812cbdacbf325,66704a7dad60bee6413ece91,,,,,,,,,,,,,,,,,,,,,,,,,,,,,,,,,,,,,,,,,,,,573.2351,575.7347,2.977777693,2.4915,0,19,19,3,1,song_indices/EndlessLove_DianaRossLionelRichie.csv,,,,,,,,,,,,,,,,,,,,,,,,,,,,,,,,,,,,,,,,,,,,,,,,
,,,,,616299,001,2024-06-17_09h40.27.772,experiment,2024.1.5,Win32,60.24096386,62e15dfab54f025985de6b5c,667045947eb812cbdacbf325,66704a7dad60bee6413ece91,,,,,,,,,,,,,,,,,,,,,,,,,,,,,,,,,,,,575.7356,583.8704,0,0,0,1,1,SoundStimuli/AnotherOneBitesTheDust_Queen_Cover5S.wav,,,,,,,,,,,,,,,,,,,,,,,,,,,,,,,,,,,,,,,,,,,,,,,,,,,,,,,,,,
,,,,,616299,001,2024-06-17_09h40.27.772,experiment,2024.1.5,Win32,60.24096386,62e15dfab54f025985de6b5c,667045947eb812cbdacbf325,66704a7dad60bee6413ece91,,,,,,,,,,,,,,,,,,,,,,,,,,,,,,,,,,,,583.8707,589.9044,0,1,1,0,1,SoundStimuli/AnotherOneBitesTheDust_Queen_Original5S.wav,,,,,,,,,,,,,,,,,,,,,,,,,,,,,,,,,,,,,,,,,,,,,,,,,,,,,,,,,,
,,,,,616299,001,2024-06-17_09h40.27.772,experiment,2024.1.5,Win32,60.24096386,62e15dfab54f025985de6b5c,667045947eb812cbdacbf325,66704a7dad60bee6413ece91,,,,,,,,,,,,,,,,,,,,,,,,,,,,,,,,,,,,,,,,,,,,589.9046,592.0378,3,2.1327,0,20,20,9,1,song_indices/AnotherOneBitesTheDust_Queen.csv,,,,,,,,,,,,,,,,,,,,,,,,,,,,,,,,,,,,,,,,,,,,,,,,
,,,,,616299,001,2024-06-17_09h40.27.772,experiment,2024.1.5,Win32,60.24096386,62e15dfab54f025985de6b5c,667045947eb812cbdacbf325,66704a7dad60bee6413ece91,,,,,,,,,,,,,,,,,,,,,,,,,,,,,,,,,,,,592.0385,598.5514,0,0,0,1,1,SoundStimuli/OldTownRoad_LilNasX_Cover5S.wav,,,,,,,,,,,,,,,,,,,,,,,,,,,,,,,,,,,,,,,,,,,,,,,,,,,,,,,,,,
,,,,,616299,001,2024-06-17_09h40.27.772,experiment,2024.1.5,Win32,60.24096386,62e15dfab54f025985de6b5c,667045947eb812cbdacbf325,66704a7dad60bee6413ece91,,,,,,,,,,,,,,,,,,,,,,,,,,,,,,,,,,,,598.5517,605.9378,0,1,1,0,1,SoundStimuli/OldTownRoad_LilNasX_Original5S.wav,,,,,,,,,,,,,,,,,,,,,,,,,,,,,,,,,,,,,,,,,,,,,,,,,,,,,,,,,,
,,,,,616299,001,2024-06-17_09h40.27.772,experiment,2024.1.5,Win32,60.24096386,62e15dfab54f025985de6b5c,667045947eb812cbdacbf325,66704a7dad60bee6413ece91,,,,,,,,,,,,,,,,,,,,,,,,,,,,,,,,,,,,,,,,,,,,605.938,607.8537,4.983333588,1.915,0,21,21,20,1,song_indices/OldTownRoad_LilNasX.csv,,,,,,,,,,,,,,,,,,,,,,,,,,,,,,,,,,,,,,,,,,,,,,,,
,,,,,616299,001,2024-06-17_09h40.27.772,experiment,2024.1.5,Win32,60.24096386,62e15dfab54f025985de6b5c,667045947eb812cbdacbf325,66704a7dad60bee6413ece91,,,,,,,,,,,,,,,,,,,,,,,,,,,,,,,,,,,,607.8543,614.0016,0,0,0,0,1,SoundStimuli/LikeARollingStone_BobDylan_Original5S.wav,,,,,,,,,,,,,,,,,,,,,,,,,,,,,,,,,,,,,,,,,,,,,,,,,,,,,,,,,,
,,,,,616299,001,2024-06-17_09h40.27.772,experiment,2024.1.5,Win32,60.24096386,62e15dfab54f025985de6b5c,667045947eb812cbdacbf325,66704a7dad60bee6413ece91,,,,,,,,,,,,,,,,,,,,,,,,,,,,,,,,,,,,614.002,618.4013,0,1,1,1,1,SoundStimuli/LikeARollingStone_BobDylan_Cover5S.wav,,,,,,,,,,,,,,,,,,,,,,,,,,,,,,,,,,,,,,,,,,,,,,,,,,,,,,,,,,
,,,,,616299,001,2024-06-17_09h40.27.772,experiment,2024.1.5,Win32,60.24096386,62e15dfab54f025985de6b5c,667045947eb812cbdacbf325,66704a7dad60bee6413ece91,,,,,,,,,,,,,,,,,,,,,,,,,,,,,,,,,,,,,,,,,,,,618.4014,619.9381,3.166666667,1.5359,0,22,22,12,1,song_indices/LikeARollingStone_BobDylan.csv,,,,,,,,,,,,,,,,,,,,,,,,,,,,,,,,,,,,,,,,,,,,,,,,
,,,,,616299,001,2024-06-17_09h40.27.772,experiment,2024.1.5,Win32,60.24096386,62e15dfab54f025985de6b5c,667045947eb812cbdacbf325,66704a7dad60bee6413ece91,,,,,,,,,,,,,,,,,,,,,,,,,,,,,,,,,,,,,,,,,,,,,,,,,,,,,,619.9384,622.7851,space,2.8289,,0,0,0,0,1,choose_song_b1.csv,,,,,,,,,,,,,,,,,,,,,,,,,,,,,,,,,,,,,
,,,,,616299,001,2024-06-17_09h40.27.772,experiment,2024.1.5,Win32,60.24096386,62e15dfab54f025985de6b5c,667045947eb812cbdacbf325,66704a7dad60bee6413ece91,,,,,,,,,,,,,,,,,,,,,,,,,,,,,,,,,,,,622.7871,628.9185,0,0,0,1,1,SoundStimuli/EyeOfTheTiger_Survivor_Cover5S.wav,,,,,,,,,,,,,,,,,,,,,,,,,,,,,,,,,,,,,,,,,,,,,,,,,,,,,,,,,,
,,,,,616299,001,2024-06-17_09h40.27.772,experiment,2024.1.5,Win32,60.24096386,62e15dfab54f025985de6b5c,667045947eb812cbdacbf325,66704a7dad60bee6413ece91,,,,,,,,,,,,,,,,,,,,,,,,,,,,,,,,,,,,628.9188,634.818,0,1,1,0,1,SoundStimuli/EyeOfTheTiger_Survivor_Original5S.wav,,,,,,,,,,,,,,,,,,,,,,,,,,,,,,,,,,,,,,,,,,,,,,,,,,,,,,,,,,
,,,,,616299,001,2024-06-17_09h40.27.772,experiment,2024.1.5,Win32,60.24096386,62e15dfab54f025985de6b5c,667045947eb812cbdacbf325,66704a7dad60bee6413ece91,,,,,,,,,,,,,,,,,,,,,,,,,,,,,,,,,,,,,,,,,,,,634.8181,636.4018,4.772222307,1.5692,0,0,0,11,1,song_indices/EyeOfTheTiger_Survivor.csv,,,,,,,,,,,,,,,,,,,,,,,,,,,,,,,,,,,,,,,,,,,,,,,,
,,,,,616299,001,2024-06-17_09h40.27.772,experiment,2024.1.5,Win32,60.24096386,62e15dfab54f025985de6b5c,667045947eb812cbdacbf325,66704a7dad60bee6413ece91,,,,,,,,,,,,,,,,,,,,,,,,,,,,,,,,,,,,636.4027,642.5014,0,0,0,0,1,SoundStimuli/GimmeShelter_RollingStones_Original5S.wav,,,,,,,,,,,,,,,,,,,,,,,,,,,,,,,,,,,,,,,,,,,,,,,,,,,,,,,,,,
,,,,,616299,001,2024-06-17_09h40.27.772,experiment,2024.1.5,Win32,60.24096386,62e15dfab54f025985de6b5c,667045947eb812cbdacbf325,66704a7dad60bee6413ece91,,,,,,,,,,,,,,,,,,,,,,,,,,,,,,,,,,,,642.5017,648.7016,0,1,1,1,1,SoundStimuli/GimmeShelter_RollingStones_Cover5S.wav,,,,,,,,,,,,,,,,,,,,,,,,,,,,,,,,,,,,,,,,,,,,,,,,,,,,,,,,,,
,,,,,616299,001,2024-06-17_09h40.27.772,experiment,2024.1.5,Win32,60.24096386,62e15dfab54f025985de6b5c,667045947eb812cbdacbf325,66704a7dad60bee6413ece91,,,,,,,,,,,,,,,,,,,,,,,,,,,,,,,,,,,,,,,,,,,,648.7019,651.9682,3.627777947,3.2602,0,1,1,20,1,song_indices/GimmeShelter_RollingStones.csv,,,,,,,,,,,,,,,,,,,,,,,,,,,,,,,,,,,,,,,,,,,,,,,,
,,,,,616299,001,2024-06-17_09h40.27.772,experiment,2024.1.5,Win32,60.24096386,62e15dfab54f025985de6b5c,667045947eb812cbdacbf325,66704a7dad60bee6413ece91,,,,,,,,,,,,,,,,,,,,,,,,,,,,,,,,,,,,651.969,658.1017,0,0,0,1,1,SoundStimuli/NoScrubs_TLC_Cover5S.wav,,,,,,,,,,,,,,,,,,,,,,,,,,,,,,,,,,,,,,,,,,,,,,,,,,,,,,,,,,
,,,,,616299,001,2024-06-17_09h40.27.772,experiment,2024.1.5,Win32,60.24096386,62e15dfab54f025985de6b5c,667045947eb812cbdacbf325,66704a7dad60bee6413ece91,,,,,,,,,,,,,,,,,,,,,,,,,,,,,,,,,,,,658.1022,664.3013,0,1,1,0,1,SoundStimuli/NoScrubs_TLC_Original5S.wav,,,,,,,,,,,,,,,,,,,,,,,,,,,,,,,,,,,,,,,,,,,,,,,,,,,,,,,,,,
,,,,,616299,001,2024-06-17_09h40.27.772,experiment,2024.1.5,Win32,60.24096386,62e15dfab54f025985de6b5c,667045947eb812cbdacbf325,66704a7dad60bee6413ece91,,,,,,,,,,,,,,,,,,,,,,,,,,,,,,,,,,,,,,,,,,,,664.3014,666.5182,4.016666836,2.2139,0,2,2,14,1,song_indices/NoScrubs_TLC.csv,,,,,,,,,,,,,,,,,,,,,,,,,,,,,,,,,,,,,,,,,,,,,,,,
,,,,,616299,001,2024-06-17_09h40.27.772,experiment,2024.1.5,Win32,60.24096386,62e15dfab54f025985de6b5c,667045947eb812cbdacbf325,66704a7dad60bee6413ece91,,,,,,,,,,,,,,,,,,,,,,,,,,,,,,,,,,,,666.5192,672.7346,0,0,0,0,1,SoundStimuli/BetteDavisEyes_KimCarnes_Original5S.wav,,,,,,,,,,,,,,,,,,,,,,,,,,,,,,,,,,,,,,,,,,,,,,,,,,,,,,,,,,
,,,,,616299,001,2024-06-17_09h40.27.772,experiment,2024.1.5,Win32,60.24096386,62e15dfab54f025985de6b5c,667045947eb812cbdacbf325,66704a7dad60bee6413ece91,,,,,,,,,,,,,,,,,,,,,,,,,,,,,,,,,,,,672.735,678.4383,0,1,1,1,1,SoundStimuli/BetteDavisEyes_KimCarnes_Cover5S.wav,,,,,,,,,,,,,,,,,,,,,,,,,,,,,,,,,,,,,,,,,,,,,,,,,,,,,,,,,,
,,,,,616299,001,2024-06-17_09h40.27.772,experiment,2024.1.5,Win32,60.24096386,62e15dfab54f025985de6b5c,667045947eb812cbdacbf325,66704a7dad60bee6413ece91,,,,,,,,,,,,,,,,,,,,,,,,,,,,,,,,,,,,,,,,,,,,678.4385,680.9847,4.872222477,2.5452,0,3,3,5,1,song_indices/BetteDavisEyes_KimCarnes.csv,,,,,,,,,,,,,,,,,,,,,,,,,,,,,,,,,,,,,,,,,,,,,,,,
,,,,,616299,001,2024-06-17_09h40.27.772,experiment,2024.1.5,Win32,60.24096386,62e15dfab54f025985de6b5c,667045947eb812cbdacbf325,66704a7dad60bee6413ece91,,,,,,,,,,,,,,,,,,,,,,,,,,,,,,,,,,,,680.9857,687.1679,0,0,0,0,1,SoundStimuli/Fallin_AliciaKeys_Original5S.wav,,,,,,,,,,,,,,,,,,,,,,,,,,,,,,,,,,,,,,,,,,,,,,,,,,,,,,,,,,
,,,,,616299,001,2024-06-17_09h40.27.772,experiment,2024.1.5,Win32,60.24096386,62e15dfab54f025985de6b5c,667045947eb812cbdacbf325,66704a7dad60bee6413ece91,,,,,,,,,,,,,,,,,,,,,,,,,,,,,,,,,,,,687.1683,693.6039,0,1,1,1,1,SoundStimuli/Fallin_AliciaKeys_Cover5S.wav,,,,,,,,,,,,,,,,,,,,,,,,,,,,,,,,,,,,,,,,,,,,,,,,,,,,,,,,,,
,,,,,616299,001,2024-06-17_09h40.27.772,experiment,2024.1.5,Win32,60.24096386,62e15dfab54f025985de6b5c,667045947eb812cbdacbf325,66704a7dad60bee6413ece91,,,,,,,,,,,,,,,,,,,,,,,,,,,,,,,,,,,,,,,,,,,,693.6041,698.3876,5.588888804,4.7827,0,4,4,12,1,song_indices/Fallin_AliciaKeys.csv,,,,,,,,,,,,,,,,,,,,,,,,,,,,,,,,,,,,,,,,,,,,,,,,
,,,,,616299,001,2024-06-17_09h40.27.772,experiment,2024.1.5,Win32,60.24096386,62e15dfab54f025985de6b5c,667045947eb812cbdacbf325,66704a7dad60bee6413ece91,,,,,,,,,,,,,,,,,,,,,,,,,,,,,,,,,,,,698.3881,704.6039,0,0,0,1,1,SoundStimuli/NoOne_AliciaKeys_Cover5S.wav,,,,,,,,,,,,,,,,,,,,,,,,,,,,,,,,,,,,,,,,,,,,,,,,,,,,,,,,,,
,,,,,616299,001,2024-06-17_09h40.27.772,experiment,2024.1.5,Win32,60.24096386,62e15dfab54f025985de6b5c,667045947eb812cbdacbf325,66704a7dad60bee6413ece91,,,,,,,,,,,,,,,,,,,,,,,,,,,,,,,,,,,,704.6042,712.3346,0,1,1,0,1,SoundStimuli/NoOne_AliciaKeys_Original5S.wav,,,,,,,,,,,,,,,,,,,,,,,,,,,,,,,,,,,,,,,,,,,,,,,,,,,,,,,,,,
,,,,,616299,001,2024-06-17_09h40.27.772,experiment,2024.1.5,Win32,60.24096386,62e15dfab54f025985de6b5c,667045947eb812cbdacbf325,66704a7dad60bee6413ece91,,,,,,,,,,,,,,,,,,,,,,,,,,,,,,,,,,,,,,,,,,,,712.3348,722.0042,3.038889143,9.6688,0,5,5,19,1,song_indices/NoOne_AliciaKeys.csv,,,,,,,,,,,,,,,,,,,,,,,,,,,,,,,,,,,,,,,,,,,,,,,,
,,,,,616299,001,2024-06-17_09h40.27.772,experiment,2024.1.5,Win32,60.24096386,62e15dfab54f025985de6b5c,667045947eb812cbdacbf325,66704a7dad60bee6413ece91,,,,,,,,,,,,,,,,,,,,,,,,,,,,,,,,,,,,722.0048,728.0684,0,0,0,1,1,SoundStimuli/RockWithYou_MichaelJackson_Cover5S.wav,,,,,,,,,,,,,,,,,,,,,,,,,,,,,,,,,,,,,,,,,,,,,,,,,,,,,,,,,,
,,,,,616299,001,2024-06-17_09h40.27.772,experiment,2024.1.5,Win32,60.24096386,62e15dfab54f025985de6b5c,667045947eb812cbdacbf325,66704a7dad60bee6413ece91,,,,,,,,,,,,,,,,,,,,,,,,,,,,,,,,,,,,728.0688,734.4035,0,1,1,0,1,SoundStimuli/RockWithYou_MichaelJackson_Original5S.wav,,,,,,,,,,,,,,,,,,,,,,,,,,,,,,,,,,,,,,,,,,,,,,,,,,,,,,,,,,
,,,,,616299,001,2024-06-17_09h40.27.772,experiment,2024.1.5,Win32,60.24096386,62e15dfab54f025985de6b5c,667045947eb812cbdacbf325,66704a7dad60bee6413ece91,,,,,,,,,,,,,,,,,,,,,,,,,,,,,,,,,,,,,,,,,,,,734.4036,736.9347,2.294444614,2.5243,0,6,6,16,1,song_indices/RockWithYou_MichaelJackson.csv,,,,,,,,,,,,,,,,,,,,,,,,,,,,,,,,,,,,,,,,,,,,,,,,
,,,,,616299,001,2024-06-17_09h40.27.772,experiment,2024.1.5,Win32,60.24096386,62e15dfab54f025985de6b5c,667045947eb812cbdacbf325,66704a7dad60bee6413ece91,,,,,,,,,,,,,,,,,,,,,,,,,,,,,,,,,,,,736.9354,743.2514,0,0,0,1,1,SoundStimuli/ShapeofYou_EdSheeran_Cover5S.wav,,,,,,,,,,,,,,,,,,,,,,,,,,,,,,,,,,,,,,,,,,,,,,,,,,,,,,,,,,
,,,,,616299,001,2024-06-17_09h40.27.772,experiment,2024.1.5,Win32,60.24096386,62e15dfab54f025985de6b5c,667045947eb812cbdacbf325,66704a7dad60bee6413ece91,,,,,,,,,,,,,,,,,,,,,,,,,,,,,,,,,,,,743.2519,749.7181,0,1,1,0,1,SoundStimuli/ShapeofYou_EdSheeran_Original5S.wav,,,,,,,,,,,,,,,,,,,,,,,,,,,,,,,,,,,,,,,,,,,,,,,,,,,,,,,,,,
,,,,,616299,001,2024-06-17_09h40.27.772,experiment,2024.1.5,Win32,60.24096386,62e15dfab54f025985de6b5c,667045947eb812cbdacbf325,66704a7dad60bee6413ece91,,,,,,,,,,,,,,,,,,,,,,,,,,,,,,,,,,,,,,,,,,,,749.7182,753.6516,1.311111238,3.9221,0,7,7,21,1,song_indices/ShapeofYou_EdSheeran.csv,,,,,,,,,,,,,,,,,,,,,,,,,,,,,,,,,,,,,,,,,,,,,,,,
,,,,,616299,001,2024-06-17_09h40.27.772,experiment,2024.1.5,Win32,60.24096386,62e15dfab54f025985de6b5c,667045947eb812cbdacbf325,66704a7dad60bee6413ece91,,,,,,,,,,,,,,,,,,,,,,,,,,,,,,,,,,,,753.6534,760.6847,0,0,0,1,1,SoundStimuli/UptownFunk_MarkRonson_Cover5S.wav,,,,,,,,,,,,,,,,,,,,,,,,,,,,,,,,,,,,,,,,,,,,,,,,,,,,,,,,,,
,,,,,616299,001,2024-06-17_09h40.27.772,experiment,2024.1.5,Win32,60.24096386,62e15dfab54f025985de6b5c,667045947eb812cbdacbf325,66704a7dad60bee6413ece91,,,,,,,,,,,,,,,,,,,,,,,,,,,,,,,,,,,,760.685,767.9179,0,1,1,0,1,SoundStimuli/UptownFunk_MarkRonson_Original5S.wav,,,,,,,,,,,,,,,,,,,,,,,,,,,,,,,,,,,,,,,,,,,,,,,,,,,,,,,,,,
,,,,,616299,001,2024-06-17_09h40.27.772,experiment,2024.1.5,Win32,60.24096386,62e15dfab54f025985de6b5c,667045947eb812cbdacbf325,66704a7dad60bee6413ece91,,,,,,,,,,,,,,,,,,,,,,,,,,,,,,,,,,,,,,,,,,,,767.9182,771.0681,3.388888889,3.1392,0,8,8,15,1,song_indices/UptownFunk_MarkRonson.csv,,,,,,,,,,,,,,,,,,,,,,,,,,,,,,,,,,,,,,,,,,,,,,,,
,,,,,616299,001,2024-06-17_09h40.27.772,experiment,2024.1.5,Win32,60.24096386,62e15dfab54f025985de6b5c,667045947eb812cbdacbf325,66704a7dad60bee6413ece91,,,,,,,,,,,,,,,,,,,,,,,,,,,,,,,,,,,,771.0691,777.2848,0,0,0,0,1,SoundStimuli/TheBattleOfNewOrleans_JohnnyHorton_Original5S.wav,,,,,,,,,,,,,,,,,,,,,,,,,,,,,,,,,,,,,,,,,,,,,,,,,,,,,,,,,,
,,,,,616299,001,2024-06-17_09h40.27.772,experiment,2024.1.5,Win32,60.24096386,62e15dfab54f025985de6b5c,667045947eb812cbdacbf325,66704a7dad60bee6413ece91,,,,,,,,,,,,,,,,,,,,,,,,,,,,,,,,,,,,777.2852,785.2683,0,1,1,1,1,SoundStimuli/TheBattleOfNewOrleans_JohnnyHorton_Cover5S.wav,,,,,,,,,,,,,,,,,,,,,,,,,,,,,,,,,,,,,,,,,,,,,,,,,,,,,,,,,,
,,,,,616299,001,2024-06-17_09h40.27.772,experiment,2024.1.5,Win32,60.24096386,62e15dfab54f025985de6b5c,667045947eb812cbdacbf325,66704a7dad60bee6413ece91,,,,,,,,,,,,,,,,,,,,,,,,,,,,,,,,,,,,,,,,,,,,785.2683,789.2518,1.772222307,3.9825,0,9,9,4,1,song_indices/TheBattleOfNewOrleans_JohnnyHorton.csv,,,,,,,,,,,,,,,,,,,,,,,,,,,,,,,,,,,,,,,,,,,,,,,,
,,,,,616299,001,2024-06-17_09h40.27.772,experiment,2024.1.5,Win32,60.24096386,62e15dfab54f025985de6b5c,667045947eb812cbdacbf325,66704a7dad60bee6413ece91,,,,,,,,,,,,,,,,,,,,,,,,,,,,,,,,,,,,789.2526,795.5877,0,0,0,1,1,SoundStimuli/Stronger_KanyeWest_Cover5S.wav,,,,,,,,,,,,,,,,,,,,,,,,,,,,,,,,,,,,,,,,,,,,,,,,,,,,,,,,,,
,,,,,616299,001,2024-06-17_09h40.27.772,experiment,2024.1.5,Win32,60.24096386,62e15dfab54f025985de6b5c,667045947eb812cbdacbf325,66704a7dad60bee6413ece91,,,,,,,,,,,,,,,,,,,,,,,,,,,,,,,,,,,,795.588,801.6548,0,1,1,0,1,SoundStimuli/Stronger_KanyeWest_Original5S.wav,,,,,,,,,,,,,,,,,,,,,,,,,,,,,,,,,,,,,,,,,,,,,,,,,,,,,,,,,,
,,,,,616299,001,2024-06-17_09h40.27.772,experiment,2024.1.5,Win32,60.24096386,62e15dfab54f025985de6b5c,667045947eb812cbdacbf325,66704a7dad60bee6413ece91,,,,,,,,,,,,,,,,,,,,,,,,,,,,,,,,,,,,,,,,,,,,801.655,805.1682,1.03333346,3.502,0,10,10,9,1,song_indices/Stronger_KanyeWest.csv,,,,,,,,,,,,,,,,,,,,,,,,,,,,,,,,,,,,,,,,,,,,,,,,
,,,,,616299,001,2024-06-17_09h40.27.772,experiment,2024.1.5,Win32,60.24096386,62e15dfab54f025985de6b5c,667045947eb812cbdacbf325,66704a7dad60bee6413ece91,,,,,,,,,,,,,,,,,,,,,,,,,,,,,,,,,,,,805.1698,811.5348,0,0,0,1,1,SoundStimuli/GoodGollyMissMolly_LittleRichard_Cover5S.wav,,,,,,,,,,,,,,,,,,,,,,,,,,,,,,,,,,,,,,,,,,,,,,,,,,,,,,,,,,
,,,,,616299,001,2024-06-17_09h40.27.772,experiment,2024.1.5,Win32,60.24096386,62e15dfab54f025985de6b5c,667045947eb812cbdacbf325,66704a7dad60bee6413ece91,,,,,,,,,,,,,,,,,,,,,,,,,,,,,,,,,,,,811.5352,817.6013,0,1,1,0,1,SoundStimuli/GoodGollyMissMolly_LittleRichard_Original5S.wav,,,,,,,,,,,,,,,,,,,,,,,,,,,,,,,,,,,,,,,,,,,,,,,,,,,,,,,,,,
,,,,,616299,001,2024-06-17_09h40.27.772,experiment,2024.1.5,Win32,60.24096386,62e15dfab54f025985de6b5c,667045947eb812cbdacbf325,66704a7dad60bee6413ece91,,,,,,,,,,,,,,,,,,,,,,,,,,,,,,,,,,,,,,,,,,,,817.6015,820.6182,2.016666624,3.0056,0,11,11,0,1,song_indices/GoodGollyMissMolly_LittleRichard.csv,,,,,,,,,,,,,,,,,,,,,,,,,,,,,,,,,,,,,,,,,,,,,,,,
,,,,,616299,001,2024-06-17_09h40.27.772,experiment,2024.1.5,Win32,60.24096386,62e15dfab54f025985de6b5c,667045947eb812cbdacbf325,66704a7dad60bee6413ece91,,,,,,,,,,,,,,,,,,,,,,,,,,,,,,,,,,,,820.6189,827.7706,0,0,0,1,1,SoundStimuli/IWalkTheLine_JohnnyCash_Cover5S.wav,,,,,,,,,,,,,,,,,,,,,,,,,,,,,,,,,,,,,,,,,,,,,,,,,,,,,,,,,,
,,,,,616299,001,2024-06-17_09h40.27.772,experiment,2024.1.5,Win32,60.24096386,62e15dfab54f025985de6b5c,667045947eb812cbdacbf325,66704a7dad60bee6413ece91,,,,,,,,,,,,,,,,,,,,,,,,,,,,,,,,,,,,827.7709,833.7513,0,1,1,0,1,SoundStimuli/IWalkTheLine_JohnnyCash_Original5S.wav,,,,,,,,,,,,,,,,,,,,,,,,,,,,,,,,,,,,,,,,,,,,,,,,,,,,,,,,,,
,,,,,616299,001,2024-06-17_09h40.27.772,experiment,2024.1.5,Win32,60.24096386,62e15dfab54f025985de6b5c,667045947eb812cbdacbf325,66704a7dad60bee6413ece91,,,,,,,,,,,,,,,,,,,,,,,,,,,,,,,,,,,,,,,,,,,,833.7514,835.2681,3.050000085,1.5083,0,12,12,17,1,song_indices/IWalkTheLine_JohnnyCash.csv,,,,,,,,,,,,,,,,,,,,,,,,,,,,,,,,,,,,,,,,,,,,,,,,
,,,,,616299,001,2024-06-17_09h40.27.772,experiment,2024.1.5,Win32,60.24096386,62e15dfab54f025985de6b5c,667045947eb812cbdacbf325,66704a7dad60bee6413ece91,,,,,,,,,,,,,,,,,,,,,,,,,,,,,,,,,,,,835.2691,842.0517,0,0,0,1,1,SoundStimuli/PartyRockAnthem_LMFAO_Cover5S.wav,,,,,,,,,,,,,,,,,,,,,,,,,,,,,,,,,,,,,,,,,,,,,,,,,,,,,,,,,,
,,,,,616299,001,2024-06-17_09h40.27.772,experiment,2024.1.5,Win32,60.24096386,62e15dfab54f025985de6b5c,667045947eb812cbdacbf325,66704a7dad60bee6413ece91,,,,,,,,,,,,,,,,,,,,,,,,,,,,,,,,,,,,842.052,848.8014,0,1,1,0,1,SoundStimuli/PartyRockAnthem_LMFAO_Original5S.wav,,,,,,,,,,,,,,,,,,,,,,,,,,,,,,,,,,,,,,,,,,,,,,,,,,,,,,,,,,
,,,,,616299,001,2024-06-17_09h40.27.772,experiment,2024.1.5,Win32,60.24096386,62e15dfab54f025985de6b5c,667045947eb812cbdacbf325,66704a7dad60bee6413ece91,,,,,,,,,,,,,,,,,,,,,,,,,,,,,,,,,,,,,,,,,,,,848.8015,851.5182,3.60000017,2.7064,0,13,13,2,1,song_indices/PartyRockAnthem_LMFAO.csv,,,,,,,,,,,,,,,,,,,,,,,,,,,,,,,,,,,,,,,,,,,,,,,,
,,,,,616299,001,2024-06-17_09h40.27.772,experiment,2024.1.5,Win32,60.24096386,62e15dfab54f025985de6b5c,667045947eb812cbdacbf325,66704a7dad60bee6413ece91,,,,,,,,,,,,,,,,,,,,,,,,,,,,,,,,,,,,851.5197,860.4374,0,0,0,1,1,SoundStimuli/HeyYa_Outkast_Cover5S.wav,,,,,,,,,,,,,,,,,,,,,,,,,,,,,,,,,,,,,,,,,,,,,,,,,,,,,,,,,,
,,,,,616299,001,2024-06-17_09h40.27.772,experiment,2024.1.5,Win32,60.24096386,62e15dfab54f025985de6b5c,667045947eb812cbdacbf325,66704a7dad60bee6413ece91,,,,,,,,,,,,,,,,,,,,,,,,,,,,,,,,,,,,860.4378,866.7346,0,1,1,0,1,SoundStimuli/HeyYa_Outkast_Original5S.wav,,,,,,,,,,,,,,,,,,,,,,,,,,,,,,,,,,,,,,,,,,,,,,,,,,,,,,,,,,
,,,,,616299,001,2024-06-17_09h40.27.772,experiment,2024.1.5,Win32,60.24096386,62e15dfab54f025985de6b5c,667045947eb812cbdacbf325,66704a7dad60bee6413ece91,,,,,,,,,,,,,,,,,,,,,,,,,,,,,,,,,,,,,,,,,,,,866.7348,868.8514,4.027777778,2.108,0,14,14,22,1,song_indices/HeyYa_Outkast.csv,,,,,,,,,,,,,,,,,,,,,,,,,,,,,,,,,,,,,,,,,,,,,,,,
,,,,,616299,001,2024-06-17_09h40.27.772,experiment,2024.1.5,Win32,60.24096386,62e15dfab54f025985de6b5c,667045947eb812cbdacbf325,66704a7dad60bee6413ece91,,,,,,,,,,,,,,,,,,,,,,,,,,,,,,,,,,,,868.8525,875.0868,0,0,0,1,1,SoundStimuli/ItsAllInTheGame_TommyEdwards_Cover5S.wav,,,,,,,,,,,,,,,,,,,,,,,,,,,,,,,,,,,,,,,,,,,,,,,,,,,,,,,,,,
,,,,,616299,001,2024-06-17_09h40.27.772,experiment,2024.1.5,Win32,60.24096386,62e15dfab54f025985de6b5c,667045947eb812cbdacbf325,66704a7dad60bee6413ece91,,,,,,,,,,,,,,,,,,,,,,,,,,,,,,,,,,,,875.0871,881.3539,0,1,1,0,1,SoundStimuli/ItsAllInTheGame_TommyEdwards_Original5S.wav,,,,,,,,,,,,,,,,,,,,,,,,,,,,,,,,,,,,,,,,,,,,,,,,,,,,,,,,,,
,,,,,616299,001,2024-06-17_09h40.27.772,experiment,2024.1.5,Win32,60.24096386,62e15dfab54f025985de6b5c,667045947eb812cbdacbf325,66704a7dad60bee6413ece91,,,,,,,,,,,,,,,,,,,,,,,,,,,,,,,,,,,,,,,,,,,,881.354,883.3376,2.622222477,1.9829,0,15,15,13,1,song_indices/ItsAllInTheGame_TommyEdwards.csv,,,,,,,,,,,,,,,,,,,,,,,,,,,,,,,,,,,,,,,,,,,,,,,,
,,,,,616299,001,2024-06-17_09h40.27.772,experiment,2024.1.5,Win32,60.24096386,62e15dfab54f025985de6b5c,667045947eb812cbdacbf325,66704a7dad60bee6413ece91,,,,,,,,,,,,,,,,,,,,,,,,,,,,,,,,,,,,883.3382,889.1848,0,0,0,1,1,SoundStimuli/IWillAlwaysLoveYou_WhitneyHouston_Cover5S.wav,,,,,,,,,,,,,,,,,,,,,,,,,,,,,,,,,,,,,,,,,,,,,,,,,,,,,,,,,,
,,,,,616299,001,2024-06-17_09h40.27.772,experiment,2024.1.5,Win32,60.24096386,62e15dfab54f025985de6b5c,667045947eb812cbdacbf325,66704a7dad60bee6413ece91,,,,,,,,,,,,,,,,,,,,,,,,,,,,,,,,,,,,889.1852,895.5701,0,1,1,0,1,SoundStimuli/IWillAlwaysLoveYou_WhitneyHouston_Original5S.wav,,,,,,,,,,,,,,,,,,,,,,,,,,,,,,,,,,,,,,,,,,,,,,,,,,,,,,,,,,
,,,,,616299,001,2024-06-17_09h40.27.772,experiment,2024.1.5,Win32,60.24096386,62e15dfab54f025985de6b5c,667045947eb812cbdacbf325,66704a7dad60bee6413ece91,,,,,,,,,,,,,,,,,,,,,,,,,,,,,,,,,,,,,,,,,,,,895.5703,898.2847,6.977778117,2.708,0,16,16,10,1,song_indices/IWillAlwaysLoveYou_WhitneyHouston.csv,,,,,,,,,,,,,,,,,,,,,,,,,,,,,,,,,,,,,,,,,,,,,,,,
,,,,,616299,001,2024-06-17_09h40.27.772,experiment,2024.1.5,Win32,60.24096386,62e15dfab54f025985de6b5c,667045947eb812cbdacbf325,66704a7dad60bee6413ece91,,,,,,,,,,,,,,,,,,,,,,,,,,,,,,,,,,,,898.2856,904.8347,0,0,0,0,1,SoundStimuli/CrazyInLove_BeyonceFtJayZ_Original5S.wav,,,,,,,,,,,,,,,,,,,,,,,,,,,,,,,,,,,,,,,,,,,,,,,,,,,,,,,,,,
,,,,,616299,001,2024-06-17_09h40.27.772,experiment,2024.1.5,Win32,60.24096386,62e15dfab54f025985de6b5c,667045947eb812cbdacbf325,66704a7dad60bee6413ece91,,,,,,,,,,,,,,,,,,,,,,,,,,,,,,,,,,,,904.835,915.0872,0,1,1,1,1,SoundStimuli/CrazyInLove_BeyonceFtJayZ_Cover5S.wav,,,,,,,,,,,,,,,,,,,,,,,,,,,,,,,,,,,,,,,,,,,,,,,,,,,,,,,,,,
,,,,,616299,001,2024-06-17_09h40.27.772,experiment,2024.1.5,Win32,60.24096386,62e15dfab54f025985de6b5c,667045947eb812cbdacbf325,66704a7dad60bee6413ece91,,,,,,,,,,,,,,,,,,,,,,,,,,,,,,,,,,,,,,,,,,,,915.0873,916.2219,1.788888931,1.1339,0,17,17,3,1,song_indices/CrazyInLove_BeyonceFtJayZ.csv,,,,,,,,,,,,,,,,,,,,,,,,,,,,,,,,,,,,,,,,,,,,,,,,
,,,,,616299,001,2024-06-17_09h40.27.772,experiment,2024.1.5,Win32,60.24096386,62e15dfab54f025985de6b5c,667045947eb812cbdacbf325,66704a7dad60bee6413ece91,,,,,,,,,,,,,,,,,,,,,,,,,,,,,,,,,,,,916.2225,922.1683,0,0,0,1,1,SoundStimuli/TheBoyIsMine_BrandyMonica_Cover5S.wav,,,,,,,,,,,,,,,,,,,,,,,,,,,,,,,,,,,,,,,,,,,,,,,,,,,,,,,,,,
,,,,,616299,001,2024-06-17_09h40.27.772,experiment,2024.1.5,Win32,60.24096386,62e15dfab54f025985de6b5c,667045947eb812cbdacbf325,66704a7dad60bee6413ece91,,,,,,,,,,,,,,,,,,,,,,,,,,,,,,,,,,,,922.1687,928.3874,0,1,1,0,1,SoundStimuli/TheBoyIsMine_BrandyMonica_Original5S.wav,,,,,,,,,,,,,,,,,,,,,,,,,,,,,,,,,,,,,,,,,,,,,,,,,,,,,,,,,,
,,,,,616299,001,2024-06-17_09h40.27.772,experiment,2024.1.5,Win32,60.24096386,62e15dfab54f025985de6b5c,667045947eb812cbdacbf325,66704a7dad60bee6413ece91,,,,,,,,,,,,,,,,,,,,,,,,,,,,,,,,,,,,,,,,,,,,928.3875,931.0516,6.166666667,2.6516,0,18,18,6,1,song_indices/TheBoyIsMine_BrandyMonica.csv,,,,,,,,,,,,,,,,,,,,,,,,,,,,,,,,,,,,,,,,,,,,,,,,
,,,,,616299,001,2024-06-17_09h40.27.772,experiment,2024.1.5,Win32,60.24096386,62e15dfab54f025985de6b5c,667045947eb812cbdacbf325,66704a7dad60bee6413ece91,,,,,,,,,,,,,,,,,,,,,,,,,,,,,,,,,,,,931.0524,938.4038,0,0,0,1,1,SoundStimuli/Happy_PharellWilliams_Cover5S.wav,,,,,,,,,,,,,,,,,,,,,,,,,,,,,,,,,,,,,,,,,,,,,,,,,,,,,,,,,,
,,,,,616299,001,2024-06-17_09h40.27.772,experiment,2024.1.5,Win32,60.24096386,62e15dfab54f025985de6b5c,667045947eb812cbdacbf325,66704a7dad60bee6413ece91,,,,,,,,,,,,,,,,,,,,,,,,,,,,,,,,,,,,938.4041,945.7686,0,1,1,0,1,SoundStimuli/Happy_PharellWilliams_Original5S.wav,,,,,,,,,,,,,,,,,,,,,,,,,,,,,,,,,,,,,,,,,,,,,,,,,,,,,,,,,,
,,,,,616299,001,2024-06-17_09h40.27.772,experiment,2024.1.5,Win32,60.24096386,62e15dfab54f025985de6b5c,667045947eb812cbdacbf325,66704a7dad60bee6413ece91,,,,,,,,,,,,,,,,,,,,,,,,,,,,,,,,,,,,,,,,,,,,945.7688,948.3515,3.966666751,2.5686,0,19,19,7,1,song_indices/Happy_PharellWilliams.csv,,,,,,,,,,,,,,,,,,,,,,,,,,,,,,,,,,,,,,,,,,,,,,,,
,,,,,616299,001,2024-06-17_09h40.27.772,experiment,2024.1.5,Win32,60.24096386,62e15dfab54f025985de6b5c,667045947eb812cbdacbf325,66704a7dad60bee6413ece91,,,,,,,,,,,,,,,,,,,,,,,,,,,,,,,,,,,,948.3526,954.9374,0,0,0,1,1,SoundStimuli/GetUrFreakOn_MissyElliot_Cover5S.wav,,,,,,,,,,,,,,,,,,,,,,,,,,,,,,,,,,,,,,,,,,,,,,,,,,,,,,,,,,
,,,,,616299,001,2024-06-17_09h40.27.772,experiment,2024.1.5,Win32,60.24096386,62e15dfab54f025985de6b5c,667045947eb812cbdacbf325,66704a7dad60bee6413ece91,,,,,,,,,,,,,,,,,,,,,,,,,,,,,,,,,,,,954.9377,961.0206,0,1,1,0,1,SoundStimuli/GetUrFreakOn_MissyElliot_Original5S.wav,,,,,,,,,,,,,,,,,,,,,,,,,,,,,,,,,,,,,,,,,,,,,,,,,,,,,,,,,,
,,,,,616299,001,2024-06-17_09h40.27.772,experiment,2024.1.5,Win32,60.24096386,62e15dfab54f025985de6b5c,667045947eb812cbdacbf325,66704a7dad60bee6413ece91,,,,,,,,,,,,,,,,,,,,,,,,,,,,,,,,,,,,,,,,,,,,961.0208,963.0014,2.050000085,1.9728,0,20,20,18,1,song_indices/GetUrFreakOn_MissyElliot.csv,,,,,,,,,,,,,,,,,,,,,,,,,,,,,,,,,,,,,,,,,,,,,,,,
,,,,,616299,001,2024-06-17_09h40.27.772,experiment,2024.1.5,Win32,60.24096386,62e15dfab54f025985de6b5c,667045947eb812cbdacbf325,66704a7dad60bee6413ece91,,,,,,,,,,,,,,,,,,,,,,,,,,,,,,,,,,,,963.0026,969.2207,0,0,0,0,1,SoundStimuli/SmellsLikeTeenSpirit_Nirvana_Original5S.wav,,,,,,,,,,,,,,,,,,,,,,,,,,,,,,,,,,,,,,,,,,,,,,,,,,,,,,,,,,
,,,,,616299,001,2024-06-17_09h40.27.772,experiment,2024.1.5,Win32,60.24096386,62e15dfab54f025985de6b5c,667045947eb812cbdacbf325,66704a7dad60bee6413ece91,,,,,,,,,,,,,,,,,,,,,,,,,,,,,,,,,,,,969.2211,975.0017,0,1,1,1,1,SoundStimuli/SmellsLikeTeenSpirit_Nirvana_Cover5S.wav,,,,,,,,,,,,,,,,,,,,,,,,,,,,,,,,,,,,,,,,,,,,,,,,,,,,,,,,,,
,,,,,616299,001,2024-06-17_09h40.27.772,experiment,2024.1.5,Win32,60.24096386,62e15dfab54f025985de6b5c,667045947eb812cbdacbf325,66704a7dad60bee6413ece91,,,,,,,,,,,,,,,,,,,,,,,,,,,,,,,,,,,,,,,,,,,,975.0019,976.4206,5.616666582,1.4177,0,21,21,8,1,song_indices/SmellsLikeTeenSpirit_Nirvana.csv,,,,,,,,,,,,,,,,,,,,,,,,,,,,,,,,,,,,,,,,,,,,,,,,
,,,,,616299,001,2024-06-17_09h40.27.772,experiment,2024.1.5,Win32,60.24096386,62e15dfab54f025985de6b5c,667045947eb812cbdacbf325,66704a7dad60bee6413ece91,,,,,,,,,,,,,,,,,,,,,,,,,,,,,,,,,,,,976.4213,982.3514,0,0,0,0,1,SoundStimuli/StandByMe_BenEKing_Original5S.wav,,,,,,,,,,,,,,,,,,,,,,,,,,,,,,,,,,,,,,,,,,,,,,,,,,,,,,,,,,
,,,,,616299,001,2024-06-17_09h40.27.772,experiment,2024.1.5,Win32,60.24096386,62e15dfab54f025985de6b5c,667045947eb812cbdacbf325,66704a7dad60bee6413ece91,,,,,,,,,,,,,,,,,,,,,,,,,,,,,,,,,,,,982.3517,988.3875,0,1,1,1,1,SoundStimuli/StandByMe_BenEKing_Cover5S.wav,,,,,,,,,,,,,,,,,,,,,,,,,,,,,,,,,,,,,,,,,,,,,,,,,,,,,,,,,,
,,,,,616299,001,2024-06-17_09h40.27.772,experiment,2024.1.5,Win32,60.24096386,62e15dfab54f025985de6b5c,667045947eb812cbdacbf325,66704a7dad60bee6413ece91,,,,,,,,,,,,,,,,,,,,,,,,,,,,,,,,,,,,,,,,,,,,988.3876,990.3215,2.866666582,1.9333,0,22,22,1,1,song_indices/StandByMe_BenEKing.csv,,,,,,,,,,,,,,,,,,,,,,,,,,,,,,,,,,,,,,,,,,,,,,,,
,,,,,616299,001,2024-06-17_09h40.27.772,experiment,2024.1.5,Win32,60.24096386,62e15dfab54f025985de6b5c,667045947eb812cbdacbf325,66704a7dad60bee6413ece91,,,,,,,,,,,,,,,,,,,,,,,,,,,,,,,,,,,,,,,,,,,,,,,,,,,,,,990.3215,991.8019,space,1.4519,,0,1,1,1,1,choose_song_b2.csv,,,,,,,,,,,,,,,,,,,,,,,,,,,,,,,,,,,,,
,,,,,616299,001,2024-06-17_09h40.27.772,experiment,2024.1.5,Win32,60.24096386,62e15dfab54f025985de6b5c,667045947eb812cbdacbf325,66704a7dad60bee6413ece91,,,,,,,,,,,,,,,,,,,,,,,,,,,,,,,,,,,,991.804,997.8347,0,0,0,0,1,SoundStimuli/HowDoILive_LeAnnRimes_Original5S.wav,,,,,,,,,,,,,,,,,,,,,,,,,,,,,,,,,,,,,,,,,,,,,,,,,,,,,,,,,,
,,,,,616299,001,2024-06-17_09h40.27.772,experiment,2024.1.5,Win32,60.24096386,62e15dfab54f025985de6b5c,667045947eb812cbdacbf325,66704a7dad60bee6413ece91,,,,,,,,,,,,,,,,,,,,,,,,,,,,,,,,,,,,997.835,1003.3215,0,1,1,1,1,SoundStimuli/HowDoILive_LeAnnRimes_Cover5S.wav,,,,,,,,,,,,,,,,,,,,,,,,,,,,,,,,,,,,,,,,,,,,,,,,,,,,,,,,,,
,,,,,616299,001,2024-06-17_09h40.27.772,experiment,2024.1.5,Win32,60.24096386,62e15dfab54f025985de6b5c,667045947eb812cbdacbf325,66704a7dad60bee6413ece91,,,,,,,,,,,,,,,,,,,,,,,,,,,,,,,,,,,,,,,,,,,,1003.3216,1005.3849,5.583333333,2.056,0,0,0,17,1,song_indices/HowDoILive_LeAnnRimes.csv,,,,,,,,,,,,,,,,,,,,,,,,,,,,,,,,,,,,,,,,,,,,,,,,
,,,,,616299,001,2024-06-17_09h40.27.772,experiment,2024.1.5,Win32,60.24096386,62e15dfab54f025985de6b5c,667045947eb812cbdacbf325,66704a7dad60bee6413ece91,,,,,,,,,,,,,,,,,,,,,,,,,,,,,,,,,,,,1005.3868,1011.7852,0,0,0,0,1,SoundStimuli/FlashdanceWhatAFeeling_IreneCara_Original5S.wav,,,,,,,,,,,,,,,,,,,,,,,,,,,,,,,,,,,,,,,,,,,,,,,,,,,,,,,,,,
,,,,,616299,001,2024-06-17_09h40.27.772,experiment,2024.1.5,Win32,60.24096386,62e15dfab54f025985de6b5c,667045947eb812cbdacbf325,66704a7dad60bee6413ece91,,,,,,,,,,,,,,,,,,,,,,,,,,,,,,,,,,,,1011.7857,1019.0712,0,1,1,1,1,SoundStimuli/FlashdanceWhatAFeeling_IreneCara_Cover5S.wav,,,,,,,,,,,,,,,,,,,,,,,,,,,,,,,,,,,,,,,,,,,,,,,,,,,,,,,,,,
,,,,,616299,001,2024-06-17_09h40.27.772,experiment,2024.1.5,Win32,60.24096386,62e15dfab54f025985de6b5c,667045947eb812cbdacbf325,66704a7dad60bee6413ece91,,,,,,,,,,,,,,,,,,,,,,,,,,,,,,,,,,,,,,,,,,,,1019.0713,1020.5181,5.838889228,1.4346,0,1,1,18,1,song_indices/FlashdanceWhatAFeeling_IreneCara.csv,,,,,,,,,,,,,,,,,,,,,,,,,,,,,,,,,,,,,,,,,,,,,,,,
,,,,,616299,001,2024-06-17_09h40.27.772,experiment,2024.1.5,Win32,60.24096386,62e15dfab54f025985de6b5c,667045947eb812cbdacbf325,66704a7dad60bee6413ece91,,,,,,,,,,,,,,,,,,,,,,,,,,,,,,,,,,,,1020.5192,1026.7185,0,0,0,0,1,SoundStimuli/SaveYourTears_TheWeekndArianaGrande_Original5S.wav,,,,,,,,,,,,,,,,,,,,,,,,,,,,,,,,,,,,,,,,,,,,,,,,,,,,,,,,,,
,,,,,616299,001,2024-06-17_09h40.27.772,experiment,2024.1.5,Win32,60.24096386,62e15dfab54f025985de6b5c,667045947eb812cbdacbf325,66704a7dad60bee6413ece91,,,,,,,,,,,,,,,,,,,,,,,,,,,,,,,,,,,,1026.7191,1032.6181,0,1,1,1,1,SoundStimuli/SaveYourTears_TheWeekndArianaGrande_Cover5S.wav,,,,,,,,,,,,,,,,,,,,,,,,,,,,,,,,,,,,,,,,,,,,,,,,,,,,,,,,,,
,,,,,616299,001,2024-06-17_09h40.27.772,experiment,2024.1.5,Win32,60.24096386,62e15dfab54f025985de6b5c,667045947eb812cbdacbf325,66704a7dad60bee6413ece91,,,,,,,,,,,,,,,,,,,,,,,,,,,,,,,,,,,,,,,,,,,,1032.6183,1034.0514,2.766666836,1.4244,0,2,2,12,1,song_indices/SaveYourTears_TheWeekndArianaGrande.csv,,,,,,,,,,,,,,,,,,,,,,,,,,,,,,,,,,,,,,,,,,,,,,,,
,,,,,616299,001,2024-06-17_09h40.27.772,experiment,2024.1.5,Win32,60.24096386,62e15dfab54f025985de6b5c,667045947eb812cbdacbf325,66704a7dad60bee6413ece91,,,,,,,,,,,,,,,,,,,,,,,,,,,,,,,,,,,,1034.053,1039.9351,0,0,0,0,1,SoundStimuli/Irreplaceable_Beyonce_Original5S.wav,,,,,,,,,,,,,,,,,,,,,,,,,,,,,,,,,,,,,,,,,,,,,,,,,,,,,,,,,,
,,,,,616299,001,2024-06-17_09h40.27.772,experiment,2024.1.5,Win32,60.24096386,62e15dfab54f025985de6b5c,667045947eb812cbdacbf325,66704a7dad60bee6413ece91,,,,,,,,,,,,,,,,,,,,,,,,,,,,,,,,,,,,1039.9354,1045.8514,0,1,1,1,1,SoundStimuli/Irreplaceable_Beyonce_Cover5S.wav,,,,,,,,,,,,,,,,,,,,,,,,,,,,,,,,,,,,,,,,,,,,,,,,,,,,,,,,,,
,,,,,616299,001,2024-06-17_09h40.27.772,experiment,2024.1.5,Win32,60.24096386,62e15dfab54f025985de6b5c,667045947eb812cbdacbf325,66704a7dad60bee6413ece91,,,,,,,,,,,,,,,,,,,,,,,,,,,,,,,,,,,,,,,,,,,,1045.8515,1048.1043,2.25,2.252,0,3,3,19,1,song_indices/Irreplaceable_Beyonce.csv,,,,,,,,,,,,,,,,,,,,,,,,,,,,,,,,,,,,,,,,,,,,,,,,
,,,,,616299,001,2024-06-17_09h40.27.772,experiment,2024.1.5,Win32,60.24096386,62e15dfab54f025985de6b5c,667045947eb812cbdacbf325,66704a7dad60bee6413ece91,,,,,,,,,,,,,,,,,,,,,,,,,,,,,,,,,,,,1048.1049,1054.1347,0,0,0,0,1,SoundStimuli/LeFreak_Chic_Original5S.wav,,,,,,,,,,,,,,,,,,,,,,,,,,,,,,,,,,,,,,,,,,,,,,,,,,,,,,,,,,
,,,,,616299,001,2024-06-17_09h40.27.772,experiment,2024.1.5,Win32,60.24096386,62e15dfab54f025985de6b5c,667045947eb812cbdacbf325,66704a7dad60bee6413ece91,,,,,,,,,,,,,,,,,,,,,,,,,,,,,,,,,,,,1054.1351,1059.6541,0,1,1,1,1,SoundStimuli/LeFreak_Chic_Cover5S.wav,,,,,,,,,,,,,,,,,,,,,,,,,,,,,,,,,,,,,,,,,,,,,,,,,,,,,,,,,,
,,,,,616299,001,2024-06-17_09h40.27.772,experiment,2024.1.5,Win32,60.24096386,62e15dfab54f025985de6b5c,667045947eb812cbdacbf325,66704a7dad60bee6413ece91,,,,,,,,,,,,,,,,,,,,,,,,,,,,,,,,,,,,,,,,,,,,1059.6541,1061.5711,3.966666751,1.9163,0,4,4,11,1,song_indices/LeFreak_Chic.csv,,,,,,,,,,,,,,,,,,,,,,,,,,,,,,,,,,,,,,,,,,,,,,,,
,,,,,616299,001,2024-06-17_09h40.27.772,experiment,2024.1.5,Win32,60.24096386,62e15dfab54f025985de6b5c,667045947eb812cbdacbf325,66704a7dad60bee6413ece91,,,,,,,,,,,,,,,,,,,,,,,,,,,,,,,,,,,,1061.5716,1067.6347,0,0,0,0,1,SoundStimuli/TossinAndTurnin_BobbyLewis_Original5S.wav,,,,,,,,,,,,,,,,,,,,,,,,,,,,,,,,,,,,,,,,,,,,,,,,,,,,,,,,,,
,,,,,616299,001,2024-06-17_09h40.27.772,experiment,2024.1.5,Win32,60.24096386,62e15dfab54f025985de6b5c,667045947eb812cbdacbf325,66704a7dad60bee6413ece91,,,,,,,,,,,,,,,,,,,,,,,,,,,,,,,,,,,,1067.635,1073.7542,0,1,1,1,1,SoundStimuli/TossinAndTurnin_BobbyLewis_Cover5S.wav,,,,,,,,,,,,,,,,,,,,,,,,,,,,,,,,,,,,,,,,,,,,,,,,,,,,,,,,,,
,,,,,616299,001,2024-06-17_09h40.27.772,experiment,2024.1.5,Win32,60.24096386,62e15dfab54f025985de6b5c,667045947eb812cbdacbf325,66704a7dad60bee6413ece91,,,,,,,,,,,,,,,,,,,,,,,,,,,,,,,,,,,,,,,,,,,,1073.7543,1075.2348,2.927778032,1.4779,0,5,5,13,1,song_indices/TossinAndTurnin_BobbyLewis.csv,,,,,,,,,,,,,,,,,,,,,,,,,,,,,,,,,,,,,,,,,,,,,,,,
,,,,,616299,001,2024-06-17_09h40.27.772,experiment,2024.1.5,Win32,60.24096386,62e15dfab54f025985de6b5c,667045947eb812cbdacbf325,66704a7dad60bee6413ece91,,,,,,,,,,,,,,,,,,,,,,,,,,,,,,,,,,,,1075.2356,1082.2517,0,0,0,0,1,SoundStimuli/PokerFace_LadyGaga_Original5S.wav,,,,,,,,,,,,,,,,,,,,,,,,,,,,,,,,,,,,,,,,,,,,,,,,,,,,,,,,,,
,,,,,616299,001,2024-06-17_09h40.27.772,experiment,2024.1.5,Win32,60.24096386,62e15dfab54f025985de6b5c,667045947eb812cbdacbf325,66704a7dad60bee6413ece91,,,,,,,,,,,,,,,,,,,,,,,,,,,,,,,,,,,,1082.2521,1089.1045,0,1,1,1,1,SoundStimuli/PokerFace_LadyGaga_Cover5S.wav,,,,,,,,,,,,,,,,,,,,,,,,,,,,,,,,,,,,,,,,,,,,,,,,,,,,,,,,,,
,,,,,616299,001,2024-06-17_09h40.27.772,experiment,2024.1.5,Win32,60.24096386,62e15dfab54f025985de6b5c,667045947eb812cbdacbf325,66704a7dad60bee6413ece91,,,,,,,,,,,,,,,,,,,,,,,,,,,,,,,,,,,,,,,,,,,,1089.1046,1090.2849,2.166666667,1.1669,0,6,6,23,1,song_indices/PokerFace_LadyGaga.csv,,,,,,,,,,,,,,,,,,,,,,,,,,,,,,,,,,,,,,,,,,,,,,,,
,,,,,616299,001,2024-06-17_09h40.27.772,experiment,2024.1.5,Win32,60.24096386,62e15dfab54f025985de6b5c,667045947eb812cbdacbf325,66704a7dad60bee6413ece91,,,,,,,,,,,,,,,,,,,,,,,,,,,,,,,,,,,,1090.286,1096.4347,0,0,0,0,1,SoundStimuli/Superstition_StevieWonder_Original5S.wav,,,,,,,,,,,,,,,,,,,,,,,,,,,,,,,,,,,,,,,,,,,,,,,,,,,,,,,,,,
,,,,,616299,001,2024-06-17_09h40.27.772,experiment,2024.1.5,Win32,60.24096386,62e15dfab54f025985de6b5c,667045947eb812cbdacbf325,66704a7dad60bee6413ece91,,,,,,,,,,,,,,,,,,,,,,,,,,,,,,,,,,,,1096.4351,1101.7368,0,1,1,1,1,SoundStimuli/Superstition_StevieWonder_Cover5S.wav,,,,,,,,,,,,,,,,,,,,,,,,,,,,,,,,,,,,,,,,,,,,,,,,,,,,,,,,,,
,,,,,616299,001,2024-06-17_09h40.27.772,experiment,2024.1.5,Win32,60.24096386,62e15dfab54f025985de6b5c,667045947eb812cbdacbf325,66704a7dad60bee6413ece91,,,,,,,,,,,,,,,,,,,,,,,,,,,,,,,,,,,,,,,,,,,,1101.7369,1102.9848,2.166666667,1.244,0,7,7,15,1,song_indices/Superstition_StevieWonder.csv,,,,,,,,,,,,,,,,,,,,,,,,,,,,,,,,,,,,,,,,,,,,,,,,
,,,,,616299,001,2024-06-17_09h40.27.772,experiment,2024.1.5,Win32,60.24096386,62e15dfab54f025985de6b5c,667045947eb812cbdacbf325,66704a7dad60bee6413ece91,,,,,,,,,,,,,,,,,,,,,,,,,,,,,,,,,,,,1102.9856,1109.4684,0,0,0,1,1,SoundStimuli/Weak_SWV_Cover5S.wav,,,,,,,,,,,,,,,,,,,,,,,,,,,,,,,,,,,,,,,,,,,,,,,,,,,,,,,,,,
,,,,,616299,001,2024-06-17_09h40.27.772,experiment,2024.1.5,Win32,60.24096386,62e15dfab54f025985de6b5c,667045947eb812cbdacbf325,66704a7dad60bee6413ece91,,,,,,,,,,,,,,,,,,,,,,,,,,,,,,,,,,,,1109.4687,1115.5514,0,1,1,0,1,SoundStimuli/Weak_SWV_Original5S.wav,,,,,,,,,,,,,,,,,,,,,,,,,,,,,,,,,,,,,,,,,,,,,,,,,,,,,,,,,,
,,,,,616299,001,2024-06-17_09h40.27.772,experiment,2024.1.5,Win32,60.24096386,62e15dfab54f025985de6b5c,667045947eb812cbdacbf325,66704a7dad60bee6413ece91,,,,,,,,,,,,,,,,,,,,,,,,,,,,,,,,,,,,,,,,,,,,1115.5515,1117.4682,2.077777863,1.9129,0,8,8,6,1,song_indices/Weak_SWV.csv,,,,,,,,,,,,,,,,,,,,,,,,,,,,,,,,,,,,,,,,,,,,,,,,
,,,,,616299,001,2024-06-17_09h40.27.772,experiment,2024.1.5,Win32,60.24096386,62e15dfab54f025985de6b5c,667045947eb812cbdacbf325,66704a7dad60bee6413ece91,,,,,,,,,,,,,,,,,,,,,,,,,,,,,,,,,,,,1117.4695,1124.5348,0,0,0,1,1,SoundStimuli/ComeAndGetYourLove_Redbone_Cover5S.wav,,,,,,,,,,,,,,,,,,,,,,,,,,,,,,,,,,,,,,,,,,,,,,,,,,,,,,,,,,
,,,,,616299,001,2024-06-17_09h40.27.772,experiment,2024.1.5,Win32,60.24096386,62e15dfab54f025985de6b5c,667045947eb812cbdacbf325,66704a7dad60bee6413ece91,,,,,,,,,,,,,,,,,,,,,,,,,,,,,,,,,,,,1124.5351,1130.635,0,1,1,0,1,SoundStimuli/ComeAndGetYourLove_Redbone_Original5S.wav,,,,,,,,,,,,,,,,,,,,,,,,,,,,,,,,,,,,,,,,,,,,,,,,,,,,,,,,,,
,,,,,616299,001,2024-06-17_09h40.27.772,experiment,2024.1.5,Win32,60.24096386,62e15dfab54f025985de6b5c,667045947eb812cbdacbf325,66704a7dad60bee6413ece91,,,,,,,,,,,,,,,,,,,,,,,,,,,,,,,,,,,,,,,,,,,,1130.6351,1132.2046,2.427778032,1.5688,0,9,9,22,1,song_indices/ComeAndGetYourLove_Redbone.csv,,,,,,,,,,,,,,,,,,,,,,,,,,,,,,,,,,,,,,,,,,,,,,,,
,,,,,616299,001,2024-06-17_09h40.27.772,experiment,2024.1.5,Win32,60.24096386,62e15dfab54f025985de6b5c,667045947eb812cbdacbf325,66704a7dad60bee6413ece91,,,,,,,,,,,,,,,,,,,,,,,,,,,,,,,,,,,,1132.2054,1138.8514,0,0,0,1,1,SoundStimuli/LetsGetItOn_MarvinGaye_Cover5S.wav,,,,,,,,,,,,,,,,,,,,,,,,,,,,,,,,,,,,,,,,,,,,,,,,,,,,,,,,,,
,,,,,616299,001,2024-06-17_09h40.27.772,experiment,2024.1.5,Win32,60.24096386,62e15dfab54f025985de6b5c,667045947eb812cbdacbf325,66704a7dad60bee6413ece91,,,,,,,,,,,,,,,,,,,,,,,,,,,,,,,,,,,,1138.8517,1145.1517,0,1,1,0,1,SoundStimuli/LetsGetItOn_MarvinGaye_Original5S.wav,,,,,,,,,,,,,,,,,,,,,,,,,,,,,,,,,,,,,,,,,,,,,,,,,,,,,,,,,,
,,,,,616299,001,2024-06-17_09h40.27.772,experiment,2024.1.5,Win32,60.24096386,62e15dfab54f025985de6b5c,667045947eb812cbdacbf325,66704a7dad60bee6413ece91,,,,,,,,,,,,,,,,,,,,,,,,,,,,,,,,,,,,,,,,,,,,1145.1518,1148.9543,2.983333588,3.8019,0,10,10,20,1,song_indices/LetsGetItOn_MarvinGaye.csv,,,,,,,,,,,,,,,,,,,,,,,,,,,,,,,,,,,,,,,,,,,,,,,,
,,,,,616299,001,2024-06-17_09h40.27.772,experiment,2024.1.5,Win32,60.24096386,62e15dfab54f025985de6b5c,667045947eb812cbdacbf325,66704a7dad60bee6413ece91,,,,,,,,,,,,,,,,,,,,,,,,,,,,,,,,,,,,1148.9548,1155.7519,0,0,0,1,1,SoundStimuli/BlindingLights_TheWeeknd_Cover5S.wav,,,,,,,,,,,,,,,,,,,,,,,,,,,,,,,,,,,,,,,,,,,,,,,,,,,,,,,,,,
,,,,,616299,001,2024-06-17_09h40.27.772,experiment,2024.1.5,Win32,60.24096386,62e15dfab54f025985de6b5c,667045947eb812cbdacbf325,66704a7dad60bee6413ece91,,,,,,,,,,,,,,,,,,,,,,,,,,,,,,,,,,,,1155.7527,1162.237,0,1,1,0,1,SoundStimuli/BlindingLights_TheWeeknd_Original5S.wav,,,,,,,,,,,,,,,,,,,,,,,,,,,,,,,,,,,,,,,,,,,,,,,,,,,,,,,,,,
,,,,,616299,001,2024-06-17_09h40.27.772,experiment,2024.1.5,Win32,60.24096386,62e15dfab54f025985de6b5c,667045947eb812cbdacbf325,66704a7dad60bee6413ece91,,,,,,,,,,,,,,,,,,,,,,,,,,,,,,,,,,,,,,,,,,,,1162.2372,1165.3184,3.244444529,3.0678,0,11,11,21,1,song_indices/BlindingLights_TheWeeknd.csv,,,,,,,,,,,,,,,,,,,,,,,,,,,,,,,,,,,,,,,,,,,,,,,,
,,,,,616299,001,2024-06-17_09h40.27.772,experiment,2024.1.5,Win32,60.24096386,62e15dfab54f025985de6b5c,667045947eb812cbdacbf325,66704a7dad60bee6413ece91,,,,,,,,,,,,,,,,,,,,,,,,,,,,,,,,,,,,1165.3201,1171.6018,0,0,0,1,1,SoundStimuli/Kiss_Prince_Cover5S.wav,,,,,,,,,,,,,,,,,,,,,,,,,,,,,,,,,,,,,,,,,,,,,,,,,,,,,,,,,,
,,,,,616299,001,2024-06-17_09h40.27.772,experiment,2024.1.5,Win32,60.24096386,62e15dfab54f025985de6b5c,667045947eb812cbdacbf325,66704a7dad60bee6413ece91,,,,,,,,,,,,,,,,,,,,,,,,,,,,,,,,,,,,1171.6024,1179.0347,0,1,1,0,1,SoundStimuli/Kiss_Prince_Original5S.wav,,,,,,,,,,,,,,,,,,,,,,,,,,,,,,,,,,,,,,,,,,,,,,,,,,,,,,,,,,
,,,,,616299,001,2024-06-17_09h40.27.772,experiment,2024.1.5,Win32,60.24096386,62e15dfab54f025985de6b5c,667045947eb812cbdacbf325,66704a7dad60bee6413ece91,,,,,,,,,,,,,,,,,,,,,,,,,,,,,,,,,,,,,,,,,,,,1179.035,1180.8182,2.811111026,1.7699,0,12,12,14,1,song_indices/Kiss_Prince.csv,,,,,,,,,,,,,,,,,,,,,,,,,,,,,,,,,,,,,,,,,,,,,,,,
,,,,,616299,001,2024-06-17_09h40.27.772,experiment,2024.1.5,Win32,60.24096386,62e15dfab54f025985de6b5c,667045947eb812cbdacbf325,66704a7dad60bee6413ece91,,,,,,,,,,,,,,,,,,,,,,,,,,,,,,,,,,,,1180.8206,1186.9017,0,0,0,0,1,SoundStimuli/YouLightUpMyLife_DebbyBoone_Original5S.wav,,,,,,,,,,,,,,,,,,,,,,,,,,,,,,,,,,,,,,,,,,,,,,,,,,,,,,,,,,
,,,,,616299,001,2024-06-17_09h40.27.772,experiment,2024.1.5,Win32,60.24096386,62e15dfab54f025985de6b5c,667045947eb812cbdacbf325,66704a7dad60bee6413ece91,,,,,,,,,,,,,,,,,,,,,,,,,,,,,,,,,,,,1186.9021,1193.3514,0,1,1,1,1,SoundStimuli/YouLightUpMyLife_DebbyBoone_Cover5S.wav,,,,,,,,,,,,,,,,,,,,,,,,,,,,,,,,,,,,,,,,,,,,,,,,,,,,,,,,,,
,,,,,616299,001,2024-06-17_09h40.27.772,experiment,2024.1.5,Win32,60.24096386,62e15dfab54f025985de6b5c,667045947eb812cbdacbf325,66704a7dad60bee6413ece91,,,,,,,,,,,,,,,,,,,,,,,,,,,,,,,,,,,,,,,,,,,,1193.3515,1194.7682,5.550000085,1.4124,0,13,13,4,1,song_indices/YouLightUpMyLife_DebbyBoone.csv,,,,,,,,,,,,,,,,,,,,,,,,,,,,,,,,,,,,,,,,,,,,,,,,
,,,,,616299,001,2024-06-17_09h40.27.772,experiment,2024.1.5,Win32,60.24096386,62e15dfab54f025985de6b5c,667045947eb812cbdacbf325,66704a7dad60bee6413ece91,,,,,,,,,,,,,,,,,,,,,,,,,,,,,,,,,,,,1194.7694,1201.7703,0,0,0,1,1,SoundStimuli/Dilemma_NellyKellyRowland_Cover5S.wav,,,,,,,,,,,,,,,,,,,,,,,,,,,,,,,,,,,,,,,,,,,,,,,,,,,,,,,,,,
,,,,,616299,001,2024-06-17_09h40.27.772,experiment,2024.1.5,Win32,60.24096386,62e15dfab54f025985de6b5c,667045947eb812cbdacbf325,66704a7dad60bee6413ece91,,,,,,,,,,,,,,,,,,,,,,,,,,,,,,,,,,,,1201.7705,1207.9681,0,1,1,0,1,SoundStimuli/Dilemma_NellyKellyRowland_Original5S.wav,,,,,,,,,,,,,,,,,,,,,,,,,,,,,,,,,,,,,,,,,,,,,,,,,,,,,,,,,,
,,,,,616299,001,2024-06-17_09h40.27.772,experiment,2024.1.5,Win32,60.24096386,62e15dfab54f025985de6b5c,667045947eb812cbdacbf325,66704a7dad60bee6413ece91,,,,,,,,,,,,,,,,,,,,,,,,,,,,,,,,,,,,,,,,,,,,1207.9683,1210.9687,3.172222137,2.9926,0,14,14,2,1,song_indices/Dilemma_NellyKellyRowland.csv,,,,,,,,,,,,,,,,,,,,,,,,,,,,,,,,,,,,,,,,,,,,,,,,
,,,,,616299,001,2024-06-17_09h40.27.772,experiment,2024.1.5,Win32,60.24096386,62e15dfab54f025985de6b5c,667045947eb812cbdacbf325,66704a7dad60bee6413ece91,,,,,,,,,,,,,,,,,,,,,,,,,,,,,,,,,,,,1210.9708,1217.7377,0,0,0,0,1,SoundStimuli/BlurredLines_RobinThicke_Original5S.wav,,,,,,,,,,,,,,,,,,,,,,,,,,,,,,,,,,,,,,,,,,,,,,,,,,,,,,,,,,
,,,,,616299,001,2024-06-17_09h40.27.772,experiment,2024.1.5,Win32,60.24096386,62e15dfab54f025985de6b5c,667045947eb812cbdacbf325,66704a7dad60bee6413ece91,,,,,,,,,,,,,,,,,,,,,,,,,,,,,,,,,,,,1217.738,1224.8377,0,1,1,1,1,SoundStimuli/BlurredLines_RobinThicke_Cover5S.wav,,,,,,,,,,,,,,,,,,,,,,,,,,,,,,,,,,,,,,,,,,,,,,,,,,,,,,,,,,
,,,,,616299,001,2024-06-17_09h40.27.772,experiment,2024.1.5,Win32,60.24096386,62e15dfab54f025985de6b5c,667045947eb812cbdacbf325,66704a7dad60bee6413ece91,,,,,,,,,,,,,,,,,,,,,,,,,,,,,,,,,,,,,,,,,,,,1224.8378,1227.0681,4.85555564,2.2275,0,15,15,9,1,song_indices/BlurredLines_RobinThicke.csv,,,,,,,,,,,,,,,,,,,,,,,,,,,,,,,,,,,,,,,,,,,,,,,,
,,,,,616299,001,2024-06-17_09h40.27.772,experiment,2024.1.5,Win32,60.24096386,62e15dfab54f025985de6b5c,667045947eb812cbdacbf325,66704a7dad60bee6413ece91,,,,,,,,,,,,,,,,,,,,,,,,,,,,,,,,,,,,1227.0692,1234.6017,0,0,0,1,1,SoundStimuli/TikTok_Kesha_Cover5S.wav,,,,,,,,,,,,,,,,,,,,,,,,,,,,,,,,,,,,,,,,,,,,,,,,,,,,,,,,,,
,,,,,616299,001,2024-06-17_09h40.27.772,experiment,2024.1.5,Win32,60.24096386,62e15dfab54f025985de6b5c,667045947eb812cbdacbf325,66704a7dad60bee6413ece91,,,,,,,,,,,,,,,,,,,,,,,,,,,,,,,,,,,,1234.602,1240.8182,0,1,1,0,1,SoundStimuli/TikTok_Kesha_Original5S.wav,,,,,,,,,,,,,,,,,,,,,,,,,,,,,,,,,,,,,,,,,,,,,,,,,,,,,,,,,,
,,,,,616299,001,2024-06-17_09h40.27.772,experiment,2024.1.5,Win32,60.24096386,62e15dfab54f025985de6b5c,667045947eb812cbdacbf325,66704a7dad60bee6413ece91,,,,,,,,,,,,,,,,,,,,,,,,,,,,,,,,,,,,,,,,,,,,1240.8183,1245.4848,2.60555564,4.6589,0,16,16,3,1,song_indices/TikTok_Kesha.csv,,,,,,,,,,,,,,,,,,,,,,,,,,,,,,,,,,,,,,,,,,,,,,,,
,,,,,616299,001,2024-06-17_09h40.27.772,experiment,2024.1.5,Win32,60.24096386,62e15dfab54f025985de6b5c,667045947eb812cbdacbf325,66704a7dad60bee6413ece91,,,,,,,,,,,,,,,,,,,,,,,,,,,,,,,,,,,,1245.4857,1251.2015,0,0,0,1,1,SoundStimuli/Levitating_DuaLipa_Cover5S.wav,,,,,,,,,,,,,,,,,,,,,,,,,,,,,,,,,,,,,,,,,,,,,,,,,,,,,,,,,,
,,,,,616299,001,2024-06-17_09h40.27.772,experiment,2024.1.5,Win32,60.24096386,62e15dfab54f025985de6b5c,667045947eb812cbdacbf325,66704a7dad60bee6413ece91,,,,,,,,,,,,,,,,,,,,,,,,,,,,,,,,,,,,1251.2019,1257.2181,0,1,1,0,1,SoundStimuli/Levitating_DuaLipa_Original5S.wav,,,,,,,,,,,,,,,,,,,,,,,,,,,,,,,,,,,,,,,,,,,,,,,,,,,,,,,,,,
,,,,,616299,001,2024-06-17_09h40.27.772,experiment,2024.1.5,Win32,60.24096386,62e15dfab54f025985de6b5c,667045947eb812cbdacbf325,66704a7dad60bee6413ece91,,,,,,,,,,,,,,,,,,,,,,,,,,,,,,,,,,,,,,,,,,,,1257.2182,1260.0848,2.638888889,2.8637,0,17,17,10,1,song_indices/Levitating_DuaLipa.csv,,,,,,,,,,,,,,,,,,,,,,,,,,,,,,,,,,,,,,,,,,,,,,,,
,,,,,616299,001,2024-06-17_09h40.27.772,experiment,2024.1.5,Win32,60.24096386,62e15dfab54f025985de6b5c,667045947eb812cbdacbf325,66704a7dad60bee6413ece91,,,,,,,,,,,,,,,,,,,,,,,,,,,,,,,,,,,,1260.0854,1264.0685,0,0,0,1,1,SoundStimuli/UnbreakMyHeart_ToniBraxton_Cover5S.wav,,,,,,,,,,,,,,,,,,,,,,,,,,,,,,,,,,,,,,,,,,,,,,,,,,,,,,,,,,
,,,,,616299,001,2024-06-17_09h40.27.772,experiment,2024.1.5,Win32,60.24096386,62e15dfab54f025985de6b5c,667045947eb812cbdacbf325,66704a7dad60bee6413ece91,,,,,,,,,,,,,,,,,,,,,,,,,,,,,,,,,,,,1264.069,1270.1682,0,1,1,0,1,SoundStimuli/UnbreakMyHeart_ToniBraxton_Original5S.wav,,,,,,,,,,,,,,,,,,,,,,,,,,,,,,,,,,,,,,,,,,,,,,,,,,,,,,,,,,
,,,,,616299,001,2024-06-17_09h40.27.772,experiment,2024.1.5,Win32,60.24096386,62e15dfab54f025985de6b5c,667045947eb812cbdacbf325,66704a7dad60bee6413ece91,,,,,,,,,,,,,,,,,,,,,,,,,,,,,,,,,,,,,,,,,,,,1270.1684,1272.2383,2.666666667,2.0692,0,18,18,16,1,song_indices/UnbreakMyHeart_ToniBraxton.csv,,,,,,,,,,,,,,,,,,,,,,,,,,,,,,,,,,,,,,,,,,,,,,,,
,,,,,616299,001,2024-06-17_09h40.27.772,experiment,2024.1.5,Win32,60.24096386,62e15dfab54f025985de6b5c,667045947eb812cbdacbf325,66704a7dad60bee6413ece91,,,,,,,,,,,,,,,,,,,,,,,,,,,,,,,,,,,,1272.2389,1280.0688,0,0,0,1,1,SoundStimuli/Dreams_FleetwoodMac_Cover5S.wav,,,,,,,,,,,,,,,,,,,,,,,,,,,,,,,,,,,,,,,,,,,,,,,,,,,,,,,,,,
,,,,,616299,001,2024-06-17_09h40.27.772,experiment,2024.1.5,Win32,60.24096386,62e15dfab54f025985de6b5c,667045947eb812cbdacbf325,66704a7dad60bee6413ece91,,,,,,,,,,,,,,,,,,,,,,,,,,,,,,,,,,,,1280.0692,1286.5851,0,1,1,0,1,SoundStimuli/Dreams_FleetwoodMac_Original5S.wav,,,,,,,,,,,,,,,,,,,,,,,,,,,,,,,,,,,,,,,,,,,,,,,,,,,,,,,,,,
,,,,,616299,001,2024-06-17_09h40.27.772,experiment,2024.1.5,Win32,60.24096386,62e15dfab54f025985de6b5c,667045947eb812cbdacbf325,66704a7dad60bee6413ece91,,,,,,,,,,,,,,,,,,,,,,,,,,,,,,,,,,,,,,,,,,,,1286.5853,1291.4182,2.611111111,4.8319,0,19,19,1,1,song_indices/Dreams_FleetwoodMac.csv,,,,,,,,,,,,,,,,,,,,,,,,,,,,,,,,,,,,,,,,,,,,,,,,
,,,,,616299,001,2024-06-17_09h40.27.772,experiment,2024.1.5,Win32,60.24096386,62e15dfab54f025985de6b5c,667045947eb812cbdacbf325,66704a7dad60bee6413ece91,,,,,,,,,,,,,,,,,,,,,,,,,,,,,,,,,,,,1291.4192,1297.3517,0,0,0,0,1,SoundStimuli/Respect_ArethaFranklin_Original5S.wav,,,,,,,,,,,,,,,,,,,,,,,,,,,,,,,,,,,,,,,,,,,,,,,,,,,,,,,,,,
,,,,,616299,001,2024-06-17_09h40.27.772,experiment,2024.1.5,Win32,60.24096386,62e15dfab54f025985de6b5c,667045947eb812cbdacbf325,66704a7dad60bee6413ece91,,,,,,,,,,,,,,,,,,,,,,,,,,,,,,,,,,,,1297.3523,1303.4181,0,1,1,1,1,SoundStimuli/Respect_ArethaFranklin_Cover5S.wav,,,,,,,,,,,,,,,,,,,,,,,,,,,,,,,,,,,,,,,,,,,,,,,,,,,,,,,,,,
,,,,,616299,001,2024-06-17_09h40.27.772,experiment,2024.1.5,Win32,60.24096386,62e15dfab54f025985de6b5c,667045947eb812cbdacbf325,66704a7dad60bee6413ece91,,,,,,,,,,,,,,,,,,,,,,,,,,,,,,,,,,,,,,,,,,,,1303.4184,1304.8854,1.577777863,1.4526,0,20,20,0,1,song_indices/Respect_ArethaFranklin.csv,,,,,,,,,,,,,,,,,,,,,,,,,,,,,,,,,,,,,,,,,,,,,,,,
,,,,,616299,001,2024-06-17_09h40.27.772,experiment,2024.1.5,Win32,60.24096386,62e15dfab54f025985de6b5c,667045947eb812cbdacbf325,66704a7dad60bee6413ece91,,,,,,,,,,,,,,,,,,,,,,,,,,,,,,,,,,,,1304.8873,1310.0182,0,0,0,1,1,SoundStimuli/JoyToTheWorld_ThreeDogNight_Cover5S.wav,,,,,,,,,,,,,,,,,,,,,,,,,,,,,,,,,,,,,,,,,,,,,,,,,,,,,,,,,,
,,,,,616299,001,2024-06-17_09h40.27.772,experiment,2024.1.5,Win32,60.24096386,62e15dfab54f025985de6b5c,667045947eb812cbdacbf325,66704a7dad60bee6413ece91,,,,,,,,,,,,,,,,,,,,,,,,,,,,,,,,,,,,1310.0186,1316.1347,0,1,1,0,1,SoundStimuli/JoyToTheWorld_ThreeDogNight_Original5S.wav,,,,,,,,,,,,,,,,,,,,,,,,,,,,,,,,,,,,,,,,,,,,,,,,,,,,,,,,,,
,,,,,616299,001,2024-06-17_09h40.27.772,experiment,2024.1.5,Win32,60.24096386,62e15dfab54f025985de6b5c,667045947eb812cbdacbf325,66704a7dad60bee6413ece91,,,,,,,,,,,,,,,,,,,,,,,,,,,,,,,,,,,,,,,,,,,,1316.1349,1323.5518,3.433333503,7.4056,0,21,21,8,1,song_indices/JoyToTheWorld_ThreeDogNight.csv,,,,,,,,,,,,,,,,,,,,,,,,,,,,,,,,,,,,,,,,,,,,,,,,
,,,,,616299,001,2024-06-17_09h40.27.772,experiment,2024.1.5,Win32,60.24096386,62e15dfab54f025985de6b5c,667045947eb812cbdacbf325,66704a7dad60bee6413ece91,,,,,,,,,,,,,,,,,,,,,,,,,,,,,,,,,,,,1323.5532,1330.7847,0,0,0,0,1,SoundStimuli/SomebodyThatIUsedtoKnow_Gotye_Original5S.wav,,,,,,,,,,,,,,,,,,,,,,,,,,,,,,,,,,,,,,,,,,,,,,,,,,,,,,,,,,
,,,,,616299,001,2024-06-17_09h40.27.772,experiment,2024.1.5,Win32,60.24096386,62e15dfab54f025985de6b5c,667045947eb812cbdacbf325,66704a7dad60bee6413ece91,,,,,,,,,,,,,,,,,,,,,,,,,,,,,,,,,,,,1330.7851,1337.5874,0,1,1,1,1,SoundStimuli/SomebodyThatIUsedtoKnow_Gotye_Cover5S.wav,,,,,,,,,,,,,,,,,,,,,,,,,,,,,,,,,,,,,,,,,,,,,,,,,,,,,,,,,,
,,,,,616299,001,2024-06-17_09h40.27.772,experiment,2024.1.5,Win32,60.24096386,62e15dfab54f025985de6b5c,667045947eb812cbdacbf325,66704a7dad60bee6413ece91,,,,,,,,,,,,,,,,,,,,,,,,,,,,,,,,,,,,,,,,,,,,1337.5876,1340.6516,4.038889143,3.0569,0,22,22,7,1,song_indices/SomebodyThatIUsedtoKnow_Gotye.csv,,,,,,,,,,,,,,,,,,,,,,,,,,,,,,,,,,,,,,,,,,,,,,,,
,,,,,616299,001,2024-06-17_09h40.27.772,experiment,2024.1.5,Win32,60.24096386,62e15dfab54f025985de6b5c,667045947eb812cbdacbf325,66704a7dad60bee6413ece91,,,,,,,,,,,,,,,,,,,,,,,,,,,,,,,,,,,,1340.6526,1346.6681,0,0,0,1,1,SoundStimuli/TheSign_AceOfBase_Cover5S.wav,,,,,,,,,,,,,,,,,,,,,,,,,,,,,,,,,,,,,,,,,,,,,,,,,,,,,,,,,,
,,,,,616299,001,2024-06-17_09h40.27.772,experiment,2024.1.5,Win32,60.24096386,62e15dfab54f025985de6b5c,667045947eb812cbdacbf325,66704a7dad60bee6413ece91,,,,,,,,,,,,,,,,,,,,,,,,,,,,,,,,,,,,1346.6685,1352.8351,0,1,1,0,1,SoundStimuli/TheSign_AceOfBase_Original5S.wav,,,,,,,,,,,,,,,,,,,,,,,,,,,,,,,,,,,,,,,,,,,,,,,,,,,,,,,,,,
,,,,,616299,001,2024-06-17_09h40.27.772,experiment,2024.1.5,Win32,60.24096386,62e15dfab54f025985de6b5c,667045947eb812cbdacbf325,66704a7dad60bee6413ece91,,,,,,,,,,,,,,,,,,,,,,,,,,,,,,,,,,,,,,,,,,,,1352.8353,1354.6849,5.011111365,1.8385,0,23,23,5,1,song_indices/TheSign_AceOfBase.csv,,,,,,,,,,,,,,,,,,,,,,,,,,,,,,,,,,,,,,,,,,,,,,,,
,,,,,616299,001,2024-06-17_09h40.27.772,experiment,2024.1.5,Win32,60.24096386,62e15dfab54f025985de6b5c,667045947eb812cbdacbf325,66704a7dad60bee6413ece91,,,,,,,,,,,,,,,,,,,,,,,,,,,,,,,,,,,,,,,,,,,,,,,,,,,,,,1354.6851,1354.6851,,,,0,2,2,2,1,choose_song_b3.csv,,,,,,,,,,,,,,,,,,,,,,,,,,,,,,,,,,,,,
,,,,,616299,001,2024-06-17_09h40.27.772,experiment,2024.1.5,Win32,60.24096386,62e15dfab54f025985de6b5c,667045947eb812cbdacbf325,66704a7dad60bee6413ece91,,,,,,,,,,,,,,,,,,,,,,,,,,,,,,,,,,,,,,,,,,,,,,,,,,,,,,,,,,,,,,,,,42,Item 2,"I started playing the violin at the age of eight and upwards, in school with my siblings. I also took vocal lessons at 15 for a few years. I've done a small performance for a talent show culminating from my vocal practices.",Item 6,"Spotify, Apple Music",5,7,"Make food, meditate, chores, during hygiene routine",Never,Never,Often,Sometimes,Rarely,Always,Sometimes,Never,Sometimes,Rarely,Sometimes,Sometimes,Rarely,Always,Sometimes,Sometimes,Can't think of any other ones.,R&B,Hip-Hop,Pop,"Not really, I've been listening to quite a few songs from my childhood.","I listen throughout my entire day most days, even when I go to sleep.",0,0,0,0,1,,
,,,,,616299,001,2024-06-17_09h40.27.772,experiment,2024.1.5,Win32,60.24096386,62e15dfab54f025985de6b5c,667045947eb812cbdacbf325,66704a7dad60bee6413ece91,,,,,,,,,,,,,,,,,,,,,,,,,,,,,,,,,,,,,,,,,,,,,,,,,,,,,,,,,,,,,,,,,,,,,,,,,,,,,,,,,,,,,,,,,,,,,,,,,,,,1854.8104,1857.035
