welcome.started,welcome.stopped,space_to_continue.keys,space_to_continue.rt,space_to_continue.duration,participant,session,date,expName,psychopyVersion,OS,frameRate,PROLIFIC_PID,STUDY_ID,SESSION_ID,consent.consent,consent.consent_recontact,consent_check.started,consent_check.stopped,calibration_ready.started,calibration_ready.stopped,cal_ready.keys,cal_ready.rt,cal_ready.duration,calibration.started,calibration.stopped,mouse.x,mouse.y,mouse.leftButton,mouse.midButton,mouse.rightButton,mouse.time,mouse.clicked_name,move_on.keys,move_on.rt,move_on.duration,instructions.started,instructions.stopped,next.keys,next.rt,next.duration,practice_trial.started,practice_trial.stopped,practice_slider.response,practice_slider.rt,ready.started,ready.stopped,key_resp.keys,key_resp.rt,key_resp.duration,play_sound.started,play_sound.stopped,trials.thisRepN,trials.thisTrialN,trials.thisN,trials.thisIndex,trials.ran,orig_or_cover,rating.started,rating.stopped,slider.response,slider.rt,songs.thisRepN,songs.thisTrialN,songs.thisN,songs.thisIndex,songs.ran,song_id,short_break.started,short_break.stopped,space_to_move_on.keys,space_to_move_on.rt,space_to_move_on.duration,blocks.thisRepN,blocks.thisTrialN,blocks.thisN,blocks.thisIndex,blocks.ran,block,survey.age,survey.musician,survey.music_making,survey.listen_time,survey.medium,survey.music_seeking,survey.music_choice,survey.activities,survey.question1.Classic rock,survey.question1.Electronic (EDM),survey.question1.A cappella,survey.question1.Hip hop,survey.question1.Country,survey.question1.Alternative rock,survey.question1.Metal,survey.question1.Reggae,survey.question1.Classical,survey.question1.Jazz,survey.question1.Disco,survey.question1.Ambient,survey.question1.Pop,survey.question1.Latin,survey.question1.R&B,survey.question1.Folk/indie,survey.other_genres,survey.genres_ranked.text1,survey.genres_ranked.text2,survey.genres_ranked.text3,survey.habit_change,survey.habits,experiment.thisRepN,experiment.thisTrialN,experiment.thisN,experiment.thisIndex,experiment.ran,goodbye.started,goodbye.stopped
0.0011,9.1729,space,9.1548,,621704,001,2024-06-14_13h24.10.289,experiment,2024.1.5,Win32,59.88023952,6437848cce0b587f816052e9,666b5f73dbba3f0cd916b177,666c6f7abe9b5aea8b5bbba4,,,,,,,,,,,,,,,,,,,,,,,,,,,,,,,,,,,,,,,,,,,,,,,,,,,,,,,,,,,,,,,,,,,,,,,,,,,,,,,,,,,,,,,,,,,,,,,,,,,,,
,,,,,621704,001,2024-06-14_13h24.10.289,experiment,2024.1.5,Win32,59.88023952,6437848cce0b587f816052e9,666b5f73dbba3f0cd916b177,666c6f7abe9b5aea8b5bbba4,yes,yes,,,,,,,,,,,,,,,,,,,,,,,,,,,,,,,,,,,,,,,,,,,,,,,,,,,,,,,,,,,,,,,,,,,,,,,,,,,,,,,,,,,,,,,,,,,,,,,,,,,
,,,,,621704,001,2024-06-14_13h24.10.289,experiment,2024.1.5,Win32,59.88023952,6437848cce0b587f816052e9,666b5f73dbba3f0cd916b177,666c6f7abe9b5aea8b5bbba4,,,51.9507,51.951,,,,,,,,,,,,,,,,,,,,,,,,,,,,,,,,,,,,,,,,,,,,,,,,,,,,,,,,,,,,,,,,,,,,,,,,,,,,,,,,,,,,,,,,,,,,,,,,,
,,,,,621704,001,2024-06-14_13h24.10.289,experiment,2024.1.5,Win32,59.88023952,6437848cce0b587f816052e9,666b5f73dbba3f0cd916b177,666c6f7abe9b5aea8b5bbba4,,,,,51.9554,60.4576,space,8.4327,,60.4577,73.4372,[-0.032389283180236816],[-0.43359375],[1],[0],[0],[4.507299999952238],[],right,2.9599,,73.4469,100.4122,space,26.9415,,100.4126,116.5587,6.262427412,16.1208,116.559,119.7034,space,3.1275,,119.7393,125.8197,0,0,0,0,1,SoundStimuli/IllMakeLoveToYou_BoyzIIMen_Original5S.wav,,,,,,,,,,,,,,,,,,,,,,,,,,,,,,,,,,,,,,,,,,,,,,,,,,,,,,,,,,
,,,,,621704,001,2024-06-14_13h24.10.289,experiment,2024.1.5,Win32,59.88023952,6437848cce0b587f816052e9,666b5f73dbba3f0cd916b177,666c6f7abe9b5aea8b5bbba4,,,,,,,,,,,,,,,,,,,,,,,,,,,,,,,,,,,,125.8206,131.7601,0,1,1,1,1,SoundStimuli/IllMakeLoveToYou_BoyzIIMen_Cover5S.wav,,,,,,,,,,,,,,,,,,,,,,,,,,,,,,,,,,,,,,,,,,,,,,,,,,,,,,,,,,
,,,,,621704,001,2024-06-14_13h24.10.289,experiment,2024.1.5,Win32,59.88023952,6437848cce0b587f816052e9,666b5f73dbba3f0cd916b177,666c6f7abe9b5aea8b5bbba4,,,,,,,,,,,,,,,,,,,,,,,,,,,,,,,,,,,,,,,,,,,,131.7691,135.0727,6.324892852,3.2923,0,0,0,6,1,song_indices/IllMakeLoveToYou_BoyzIIMen.csv,,,,,,,,,,,,,,,,,,,,,,,,,,,,,,,,,,,,,,,,,,,,,,,,
,,,,,621704,001,2024-06-14_13h24.10.289,experiment,2024.1.5,Win32,59.88023952,6437848cce0b587f816052e9,666b5f73dbba3f0cd916b177,666c6f7abe9b5aea8b5bbba4,,,,,,,,,,,,,,,,,,,,,,,,,,,,,,,,,,,,135.0743,141.0964,0,0,0,0,1,SoundStimuli/AChangeIsGonnaCome_SamCooke_Original5S.wav,,,,,,,,,,,,,,,,,,,,,,,,,,,,,,,,,,,,,,,,,,,,,,,,,,,,,,,,,,
,,,,,621704,001,2024-06-14_13h24.10.289,experiment,2024.1.5,Win32,59.88023952,6437848cce0b587f816052e9,666b5f73dbba3f0cd916b177,666c6f7abe9b5aea8b5bbba4,,,,,,,,,,,,,,,,,,,,,,,,,,,,,,,,,,,,141.1049,145.8117,0,1,1,1,1,SoundStimuli/AChangeIsGonnaCome_SamCooke_Cover5S.wav,,,,,,,,,,,,,,,,,,,,,,,,,,,,,,,,,,,,,,,,,,,,,,,,,,,,,,,,,,
,,,,,621704,001,2024-06-14_13h24.10.289,experiment,2024.1.5,Win32,59.88023952,6437848cce0b587f816052e9,666b5f73dbba3f0cd916b177,666c6f7abe9b5aea8b5bbba4,,,,,,,,,,,,,,,,,,,,,,,,,,,,,,,,,,,,,,,,,,,,145.8118,147.2191,6.324892852,1.3884,0,1,1,17,1,song_indices/AChangeIsGonnaCome_SamCooke.csv,,,,,,,,,,,,,,,,,,,,,,,,,,,,,,,,,,,,,,,,,,,,,,,,
,,,,,621704,001,2024-06-14_13h24.10.289,experiment,2024.1.5,Win32,59.88023952,6437848cce0b587f816052e9,666b5f73dbba3f0cd916b177,666c6f7abe9b5aea8b5bbba4,,,,,,,,,,,,,,,,,,,,,,,,,,,,,,,,,,,,147.2206,153.9247,0,0,0,1,1,SoundStimuli/BridgeOverTroubledWater_SimonAndGarfunkel_Cover5S.wav,,,,,,,,,,,,,,,,,,,,,,,,,,,,,,,,,,,,,,,,,,,,,,,,,,,,,,,,,,
,,,,,621704,001,2024-06-14_13h24.10.289,experiment,2024.1.5,Win32,59.88023952,6437848cce0b587f816052e9,666b5f73dbba3f0cd916b177,666c6f7abe9b5aea8b5bbba4,,,,,,,,,,,,,,,,,,,,,,,,,,,,,,,,,,,,153.9335,160.2482,0,1,1,0,1,SoundStimuli/BridgeOverTroubledWater_SimonAndGarfunkel_Original5S.wav,,,,,,,,,,,,,,,,,,,,,,,,,,,,,,,,,,,,,,,,,,,,,,,,,,,,,,,,,,
,,,,,621704,001,2024-06-14_13h24.10.289,experiment,2024.1.5,Win32,59.88023952,6437848cce0b587f816052e9,666b5f73dbba3f0cd916b177,666c6f7abe9b5aea8b5bbba4,,,,,,,,,,,,,,,,,,,,,,,,,,,,,,,,,,,,,,,,,,,,160.2483,162.2295,1.515035749,1.962,0,2,2,1,1,song_indices/BridgeOverTroubledWater_SimonAndGarfunkel.csv,,,,,,,,,,,,,,,,,,,,,,,,,,,,,,,,,,,,,,,,,,,,,,,,
,,,,,621704,001,2024-06-14_13h24.10.289,experiment,2024.1.5,Win32,59.88023952,6437848cce0b587f816052e9,666b5f73dbba3f0cd916b177,666c6f7abe9b5aea8b5bbba4,,,,,,,,,,,,,,,,,,,,,,,,,,,,,,,,,,,,162.2309,168.3924,0,0,0,0,1,SoundStimuli/LikeARollingStone_BobDylan_Original5S.wav,,,,,,,,,,,,,,,,,,,,,,,,,,,,,,,,,,,,,,,,,,,,,,,,,,,,,,,,,,
,,,,,621704,001,2024-06-14_13h24.10.289,experiment,2024.1.5,Win32,59.88023952,6437848cce0b587f816052e9,666b5f73dbba3f0cd916b177,666c6f7abe9b5aea8b5bbba4,,,,,,,,,,,,,,,,,,,,,,,,,,,,,,,,,,,,168.4007,172.7956,0,1,1,1,1,SoundStimuli/LikeARollingStone_BobDylan_Cover5S.wav,,,,,,,,,,,,,,,,,,,,,,,,,,,,,,,,,,,,,,,,,,,,,,,,,,,,,,,,,,
,,,,,621704,001,2024-06-14_13h24.10.289,experiment,2024.1.5,Win32,59.88023952,6437848cce0b587f816052e9,666b5f73dbba3f0cd916b177,666c6f7abe9b5aea8b5bbba4,,,,,,,,,,,,,,,,,,,,,,,,,,,,,,,,,,,,,,,,,,,,172.7959,175.6749,6.363934377,2.8611,0,3,3,12,1,song_indices/LikeARollingStone_BobDylan.csv,,,,,,,,,,,,,,,,,,,,,,,,,,,,,,,,,,,,,,,,,,,,,,,,
,,,,,621704,001,2024-06-14_13h24.10.289,experiment,2024.1.5,Win32,59.88023952,6437848cce0b587f816052e9,666b5f73dbba3f0cd916b177,666c6f7abe9b5aea8b5bbba4,,,,,,,,,,,,,,,,,,,,,,,,,,,,,,,,,,,,175.676,182.2302,0,0,0,0,1,SoundStimuli/Despacito_LuisFonsiDaddyYankee_Original5S.wav,,,,,,,,,,,,,,,,,,,,,,,,,,,,,,,,,,,,,,,,,,,,,,,,,,,,,,,,,,
,,,,,621704,001,2024-06-14_13h24.10.289,experiment,2024.1.5,Win32,59.88023952,6437848cce0b587f816052e9,666b5f73dbba3f0cd916b177,666c6f7abe9b5aea8b5bbba4,,,,,,,,,,,,,,,,,,,,,,,,,,,,,,,,,,,,182.2388,188.8192,0,1,1,1,1,SoundStimuli/Despacito_LuisFonsiDaddyYankee_Cover5S.wav,,,,,,,,,,,,,,,,,,,,,,,,,,,,,,,,,,,,,,,,,,,,,,,,,,,,,,,,,,
,,,,,621704,001,2024-06-14_13h24.10.289,experiment,2024.1.5,Win32,59.88023952,6437848cce0b587f816052e9,666b5f73dbba3f0cd916b177,666c6f7abe9b5aea8b5bbba4,,,,,,,,,,,,,,,,,,,,,,,,,,,,,,,,,,,,,,,,,,,,188.8194,190.8001,6.363934377,1.969,0,4,4,11,1,song_indices/Despacito_LuisFonsiDaddyYankee.csv,,,,,,,,,,,,,,,,,,,,,,,,,,,,,,,,,,,,,,,,,,,,,,,,
,,,,,621704,001,2024-06-14_13h24.10.289,experiment,2024.1.5,Win32,59.88023952,6437848cce0b587f816052e9,666b5f73dbba3f0cd916b177,666c6f7abe9b5aea8b5bbba4,,,,,,,,,,,,,,,,,,,,,,,,,,,,,,,,,,,,190.8016,197.2565,0,0,0,0,1,SoundStimuli/BadDay_DanielPowter_Original5S.wav,,,,,,,,,,,,,,,,,,,,,,,,,,,,,,,,,,,,,,,,,,,,,,,,,,,,,,,,,,
,,,,,621704,001,2024-06-14_13h24.10.289,experiment,2024.1.5,Win32,59.88023952,6437848cce0b587f816052e9,666b5f73dbba3f0cd916b177,666c6f7abe9b5aea8b5bbba4,,,,,,,,,,,,,,,,,,,,,,,,,,,,,,,,,,,,197.2708,204.7609,0,1,1,1,1,SoundStimuli/BadDay_DanielPowter_Cover5S.wav,,,,,,,,,,,,,,,,,,,,,,,,,,,,,,,,,,,,,,,,,,,,,,,,,,,,,,,,,,
,,,,,621704,001,2024-06-14_13h24.10.289,experiment,2024.1.5,Win32,59.88023952,6437848cce0b587f816052e9,666b5f73dbba3f0cd916b177,666c6f7abe9b5aea8b5bbba4,,,,,,,,,,,,,,,,,,,,,,,,,,,,,,,,,,,,,,,,,,,,204.761,205.9831,1.023118534,1.2117,0,5,5,22,1,song_indices/BadDay_DanielPowter.csv,,,,,,,,,,,,,,,,,,,,,,,,,,,,,,,,,,,,,,,,,,,,,,,,
,,,,,621704,001,2024-06-14_13h24.10.289,experiment,2024.1.5,Win32,59.88023952,6437848cce0b587f816052e9,666b5f73dbba3f0cd916b177,666c6f7abe9b5aea8b5bbba4,,,,,,,,,,,,,,,,,,,,,,,,,,,,,,,,,,,,205.9839,212.1157,0,0,0,0,1,SoundStimuli/MackTheKnife_BobbyDarin_Original5S.wav,,,,,,,,,,,,,,,,,,,,,,,,,,,,,,,,,,,,,,,,,,,,,,,,,,,,,,,,,,
,,,,,621704,001,2024-06-14_13h24.10.289,experiment,2024.1.5,Win32,59.88023952,6437848cce0b587f816052e9,666b5f73dbba3f0cd916b177,666c6f7abe9b5aea8b5bbba4,,,,,,,,,,,,,,,,,,,,,,,,,,,,,,,,,,,,212.1246,218.396,0,1,1,1,1,SoundStimuli/MackTheKnife_BobbyDarin_Cover5S.wav,,,,,,,,,,,,,,,,,,,,,,,,,,,,,,,,,,,,,,,,,,,,,,,,,,,,,,,,,,
,,,,,621704,001,2024-06-14_13h24.10.289,experiment,2024.1.5,Win32,59.88023952,6437848cce0b587f816052e9,666b5f73dbba3f0cd916b177,666c6f7abe9b5aea8b5bbba4,,,,,,,,,,,,,,,,,,,,,,,,,,,,,,,,,,,,,,,,,,,,218.3961,221.1517,4.177635402,2.7376,0,6,6,21,1,song_indices/MackTheKnife_BobbyDarin.csv,,,,,,,,,,,,,,,,,,,,,,,,,,,,,,,,,,,,,,,,,,,,,,,,
,,,,,621704,001,2024-06-14_13h24.10.289,experiment,2024.1.5,Win32,59.88023952,6437848cce0b587f816052e9,666b5f73dbba3f0cd916b177,666c6f7abe9b5aea8b5bbba4,,,,,,,,,,,,,,,,,,,,,,,,,,,,,,,,,,,,221.1528,230.0044,0,0,0,0,1,SoundStimuli/Perfect_EdSheeran_Original5S.wav,,,,,,,,,,,,,,,,,,,,,,,,,,,,,,,,,,,,,,,,,,,,,,,,,,,,,,,,,,
,,,,,621704,001,2024-06-14_13h24.10.289,experiment,2024.1.5,Win32,59.88023952,6437848cce0b587f816052e9,666b5f73dbba3f0cd916b177,666c6f7abe9b5aea8b5bbba4,,,,,,,,,,,,,,,,,,,,,,,,,,,,,,,,,,,,230.0138,238.259,0,1,1,1,1,SoundStimuli/Perfect_EdSheeran_Cover5S.wav,,,,,,,,,,,,,,,,,,,,,,,,,,,,,,,,,,,,,,,,,,,,,,,,,,,,,,,,,,
,,,,,621704,001,2024-06-14_13h24.10.289,experiment,2024.1.5,Win32,59.88023952,6437848cce0b587f816052e9,666b5f73dbba3f0cd916b177,666c6f7abe9b5aea8b5bbba4,,,,,,,,,,,,,,,,,,,,,,,,,,,,,,,,,,,,,,,,,,,,238.2592,240.3379,6.153112713,2.0617,0,7,7,0,1,song_indices/Perfect_EdSheeran.csv,,,,,,,,,,,,,,,,,,,,,,,,,,,,,,,,,,,,,,,,,,,,,,,,
,,,,,621704,001,2024-06-14_13h24.10.289,experiment,2024.1.5,Win32,59.88023952,6437848cce0b587f816052e9,666b5f73dbba3f0cd916b177,666c6f7abe9b5aea8b5bbba4,,,,,,,,,,,,,,,,,,,,,,,,,,,,,,,,,,,,240.3393,246.7284,0,0,0,0,1,SoundStimuli/MyGirl_TheTemptations_Original5S.wav,,,,,,,,,,,,,,,,,,,,,,,,,,,,,,,,,,,,,,,,,,,,,,,,,,,,,,,,,,
,,,,,621704,001,2024-06-14_13h24.10.289,experiment,2024.1.5,Win32,59.88023952,6437848cce0b587f816052e9,666b5f73dbba3f0cd916b177,666c6f7abe9b5aea8b5bbba4,,,,,,,,,,,,,,,,,,,,,,,,,,,,,,,,,,,,246.7511,254.416,0,1,1,1,1,SoundStimuli/MyGirl_TheTemptations_Cover5S.wav,,,,,,,,,,,,,,,,,,,,,,,,,,,,,,,,,,,,,,,,,,,,,,,,,,,,,,,,,,
,,,,,621704,001,2024-06-14_13h24.10.289,experiment,2024.1.5,Win32,59.88023952,6437848cce0b587f816052e9,666b5f73dbba3f0cd916b177,666c6f7abe9b5aea8b5bbba4,,,,,,,,,,,,,,,,,,,,,,,,,,,,,,,,,,,,,,,,,,,,254.4165,257.6446,1.312022176,3.2042,0,8,8,15,1,song_indices/MyGirl_TheTemptations.csv,,,,,,,,,,,,,,,,,,,,,,,,,,,,,,,,,,,,,,,,,,,,,,,,
,,,,,621704,001,2024-06-14_13h24.10.289,experiment,2024.1.5,Win32,59.88023952,6437848cce0b587f816052e9,666b5f73dbba3f0cd916b177,666c6f7abe9b5aea8b5bbba4,,,,,,,,,,,,,,,,,,,,,,,,,,,,,,,,,,,,257.6455,263.8403,0,0,0,0,1,SoundStimuli/LikeAPrayer_Madonna_Original5S.wav,,,,,,,,,,,,,,,,,,,,,,,,,,,,,,,,,,,,,,,,,,,,,,,,,,,,,,,,,,
,,,,,621704,001,2024-06-14_13h24.10.289,experiment,2024.1.5,Win32,59.88023952,6437848cce0b587f816052e9,666b5f73dbba3f0cd916b177,666c6f7abe9b5aea8b5bbba4,,,,,,,,,,,,,,,,,,,,,,,,,,,,,,,,,,,,263.8496,270.0478,0,1,1,1,1,SoundStimuli/LikeAPrayer_Madonna_Cover5S.wav,,,,,,,,,,,,,,,,,,,,,,,,,,,,,,,,,,,,,,,,,,,,,,,,,,,,,,,,,,
,,,,,621704,001,2024-06-14_13h24.10.289,experiment,2024.1.5,Win32,59.88023952,6437848cce0b587f816052e9,666b5f73dbba3f0cd916b177,666c6f7abe9b5aea8b5bbba4,,,,,,,,,,,,,,,,,,,,,,,,,,,,,,,,,,,,,,,,,,,,270.0479,272.3372,6.410783636,2.2789,0,9,9,7,1,song_indices/LikeAPrayer_Madonna.csv,,,,,,,,,,,,,,,,,,,,,,,,,,,,,,,,,,,,,,,,,,,,,,,,
,,,,,621704,001,2024-06-14_13h24.10.289,experiment,2024.1.5,Win32,59.88023952,6437848cce0b587f816052e9,666b5f73dbba3f0cd916b177,666c6f7abe9b5aea8b5bbba4,,,,,,,,,,,,,,,,,,,,,,,,,,,,,,,,,,,,272.3383,279.7094,0,0,0,0,1,SoundStimuli/OldTownRoad_LilNasX_Original5S.wav,,,,,,,,,,,,,,,,,,,,,,,,,,,,,,,,,,,,,,,,,,,,,,,,,,,,,,,,,,
,,,,,621704,001,2024-06-14_13h24.10.289,experiment,2024.1.5,Win32,59.88023952,6437848cce0b587f816052e9,666b5f73dbba3f0cd916b177,666c6f7abe9b5aea8b5bbba4,,,,,,,,,,,,,,,,,,,,,,,,,,,,,,,,,,,,279.7276,286.2487,0,1,1,1,1,SoundStimuli/OldTownRoad_LilNasX_Cover5S.wav,,,,,,,,,,,,,,,,,,,,,,,,,,,,,,,,,,,,,,,,,,,,,,,,,,,,,,,,,,
,,,,,621704,001,2024-06-14_13h24.10.289,experiment,2024.1.5,Win32,59.88023952,6437848cce0b587f816052e9,666b5f73dbba3f0cd916b177,666c6f7abe9b5aea8b5bbba4,,,,,,,,,,,,,,,,,,,,,,,,,,,,,,,,,,,,,,,,,,,,286.249,287.7199,6.410783636,1.4621,0,10,10,20,1,song_indices/OldTownRoad_LilNasX.csv,,,,,,,,,,,,,,,,,,,,,,,,,,,,,,,,,,,,,,,,,,,,,,,,
,,,,,621704,001,2024-06-14_13h24.10.289,experiment,2024.1.5,Win32,59.88023952,6437848cce0b587f816052e9,666b5f73dbba3f0cd916b177,666c6f7abe9b5aea8b5bbba4,,,,,,,,,,,,,,,,,,,,,,,,,,,,,,,,,,,,287.7208,294.0196,0,0,0,0,1,SoundStimuli/Mood_24kGoldnianndior_Original5S.wav,,,,,,,,,,,,,,,,,,,,,,,,,,,,,,,,,,,,,,,,,,,,,,,,,,,,,,,,,,
,,,,,621704,001,2024-06-14_13h24.10.289,experiment,2024.1.5,Win32,59.88023952,6437848cce0b587f816052e9,666b5f73dbba3f0cd916b177,666c6f7abe9b5aea8b5bbba4,,,,,,,,,,,,,,,,,,,,,,,,,,,,,,,,,,,,294.0292,302.306,0,1,1,1,1,SoundStimuli/Mood_24kGoldnianndior_Cover5S.wav,,,,,,,,,,,,,,,,,,,,,,,,,,,,,,,,,,,,,,,,,,,,,,,,,,,,,,,,,,
,,,,,621704,001,2024-06-14_13h24.10.289,experiment,2024.1.5,Win32,59.88023952,6437848cce0b587f816052e9,666b5f73dbba3f0cd916b177,666c6f7abe9b5aea8b5bbba4,,,,,,,,,,,,,,,,,,,,,,,,,,,,,,,,,,,,,,,,,,,,302.3062,305.7839,1.374487974,3.4581,0,11,11,5,1,song_indices/Mood_24kGoldnianndior.csv,,,,,,,,,,,,,,,,,,,,,,,,,,,,,,,,,,,,,,,,,,,,,,,,
,,,,,621704,001,2024-06-14_13h24.10.289,experiment,2024.1.5,Win32,59.88023952,6437848cce0b587f816052e9,666b5f73dbba3f0cd916b177,666c6f7abe9b5aea8b5bbba4,,,,,,,,,,,,,,,,,,,,,,,,,,,,,,,,,,,,305.7852,311.8252,0,0,0,0,1,SoundStimuli/AnotherOneBitesTheDust_Queen_Original5S.wav,,,,,,,,,,,,,,,,,,,,,,,,,,,,,,,,,,,,,,,,,,,,,,,,,,,,,,,,,,
,,,,,621704,001,2024-06-14_13h24.10.289,experiment,2024.1.5,Win32,59.88023952,6437848cce0b587f816052e9,666b5f73dbba3f0cd916b177,666c6f7abe9b5aea8b5bbba4,,,,,,,,,,,,,,,,,,,,,,,,,,,,,,,,,,,,311.8338,319.9454,0,1,1,1,1,SoundStimuli/AnotherOneBitesTheDust_Queen_Cover5S.wav,,,,,,,,,,,,,,,,,,,,,,,,,,,,,,,,,,,,,,,,,,,,,,,,,,,,,,,,,,
,,,,,621704,001,2024-06-14_13h24.10.289,experiment,2024.1.5,Win32,59.88023952,6437848cce0b587f816052e9,666b5f73dbba3f0cd916b177,666c6f7abe9b5aea8b5bbba4,,,,,,,,,,,,,,,,,,,,,,,,,,,,,,,,,,,,,,,,,,,,319.9457,320.8264,1.327638715,0.8666,0,12,12,9,1,song_indices/AnotherOneBitesTheDust_Queen.csv,,,,,,,,,,,,,,,,,,,,,,,,,,,,,,,,,,,,,,,,,,,,,,,,
,,,,,621704,001,2024-06-14_13h24.10.289,experiment,2024.1.5,Win32,59.88023952,6437848cce0b587f816052e9,666b5f73dbba3f0cd916b177,666c6f7abe9b5aea8b5bbba4,,,,,,,,,,,,,,,,,,,,,,,,,,,,,,,,,,,,320.8277,327.0498,0,0,0,0,1,SoundStimuli/Smooth_SantanaRobThomas_Original5S.wav,,,,,,,,,,,,,,,,,,,,,,,,,,,,,,,,,,,,,,,,,,,,,,,,,,,,,,,,,,
,,,,,621704,001,2024-06-14_13h24.10.289,experiment,2024.1.5,Win32,59.88023952,6437848cce0b587f816052e9,666b5f73dbba3f0cd916b177,666c6f7abe9b5aea8b5bbba4,,,,,,,,,,,,,,,,,,,,,,,,,,,,,,,,,,,,327.063,333.1903,0,1,1,1,1,SoundStimuli/Smooth_SantanaRobThomas_Cover5S.wav,,,,,,,,,,,,,,,,,,,,,,,,,,,,,,,,,,,,,,,,,,,,,,,,,,,,,,,,,,
,,,,,621704,001,2024-06-14_13h24.10.289,experiment,2024.1.5,Win32,59.88023952,6437848cce0b587f816052e9,666b5f73dbba3f0cd916b177,666c6f7abe9b5aea8b5bbba4,,,,,,,,,,,,,,,,,,,,,,,,,,,,,,,,,,,,,,,,,,,,333.1904,334.9875,5.380099945,1.7845,0,13,13,4,1,song_indices/Smooth_SantanaRobThomas.csv,,,,,,,,,,,,,,,,,,,,,,,,,,,,,,,,,,,,,,,,,,,,,,,,
,,,,,621704,001,2024-06-14_13h24.10.289,experiment,2024.1.5,Win32,59.88023952,6437848cce0b587f816052e9,666b5f73dbba3f0cd916b177,666c6f7abe9b5aea8b5bbba4,,,,,,,,,,,,,,,,,,,,,,,,,,,,,,,,,,,,334.9888,340.9448,0,0,0,0,1,SoundStimuli/BohemianRhapsody_Queen_Original5S.wav,,,,,,,,,,,,,,,,,,,,,,,,,,,,,,,,,,,,,,,,,,,,,,,,,,,,,,,,,,
,,,,,621704,001,2024-06-14_13h24.10.289,experiment,2024.1.5,Win32,59.88023952,6437848cce0b587f816052e9,666b5f73dbba3f0cd916b177,666c6f7abe9b5aea8b5bbba4,,,,,,,,,,,,,,,,,,,,,,,,,,,,,,,,,,,,340.9536,345.0225,0,1,1,1,1,SoundStimuli/BohemianRhapsody_Queen_Cover5S.wav,,,,,,,,,,,,,,,,,,,,,,,,,,,,,,,,,,,,,,,,,,,,,,,,,,,,,,,,,,
,,,,,621704,001,2024-06-14_13h24.10.289,experiment,2024.1.5,Win32,59.88023952,6437848cce0b587f816052e9,666b5f73dbba3f0cd916b177,666c6f7abe9b5aea8b5bbba4,,,,,,,,,,,,,,,,,,,,,,,,,,,,,,,,,,,,,,,,,,,,345.0227,351.8106,5.380099945,6.7787,0,14,14,18,1,song_indices/BohemianRhapsody_Queen.csv,,,,,,,,,,,,,,,,,,,,,,,,,,,,,,,,,,,,,,,,,,,,,,,,
,,,,,621704,001,2024-06-14_13h24.10.289,experiment,2024.1.5,Win32,59.88023952,6437848cce0b587f816052e9,666b5f73dbba3f0cd916b177,666c6f7abe9b5aea8b5bbba4,,,,,,,,,,,,,,,,,,,,,,,,,,,,,,,,,,,,351.8115,358.6504,0,0,0,1,1,SoundStimuli/IWannaDanceWithSomebody_WhitneyHouston_Cover5S.wav,,,,,,,,,,,,,,,,,,,,,,,,,,,,,,,,,,,,,,,,,,,,,,,,,,,,,,,,,,
,,,,,621704,001,2024-06-14_13h24.10.289,experiment,2024.1.5,Win32,59.88023952,6437848cce0b587f816052e9,666b5f73dbba3f0cd916b177,666c6f7abe9b5aea8b5bbba4,,,,,,,,,,,,,,,,,,,,,,,,,,,,,,,,,,,,358.6596,364.2579,0,1,1,0,1,SoundStimuli/IWannaDanceWithSomebody_WhitneyHouston_Original5S.wav,,,,,,,,,,,,,,,,,,,,,,,,,,,,,,,,,,,,,,,,,,,,,,,,,,,,,,,,,,
,,,,,621704,001,2024-06-14_13h24.10.289,experiment,2024.1.5,Win32,59.88023952,6437848cce0b587f816052e9,666b5f73dbba3f0cd916b177,666c6f7abe9b5aea8b5bbba4,,,,,,,,,,,,,,,,,,,,,,,,,,,,,,,,,,,,,,,,,,,,364.2581,368.0189,1.733665504,3.7492,0,15,15,13,1,song_indices/IWannaDanceWithSomebody_WhitneyHouston.csv,,,,,,,,,,,,,,,,,,,,,,,,,,,,,,,,,,,,,,,,,,,,,,,,
,,,,,621704,001,2024-06-14_13h24.10.289,experiment,2024.1.5,Win32,59.88023952,6437848cce0b587f816052e9,666b5f73dbba3f0cd916b177,666c6f7abe9b5aea8b5bbba4,,,,,,,,,,,,,,,,,,,,,,,,,,,,,,,,,,,,368.0202,375.5242,0,0,0,1,1,SoundStimuli/EndlessLove_DianaRossLionelRichie_Cover5S.wav,,,,,,,,,,,,,,,,,,,,,,,,,,,,,,,,,,,,,,,,,,,,,,,,,,,,,,,,,,
,,,,,621704,001,2024-06-14_13h24.10.289,experiment,2024.1.5,Win32,59.88023952,6437848cce0b587f816052e9,666b5f73dbba3f0cd916b177,666c6f7abe9b5aea8b5bbba4,,,,,,,,,,,,,,,,,,,,,,,,,,,,,,,,,,,,375.5331,381.8635,0,1,1,0,1,SoundStimuli/EndlessLove_DianaRossLionelRichie_Original5S.wav,,,,,,,,,,,,,,,,,,,,,,,,,,,,,,,,,,,,,,,,,,,,,,,,,,,,,,,,,,
,,,,,621704,001,2024-06-14_13h24.10.289,experiment,2024.1.5,Win32,59.88023952,6437848cce0b587f816052e9,666b5f73dbba3f0cd916b177,666c6f7abe9b5aea8b5bbba4,,,,,,,,,,,,,,,,,,,,,,,,,,,,,,,,,,,,,,,,,,,,381.8636,384.6086,5.239552169,2.7324,0,16,16,3,1,song_indices/EndlessLove_DianaRossLionelRichie.csv,,,,,,,,,,,,,,,,,,,,,,,,,,,,,,,,,,,,,,,,,,,,,,,,
,,,,,621704,001,2024-06-14_13h24.10.289,experiment,2024.1.5,Win32,59.88023952,6437848cce0b587f816052e9,666b5f73dbba3f0cd916b177,666c6f7abe9b5aea8b5bbba4,,,,,,,,,,,,,,,,,,,,,,,,,,,,,,,,,,,,384.6096,390.8493,0,0,0,0,1,SoundStimuli/LivinOnAPrayer_BonJovi_Original5S.wav,,,,,,,,,,,,,,,,,,,,,,,,,,,,,,,,,,,,,,,,,,,,,,,,,,,,,,,,,,
,,,,,621704,001,2024-06-14_13h24.10.289,experiment,2024.1.5,Win32,59.88023952,6437848cce0b587f816052e9,666b5f73dbba3f0cd916b177,666c6f7abe9b5aea8b5bbba4,,,,,,,,,,,,,,,,,,,,,,,,,,,,,,,,,,,,390.8582,398.537,0,1,1,1,1,SoundStimuli/LivinOnAPrayer_BonJovi_Cover5S.wav,,,,,,,,,,,,,,,,,,,,,,,,,,,,,,,,,,,,,,,,,,,,,,,,,,,,,,,,,,
,,,,,621704,001,2024-06-14_13h24.10.289,experiment,2024.1.5,Win32,59.88023952,6437848cce0b587f816052e9,666b5f73dbba3f0cd916b177,666c6f7abe9b5aea8b5bbba4,,,,,,,,,,,,,,,,,,,,,,,,,,,,,,,,,,,,,,,,,,,,398.5371,399.7848,1.788323211,1.2354,0,17,17,16,1,song_indices/LivinOnAPrayer_BonJovi.csv,,,,,,,,,,,,,,,,,,,,,,,,,,,,,,,,,,,,,,,,,,,,,,,,
,,,,,621704,001,2024-06-14_13h24.10.289,experiment,2024.1.5,Win32,59.88023952,6437848cce0b587f816052e9,666b5f73dbba3f0cd916b177,666c6f7abe9b5aea8b5bbba4,,,,,,,,,,,,,,,,,,,,,,,,,,,,,,,,,,,,399.7859,405.8923,0,0,0,0,1,SoundStimuli/HeatWaves_GlassAnimals_Original5S.wav,,,,,,,,,,,,,,,,,,,,,,,,,,,,,,,,,,,,,,,,,,,,,,,,,,,,,,,,,,
,,,,,621704,001,2024-06-14_13h24.10.289,experiment,2024.1.5,Win32,59.88023952,6437848cce0b587f816052e9,666b5f73dbba3f0cd916b177,666c6f7abe9b5aea8b5bbba4,,,,,,,,,,,,,,,,,,,,,,,,,,,,,,,,,,,,405.9183,414.5125,0,1,1,1,1,SoundStimuli/HeatWaves_GlassAnimals_Cover5S.wav,,,,,,,,,,,,,,,,,,,,,,,,,,,,,,,,,,,,,,,,,,,,,,,,,,,,,,,,,,
,,,,,621704,001,2024-06-14_13h24.10.289,experiment,2024.1.5,Win32,59.88023952,6437848cce0b587f816052e9,666b5f73dbba3f0cd916b177,666c6f7abe9b5aea8b5bbba4,,,,,,,,,,,,,,,,,,,,,,,,,,,,,,,,,,,,,,,,,,,,414.5128,417.4738,1.421337232,2.9411,0,18,18,10,1,song_indices/HeatWaves_GlassAnimals.csv,,,,,,,,,,,,,,,,,,,,,,,,,,,,,,,,,,,,,,,,,,,,,,,,
,,,,,621704,001,2024-06-14_13h24.10.289,experiment,2024.1.5,Win32,59.88023952,6437848cce0b587f816052e9,666b5f73dbba3f0cd916b177,666c6f7abe9b5aea8b5bbba4,,,,,,,,,,,,,,,,,,,,,,,,,,,,,,,,,,,,417.4748,423.3144,0,0,0,1,1,SoundStimuli/StayinAlive_BeeGees_Cover5S.wav,,,,,,,,,,,,,,,,,,,,,,,,,,,,,,,,,,,,,,,,,,,,,,,,,,,,,,,,,,
,,,,,621704,001,2024-06-14_13h24.10.289,experiment,2024.1.5,Win32,59.88023952,6437848cce0b587f816052e9,666b5f73dbba3f0cd916b177,666c6f7abe9b5aea8b5bbba4,,,,,,,,,,,,,,,,,,,,,,,,,,,,,,,,,,,,423.3237,429.3384,0,1,1,0,1,SoundStimuli/StayinAlive_BeeGees_Original5S.wav,,,,,,,,,,,,,,,,,,,,,,,,,,,,,,,,,,,,,,,,,,,,,,,,,,,,,,,,,,
,,,,,621704,001,2024-06-14_13h24.10.289,experiment,2024.1.5,Win32,59.88023952,6437848cce0b587f816052e9,666b5f73dbba3f0cd916b177,666c6f7abe9b5aea8b5bbba4,,,,,,,,,,,,,,,,,,,,,,,,,,,,,,,,,,,,,,,,,,,,429.3386,431.3846,6.473249076,2.0276,0,19,19,2,1,song_indices/StayinAlive_BeeGees.csv,,,,,,,,,,,,,,,,,,,,,,,,,,,,,,,,,,,,,,,,,,,,,,,,
,,,,,621704,001,2024-06-14_13h24.10.289,experiment,2024.1.5,Win32,59.88023952,6437848cce0b587f816052e9,666b5f73dbba3f0cd916b177,666c6f7abe9b5aea8b5bbba4,,,,,,,,,,,,,,,,,,,,,,,,,,,,,,,,,,,,431.3858,437.6318,0,0,0,0,1,SoundStimuli/GodOnlyKnows_TheBeachBoys_Original5S.wav,,,,,,,,,,,,,,,,,,,,,,,,,,,,,,,,,,,,,,,,,,,,,,,,,,,,,,,,,,
,,,,,621704,001,2024-06-14_13h24.10.289,experiment,2024.1.5,Win32,59.88023952,6437848cce0b587f816052e9,666b5f73dbba3f0cd916b177,666c6f7abe9b5aea8b5bbba4,,,,,,,,,,,,,,,,,,,,,,,,,,,,,,,,,,,,437.6404,444.5147,0,1,1,1,1,SoundStimuli/GodOnlyKnows_TheBeachBoys_Cover5S.wav,,,,,,,,,,,,,,,,,,,,,,,,,,,,,,,,,,,,,,,,,,,,,,,,,,,,,,,,,,
,,,,,621704,001,2024-06-14_13h24.10.289,experiment,2024.1.5,Win32,59.88023952,6437848cce0b587f816052e9,666b5f73dbba3f0cd916b177,666c6f7abe9b5aea8b5bbba4,,,,,,,,,,,,,,,,,,,,,,,,,,,,,,,,,,,,,,,,,,,,444.5149,447.3927,1.249556558,2.867,0,20,20,8,1,song_indices/GodOnlyKnows_TheBeachBoys.csv,,,,,,,,,,,,,,,,,,,,,,,,,,,,,,,,,,,,,,,,,,,,,,,,
,,,,,621704,001,2024-06-14_13h24.10.289,experiment,2024.1.5,Win32,59.88023952,6437848cce0b587f816052e9,666b5f73dbba3f0cd916b177,666c6f7abe9b5aea8b5bbba4,,,,,,,,,,,,,,,,,,,,,,,,,,,,,,,,,,,,447.3938,453.5341,0,0,0,0,1,SoundStimuli/StrawberryFieldsForever_TheBeatles_Original5S.wav,,,,,,,,,,,,,,,,,,,,,,,,,,,,,,,,,,,,,,,,,,,,,,,,,,,,,,,,,,
,,,,,621704,001,2024-06-14_13h24.10.289,experiment,2024.1.5,Win32,59.88023952,6437848cce0b587f816052e9,666b5f73dbba3f0cd916b177,666c6f7abe9b5aea8b5bbba4,,,,,,,,,,,,,,,,,,,,,,,,,,,,,,,,,,,,453.5562,460.5727,0,1,1,1,1,SoundStimuli/StrawberryFieldsForever_TheBeatles_Cover5S.wav,,,,,,,,,,,,,,,,,,,,,,,,,,,,,,,,,,,,,,,,,,,,,,,,,,,,,,,,,,
,,,,,621704,001,2024-06-14_13h24.10.289,experiment,2024.1.5,Win32,59.88023952,6437848cce0b587f816052e9,666b5f73dbba3f0cd916b177,666c6f7abe9b5aea8b5bbba4,,,,,,,,,,,,,,,,,,,,,,,,,,,,,,,,,,,,,,,,,,,,460.573,461.7703,1.483802851,1.1784,0,21,21,14,1,song_indices/StrawberryFieldsForever_TheBeatles.csv,,,,,,,,,,,,,,,,,,,,,,,,,,,,,,,,,,,,,,,,,,,,,,,,
,,,,,621704,001,2024-06-14_13h24.10.289,experiment,2024.1.5,Win32,59.88023952,6437848cce0b587f816052e9,666b5f73dbba3f0cd916b177,666c6f7abe9b5aea8b5bbba4,,,,,,,,,,,,,,,,,,,,,,,,,,,,,,,,,,,,461.7714,467.5619,0,0,0,0,1,SoundStimuli/IWantToHoldYourHand_TheBeatles_Original5S.wav,,,,,,,,,,,,,,,,,,,,,,,,,,,,,,,,,,,,,,,,,,,,,,,,,,,,,,,,,,
,,,,,621704,001,2024-06-14_13h24.10.289,experiment,2024.1.5,Win32,59.88023952,6437848cce0b587f816052e9,666b5f73dbba3f0cd916b177,666c6f7abe9b5aea8b5bbba4,,,,,,,,,,,,,,,,,,,,,,,,,,,,,,,,,,,,467.5743,473.6015,0,1,1,1,1,SoundStimuli/IWantToHoldYourHand_TheBeatles_Cover5S.wav,,,,,,,,,,,,,,,,,,,,,,,,,,,,,,,,,,,,,,,,,,,,,,,,,,,,,,,,,,
,,,,,621704,001,2024-06-14_13h24.10.289,experiment,2024.1.5,Win32,59.88023952,6437848cce0b587f816052e9,666b5f73dbba3f0cd916b177,666c6f7abe9b5aea8b5bbba4,,,,,,,,,,,,,,,,,,,,,,,,,,,,,,,,,,,,,,,,,,,,473.6016,476.0975,6.473249076,2.4769,0,22,22,19,1,song_indices/IWantToHoldYourHand_TheBeatles.csv,,,,,,,,,,,,,,,,,,,,,,,,,,,,,,,,,,,,,,,,,,,,,,,,
,,,,,621704,001,2024-06-14_13h24.10.289,experiment,2024.1.5,Win32,59.88023952,6437848cce0b587f816052e9,666b5f73dbba3f0cd916b177,666c6f7abe9b5aea8b5bbba4,,,,,,,,,,,,,,,,,,,,,,,,,,,,,,,,,,,,,,,,,,,,,,,,,,,,,,476.0984,527.8847,space,51.743,,0,0,0,0,1,choose_song_b1.csv,,,,,,,,,,,,,,,,,,,,,,,,,,,,,,,,,,,,,
,,,,,621704,001,2024-06-14_13h24.10.289,experiment,2024.1.5,Win32,59.88023952,6437848cce0b587f816052e9,666b5f73dbba3f0cd916b177,666c6f7abe9b5aea8b5bbba4,,,,,,,,,,,,,,,,,,,,,,,,,,,,,,,,,,,,527.9039,534.0054,0,0,0,0,1,SoundStimuli/JoyToTheWorld_ThreeDogNight_Original5S.wav,,,,,,,,,,,,,,,,,,,,,,,,,,,,,,,,,,,,,,,,,,,,,,,,,,,,,,,,,,
,,,,,621704,001,2024-06-14_13h24.10.289,experiment,2024.1.5,Win32,59.88023952,6437848cce0b587f816052e9,666b5f73dbba3f0cd916b177,666c6f7abe9b5aea8b5bbba4,,,,,,,,,,,,,,,,,,,,,,,,,,,,,,,,,,,,534.0165,539.1469,0,1,1,1,1,SoundStimuli/JoyToTheWorld_ThreeDogNight_Cover5S.wav,,,,,,,,,,,,,,,,,,,,,,,,,,,,,,,,,,,,,,,,,,,,,,,,,,,,,,,,,,
,,,,,621704,001,2024-06-14_13h24.10.289,experiment,2024.1.5,Win32,59.88023952,6437848cce0b587f816052e9,666b5f73dbba3f0cd916b177,666c6f7abe9b5aea8b5bbba4,,,,,,,,,,,,,,,,,,,,,,,,,,,,,,,,,,,,,,,,,,,,539.1471,540.0622,6.473249076,0.897,0,0,0,8,1,song_indices/JoyToTheWorld_ThreeDogNight.csv,,,,,,,,,,,,,,,,,,,,,,,,,,,,,,,,,,,,,,,,,,,,,,,,
,,,,,621704,001,2024-06-14_13h24.10.289,experiment,2024.1.5,Win32,59.88023952,6437848cce0b587f816052e9,666b5f73dbba3f0cd916b177,666c6f7abe9b5aea8b5bbba4,,,,,,,,,,,,,,,,,,,,,,,,,,,,,,,,,,,,540.0635,546.1758,0,0,0,0,1,SoundStimuli/UnbreakMyHeart_ToniBraxton_Original5S.wav,,,,,,,,,,,,,,,,,,,,,,,,,,,,,,,,,,,,,,,,,,,,,,,,,,,,,,,,,,
,,,,,621704,001,2024-06-14_13h24.10.289,experiment,2024.1.5,Win32,59.88023952,6437848cce0b587f816052e9,666b5f73dbba3f0cd916b177,666c6f7abe9b5aea8b5bbba4,,,,,,,,,,,,,,,,,,,,,,,,,,,,,,,,,,,,546.1843,550.179,0,1,1,1,1,SoundStimuli/UnbreakMyHeart_ToniBraxton_Cover5S.wav,,,,,,,,,,,,,,,,,,,,,,,,,,,,,,,,,,,,,,,,,,,,,,,,,,,,,,,,,,
,,,,,621704,001,2024-06-14_13h24.10.289,experiment,2024.1.5,Win32,59.88023952,6437848cce0b587f816052e9,666b5f73dbba3f0cd916b177,666c6f7abe9b5aea8b5bbba4,,,,,,,,,,,,,,,,,,,,,,,,,,,,,,,,,,,,,,,,,,,,550.1793,553.108,1.733665504,2.9121,0,1,1,16,1,song_indices/UnbreakMyHeart_ToniBraxton.csv,,,,,,,,,,,,,,,,,,,,,,,,,,,,,,,,,,,,,,,,,,,,,,,,
,,,,,621704,001,2024-06-14_13h24.10.289,experiment,2024.1.5,Win32,59.88023952,6437848cce0b587f816052e9,666b5f73dbba3f0cd916b177,666c6f7abe9b5aea8b5bbba4,,,,,,,,,,,,,,,,,,,,,,,,,,,,,,,,,,,,553.1093,559.249,0,0,0,0,1,SoundStimuli/Superstition_StevieWonder_Original5S.wav,,,,,,,,,,,,,,,,,,,,,,,,,,,,,,,,,,,,,,,,,,,,,,,,,,,,,,,,,,
,,,,,621704,001,2024-06-14_13h24.10.289,experiment,2024.1.5,Win32,59.88023952,6437848cce0b587f816052e9,666b5f73dbba3f0cd916b177,666c6f7abe9b5aea8b5bbba4,,,,,,,,,,,,,,,,,,,,,,,,,,,,,,,,,,,,559.2576,564.5571,0,1,1,1,1,SoundStimuli/Superstition_StevieWonder_Cover5S.wav,,,,,,,,,,,,,,,,,,,,,,,,,,,,,,,,,,,,,,,,,,,,,,,,,,,,,,,,,,
,,,,,621704,001,2024-06-14_13h24.10.289,experiment,2024.1.5,Win32,59.88023952,6437848cce0b587f816052e9,666b5f73dbba3f0cd916b177,666c6f7abe9b5aea8b5bbba4,,,,,,,,,,,,,,,,,,,,,,,,,,,,,,,,,,,,,,,,,,,,564.5572,566.6769,1.733665504,2.1107,0,2,2,15,1,song_indices/Superstition_StevieWonder.csv,,,,,,,,,,,,,,,,,,,,,,,,,,,,,,,,,,,,,,,,,,,,,,,,
,,,,,621704,001,2024-06-14_13h24.10.289,experiment,2024.1.5,Win32,59.88023952,6437848cce0b587f816052e9,666b5f73dbba3f0cd916b177,666c6f7abe9b5aea8b5bbba4,,,,,,,,,,,,,,,,,,,,,,,,,,,,,,,,,,,,566.6776,573.5259,0,0,0,1,1,SoundStimuli/PokerFace_LadyGaga_Cover5S.wav,,,,,,,,,,,,,,,,,,,,,,,,,,,,,,,,,,,,,,,,,,,,,,,,,,,,,,,,,,
,,,,,621704,001,2024-06-14_13h24.10.289,experiment,2024.1.5,Win32,59.88023952,6437848cce0b587f816052e9,666b5f73dbba3f0cd916b177,666c6f7abe9b5aea8b5bbba4,,,,,,,,,,,,,,,,,,,,,,,,,,,,,,,,,,,,573.5345,580.5546,0,1,1,0,1,SoundStimuli/PokerFace_LadyGaga_Original5S.wav,,,,,,,,,,,,,,,,,,,,,,,,,,,,,,,,,,,,,,,,,,,,,,,,,,,,,,,,,,
,,,,,621704,001,2024-06-14_13h24.10.289,experiment,2024.1.5,Win32,59.88023952,6437848cce0b587f816052e9,666b5f73dbba3f0cd916b177,666c6f7abe9b5aea8b5bbba4,,,,,,,,,,,,,,,,,,,,,,,,,,,,,,,,,,,,,,,,,,,,580.5547,582.1621,1.733665504,1.5899,0,3,3,23,1,song_indices/PokerFace_LadyGaga.csv,,,,,,,,,,,,,,,,,,,,,,,,,,,,,,,,,,,,,,,,,,,,,,,,
,,,,,621704,001,2024-06-14_13h24.10.289,experiment,2024.1.5,Win32,59.88023952,6437848cce0b587f816052e9,666b5f73dbba3f0cd916b177,666c6f7abe9b5aea8b5bbba4,,,,,,,,,,,,,,,,,,,,,,,,,,,,,,,,,,,,582.1633,588.469,0,0,0,0,1,SoundStimuli/LetsGetItOn_MarvinGaye_Original5S.wav,,,,,,,,,,,,,,,,,,,,,,,,,,,,,,,,,,,,,,,,,,,,,,,,,,,,,,,,,,
,,,,,621704,001,2024-06-14_13h24.10.289,experiment,2024.1.5,Win32,59.88023952,6437848cce0b587f816052e9,666b5f73dbba3f0cd916b177,666c6f7abe9b5aea8b5bbba4,,,,,,,,,,,,,,,,,,,,,,,,,,,,,,,,,,,,588.4777,595.1259,0,1,1,1,1,SoundStimuli/LetsGetItOn_MarvinGaye_Cover5S.wav,,,,,,,,,,,,,,,,,,,,,,,,,,,,,,,,,,,,,,,,,,,,,,,,,,,,,,,,,,
,,,,,621704,001,2024-06-14_13h24.10.289,experiment,2024.1.5,Win32,59.88023952,6437848cce0b587f816052e9,666b5f73dbba3f0cd916b177,666c6f7abe9b5aea8b5bbba4,,,,,,,,,,,,,,,,,,,,,,,,,,,,,,,,,,,,,,,,,,,,595.126,598.0109,1.733665504,2.876,0,4,4,20,1,song_indices/LetsGetItOn_MarvinGaye.csv,,,,,,,,,,,,,,,,,,,,,,,,,,,,,,,,,,,,,,,,,,,,,,,,
,,,,,621704,001,2024-06-14_13h24.10.289,experiment,2024.1.5,Win32,59.88023952,6437848cce0b587f816052e9,666b5f73dbba3f0cd916b177,666c6f7abe9b5aea8b5bbba4,,,,,,,,,,,,,,,,,,,,,,,,,,,,,,,,,,,,598.0117,604.2172,0,0,0,0,1,SoundStimuli/Dilemma_NellyKellyRowland_Original5S.wav,,,,,,,,,,,,,,,,,,,,,,,,,,,,,,,,,,,,,,,,,,,,,,,,,,,,,,,,,,
,,,,,621704,001,2024-06-14_13h24.10.289,experiment,2024.1.5,Win32,59.88023952,6437848cce0b587f816052e9,666b5f73dbba3f0cd916b177,666c6f7abe9b5aea8b5bbba4,,,,,,,,,,,,,,,,,,,,,,,,,,,,,,,,,,,,604.2284,611.2168,0,1,1,1,1,SoundStimuli/Dilemma_NellyKellyRowland_Cover5S.wav,,,,,,,,,,,,,,,,,,,,,,,,,,,,,,,,,,,,,,,,,,,,,,,,,,,,,,,,,,
,,,,,621704,001,2024-06-14_13h24.10.289,experiment,2024.1.5,Win32,59.88023952,6437848cce0b587f816052e9,666b5f73dbba3f0cd916b177,666c6f7abe9b5aea8b5bbba4,,,,,,,,,,,,,,,,,,,,,,,,,,,,,,,,,,,,,,,,,,,,611.2169,612.7631,1.733665504,1.5323,0,5,5,2,1,song_indices/Dilemma_NellyKellyRowland.csv,,,,,,,,,,,,,,,,,,,,,,,,,,,,,,,,,,,,,,,,,,,,,,,,
,,,,,621704,001,2024-06-14_13h24.10.289,experiment,2024.1.5,Win32,59.88023952,6437848cce0b587f816052e9,666b5f73dbba3f0cd916b177,666c6f7abe9b5aea8b5bbba4,,,,,,,,,,,,,,,,,,,,,,,,,,,,,,,,,,,,612.7643,619.8361,0,0,0,1,1,SoundStimuli/ComeAndGetYourLove_Redbone_Cover5S.wav,,,,,,,,,,,,,,,,,,,,,,,,,,,,,,,,,,,,,,,,,,,,,,,,,,,,,,,,,,
,,,,,621704,001,2024-06-14_13h24.10.289,experiment,2024.1.5,Win32,59.88023952,6437848cce0b587f816052e9,666b5f73dbba3f0cd916b177,666c6f7abe9b5aea8b5bbba4,,,,,,,,,,,,,,,,,,,,,,,,,,,,,,,,,,,,619.857,625.9589,0,1,1,0,1,SoundStimuli/ComeAndGetYourLove_Redbone_Original5S.wav,,,,,,,,,,,,,,,,,,,,,,,,,,,,,,,,,,,,,,,,,,,,,,,,,,,,,,,,,,
,,,,,621704,001,2024-06-14_13h24.10.289,experiment,2024.1.5,Win32,59.88023952,6437848cce0b587f816052e9,666b5f73dbba3f0cd916b177,666c6f7abe9b5aea8b5bbba4,,,,,,,,,,,,,,,,,,,,,,,,,,,,,,,,,,,,,,,,,,,,625.959,627.4583,1.733665504,1.4789,0,6,6,22,1,song_indices/ComeAndGetYourLove_Redbone.csv,,,,,,,,,,,,,,,,,,,,,,,,,,,,,,,,,,,,,,,,,,,,,,,,
,,,,,621704,001,2024-06-14_13h24.10.289,experiment,2024.1.5,Win32,59.88023952,6437848cce0b587f816052e9,666b5f73dbba3f0cd916b177,666c6f7abe9b5aea8b5bbba4,,,,,,,,,,,,,,,,,,,,,,,,,,,,,,,,,,,,627.4593,633.4639,0,0,0,0,1,SoundStimuli/Levitating_DuaLipa_Original5S.wav,,,,,,,,,,,,,,,,,,,,,,,,,,,,,,,,,,,,,,,,,,,,,,,,,,,,,,,,,,
,,,,,621704,001,2024-06-14_13h24.10.289,experiment,2024.1.5,Win32,59.88023952,6437848cce0b587f816052e9,666b5f73dbba3f0cd916b177,666c6f7abe9b5aea8b5bbba4,,,,,,,,,,,,,,,,,,,,,,,,,,,,,,,,,,,,633.4866,639.2048,0,1,1,1,1,SoundStimuli/Levitating_DuaLipa_Cover5S.wav,,,,,,,,,,,,,,,,,,,,,,,,,,,,,,,,,,,,,,,,,,,,,,,,,,,,,,,,,,
,,,,,621704,001,2024-06-14_13h24.10.289,experiment,2024.1.5,Win32,59.88023952,6437848cce0b587f816052e9,666b5f73dbba3f0cd916b177,666c6f7abe9b5aea8b5bbba4,,,,,,,,,,,,,,,,,,,,,,,,,,,,,,,,,,,,,,,,,,,,639.2049,640.32,1.733665504,1.098,0,7,7,10,1,song_indices/Levitating_DuaLipa.csv,,,,,,,,,,,,,,,,,,,,,,,,,,,,,,,,,,,,,,,,,,,,,,,,
,,,,,621704,001,2024-06-14_13h24.10.289,experiment,2024.1.5,Win32,59.88023952,6437848cce0b587f816052e9,666b5f73dbba3f0cd916b177,666c6f7abe9b5aea8b5bbba4,,,,,,,,,,,,,,,,,,,,,,,,,,,,,,,,,,,,640.3211,646.3276,0,0,0,1,1,SoundStimuli/TheSign_AceOfBase_Cover5S.wav,,,,,,,,,,,,,,,,,,,,,,,,,,,,,,,,,,,,,,,,,,,,,,,,,,,,,,,,,,
,,,,,621704,001,2024-06-14_13h24.10.289,experiment,2024.1.5,Win32,59.88023952,6437848cce0b587f816052e9,666b5f73dbba3f0cd916b177,666c6f7abe9b5aea8b5bbba4,,,,,,,,,,,,,,,,,,,,,,,,,,,,,,,,,,,,646.3391,652.4838,0,1,1,0,1,SoundStimuli/TheSign_AceOfBase_Original5S.wav,,,,,,,,,,,,,,,,,,,,,,,,,,,,,,,,,,,,,,,,,,,,,,,,,,,,,,,,,,
,,,,,621704,001,2024-06-14_13h24.10.289,experiment,2024.1.5,Win32,59.88023952,6437848cce0b587f816052e9,666b5f73dbba3f0cd916b177,666c6f7abe9b5aea8b5bbba4,,,,,,,,,,,,,,,,,,,,,,,,,,,,,,,,,,,,,,,,,,,,652.484,665.7296,4.443114415,13.2209,0,8,8,5,1,song_indices/TheSign_AceOfBase.csv,,,,,,,,,,,,,,,,,,,,,,,,,,,,,,,,,,,,,,,,,,,,,,,,
,,,,,621704,001,2024-06-14_13h24.10.289,experiment,2024.1.5,Win32,59.88023952,6437848cce0b587f816052e9,666b5f73dbba3f0cd916b177,666c6f7abe9b5aea8b5bbba4,,,,,,,,,,,,,,,,,,,,,,,,,,,,,,,,,,,,665.7307,673.5674,0,0,0,1,1,SoundStimuli/Dreams_FleetwoodMac_Cover5S.wav,,,,,,,,,,,,,,,,,,,,,,,,,,,,,,,,,,,,,,,,,,,,,,,,,,,,,,,,,,
,,,,,621704,001,2024-06-14_13h24.10.289,experiment,2024.1.5,Win32,59.88023952,6437848cce0b587f816052e9,666b5f73dbba3f0cd916b177,666c6f7abe9b5aea8b5bbba4,,,,,,,,,,,,,,,,,,,,,,,,,,,,,,,,,,,,673.5901,680.0899,0,1,1,0,1,SoundStimuli/Dreams_FleetwoodMac_Original5S.wav,,,,,,,,,,,,,,,,,,,,,,,,,,,,,,,,,,,,,,,,,,,,,,,,,,,,,,,,,,
,,,,,621704,001,2024-06-14_13h24.10.289,experiment,2024.1.5,Win32,59.88023952,6437848cce0b587f816052e9,666b5f73dbba3f0cd916b177,666c6f7abe9b5aea8b5bbba4,,,,,,,,,,,,,,,,,,,,,,,,,,,,,,,,,,,,,,,,,,,,680.0902,681.3546,1.647775256,1.2486,0,9,9,1,1,song_indices/Dreams_FleetwoodMac.csv,,,,,,,,,,,,,,,,,,,,,,,,,,,,,,,,,,,,,,,,,,,,,,,,
,,,,,621704,001,2024-06-14_13h24.10.289,experiment,2024.1.5,Win32,59.88023952,6437848cce0b587f816052e9,666b5f73dbba3f0cd916b177,666c6f7abe9b5aea8b5bbba4,,,,,,,,,,,,,,,,,,,,,,,,,,,,,,,,,,,,681.3562,687.3781,0,0,0,0,1,SoundStimuli/LeFreak_Chic_Original5S.wav,,,,,,,,,,,,,,,,,,,,,,,,,,,,,,,,,,,,,,,,,,,,,,,,,,,,,,,,,,
,,,,,621704,001,2024-06-14_13h24.10.289,experiment,2024.1.5,Win32,59.88023952,6437848cce0b587f816052e9,666b5f73dbba3f0cd916b177,666c6f7abe9b5aea8b5bbba4,,,,,,,,,,,,,,,,,,,,,,,,,,,,,,,,,,,,687.3867,692.9027,0,1,1,1,1,SoundStimuli/LeFreak_Chic_Cover5S.wav,,,,,,,,,,,,,,,,,,,,,,,,,,,,,,,,,,,,,,,,,,,,,,,,,,,,,,,,,,
,,,,,621704,001,2024-06-14_13h24.10.289,experiment,2024.1.5,Win32,59.88023952,6437848cce0b587f816052e9,666b5f73dbba3f0cd916b177,666c6f7abe9b5aea8b5bbba4,,,,,,,,,,,,,,,,,,,,,,,,,,,,,,,,,,,,,,,,,,,,692.9028,694.1177,1.647775256,1.1992,0,10,10,11,1,song_indices/LeFreak_Chic.csv,,,,,,,,,,,,,,,,,,,,,,,,,,,,,,,,,,,,,,,,,,,,,,,,
,,,,,621704,001,2024-06-14_13h24.10.289,experiment,2024.1.5,Win32,59.88023952,6437848cce0b587f816052e9,666b5f73dbba3f0cd916b177,666c6f7abe9b5aea8b5bbba4,,,,,,,,,,,,,,,,,,,,,,,,,,,,,,,,,,,,694.1189,700.1596,0,0,0,0,1,SoundStimuli/HowDoILive_LeAnnRimes_Original5S.wav,,,,,,,,,,,,,,,,,,,,,,,,,,,,,,,,,,,,,,,,,,,,,,,,,,,,,,,,,,
,,,,,621704,001,2024-06-14_13h24.10.289,experiment,2024.1.5,Win32,59.88023952,6437848cce0b587f816052e9,666b5f73dbba3f0cd916b177,666c6f7abe9b5aea8b5bbba4,,,,,,,,,,,,,,,,,,,,,,,,,,,,,,,,,,,,700.1789,705.6491,0,1,1,1,1,SoundStimuli/HowDoILive_LeAnnRimes_Cover5S.wav,,,,,,,,,,,,,,,,,,,,,,,,,,,,,,,,,,,,,,,,,,,,,,,,,,,,,,,,,,
,,,,,621704,001,2024-06-14_13h24.10.289,experiment,2024.1.5,Win32,59.88023952,6437848cce0b587f816052e9,666b5f73dbba3f0cd916b177,666c6f7abe9b5aea8b5bbba4,,,,,,,,,,,,,,,,,,,,,,,,,,,,,,,,,,,,,,,,,,,,705.6492,707.6626,6.59818067,1.9984,0,11,11,17,1,song_indices/HowDoILive_LeAnnRimes.csv,,,,,,,,,,,,,,,,,,,,,,,,,,,,,,,,,,,,,,,,,,,,,,,,
,,,,,621704,001,2024-06-14_13h24.10.289,experiment,2024.1.5,Win32,59.88023952,6437848cce0b587f816052e9,666b5f73dbba3f0cd916b177,666c6f7abe9b5aea8b5bbba4,,,,,,,,,,,,,,,,,,,,,,,,,,,,,,,,,,,,707.6638,714.469,0,0,0,1,1,SoundStimuli/SomebodyThatIUsedtoKnow_Gotye_Cover5S.wav,,,,,,,,,,,,,,,,,,,,,,,,,,,,,,,,,,,,,,,,,,,,,,,,,,,,,,,,,,
,,,,,621704,001,2024-06-14_13h24.10.289,experiment,2024.1.5,Win32,59.88023952,6437848cce0b587f816052e9,666b5f73dbba3f0cd916b177,666c6f7abe9b5aea8b5bbba4,,,,,,,,,,,,,,,,,,,,,,,,,,,,,,,,,,,,714.4788,721.7071,0,1,1,0,1,SoundStimuli/SomebodyThatIUsedtoKnow_Gotye_Original5S.wav,,,,,,,,,,,,,,,,,,,,,,,,,,,,,,,,,,,,,,,,,,,,,,,,,,,,,,,,,,
,,,,,621704,001,2024-06-14_13h24.10.289,experiment,2024.1.5,Win32,59.88023952,6437848cce0b587f816052e9,666b5f73dbba3f0cd916b177,666c6f7abe9b5aea8b5bbba4,,,,,,,,,,,,,,,,,,,,,,,,,,,,,,,,,,,,,,,,,,,,721.7073,723.1886,1.679008155,1.4527,0,12,12,7,1,song_indices/SomebodyThatIUsedtoKnow_Gotye.csv,,,,,,,,,,,,,,,,,,,,,,,,,,,,,,,,,,,,,,,,,,,,,,,,
,,,,,621704,001,2024-06-14_13h24.10.289,experiment,2024.1.5,Win32,59.88023952,6437848cce0b587f816052e9,666b5f73dbba3f0cd916b177,666c6f7abe9b5aea8b5bbba4,,,,,,,,,,,,,,,,,,,,,,,,,,,,,,,,,,,,723.1897,729.678,0,0,0,0,1,SoundStimuli/BlindingLights_TheWeeknd_Original5S.wav,,,,,,,,,,,,,,,,,,,,,,,,,,,,,,,,,,,,,,,,,,,,,,,,,,,,,,,,,,
,,,,,621704,001,2024-06-14_13h24.10.289,experiment,2024.1.5,Win32,59.88023952,6437848cce0b587f816052e9,666b5f73dbba3f0cd916b177,666c6f7abe9b5aea8b5bbba4,,,,,,,,,,,,,,,,,,,,,,,,,,,,,,,,,,,,729.699,736.5011,0,1,1,1,1,SoundStimuli/BlindingLights_TheWeeknd_Cover5S.wav,,,,,,,,,,,,,,,,,,,,,,,,,,,,,,,,,,,,,,,,,,,,,,,,,,,,,,,,,,
,,,,,621704,001,2024-06-14_13h24.10.289,experiment,2024.1.5,Win32,59.88023952,6437848cce0b587f816052e9,666b5f73dbba3f0cd916b177,666c6f7abe9b5aea8b5bbba4,,,,,,,,,,,,,,,,,,,,,,,,,,,,,,,,,,,,,,,,,,,,736.5014,737.8166,6.473249076,1.2909,0,13,13,21,1,song_indices/BlindingLights_TheWeeknd.csv,,,,,,,,,,,,,,,,,,,,,,,,,,,,,,,,,,,,,,,,,,,,,,,,
,,,,,621704,001,2024-06-14_13h24.10.289,experiment,2024.1.5,Win32,59.88023952,6437848cce0b587f816052e9,666b5f73dbba3f0cd916b177,666c6f7abe9b5aea8b5bbba4,,,,,,,,,,,,,,,,,,,,,,,,,,,,,,,,,,,,737.8175,745.1046,0,0,0,1,1,SoundStimuli/FlashdanceWhatAFeeling_IreneCara_Cover5S.wav,,,,,,,,,,,,,,,,,,,,,,,,,,,,,,,,,,,,,,,,,,,,,,,,,,,,,,,,,,
,,,,,621704,001,2024-06-14_13h24.10.289,experiment,2024.1.5,Win32,59.88023952,6437848cce0b587f816052e9,666b5f73dbba3f0cd916b177,666c6f7abe9b5aea8b5bbba4,,,,,,,,,,,,,,,,,,,,,,,,,,,,,,,,,,,,745.1138,751.4941,0,1,1,0,1,SoundStimuli/FlashdanceWhatAFeeling_IreneCara_Original5S.wav,,,,,,,,,,,,,,,,,,,,,,,,,,,,,,,,,,,,,,,,,,,,,,,,,,,,,,,,,,
,,,,,621704,001,2024-06-14_13h24.10.289,experiment,2024.1.5,Win32,59.88023952,6437848cce0b587f816052e9,666b5f73dbba3f0cd916b177,666c6f7abe9b5aea8b5bbba4,,,,,,,,,,,,,,,,,,,,,,,,,,,,,,,,,,,,,,,,,,,,751.4943,753.0243,6.97297474,1.5111,0,14,14,18,1,song_indices/FlashdanceWhatAFeeling_IreneCara.csv,,,,,,,,,,,,,,,,,,,,,,,,,,,,,,,,,,,,,,,,,,,,,,,,
,,,,,621704,001,2024-06-14_13h24.10.289,experiment,2024.1.5,Win32,59.88023952,6437848cce0b587f816052e9,666b5f73dbba3f0cd916b177,666c6f7abe9b5aea8b5bbba4,,,,,,,,,,,,,,,,,,,,,,,,,,,,,,,,,,,,753.0253,759.1147,0,0,0,0,1,SoundStimuli/YouLightUpMyLife_DebbyBoone_Original5S.wav,,,,,,,,,,,,,,,,,,,,,,,,,,,,,,,,,,,,,,,,,,,,,,,,,,,,,,,,,,
,,,,,621704,001,2024-06-14_13h24.10.289,experiment,2024.1.5,Win32,59.88023952,6437848cce0b587f816052e9,666b5f73dbba3f0cd916b177,666c6f7abe9b5aea8b5bbba4,,,,,,,,,,,,,,,,,,,,,,,,,,,,,,,,,,,,759.1234,765.571,0,1,1,1,1,SoundStimuli/YouLightUpMyLife_DebbyBoone_Cover5S.wav,,,,,,,,,,,,,,,,,,,,,,,,,,,,,,,,,,,,,,,,,,,,,,,,,,,,,,,,,,
,,,,,621704,001,2024-06-14_13h24.10.289,experiment,2024.1.5,Win32,59.88023952,6437848cce0b587f816052e9,666b5f73dbba3f0cd916b177,666c6f7abe9b5aea8b5bbba4,,,,,,,,,,,,,,,,,,,,,,,,,,,,,,,,,,,,,,,,,,,,765.5712,772.959,6.699686921,7.3776,0,15,15,4,1,song_indices/YouLightUpMyLife_DebbyBoone.csv,,,,,,,,,,,,,,,,,,,,,,,,,,,,,,,,,,,,,,,,,,,,,,,,
,,,,,621704,001,2024-06-14_13h24.10.289,experiment,2024.1.5,Win32,59.88023952,6437848cce0b587f816052e9,666b5f73dbba3f0cd916b177,666c6f7abe9b5aea8b5bbba4,,,,,,,,,,,,,,,,,,,,,,,,,,,,,,,,,,,,772.9601,779.0833,0,0,0,1,1,SoundStimuli/TossinAndTurnin_BobbyLewis_Cover5S.wav,,,,,,,,,,,,,,,,,,,,,,,,,,,,,,,,,,,,,,,,,,,,,,,,,,,,,,,,,,
,,,,,621704,001,2024-06-14_13h24.10.289,experiment,2024.1.5,Win32,59.88023952,6437848cce0b587f816052e9,666b5f73dbba3f0cd916b177,666c6f7abe9b5aea8b5bbba4,,,,,,,,,,,,,,,,,,,,,,,,,,,,,,,,,,,,779.1059,785.1566,0,1,1,0,1,SoundStimuli/TossinAndTurnin_BobbyLewis_Original5S.wav,,,,,,,,,,,,,,,,,,,,,,,,,,,,,,,,,,,,,,,,,,,,,,,,,,,,,,,,,,
,,,,,621704,001,2024-06-14_13h24.10.289,experiment,2024.1.5,Win32,59.88023952,6437848cce0b587f816052e9,666b5f73dbba3f0cd916b177,666c6f7abe9b5aea8b5bbba4,,,,,,,,,,,,,,,,,,,,,,,,,,,,,,,,,,,,,,,,,,,,785.1569,787.8534,4.037087626,2.6646,0,16,16,13,1,song_indices/TossinAndTurnin_BobbyLewis.csv,,,,,,,,,,,,,,,,,,,,,,,,,,,,,,,,,,,,,,,,,,,,,,,,
,,,,,621704,001,2024-06-14_13h24.10.289,experiment,2024.1.5,Win32,59.88023952,6437848cce0b587f816052e9,666b5f73dbba3f0cd916b177,666c6f7abe9b5aea8b5bbba4,,,,,,,,,,,,,,,,,,,,,,,,,,,,,,,,,,,,787.8543,795.2911,0,0,0,0,1,SoundStimuli/Kiss_Prince_Original5S.wav,,,,,,,,,,,,,,,,,,,,,,,,,,,,,,,,,,,,,,,,,,,,,,,,,,,,,,,,,,
,,,,,621704,001,2024-06-14_13h24.10.289,experiment,2024.1.5,Win32,59.88023952,6437848cce0b587f816052e9,666b5f73dbba3f0cd916b177,666c6f7abe9b5aea8b5bbba4,,,,,,,,,,,,,,,,,,,,,,,,,,,,,,,,,,,,795.3004,801.5648,0,1,1,1,1,SoundStimuli/Kiss_Prince_Cover5S.wav,,,,,,,,,,,,,,,,,,,,,,,,,,,,,,,,,,,,,,,,,,,,,,,,,,,,,,,,,,
,,,,,621704,001,2024-06-14_13h24.10.289,experiment,2024.1.5,Win32,59.88023952,6437848cce0b587f816052e9,666b5f73dbba3f0cd916b177,666c6f7abe9b5aea8b5bbba4,,,,,,,,,,,,,,,,,,,,,,,,,,,,,,,,,,,,,,,,,,,,801.565,803.2949,6.239002782,1.7088,0,17,17,14,1,song_indices/Kiss_Prince.csv,,,,,,,,,,,,,,,,,,,,,,,,,,,,,,,,,,,,,,,,,,,,,,,,
,,,,,621704,001,2024-06-14_13h24.10.289,experiment,2024.1.5,Win32,59.88023952,6437848cce0b587f816052e9,666b5f73dbba3f0cd916b177,666c6f7abe9b5aea8b5bbba4,,,,,,,,,,,,,,,,,,,,,,,,,,,,,,,,,,,,803.2959,810.3996,0,0,0,1,1,SoundStimuli/BlurredLines_RobinThicke_Cover5S.wav,,,,,,,,,,,,,,,,,,,,,,,,,,,,,,,,,,,,,,,,,,,,,,,,,,,,,,,,,,
,,,,,621704,001,2024-06-14_13h24.10.289,experiment,2024.1.5,Win32,59.88023952,6437848cce0b587f816052e9,666b5f73dbba3f0cd916b177,666c6f7abe9b5aea8b5bbba4,,,,,,,,,,,,,,,,,,,,,,,,,,,,,,,,,,,,810.4132,817.1565,0,1,1,0,1,SoundStimuli/BlurredLines_RobinThicke_Original5S.wav,,,,,,,,,,,,,,,,,,,,,,,,,,,,,,,,,,,,,,,,,,,,,,,,,,,,,,,,,,
,,,,,621704,001,2024-06-14_13h24.10.289,experiment,2024.1.5,Win32,59.88023952,6437848cce0b587f816052e9,666b5f73dbba3f0cd916b177,666c6f7abe9b5aea8b5bbba4,,,,,,,,,,,,,,,,,,,,,,,,,,,,,,,,,,,,,,,,,,,,817.1568,819.918,6.239002782,2.7479,0,18,18,9,1,song_indices/BlurredLines_RobinThicke.csv,,,,,,,,,,,,,,,,,,,,,,,,,,,,,,,,,,,,,,,,,,,,,,,,
,,,,,621704,001,2024-06-14_13h24.10.289,experiment,2024.1.5,Win32,59.88023952,6437848cce0b587f816052e9,666b5f73dbba3f0cd916b177,666c6f7abe9b5aea8b5bbba4,,,,,,,,,,,,,,,,,,,,,,,,,,,,,,,,,,,,819.9192,825.843,0,0,0,0,1,SoundStimuli/Respect_ArethaFranklin_Original5S.wav,,,,,,,,,,,,,,,,,,,,,,,,,,,,,,,,,,,,,,,,,,,,,,,,,,,,,,,,,,
,,,,,621704,001,2024-06-14_13h24.10.289,experiment,2024.1.5,Win32,59.88023952,6437848cce0b587f816052e9,666b5f73dbba3f0cd916b177,666c6f7abe9b5aea8b5bbba4,,,,,,,,,,,,,,,,,,,,,,,,,,,,,,,,,,,,825.8521,831.9166,0,1,1,1,1,SoundStimuli/Respect_ArethaFranklin_Cover5S.wav,,,,,,,,,,,,,,,,,,,,,,,,,,,,,,,,,,,,,,,,,,,,,,,,,,,,,,,,,,
,,,,,621704,001,2024-06-14_13h24.10.289,experiment,2024.1.5,Win32,59.88023952,6437848cce0b587f816052e9,666b5f73dbba3f0cd916b177,666c6f7abe9b5aea8b5bbba4,,,,,,,,,,,,,,,,,,,,,,,,,,,,,,,,,,,,,,,,,,,,831.9167,834.0133,1.694624693,2.0651,0,19,19,0,1,song_indices/Respect_ArethaFranklin.csv,,,,,,,,,,,,,,,,,,,,,,,,,,,,,,,,,,,,,,,,,,,,,,,,
,,,,,621704,001,2024-06-14_13h24.10.289,experiment,2024.1.5,Win32,59.88023952,6437848cce0b587f816052e9,666b5f73dbba3f0cd916b177,666c6f7abe9b5aea8b5bbba4,,,,,,,,,,,,,,,,,,,,,,,,,,,,,,,,,,,,834.0142,839.9362,0,0,0,1,1,SoundStimuli/Irreplaceable_Beyonce_Cover5S.wav,,,,,,,,,,,,,,,,,,,,,,,,,,,,,,,,,,,,,,,,,,,,,,,,,,,,,,,,,,
,,,,,621704,001,2024-06-14_13h24.10.289,experiment,2024.1.5,Win32,59.88023952,6437848cce0b587f816052e9,666b5f73dbba3f0cd916b177,666c6f7abe9b5aea8b5bbba4,,,,,,,,,,,,,,,,,,,,,,,,,,,,,,,,,,,,839.9452,845.8108,0,1,1,0,1,SoundStimuli/Irreplaceable_Beyonce_Original5S.wav,,,,,,,,,,,,,,,,,,,,,,,,,,,,,,,,,,,,,,,,,,,,,,,,,,,,,,,,,,
,,,,,621704,001,2024-06-14_13h24.10.289,experiment,2024.1.5,Win32,59.88023952,6437848cce0b587f816052e9,666b5f73dbba3f0cd916b177,666c6f7abe9b5aea8b5bbba4,,,,,,,,,,,,,,,,,,,,,,,,,,,,,,,,,,,,,,,,,,,,845.811,848.6132,1.702432784,2.7932,0,20,20,19,1,song_indices/Irreplaceable_Beyonce.csv,,,,,,,,,,,,,,,,,,,,,,,,,,,,,,,,,,,,,,,,,,,,,,,,
,,,,,621704,001,2024-06-14_13h24.10.289,experiment,2024.1.5,Win32,59.88023952,6437848cce0b587f816052e9,666b5f73dbba3f0cd916b177,666c6f7abe9b5aea8b5bbba4,,,,,,,,,,,,,,,,,,,,,,,,,,,,,,,,,,,,848.6139,854.6802,0,0,0,0,1,SoundStimuli/Weak_SWV_Original5S.wav,,,,,,,,,,,,,,,,,,,,,,,,,,,,,,,,,,,,,,,,,,,,,,,,,,,,,,,,,,
,,,,,621704,001,2024-06-14_13h24.10.289,experiment,2024.1.5,Win32,59.88023952,6437848cce0b587f816052e9,666b5f73dbba3f0cd916b177,666c6f7abe9b5aea8b5bbba4,,,,,,,,,,,,,,,,,,,,,,,,,,,,,,,,,,,,854.6981,861.17,0,1,1,1,1,SoundStimuli/Weak_SWV_Cover5S.wav,,,,,,,,,,,,,,,,,,,,,,,,,,,,,,,,,,,,,,,,,,,,,,,,,,,,,,,,,,
,,,,,621704,001,2024-06-14_13h24.10.289,experiment,2024.1.5,Win32,59.88023952,6437848cce0b587f816052e9,666b5f73dbba3f0cd916b177,666c6f7abe9b5aea8b5bbba4,,,,,,,,,,,,,,,,,,,,,,,,,,,,,,,,,,,,,,,,,,,,861.1702,877.5111,4.349415898,16.3284,0,21,21,6,1,song_indices/Weak_SWV.csv,,,,,,,,,,,,,,,,,,,,,,,,,,,,,,,,,,,,,,,,,,,,,,,,
,,,,,621704,001,2024-06-14_13h24.10.289,experiment,2024.1.5,Win32,59.88023952,6437848cce0b587f816052e9,666b5f73dbba3f0cd916b177,666c6f7abe9b5aea8b5bbba4,,,,,,,,,,,,,,,,,,,,,,,,,,,,,,,,,,,,877.5121,883.4016,0,0,0,1,1,SoundStimuli/SaveYourTears_TheWeekndArianaGrande_Cover5S.wav,,,,,,,,,,,,,,,,,,,,,,,,,,,,,,,,,,,,,,,,,,,,,,,,,,,,,,,,,,
,,,,,621704,001,2024-06-14_13h24.10.289,experiment,2024.1.5,Win32,59.88023952,6437848cce0b587f816052e9,666b5f73dbba3f0cd916b177,666c6f7abe9b5aea8b5bbba4,,,,,,,,,,,,,,,,,,,,,,,,,,,,,,,,,,,,883.4101,889.6084,0,1,1,0,1,SoundStimuli/SaveYourTears_TheWeekndArianaGrande_Original5S.wav,,,,,,,,,,,,,,,,,,,,,,,,,,,,,,,,,,,,,,,,,,,,,,,,,,,,,,,,,,
,,,,,621704,001,2024-06-14_13h24.10.289,experiment,2024.1.5,Win32,59.88023952,6437848cce0b587f816052e9,666b5f73dbba3f0cd916b177,666c6f7abe9b5aea8b5bbba4,,,,,,,,,,,,,,,,,,,,,,,,,,,,,,,,,,,,,,,,,,,,889.6088,892.0713,2.936130048,2.4285,0,22,22,12,1,song_indices/SaveYourTears_TheWeekndArianaGrande.csv,,,,,,,,,,,,,,,,,,,,,,,,,,,,,,,,,,,,,,,,,,,,,,,,
,,,,,621704,001,2024-06-14_13h24.10.289,experiment,2024.1.5,Win32,59.88023952,6437848cce0b587f816052e9,666b5f73dbba3f0cd916b177,666c6f7abe9b5aea8b5bbba4,,,,,,,,,,,,,,,,,,,,,,,,,,,,,,,,,,,,892.0724,898.2769,0,0,0,0,1,SoundStimuli/TikTok_Kesha_Original5S.wav,,,,,,,,,,,,,,,,,,,,,,,,,,,,,,,,,,,,,,,,,,,,,,,,,,,,,,,,,,
,,,,,621704,001,2024-06-14_13h24.10.289,experiment,2024.1.5,Win32,59.88023952,6437848cce0b587f816052e9,666b5f73dbba3f0cd916b177,666c6f7abe9b5aea8b5bbba4,,,,,,,,,,,,,,,,,,,,,,,,,,,,,,,,,,,,898.2977,905.8319,0,1,1,1,1,SoundStimuli/TikTok_Kesha_Cover5S.wav,,,,,,,,,,,,,,,,,,,,,,,,,,,,,,,,,,,,,,,,,,,,,,,,,,,,,,,,,,
,,,,,621704,001,2024-06-14_13h24.10.289,experiment,2024.1.5,Win32,59.88023952,6437848cce0b587f816052e9,666b5f73dbba3f0cd916b177,666c6f7abe9b5aea8b5bbba4,,,,,,,,,,,,,,,,,,,,,,,,,,,,,,,,,,,,,,,,,,,,905.8321,909.0596,1.062159523,3.1947,0,23,23,3,1,song_indices/TikTok_Kesha.csv,,,,,,,,,,,,,,,,,,,,,,,,,,,,,,,,,,,,,,,,,,,,,,,,
,,,,,621704,001,2024-06-14_13h24.10.289,experiment,2024.1.5,Win32,59.88023952,6437848cce0b587f816052e9,666b5f73dbba3f0cd916b177,666c6f7abe9b5aea8b5bbba4,,,,,,,,,,,,,,,,,,,,,,,,,,,,,,,,,,,,,,,,,,,,,,,,,,,,,,909.0598,918.915,space,9.8453,,0,1,1,2,1,choose_song_b3.csv,,,,,,,,,,,,,,,,,,,,,,,,,,,,,,,,,,,,,
,,,,,621704,001,2024-06-14_13h24.10.289,experiment,2024.1.5,Win32,59.88023952,6437848cce0b587f816052e9,666b5f73dbba3f0cd916b177,666c6f7abe9b5aea8b5bbba4,,,,,,,,,,,,,,,,,,,,,,,,,,,,,,,,,,,,918.9167,924.6181,0,0,0,1,1,SoundStimuli/BetteDavisEyes_KimCarnes_Cover5S.wav,,,,,,,,,,,,,,,,,,,,,,,,,,,,,,,,,,,,,,,,,,,,,,,,,,,,,,,,,,
,,,,,621704,001,2024-06-14_13h24.10.289,experiment,2024.1.5,Win32,59.88023952,6437848cce0b587f816052e9,666b5f73dbba3f0cd916b177,666c6f7abe9b5aea8b5bbba4,,,,,,,,,,,,,,,,,,,,,,,,,,,,,,,,,,,,924.6277,930.8253,0,1,1,0,1,SoundStimuli/BetteDavisEyes_KimCarnes_Original5S.wav,,,,,,,,,,,,,,,,,,,,,,,,,,,,,,,,,,,,,,,,,,,,,,,,,,,,,,,,,,
,,,,,621704,001,2024-06-14_13h24.10.289,experiment,2024.1.5,Win32,59.88023952,6437848cce0b587f816052e9,666b5f73dbba3f0cd916b177,666c6f7abe9b5aea8b5bbba4,,,,,,,,,,,,,,,,,,,,,,,,,,,,,,,,,,,,,,,,,,,,930.8254,952.8903,4.154210773,22.052,0,0,0,5,1,song_indices/BetteDavisEyes_KimCarnes.csv,,,,,,,,,,,,,,,,,,,,,,,,,,,,,,,,,,,,,,,,,,,,,,,,
,,,,,621704,001,2024-06-14_13h24.10.289,experiment,2024.1.5,Win32,59.88023952,6437848cce0b587f816052e9,666b5f73dbba3f0cd916b177,666c6f7abe9b5aea8b5bbba4,,,,,,,,,,,,,,,,,,,,,,,,,,,,,,,,,,,,952.8915,958.8217,0,0,0,0,1,SoundStimuli/StandByMe_BenEKing_Original5S.wav,,,,,,,,,,,,,,,,,,,,,,,,,,,,,,,,,,,,,,,,,,,,,,,,,,,,,,,,,,
,,,,,621704,001,2024-06-14_13h24.10.289,experiment,2024.1.5,Win32,59.88023952,6437848cce0b587f816052e9,666b5f73dbba3f0cd916b177,666c6f7abe9b5aea8b5bbba4,,,,,,,,,,,,,,,,,,,,,,,,,,,,,,,,,,,,958.83,964.8416,0,1,1,1,1,SoundStimuli/StandByMe_BenEKing_Cover5S.wav,,,,,,,,,,,,,,,,,,,,,,,,,,,,,,,,,,,,,,,,,,,,,,,,,,,,,,,,,,
,,,,,621704,001,2024-06-14_13h24.10.289,experiment,2024.1.5,Win32,59.88023952,6437848cce0b587f816052e9,666b5f73dbba3f0cd916b177,666c6f7abe9b5aea8b5bbba4,,,,,,,,,,,,,,,,,,,,,,,,,,,,,,,,,,,,,,,,,,,,964.8417,966.9021,1.101200512,2.0416,0,1,1,1,1,song_indices/StandByMe_BenEKing.csv,,,,,,,,,,,,,,,,,,,,,,,,,,,,,,,,,,,,,,,,,,,,,,,,
,,,,,621704,001,2024-06-14_13h24.10.289,experiment,2024.1.5,Win32,59.88023952,6437848cce0b587f816052e9,666b5f73dbba3f0cd916b177,666c6f7abe9b5aea8b5bbba4,,,,,,,,,,,,,,,,,,,,,,,,,,,,,,,,,,,,966.9033,972.7587,0,0,0,1,1,SoundStimuli/IWillAlwaysLoveYou_WhitneyHouston_Cover5S.wav,,,,,,,,,,,,,,,,,,,,,,,,,,,,,,,,,,,,,,,,,,,,,,,,,,,,,,,,,,
,,,,,621704,001,2024-06-14_13h24.10.289,experiment,2024.1.5,Win32,59.88023952,6437848cce0b587f816052e9,666b5f73dbba3f0cd916b177,666c6f7abe9b5aea8b5bbba4,,,,,,,,,,,,,,,,,,,,,,,,,,,,,,,,,,,,972.7674,979.1487,0,1,1,0,1,SoundStimuli/IWillAlwaysLoveYou_WhitneyHouston_Original5S.wav,,,,,,,,,,,,,,,,,,,,,,,,,,,,,,,,,,,,,,,,,,,,,,,,,,,,,,,,,,
,,,,,621704,001,2024-06-14_13h24.10.289,experiment,2024.1.5,Win32,59.88023952,6437848cce0b587f816052e9,666b5f73dbba3f0cd916b177,666c6f7abe9b5aea8b5bbba4,,,,,,,,,,,,,,,,,,,,,,,,,,,,,,,,,,,,,,,,,,,,979.149,981.8315,6.24681123,2.6631,0,2,2,10,1,song_indices/IWillAlwaysLoveYou_WhitneyHouston.csv,,,,,,,,,,,,,,,,,,,,,,,,,,,,,,,,,,,,,,,,,,,,,,,,
,,,,,621704,001,2024-06-14_13h24.10.289,experiment,2024.1.5,Win32,59.88023952,6437848cce0b587f816052e9,666b5f73dbba3f0cd916b177,666c6f7abe9b5aea8b5bbba4,,,,,,,,,,,,,,,,,,,,,,,,,,,,,,,,,,,,981.8321,988.1508,0,0,0,0,1,SoundStimuli/RockWithYou_MichaelJackson_Original5S.wav,,,,,,,,,,,,,,,,,,,,,,,,,,,,,,,,,,,,,,,,,,,,,,,,,,,,,,,,,,
,,,,,621704,001,2024-06-14_13h24.10.289,experiment,2024.1.5,Win32,59.88023952,6437848cce0b587f816052e9,666b5f73dbba3f0cd916b177,666c6f7abe9b5aea8b5bbba4,,,,,,,,,,,,,,,,,,,,,,,,,,,,,,,,,,,,988.1689,994.2415,0,1,1,1,1,SoundStimuli/RockWithYou_MichaelJackson_Cover5S.wav,,,,,,,,,,,,,,,,,,,,,,,,,,,,,,,,,,,,,,,,,,,,,,,,,,,,,,,,,,
,,,,,621704,001,2024-06-14_13h24.10.289,experiment,2024.1.5,Win32,59.88023952,6437848cce0b587f816052e9,666b5f73dbba3f0cd916b177,666c6f7abe9b5aea8b5bbba4,,,,,,,,,,,,,,,,,,,,,,,,,,,,,,,,,,,,,,,,,,,,994.2417,1018.37,4.052703807,24.1082,0,3,3,16,1,song_indices/RockWithYou_MichaelJackson.csv,,,,,,,,,,,,,,,,,,,,,,,,,,,,,,,,,,,,,,,,,,,,,,,,
,,,,,621704,001,2024-06-14_13h24.10.289,experiment,2024.1.5,Win32,59.88023952,6437848cce0b587f816052e9,666b5f73dbba3f0cd916b177,666c6f7abe9b5aea8b5bbba4,,,,,,,,,,,,,,,,,,,,,,,,,,,,,,,,,,,,1018.3713,1024.6427,0,0,0,0,1,SoundStimuli/ItsAllInTheGame_TommyEdwards_Original5S.wav,,,,,,,,,,,,,,,,,,,,,,,,,,,,,,,,,,,,,,,,,,,,,,,,,,,,,,,,,,
,,,,,621704,001,2024-06-14_13h24.10.289,experiment,2024.1.5,Win32,59.88023952,6437848cce0b587f816052e9,666b5f73dbba3f0cd916b177,666c6f7abe9b5aea8b5bbba4,,,,,,,,,,,,,,,,,,,,,,,,,,,,,,,,,,,,1024.6513,1030.8838,0,1,1,1,1,SoundStimuli/ItsAllInTheGame_TommyEdwards_Cover5S.wav,,,,,,,,,,,,,,,,,,,,,,,,,,,,,,,,,,,,,,,,,,,,,,,,,,,,,,,,,,
,,,,,621704,001,2024-06-14_13h24.10.289,experiment,2024.1.5,Win32,59.88023952,6437848cce0b587f816052e9,666b5f73dbba3f0cd916b177,666c6f7abe9b5aea8b5bbba4,,,,,,,,,,,,,,,,,,,,,,,,,,,,,,,,,,,,,,,,,,,,1030.884,1049.7275,4.052703807,18.8345,0,4,4,13,1,song_indices/ItsAllInTheGame_TommyEdwards.csv,,,,,,,,,,,,,,,,,,,,,,,,,,,,,,,,,,,,,,,,,,,,,,,,
,,,,,621704,001,2024-06-14_13h24.10.289,experiment,2024.1.5,Win32,59.88023952,6437848cce0b587f816052e9,666b5f73dbba3f0cd916b177,666c6f7abe9b5aea8b5bbba4,,,,,,,,,,,,,,,,,,,,,,,,,,,,,,,,,,,,1049.7282,1055.711,0,0,0,0,1,SoundStimuli/IWalkTheLine_JohnnyCash_Original5S.wav,,,,,,,,,,,,,,,,,,,,,,,,,,,,,,,,,,,,,,,,,,,,,,,,,,,,,,,,,,
,,,,,621704,001,2024-06-14_13h24.10.289,experiment,2024.1.5,Win32,59.88023952,6437848cce0b587f816052e9,666b5f73dbba3f0cd916b177,666c6f7abe9b5aea8b5bbba4,,,,,,,,,,,,,,,,,,,,,,,,,,,,,,,,,,,,1055.7335,1062.8732,0,1,1,1,1,SoundStimuli/IWalkTheLine_JohnnyCash_Cover5S.wav,,,,,,,,,,,,,,,,,,,,,,,,,,,,,,,,,,,,,,,,,,,,,,,,,,,,,,,,,,
,,,,,621704,001,2024-06-14_13h24.10.289,experiment,2024.1.5,Win32,59.88023952,6437848cce0b587f816052e9,666b5f73dbba3f0cd916b177,666c6f7abe9b5aea8b5bbba4,,,,,,,,,,,,,,,,,,,,,,,,,,,,,,,,,,,,,,,,,,,,1062.8733,1064.1484,6.356125929,1.2663,0,5,5,17,1,song_indices/IWalkTheLine_JohnnyCash.csv,,,,,,,,,,,,,,,,,,,,,,,,,,,,,,,,,,,,,,,,,,,,,,,,
,,,,,621704,001,2024-06-14_13h24.10.289,experiment,2024.1.5,Win32,59.88023952,6437848cce0b587f816052e9,666b5f73dbba3f0cd916b177,666c6f7abe9b5aea8b5bbba4,,,,,,,,,,,,,,,,,,,,,,,,,,,,,,,,,,,,1064.1492,1070.5876,0,0,0,1,1,SoundStimuli/Fallin_AliciaKeys_Cover5S.wav,,,,,,,,,,,,,,,,,,,,,,,,,,,,,,,,,,,,,,,,,,,,,,,,,,,,,,,,,,
,,,,,621704,001,2024-06-14_13h24.10.289,experiment,2024.1.5,Win32,59.88023952,6437848cce0b587f816052e9,666b5f73dbba3f0cd916b177,666c6f7abe9b5aea8b5bbba4,,,,,,,,,,,,,,,,,,,,,,,,,,,,,,,,,,,,1070.6114,1076.7772,0,1,1,0,1,SoundStimuli/Fallin_AliciaKeys_Original5S.wav,,,,,,,,,,,,,,,,,,,,,,,,,,,,,,,,,,,,,,,,,,,,,,,,,,,,,,,,,,
,,,,,621704,001,2024-06-14_13h24.10.289,experiment,2024.1.5,Win32,59.88023952,6437848cce0b587f816052e9,666b5f73dbba3f0cd916b177,666c6f7abe9b5aea8b5bbba4,,,,,,,,,,,,,,,,,,,,,,,,,,,,,,,,,,,,,,,,,,,,1076.7775,1092.0874,4.013662997,15.2896,0,6,6,12,1,song_indices/Fallin_AliciaKeys.csv,,,,,,,,,,,,,,,,,,,,,,,,,,,,,,,,,,,,,,,,,,,,,,,,
,,,,,621704,001,2024-06-14_13h24.10.289,experiment,2024.1.5,Win32,59.88023952,6437848cce0b587f816052e9,666b5f73dbba3f0cd916b177,666c6f7abe9b5aea8b5bbba4,,,,,,,,,,,,,,,,,,,,,,,,,,,,,,,,,,,,1092.0883,1098.5592,0,0,0,0,1,SoundStimuli/ShapeofYou_EdSheeran_Original5S.wav,,,,,,,,,,,,,,,,,,,,,,,,,,,,,,,,,,,,,,,,,,,,,,,,,,,,,,,,,,
,,,,,621704,001,2024-06-14_13h24.10.289,experiment,2024.1.5,Win32,59.88023952,6437848cce0b587f816052e9,666b5f73dbba3f0cd916b177,666c6f7abe9b5aea8b5bbba4,,,,,,,,,,,,,,,,,,,,,,,,,,,,,,,,,,,,1098.5771,1104.8829,0,1,1,1,1,SoundStimuli/ShapeofYou_EdSheeran_Cover5S.wav,,,,,,,,,,,,,,,,,,,,,,,,,,,,,,,,,,,,,,,,,,,,,,,,,,,,,,,,,,
,,,,,621704,001,2024-06-14_13h24.10.289,experiment,2024.1.5,Win32,59.88023952,6437848cce0b587f816052e9,666b5f73dbba3f0cd916b177,666c6f7abe9b5aea8b5bbba4,,,,,,,,,,,,,,,,,,,,,,,,,,,,,,,,,,,,,,,,,,,,1104.8831,1123.1702,4.013662997,18.2577,0,7,7,21,1,song_indices/ShapeofYou_EdSheeran.csv,,,,,,,,,,,,,,,,,,,,,,,,,,,,,,,,,,,,,,,,,,,,,,,,
,,,,,621704,001,2024-06-14_13h24.10.289,experiment,2024.1.5,Win32,59.88023952,6437848cce0b587f816052e9,666b5f73dbba3f0cd916b177,666c6f7abe9b5aea8b5bbba4,,,,,,,,,,,,,,,,,,,,,,,,,,,,,,,,,,,,1123.1713,1129.5267,0,0,0,1,1,SoundStimuli/GoodGollyMissMolly_LittleRichard_Cover5S.wav,,,,,,,,,,,,,,,,,,,,,,,,,,,,,,,,,,,,,,,,,,,,,,,,,,,,,,,,,,
,,,,,621704,001,2024-06-14_13h24.10.289,experiment,2024.1.5,Win32,59.88023952,6437848cce0b587f816052e9,666b5f73dbba3f0cd916b177,666c6f7abe9b5aea8b5bbba4,,,,,,,,,,,,,,,,,,,,,,,,,,,,,,,,,,,,1129.5362,1135.5849,0,1,1,0,1,SoundStimuli/GoodGollyMissMolly_LittleRichard_Original5S.wav,,,,,,,,,,,,,,,,,,,,,,,,,,,,,,,,,,,,,,,,,,,,,,,,,,,,,,,,,,
,,,,,621704,001,2024-06-14_13h24.10.289,experiment,2024.1.5,Win32,59.88023952,6437848cce0b587f816052e9,666b5f73dbba3f0cd916b177,666c6f7abe9b5aea8b5bbba4,,,,,,,,,,,,,,,,,,,,,,,,,,,,,,,,,,,,,,,,,,,,1135.5853,1138.447,6.481057524,2.8311,0,8,8,0,1,song_indices/GoodGollyMissMolly_LittleRichard.csv,,,,,,,,,,,,,,,,,,,,,,,,,,,,,,,,,,,,,,,,,,,,,,,,
,,,,,621704,001,2024-06-14_13h24.10.289,experiment,2024.1.5,Win32,59.88023952,6437848cce0b587f816052e9,666b5f73dbba3f0cd916b177,666c6f7abe9b5aea8b5bbba4,,,,,,,,,,,,,,,,,,,,,,,,,,,,,,,,,,,,1138.4483,1144.6695,0,0,0,1,1,SoundStimuli/GimmeShelter_RollingStones_Cover5S.wav,,,,,,,,,,,,,,,,,,,,,,,,,,,,,,,,,,,,,,,,,,,,,,,,,,,,,,,,,,
,,,,,621704,001,2024-06-14_13h24.10.289,experiment,2024.1.5,Win32,59.88023952,6437848cce0b587f816052e9,666b5f73dbba3f0cd916b177,666c6f7abe9b5aea8b5bbba4,,,,,,,,,,,,,,,,,,,,,,,,,,,,,,,,,,,,1144.6785,1150.7605,0,1,1,0,1,SoundStimuli/GimmeShelter_RollingStones_Original5S.wav,,,,,,,,,,,,,,,,,,,,,,,,,,,,,,,,,,,,,,,,,,,,,,,,,,,,,,,,,,
,,,,,621704,001,2024-06-14_13h24.10.289,experiment,2024.1.5,Win32,59.88023952,6437848cce0b587f816052e9,666b5f73dbba3f0cd916b177,666c6f7abe9b5aea8b5bbba4,,,,,,,,,,,,,,,,,,,,,,,,,,,,,,,,,,,,,,,,,,,,1150.7607,1151.991,6.481057524,1.2068,0,9,9,20,1,song_indices/GimmeShelter_RollingStones.csv,,,,,,,,,,,,,,,,,,,,,,,,,,,,,,,,,,,,,,,,,,,,,,,,
,,,,,621704,001,2024-06-14_13h24.10.289,experiment,2024.1.5,Win32,59.88023952,6437848cce0b587f816052e9,666b5f73dbba3f0cd916b177,666c6f7abe9b5aea8b5bbba4,,,,,,,,,,,,,,,,,,,,,,,,,,,,,,,,,,,,1151.9922,1158.1144,0,0,0,1,1,SoundStimuli/EyeOfTheTiger_Survivor_Cover5S.wav,,,,,,,,,,,,,,,,,,,,,,,,,,,,,,,,,,,,,,,,,,,,,,,,,,,,,,,,,,
,,,,,621704,001,2024-06-14_13h24.10.289,experiment,2024.1.5,Win32,59.88023952,6437848cce0b587f816052e9,666b5f73dbba3f0cd916b177,666c6f7abe9b5aea8b5bbba4,,,,,,,,,,,,,,,,,,,,,,,,,,,,,,,,,,,,1158.1235,1164.0221,0,1,1,0,1,SoundStimuli/EyeOfTheTiger_Survivor_Original5S.wav,,,,,,,,,,,,,,,,,,,,,,,,,,,,,,,,,,,,,,,,,,,,,,,,,,,,,,,,,,
,,,,,621704,001,2024-06-14_13h24.10.289,experiment,2024.1.5,Win32,59.88023952,6437848cce0b587f816052e9,666b5f73dbba3f0cd916b177,666c6f7abe9b5aea8b5bbba4,,,,,,,,,,,,,,,,,,,,,,,,,,,,,,,,,,,,,,,,,,,,1164.0223,1165.7028,6.481057524,1.6515,0,10,10,11,1,song_indices/EyeOfTheTiger_Survivor.csv,,,,,,,,,,,,,,,,,,,,,,,,,,,,,,,,,,,,,,,,,,,,,,,,
,,,,,621704,001,2024-06-14_13h24.10.289,experiment,2024.1.5,Win32,59.88023952,6437848cce0b587f816052e9,666b5f73dbba3f0cd916b177,666c6f7abe9b5aea8b5bbba4,,,,,,,,,,,,,,,,,,,,,,,,,,,,,,,,,,,,1165.704,1173.4411,0,0,0,0,1,SoundStimuli/NoOne_AliciaKeys_Original5S.wav,,,,,,,,,,,,,,,,,,,,,,,,,,,,,,,,,,,,,,,,,,,,,,,,,,,,,,,,,,
,,,,,621704,001,2024-06-14_13h24.10.289,experiment,2024.1.5,Win32,59.88023952,6437848cce0b587f816052e9,666b5f73dbba3f0cd916b177,666c6f7abe9b5aea8b5bbba4,,,,,,,,,,,,,,,,,,,,,,,,,,,,,,,,,,,,1173.4503,1179.6648,0,1,1,1,1,SoundStimuli/NoOne_AliciaKeys_Cover5S.wav,,,,,,,,,,,,,,,,,,,,,,,,,,,,,,,,,,,,,,,,,,,,,,,,,,,,,,,,,,
,,,,,621704,001,2024-06-14_13h24.10.289,experiment,2024.1.5,Win32,59.88023952,6437848cce0b587f816052e9,666b5f73dbba3f0cd916b177,666c6f7abe9b5aea8b5bbba4,,,,,,,,,,,,,,,,,,,,,,,,,,,,,,,,,,,,,,,,,,,,1179.6653,1198.8499,6.090646558,19.1571,0,11,11,19,1,song_indices/NoOne_AliciaKeys.csv,,,,,,,,,,,,,,,,,,,,,,,,,,,,,,,,,,,,,,,,,,,,,,,,
,,,,,621704,001,2024-06-14_13h24.10.289,experiment,2024.1.5,Win32,59.88023952,6437848cce0b587f816052e9,666b5f73dbba3f0cd916b177,666c6f7abe9b5aea8b5bbba4,,,,,,,,,,,,,,,,,,,,,,,,,,,,,,,,,,,,1198.851,1209.1006,0,0,0,1,1,SoundStimuli/CrazyInLove_BeyonceFtJayZ_Cover5S.wav,,,,,,,,,,,,,,,,,,,,,,,,,,,,,,,,,,,,,,,,,,,,,,,,,,,,,,,,,,
,,,,,621704,001,2024-06-14_13h24.10.289,experiment,2024.1.5,Win32,59.88023952,6437848cce0b587f816052e9,666b5f73dbba3f0cd916b177,666c6f7abe9b5aea8b5bbba4,,,,,,,,,,,,,,,,,,,,,,,,,,,,,,,,,,,,1209.1097,1215.6405,0,1,1,0,1,SoundStimuli/CrazyInLove_BeyonceFtJayZ_Original5S.wav,,,,,,,,,,,,,,,,,,,,,,,,,,,,,,,,,,,,,,,,,,,,,,,,,,,,,,,,,,
,,,,,621704,001,2024-06-14_13h24.10.289,experiment,2024.1.5,Win32,59.88023952,6437848cce0b587f816052e9,666b5f73dbba3f0cd916b177,666c6f7abe9b5aea8b5bbba4,,,,,,,,,,,,,,,,,,,,,,,,,,,,,,,,,,,,,,,,,,,,1215.6409,1216.7882,1.796131301,1.114,0,12,12,3,1,song_indices/CrazyInLove_BeyonceFtJayZ.csv,,,,,,,,,,,,,,,,,,,,,,,,,,,,,,,,,,,,,,,,,,,,,,,,
,,,,,621704,001,2024-06-14_13h24.10.289,experiment,2024.1.5,Win32,59.88023952,6437848cce0b587f816052e9,666b5f73dbba3f0cd916b177,666c6f7abe9b5aea8b5bbba4,,,,,,,,,,,,,,,,,,,,,,,,,,,,,,,,,,,,1216.7895,1224.1432,0,0,0,0,1,SoundStimuli/Happy_PharellWilliams_Original5S.wav,,,,,,,,,,,,,,,,,,,,,,,,,,,,,,,,,,,,,,,,,,,,,,,,,,,,,,,,,,
,,,,,621704,001,2024-06-14_13h24.10.289,experiment,2024.1.5,Win32,59.88023952,6437848cce0b587f816052e9,666b5f73dbba3f0cd916b177,666c6f7abe9b5aea8b5bbba4,,,,,,,,,,,,,,,,,,,,,,,,,,,,,,,,,,,,1224.1522,1231.4983,0,1,1,1,1,SoundStimuli/Happy_PharellWilliams_Cover5S.wav,,,,,,,,,,,,,,,,,,,,,,,,,,,,,,,,,,,,,,,,,,,,,,,,,,,,,,,,,,
,,,,,621704,001,2024-06-14_13h24.10.289,experiment,2024.1.5,Win32,59.88023952,6437848cce0b587f816052e9,666b5f73dbba3f0cd916b177,666c6f7abe9b5aea8b5bbba4,,,,,,,,,,,,,,,,,,,,,,,,,,,,,,,,,,,,,,,,,,,,1231.4984,1234.6763,6.192153524,3.1581,0,13,13,7,1,song_indices/Happy_PharellWilliams.csv,,,,,,,,,,,,,,,,,,,,,,,,,,,,,,,,,,,,,,,,,,,,,,,,
,,,,,621704,001,2024-06-14_13h24.10.289,experiment,2024.1.5,Win32,59.88023952,6437848cce0b587f816052e9,666b5f73dbba3f0cd916b177,666c6f7abe9b5aea8b5bbba4,,,,,,,,,,,,,,,,,,,,,,,,,,,,,,,,,,,,1234.6772,1241.439,0,0,0,0,1,SoundStimuli/PartyRockAnthem_LMFAO_Original5S.wav,,,,,,,,,,,,,,,,,,,,,,,,,,,,,,,,,,,,,,,,,,,,,,,,,,,,,,,,,,
,,,,,621704,001,2024-06-14_13h24.10.289,experiment,2024.1.5,Win32,59.88023952,6437848cce0b587f816052e9,666b5f73dbba3f0cd916b177,666c6f7abe9b5aea8b5bbba4,,,,,,,,,,,,,,,,,,,,,,,,,,,,,,,,,,,,1241.4491,1248.2383,0,1,1,1,1,SoundStimuli/PartyRockAnthem_LMFAO_Cover5S.wav,,,,,,,,,,,,,,,,,,,,,,,,,,,,,,,,,,,,,,,,,,,,,,,,,,,,,,,,,,
,,,,,621704,001,2024-06-14_13h24.10.289,experiment,2024.1.5,Win32,59.88023952,6437848cce0b587f816052e9,666b5f73dbba3f0cd916b177,666c6f7abe9b5aea8b5bbba4,,,,,,,,,,,,,,,,,,,,,,,,,,,,,,,,,,,,,,,,,,,,1248.2386,1257.6232,6.192153524,9.354,0,14,14,2,1,song_indices/PartyRockAnthem_LMFAO.csv,,,,,,,,,,,,,,,,,,,,,,,,,,,,,,,,,,,,,,,,,,,,,,,,
,,,,,621704,001,2024-06-14_13h24.10.289,experiment,2024.1.5,Win32,59.88023952,6437848cce0b587f816052e9,666b5f73dbba3f0cd916b177,666c6f7abe9b5aea8b5bbba4,,,,,,,,,,,,,,,,,,,,,,,,,,,,,,,,,,,,1257.6241,1263.9133,0,0,0,0,1,SoundStimuli/HeyYa_Outkast_Original5S.wav,,,,,,,,,,,,,,,,,,,,,,,,,,,,,,,,,,,,,,,,,,,,,,,,,,,,,,,,,,
,,,,,621704,001,2024-06-14_13h24.10.289,experiment,2024.1.5,Win32,59.88023952,6437848cce0b587f816052e9,666b5f73dbba3f0cd916b177,666c6f7abe9b5aea8b5bbba4,,,,,,,,,,,,,,,,,,,,,,,,,,,,,,,,,,,,1263.922,1272.8333,0,1,1,1,1,SoundStimuli/HeyYa_Outkast_Cover5S.wav,,,,,,,,,,,,,,,,,,,,,,,,,,,,,,,,,,,,,,,,,,,,,,,,,,,,,,,,,,
,,,,,621704,001,2024-06-14_13h24.10.289,experiment,2024.1.5,Win32,59.88023952,6437848cce0b587f816052e9,666b5f73dbba3f0cd916b177,666c6f7abe9b5aea8b5bbba4,,,,,,,,,,,,,,,,,,,,,,,,,,,,,,,,,,,,,,,,,,,,1272.8336,1275.1625,1.889829819,2.3052,0,15,15,22,1,song_indices/HeyYa_Outkast.csv,,,,,,,,,,,,,,,,,,,,,,,,,,,,,,,,,,,,,,,,,,,,,,,,
,,,,,621704,001,2024-06-14_13h24.10.289,experiment,2024.1.5,Win32,59.88023952,6437848cce0b587f816052e9,666b5f73dbba3f0cd916b177,666c6f7abe9b5aea8b5bbba4,,,,,,,,,,,,,,,,,,,,,,,,,,,,,,,,,,,,1275.1635,1281.1035,0,0,0,1,1,SoundStimuli/TheBoyIsMine_BrandyMonica_Cover5S.wav,,,,,,,,,,,,,,,,,,,,,,,,,,,,,,,,,,,,,,,,,,,,,,,,,,,,,,,,,,
,,,,,621704,001,2024-06-14_13h24.10.289,experiment,2024.1.5,Win32,59.88023952,6437848cce0b587f816052e9,666b5f73dbba3f0cd916b177,666c6f7abe9b5aea8b5bbba4,,,,,,,,,,,,,,,,,,,,,,,,,,,,,,,,,,,,1281.1124,1287.3258,0,1,1,0,1,SoundStimuli/TheBoyIsMine_BrandyMonica_Original5S.wav,,,,,,,,,,,,,,,,,,,,,,,,,,,,,,,,,,,,,,,,,,,,,,,,,,,,,,,,,,
,,,,,621704,001,2024-06-14_13h24.10.289,experiment,2024.1.5,Win32,59.88023952,6437848cce0b587f816052e9,666b5f73dbba3f0cd916b177,666c6f7abe9b5aea8b5bbba4,,,,,,,,,,,,,,,,,,,,,,,,,,,,,,,,,,,,,,,,,,,,1287.326,1288.3083,6.777769257,0.9699,0,16,16,6,1,song_indices/TheBoyIsMine_BrandyMonica.csv,,,,,,,,,,,,,,,,,,,,,,,,,,,,,,,,,,,,,,,,,,,,,,,,
,,,,,621704,001,2024-06-14_13h24.10.289,experiment,2024.1.5,Win32,59.88023952,6437848cce0b587f816052e9,666b5f73dbba3f0cd916b177,666c6f7abe9b5aea8b5bbba4,,,,,,,,,,,,,,,,,,,,,,,,,,,,,,,,,,,,1288.3093,1294.6483,0,0,0,1,1,SoundStimuli/Stronger_KanyeWest_Cover5S.wav,,,,,,,,,,,,,,,,,,,,,,,,,,,,,,,,,,,,,,,,,,,,,,,,,,,,,,,,,,
,,,,,621704,001,2024-06-14_13h24.10.289,experiment,2024.1.5,Win32,59.88023952,6437848cce0b587f816052e9,666b5f73dbba3f0cd916b177,666c6f7abe9b5aea8b5bbba4,,,,,,,,,,,,,,,,,,,,,,,,,,,,,,,,,,,,1294.6573,1300.707,0,1,1,0,1,SoundStimuli/Stronger_KanyeWest_Original5S.wav,,,,,,,,,,,,,,,,,,,,,,,,,,,,,,,,,,,,,,,,,,,,,,,,,,,,,,,,,,
,,,,,621704,001,2024-06-14_13h24.10.289,experiment,2024.1.5,Win32,59.88023952,6437848cce0b587f816052e9,666b5f73dbba3f0cd916b177,666c6f7abe9b5aea8b5bbba4,,,,,,,,,,,,,,,,,,,,,,,,,,,,,,,,,,,,,,,,,,,,1300.7073,1302.719,1.515035749,1.9839,0,17,17,9,1,song_indices/Stronger_KanyeWest.csv,,,,,,,,,,,,,,,,,,,,,,,,,,,,,,,,,,,,,,,,,,,,,,,,
,,,,,621704,001,2024-06-14_13h24.10.289,experiment,2024.1.5,Win32,59.88023952,6437848cce0b587f816052e9,666b5f73dbba3f0cd916b177,666c6f7abe9b5aea8b5bbba4,,,,,,,,,,,,,,,,,,,,,,,,,,,,,,,,,,,,1302.7202,1308.9263,0,0,0,0,1,SoundStimuli/TheBattleOfNewOrleans_JohnnyHorton_Original5S.wav,,,,,,,,,,,,,,,,,,,,,,,,,,,,,,,,,,,,,,,,,,,,,,,,,,,,,,,,,,
,,,,,621704,001,2024-06-14_13h24.10.289,experiment,2024.1.5,Win32,59.88023952,6437848cce0b587f816052e9,666b5f73dbba3f0cd916b177,666c6f7abe9b5aea8b5bbba4,,,,,,,,,,,,,,,,,,,,,,,,,,,,,,,,,,,,1308.944,1316.9127,0,1,1,1,1,SoundStimuli/TheBattleOfNewOrleans_JohnnyHorton_Cover5S.wav,,,,,,,,,,,,,,,,,,,,,,,,,,,,,,,,,,,,,,,,,,,,,,,,,,,,,,,,,,
,,,,,621704,001,2024-06-14_13h24.10.289,experiment,2024.1.5,Win32,59.88023952,6437848cce0b587f816052e9,666b5f73dbba3f0cd916b177,666c6f7abe9b5aea8b5bbba4,,,,,,,,,,,,,,,,,,,,,,,,,,,,,,,,,,,,,,,,,,,,1316.9132,1319.3918,4.068320346,2.4482,0,18,18,4,1,song_indices/TheBattleOfNewOrleans_JohnnyHorton.csv,,,,,,,,,,,,,,,,,,,,,,,,,,,,,,,,,,,,,,,,,,,,,,,,
,,,,,621704,001,2024-06-14_13h24.10.289,experiment,2024.1.5,Win32,59.88023952,6437848cce0b587f816052e9,666b5f73dbba3f0cd916b177,666c6f7abe9b5aea8b5bbba4,,,,,,,,,,,,,,,,,,,,,,,,,,,,,,,,,,,,1319.3929,1325.5824,0,0,0,0,1,SoundStimuli/NoScrubs_TLC_Original5S.wav,,,,,,,,,,,,,,,,,,,,,,,,,,,,,,,,,,,,,,,,,,,,,,,,,,,,,,,,,,
,,,,,621704,001,2024-06-14_13h24.10.289,experiment,2024.1.5,Win32,59.88023952,6437848cce0b587f816052e9,666b5f73dbba3f0cd916b177,666c6f7abe9b5aea8b5bbba4,,,,,,,,,,,,,,,,,,,,,,,,,,,,,,,,,,,,1325.5911,1331.7235,0,1,1,1,1,SoundStimuli/NoScrubs_TLC_Cover5S.wav,,,,,,,,,,,,,,,,,,,,,,,,,,,,,,,,,,,,,,,,,,,,,,,,,,,,,,,,,,
,,,,,621704,001,2024-06-14_13h24.10.289,experiment,2024.1.5,Win32,59.88023952,6437848cce0b587f816052e9,666b5f73dbba3f0cd916b177,666c6f7abe9b5aea8b5bbba4,,,,,,,,,,,,,,,,,,,,,,,,,,,,,,,,,,,,,,,,,,,,1331.7236,1335.3007,6.3327013,3.5584,0,19,19,14,1,song_indices/NoScrubs_TLC.csv,,,,,,,,,,,,,,,,,,,,,,,,,,,,,,,,,,,,,,,,,,,,,,,,
,,,,,621704,001,2024-06-14_13h24.10.289,experiment,2024.1.5,Win32,59.88023952,6437848cce0b587f816052e9,666b5f73dbba3f0cd916b177,666c6f7abe9b5aea8b5bbba4,,,,,,,,,,,,,,,,,,,,,,,,,,,,,,,,,,,,1335.302,1341.5081,0,0,0,0,1,SoundStimuli/SmellsLikeTeenSpirit_Nirvana_Original5S.wav,,,,,,,,,,,,,,,,,,,,,,,,,,,,,,,,,,,,,,,,,,,,,,,,,,,,,,,,,,
,,,,,621704,001,2024-06-14_13h24.10.289,experiment,2024.1.5,Win32,59.88023952,6437848cce0b587f816052e9,666b5f73dbba3f0cd916b177,666c6f7abe9b5aea8b5bbba4,,,,,,,,,,,,,,,,,,,,,,,,,,,,,,,,,,,,1341.5168,1347.2811,0,1,1,1,1,SoundStimuli/SmellsLikeTeenSpirit_Nirvana_Cover5S.wav,,,,,,,,,,,,,,,,,,,,,,,,,,,,,,,,,,,,,,,,,,,,,,,,,,,,,,,,,,
,,,,,621704,001,2024-06-14_13h24.10.289,experiment,2024.1.5,Win32,59.88023952,6437848cce0b587f816052e9,666b5f73dbba3f0cd916b177,666c6f7abe9b5aea8b5bbba4,,,,,,,,,,,,,,,,,,,,,,,,,,,,,,,,,,,,,,,,,,,,1347.2813,1348.5288,6.3327013,1.22,0,20,20,8,1,song_indices/SmellsLikeTeenSpirit_Nirvana.csv,,,,,,,,,,,,,,,,,,,,,,,,,,,,,,,,,,,,,,,,,,,,,,,,
,,,,,621704,001,2024-06-14_13h24.10.289,experiment,2024.1.5,Win32,59.88023952,6437848cce0b587f816052e9,666b5f73dbba3f0cd916b177,666c6f7abe9b5aea8b5bbba4,,,,,,,,,,,,,,,,,,,,,,,,,,,,,,,,,,,,1348.53,1355.5519,0,0,0,1,1,SoundStimuli/UptownFunk_MarkRonson_Cover5S.wav,,,,,,,,,,,,,,,,,,,,,,,,,,,,,,,,,,,,,,,,,,,,,,,,,,,,,,,,,,
,,,,,621704,001,2024-06-14_13h24.10.289,experiment,2024.1.5,Win32,59.88023952,6437848cce0b587f816052e9,666b5f73dbba3f0cd916b177,666c6f7abe9b5aea8b5bbba4,,,,,,,,,,,,,,,,,,,,,,,,,,,,,,,,,,,,1355.5643,1362.7897,0,1,1,0,1,SoundStimuli/UptownFunk_MarkRonson_Original5S.wav,,,,,,,,,,,,,,,,,,,,,,,,,,,,,,,,,,,,,,,,,,,,,,,,,,,,,,,,,,
,,,,,621704,001,2024-06-14_13h24.10.289,experiment,2024.1.5,Win32,59.88023952,6437848cce0b587f816052e9,666b5f73dbba3f0cd916b177,666c6f7abe9b5aea8b5bbba4,,,,,,,,,,,,,,,,,,,,,,,,,,,,,,,,,,,,,,,,,,,,1362.7899,1365.3535,6.3327013,2.5517,0,21,21,15,1,song_indices/UptownFunk_MarkRonson.csv,,,,,,,,,,,,,,,,,,,,,,,,,,,,,,,,,,,,,,,,,,,,,,,,
,,,,,621704,001,2024-06-14_13h24.10.289,experiment,2024.1.5,Win32,59.88023952,6437848cce0b587f816052e9,666b5f73dbba3f0cd916b177,666c6f7abe9b5aea8b5bbba4,,,,,,,,,,,,,,,,,,,,,,,,,,,,,,,,,,,,1365.3547,1371.4262,0,0,0,0,1,SoundStimuli/GetUrFreakOn_MissyElliot_Original5S.wav,,,,,,,,,,,,,,,,,,,,,,,,,,,,,,,,,,,,,,,,,,,,,,,,,,,,,,,,,,
,,,,,621704,001,2024-06-14_13h24.10.289,experiment,2024.1.5,Win32,59.88023952,6437848cce0b587f816052e9,666b5f73dbba3f0cd916b177,666c6f7abe9b5aea8b5bbba4,,,,,,,,,,,,,,,,,,,,,,,,,,,,,,,,,,,,1371.4488,1378.0337,0,1,1,1,1,SoundStimuli/GetUrFreakOn_MissyElliot_Cover5S.wav,,,,,,,,,,,,,,,,,,,,,,,,,,,,,,,,,,,,,,,,,,,,,,,,,,,,,,,,,,
,,,,,621704,001,2024-06-14_13h24.10.289,experiment,2024.1.5,Win32,59.88023952,6437848cce0b587f816052e9,666b5f73dbba3f0cd916b177,666c6f7abe9b5aea8b5bbba4,,,,,,,,,,,,,,,,,,,,,,,,,,,,,,,,,,,,,,,,,,,,1378.0339,1382.3583,1.483802851,4.3082,0,22,22,18,1,song_indices/GetUrFreakOn_MissyElliot.csv,,,,,,,,,,,,,,,,,,,,,,,,,,,,,,,,,,,,,,,,,,,,,,,,
,,,,,621704,001,2024-06-14_13h24.10.289,experiment,2024.1.5,Win32,59.88023952,6437848cce0b587f816052e9,666b5f73dbba3f0cd916b177,666c6f7abe9b5aea8b5bbba4,,,,,,,,,,,,,,,,,,,,,,,,,,,,,,,,,,,,,,,,,,,,,,,,,,,,,,1382.3585,1382.3586,,,,0,2,2,1,1,choose_song_b2.csv,,,,,,,,,,,,,,,,,,,,,,,,,,,,,,,,,,,,,
,,,,,621704,001,2024-06-14_13h24.10.289,experiment,2024.1.5,Win32,59.88023952,6437848cce0b587f816052e9,666b5f73dbba3f0cd916b177,666c6f7abe9b5aea8b5bbba4,,,,,,,,,,,,,,,,,,,,,,,,,,,,,,,,,,,,,,,,,,,,,,,,,,,,,,,,,,,,,,,,,50,Item 1,I was a self-taught rock guitarist playing from age 10 to 18,Item 3,"radio, Apple music and Spotify",6,6,"exercising, walking, driving",Sometimes,Rarely,Rarely,Often,Rarely,Sometimes,Rarely,Rarely,Sometimes,Often,Often,Rarely,Always,Rarely,Always,Sometimes,Afro pop,Reggae,Hip hop,R&B,not changed yet,none,0,0,0,0,1,,
,,,,,621704,001,2024-06-14_13h24.10.289,experiment,2024.1.5,Win32,59.88023952,6437848cce0b587f816052e9,666b5f73dbba3f0cd916b177,666c6f7abe9b5aea8b5bbba4,,,,,,,,,,,,,,,,,,,,,,,,,,,,,,,,,,,,,,,,,,,,,,,,,,,,,,,,,,,,,,,,,,,,,,,,,,,,,,,,,,,,,,,,,,,,,,,,,,,,2083.3843,2083.9698
