welcome.started,welcome.stopped,space_to_continue.keys,space_to_continue.rt,space_to_continue.duration,participant,session,date,expName,psychopyVersion,OS,frameRate,PROLIFIC_PID,STUDY_ID,SESSION_ID,consent.consent,consent.consent_recontact,consent_check.started,consent_check.stopped,calibration_ready.started,calibration_ready.stopped,cal_ready.keys,cal_ready.rt,cal_ready.duration,calibration.started,calibration.stopped,mouse.x,mouse.y,mouse.leftButton,mouse.midButton,mouse.rightButton,mouse.time,mouse.clicked_name,move_on.keys,move_on.rt,move_on.duration,instructions.started,instructions.stopped,next.keys,next.rt,next.duration,practice_trial.started,practice_trial.stopped,practice_slider.response,practice_slider.rt,ready.started,ready.stopped,key_resp.keys,key_resp.rt,key_resp.duration,play_sound.started,play_sound.stopped,trials.thisRepN,trials.thisTrialN,trials.thisN,trials.thisIndex,trials.ran,orig_or_cover,rating.started,rating.stopped,slider.response,slider.rt,songs.thisRepN,songs.thisTrialN,songs.thisN,songs.thisIndex,songs.ran,song_id,short_break.started,short_break.stopped,space_to_move_on.keys,space_to_move_on.rt,space_to_move_on.duration,blocks.thisRepN,blocks.thisTrialN,blocks.thisN,blocks.thisIndex,blocks.ran,block,survey.age,survey.musician,survey.music_making,survey.listen_time,survey.medium,survey.music_seeking,survey.music_choice,survey.activities,survey.question1.Ambient,survey.question1.R&B,survey.question1.Metal,survey.question1.Jazz,survey.question1.Latin,survey.question1.Hip hop,survey.question1.Disco,survey.question1.A cappella,survey.question1.Country,survey.question1.Alternative rock,survey.question1.Electronic (EDM),survey.question1.Folk/indie,survey.question1.Classical,survey.question1.Reggae,survey.question1.Pop,survey.question1.Classic rock,survey.other_genres,survey.genres_ranked.text1,survey.genres_ranked.text2,survey.genres_ranked.text3,survey.habit_change,survey.habits,experiment.thisRepN,experiment.thisTrialN,experiment.thisN,experiment.thisIndex,experiment.ran,goodbye.started,goodbye.stopped
0.0006,1.8595,space,1.8415,,626788,001,2024-06-17_08h58.42.893,experiment,2024.1.5,Win32,60.24096386,66463a60ee450cd8ae9bebc2,667045947eb812cbdacbf325,66704d388479de6f3cc536d8,,,,,,,,,,,,,,,,,,,,,,,,,,,,,,,,,,,,,,,,,,,,,,,,,,,,,,,,,,,,,,,,,,,,,,,,,,,,,,,,,,,,,,,,,,,,,,,,,,,,,
,,,,,626788,001,2024-06-17_08h58.42.893,experiment,2024.1.5,Win32,60.24096386,66463a60ee450cd8ae9bebc2,667045947eb812cbdacbf325,66704d388479de6f3cc536d8,yes,yes,,,,,,,,,,,,,,,,,,,,,,,,,,,,,,,,,,,,,,,,,,,,,,,,,,,,,,,,,,,,,,,,,,,,,,,,,,,,,,,,,,,,,,,,,,,,,,,,,,,
,,,,,626788,001,2024-06-17_08h58.42.893,experiment,2024.1.5,Win32,60.24096386,66463a60ee450cd8ae9bebc2,667045947eb812cbdacbf325,66704d388479de6f3cc536d8,,,18.3246,18.3247,,,,,,,,,,,,,,,,,,,,,,,,,,,,,,,,,,,,,,,,,,,,,,,,,,,,,,,,,,,,,,,,,,,,,,,,,,,,,,,,,,,,,,,,,,,,,,,,,
,,,,,626788,001,2024-06-17_08h58.42.893,experiment,2024.1.5,Win32,60.24096386,66463a60ee450cd8ae9bebc2,667045947eb812cbdacbf325,66704d388479de6f3cc536d8,,,,,18.3258,22.6813,space,4.3428,,22.6814,55.243,"[-0.009259259259259259,-0.021296296296296296,0.004629629629629629]","[-0.3962962962962963,-0.4305555555555556,-0.4351851851851852]","[1,1,1]","[0,0,0]","[0,0,0]","[10.76490000000014,11.771300000000053,29.48780000000005]","[""play_button"",""play_button""]",right,22.5223,,55.2431,65.8928,space,10.6216,,65.893,90.293,4,24.3932,90.2932,92.1928,space,1.8675,,92.2066,98.8488,0,0,0,1,1,SoundStimuli/LetsGetItOn_MarvinGaye_Cover5S.wav,,,,,,,,,,,,,,,,,,,,,,,,,,,,,,,,,,,,,,,,,,,,,,,,,,,,,,,,,,
,,,,,626788,001,2024-06-17_08h58.42.893,experiment,2024.1.5,Win32,60.24096386,66463a60ee450cd8ae9bebc2,667045947eb812cbdacbf325,66704d388479de6f3cc536d8,,,,,,,,,,,,,,,,,,,,,,,,,,,,,,,,,,,,98.8538,105.1471,0,1,1,0,1,SoundStimuli/LetsGetItOn_MarvinGaye_Original5S.wav,,,,,,,,,,,,,,,,,,,,,,,,,,,,,,,,,,,,,,,,,,,,,,,,,,,,,,,,,,
,,,,,626788,001,2024-06-17_08h58.42.893,experiment,2024.1.5,Win32,60.24096386,66463a60ee450cd8ae9bebc2,667045947eb812cbdacbf325,66704d388479de6f3cc536d8,,,,,,,,,,,,,,,,,,,,,,,,,,,,,,,,,,,,,,,,,,,,105.1526,107.4816,3.033333333,2.3281,0,0,0,20,1,song_indices/LetsGetItOn_MarvinGaye.csv,,,,,,,,,,,,,,,,,,,,,,,,,,,,,,,,,,,,,,,,,,,,,,,,
,,,,,626788,001,2024-06-17_08h58.42.893,experiment,2024.1.5,Win32,60.24096386,66463a60ee450cd8ae9bebc2,667045947eb812cbdacbf325,66704d388479de6f3cc536d8,,,,,,,,,,,,,,,,,,,,,,,,,,,,,,,,,,,,107.4821,113.7592,0,0,0,1,1,SoundStimuli/Kiss_Prince_Cover5S.wav,,,,,,,,,,,,,,,,,,,,,,,,,,,,,,,,,,,,,,,,,,,,,,,,,,,,,,,,,,
,,,,,626788,001,2024-06-17_08h58.42.893,experiment,2024.1.5,Win32,60.24096386,66463a60ee450cd8ae9bebc2,667045947eb812cbdacbf325,66704d388479de6f3cc536d8,,,,,,,,,,,,,,,,,,,,,,,,,,,,,,,,,,,,113.7642,121.1925,0,1,1,0,1,SoundStimuli/Kiss_Prince_Original5S.wav,,,,,,,,,,,,,,,,,,,,,,,,,,,,,,,,,,,,,,,,,,,,,,,,,,,,,,,,,,
,,,,,626788,001,2024-06-17_08h58.42.893,experiment,2024.1.5,Win32,60.24096386,66463a60ee450cd8ae9bebc2,667045947eb812cbdacbf325,66704d388479de6f3cc536d8,,,,,,,,,,,,,,,,,,,,,,,,,,,,,,,,,,,,,,,,,,,,121.1925,126.5758,1.95,5.3674,0,1,1,14,1,song_indices/Kiss_Prince.csv,,,,,,,,,,,,,,,,,,,,,,,,,,,,,,,,,,,,,,,,,,,,,,,,
,,,,,626788,001,2024-06-17_08h58.42.893,experiment,2024.1.5,Win32,60.24096386,66463a60ee450cd8ae9bebc2,667045947eb812cbdacbf325,66704d388479de6f3cc536d8,,,,,,,,,,,,,,,,,,,,,,,,,,,,,,,,,,,,126.5764,132.6503,0,0,0,0,1,SoundStimuli/TossinAndTurnin_BobbyLewis_Original5S.wav,,,,,,,,,,,,,,,,,,,,,,,,,,,,,,,,,,,,,,,,,,,,,,,,,,,,,,,,,,
,,,,,626788,001,2024-06-17_08h58.42.893,experiment,2024.1.5,Win32,60.24096386,66463a60ee450cd8ae9bebc2,667045947eb812cbdacbf325,66704d388479de6f3cc536d8,,,,,,,,,,,,,,,,,,,,,,,,,,,,,,,,,,,,132.6556,138.764,0,1,1,1,1,SoundStimuli/TossinAndTurnin_BobbyLewis_Cover5S.wav,,,,,,,,,,,,,,,,,,,,,,,,,,,,,,,,,,,,,,,,,,,,,,,,,,,,,,,,,,
,,,,,626788,001,2024-06-17_08h58.42.893,experiment,2024.1.5,Win32,60.24096386,66463a60ee450cd8ae9bebc2,667045947eb812cbdacbf325,66704d388479de6f3cc536d8,,,,,,,,,,,,,,,,,,,,,,,,,,,,,,,,,,,,,,,,,,,,138.7641,140.9506,4.077777778,2.1809,0,2,2,13,1,song_indices/TossinAndTurnin_BobbyLewis.csv,,,,,,,,,,,,,,,,,,,,,,,,,,,,,,,,,,,,,,,,,,,,,,,,
,,,,,626788,001,2024-06-17_08h58.42.893,experiment,2024.1.5,Win32,60.24096386,66463a60ee450cd8ae9bebc2,667045947eb812cbdacbf325,66704d388479de6f3cc536d8,,,,,,,,,,,,,,,,,,,,,,,,,,,,,,,,,,,,140.9511,147.4423,0,0,0,0,1,SoundStimuli/BlindingLights_TheWeeknd_Original5S.wav,,,,,,,,,,,,,,,,,,,,,,,,,,,,,,,,,,,,,,,,,,,,,,,,,,,,,,,,,,
,,,,,626788,001,2024-06-17_08h58.42.893,experiment,2024.1.5,Win32,60.24096386,66463a60ee450cd8ae9bebc2,667045947eb812cbdacbf325,66704d388479de6f3cc536d8,,,,,,,,,,,,,,,,,,,,,,,,,,,,,,,,,,,,147.4474,154.2804,0,1,1,1,1,SoundStimuli/BlindingLights_TheWeeknd_Cover5S.wav,,,,,,,,,,,,,,,,,,,,,,,,,,,,,,,,,,,,,,,,,,,,,,,,,,,,,,,,,,
,,,,,626788,001,2024-06-17_08h58.42.893,experiment,2024.1.5,Win32,60.24096386,66463a60ee450cd8ae9bebc2,667045947eb812cbdacbf325,66704d388479de6f3cc536d8,,,,,,,,,,,,,,,,,,,,,,,,,,,,,,,,,,,,,,,,,,,,154.2805,155.5258,4.927777778,1.2376,0,3,3,21,1,song_indices/BlindingLights_TheWeeknd.csv,,,,,,,,,,,,,,,,,,,,,,,,,,,,,,,,,,,,,,,,,,,,,,,,
,,,,,626788,001,2024-06-17_08h58.42.893,experiment,2024.1.5,Win32,60.24096386,66463a60ee450cd8ae9bebc2,667045947eb812cbdacbf325,66704d388479de6f3cc536d8,,,,,,,,,,,,,,,,,,,,,,,,,,,,,,,,,,,,155.5265,161.4424,0,0,0,1,1,SoundStimuli/Irreplaceable_Beyonce_Cover5S.wav,,,,,,,,,,,,,,,,,,,,,,,,,,,,,,,,,,,,,,,,,,,,,,,,,,,,,,,,,,
,,,,,626788,001,2024-06-17_08h58.42.893,experiment,2024.1.5,Win32,60.24096386,66463a60ee450cd8ae9bebc2,667045947eb812cbdacbf325,66704d388479de6f3cc536d8,,,,,,,,,,,,,,,,,,,,,,,,,,,,,,,,,,,,161.4475,167.3304,0,1,1,0,1,SoundStimuli/Irreplaceable_Beyonce_Original5S.wav,,,,,,,,,,,,,,,,,,,,,,,,,,,,,,,,,,,,,,,,,,,,,,,,,,,,,,,,,,
,,,,,626788,001,2024-06-17_08h58.42.893,experiment,2024.1.5,Win32,60.24096386,66463a60ee450cd8ae9bebc2,667045947eb812cbdacbf325,66704d388479de6f3cc536d8,,,,,,,,,,,,,,,,,,,,,,,,,,,,,,,,,,,,,,,,,,,,167.3305,169.0474,6.127777778,1.7113,0,4,4,19,1,song_indices/Irreplaceable_Beyonce.csv,,,,,,,,,,,,,,,,,,,,,,,,,,,,,,,,,,,,,,,,,,,,,,,,
,,,,,626788,001,2024-06-17_08h58.42.893,experiment,2024.1.5,Win32,60.24096386,66463a60ee450cd8ae9bebc2,667045947eb812cbdacbf325,66704d388479de6f3cc536d8,,,,,,,,,,,,,,,,,,,,,,,,,,,,,,,,,,,,169.0478,175.2469,0,0,0,0,1,SoundStimuli/SaveYourTears_TheWeekndArianaGrande_Original5S.wav,,,,,,,,,,,,,,,,,,,,,,,,,,,,,,,,,,,,,,,,,,,,,,,,,,,,,,,,,,
,,,,,626788,001,2024-06-17_08h58.42.893,experiment,2024.1.5,Win32,60.24096386,66463a60ee450cd8ae9bebc2,667045947eb812cbdacbf325,66704d388479de6f3cc536d8,,,,,,,,,,,,,,,,,,,,,,,,,,,,,,,,,,,,175.252,181.15,0,1,1,1,1,SoundStimuli/SaveYourTears_TheWeekndArianaGrande_Cover5S.wav,,,,,,,,,,,,,,,,,,,,,,,,,,,,,,,,,,,,,,,,,,,,,,,,,,,,,,,,,,
,,,,,626788,001,2024-06-17_08h58.42.893,experiment,2024.1.5,Win32,60.24096386,66463a60ee450cd8ae9bebc2,667045947eb812cbdacbf325,66704d388479de6f3cc536d8,,,,,,,,,,,,,,,,,,,,,,,,,,,,,,,,,,,,,,,,,,,,181.1501,183.6646,1.888888889,2.5089,0,5,5,12,1,song_indices/SaveYourTears_TheWeekndArianaGrande.csv,,,,,,,,,,,,,,,,,,,,,,,,,,,,,,,,,,,,,,,,,,,,,,,,
,,,,,626788,001,2024-06-17_08h58.42.893,experiment,2024.1.5,Win32,60.24096386,66463a60ee450cd8ae9bebc2,667045947eb812cbdacbf325,66704d388479de6f3cc536d8,,,,,,,,,,,,,,,,,,,,,,,,,,,,,,,,,,,,183.665,190.0589,0,0,0,0,1,SoundStimuli/FlashdanceWhatAFeeling_IreneCara_Original5S.wav,,,,,,,,,,,,,,,,,,,,,,,,,,,,,,,,,,,,,,,,,,,,,,,,,,,,,,,,,,
,,,,,626788,001,2024-06-17_08h58.42.893,experiment,2024.1.5,Win32,60.24096386,66463a60ee450cd8ae9bebc2,667045947eb812cbdacbf325,66704d388479de6f3cc536d8,,,,,,,,,,,,,,,,,,,,,,,,,,,,,,,,,,,,190.0641,197.3467,0,1,1,1,1,SoundStimuli/FlashdanceWhatAFeeling_IreneCara_Cover5S.wav,,,,,,,,,,,,,,,,,,,,,,,,,,,,,,,,,,,,,,,,,,,,,,,,,,,,,,,,,,
,,,,,626788,001,2024-06-17_08h58.42.893,experiment,2024.1.5,Win32,60.24096386,66463a60ee450cd8ae9bebc2,667045947eb812cbdacbf325,66704d388479de6f3cc536d8,,,,,,,,,,,,,,,,,,,,,,,,,,,,,,,,,,,,,,,,,,,,197.3467,198.7088,6.955555556,1.3484,0,6,6,18,1,song_indices/FlashdanceWhatAFeeling_IreneCara.csv,,,,,,,,,,,,,,,,,,,,,,,,,,,,,,,,,,,,,,,,,,,,,,,,
,,,,,626788,001,2024-06-17_08h58.42.893,experiment,2024.1.5,Win32,60.24096386,66463a60ee450cd8ae9bebc2,667045947eb812cbdacbf325,66704d388479de6f3cc536d8,,,,,,,,,,,,,,,,,,,,,,,,,,,,,,,,,,,,198.7093,204.7255,0,0,0,1,1,SoundStimuli/TheSign_AceOfBase_Cover5S.wav,,,,,,,,,,,,,,,,,,,,,,,,,,,,,,,,,,,,,,,,,,,,,,,,,,,,,,,,,,
,,,,,626788,001,2024-06-17_08h58.42.893,experiment,2024.1.5,Win32,60.24096386,66463a60ee450cd8ae9bebc2,667045947eb812cbdacbf325,66704d388479de6f3cc536d8,,,,,,,,,,,,,,,,,,,,,,,,,,,,,,,,,,,,204.7308,210.8922,0,1,1,0,1,SoundStimuli/TheSign_AceOfBase_Original5S.wav,,,,,,,,,,,,,,,,,,,,,,,,,,,,,,,,,,,,,,,,,,,,,,,,,,,,,,,,,,
,,,,,626788,001,2024-06-17_08h58.42.893,experiment,2024.1.5,Win32,60.24096386,66463a60ee450cd8ae9bebc2,667045947eb812cbdacbf325,66704d388479de6f3cc536d8,,,,,,,,,,,,,,,,,,,,,,,,,,,,,,,,,,,,,,,,,,,,210.8923,213.6139,4.644444444,2.716,0,7,7,5,1,song_indices/TheSign_AceOfBase.csv,,,,,,,,,,,,,,,,,,,,,,,,,,,,,,,,,,,,,,,,,,,,,,,,
,,,,,626788,001,2024-06-17_08h58.42.893,experiment,2024.1.5,Win32,60.24096386,66463a60ee450cd8ae9bebc2,667045947eb812cbdacbf325,66704d388479de6f3cc536d8,,,,,,,,,,,,,,,,,,,,,,,,,,,,,,,,,,,,213.6144,219.1304,0,0,0,1,1,SoundStimuli/LeFreak_Chic_Cover5S.wav,,,,,,,,,,,,,,,,,,,,,,,,,,,,,,,,,,,,,,,,,,,,,,,,,,,,,,,,,,
,,,,,626788,001,2024-06-17_08h58.42.893,experiment,2024.1.5,Win32,60.24096386,66463a60ee450cd8ae9bebc2,667045947eb812cbdacbf325,66704d388479de6f3cc536d8,,,,,,,,,,,,,,,,,,,,,,,,,,,,,,,,,,,,219.1355,225.1589,0,1,1,0,1,SoundStimuli/LeFreak_Chic_Original5S.wav,,,,,,,,,,,,,,,,,,,,,,,,,,,,,,,,,,,,,,,,,,,,,,,,,,,,,,,,,,
,,,,,626788,001,2024-06-17_08h58.42.893,experiment,2024.1.5,Win32,60.24096386,66463a60ee450cd8ae9bebc2,667045947eb812cbdacbf325,66704d388479de6f3cc536d8,,,,,,,,,,,,,,,,,,,,,,,,,,,,,,,,,,,,,,,,,,,,225.159,227.309,3.6,2.1416,0,8,8,11,1,song_indices/LeFreak_Chic.csv,,,,,,,,,,,,,,,,,,,,,,,,,,,,,,,,,,,,,,,,,,,,,,,,
,,,,,626788,001,2024-06-17_08h58.42.893,experiment,2024.1.5,Win32,60.24096386,66463a60ee450cd8ae9bebc2,667045947eb812cbdacbf325,66704d388479de6f3cc536d8,,,,,,,,,,,,,,,,,,,,,,,,,,,,,,,,,,,,227.3097,233.3422,0,0,0,0,1,SoundStimuli/HowDoILive_LeAnnRimes_Original5S.wav,,,,,,,,,,,,,,,,,,,,,,,,,,,,,,,,,,,,,,,,,,,,,,,,,,,,,,,,,,
,,,,,626788,001,2024-06-17_08h58.42.893,experiment,2024.1.5,Win32,60.24096386,66463a60ee450cd8ae9bebc2,667045947eb812cbdacbf325,66704d388479de6f3cc536d8,,,,,,,,,,,,,,,,,,,,,,,,,,,,,,,,,,,,233.3478,238.842,0,1,1,1,1,SoundStimuli/HowDoILive_LeAnnRimes_Cover5S.wav,,,,,,,,,,,,,,,,,,,,,,,,,,,,,,,,,,,,,,,,,,,,,,,,,,,,,,,,,,
,,,,,626788,001,2024-06-17_08h58.42.893,experiment,2024.1.5,Win32,60.24096386,66463a60ee450cd8ae9bebc2,667045947eb812cbdacbf325,66704d388479de6f3cc536d8,,,,,,,,,,,,,,,,,,,,,,,,,,,,,,,,,,,,,,,,,,,,238.8422,240.4304,4.638888889,1.5827,0,9,9,17,1,song_indices/HowDoILive_LeAnnRimes.csv,,,,,,,,,,,,,,,,,,,,,,,,,,,,,,,,,,,,,,,,,,,,,,,,
,,,,,626788,001,2024-06-17_08h58.42.893,experiment,2024.1.5,Win32,60.24096386,66463a60ee450cd8ae9bebc2,667045947eb812cbdacbf325,66704d388479de6f3cc536d8,,,,,,,,,,,,,,,,,,,,,,,,,,,,,,,,,,,,240.4308,246.9089,0,0,0,1,1,SoundStimuli/Weak_SWV_Cover5S.wav,,,,,,,,,,,,,,,,,,,,,,,,,,,,,,,,,,,,,,,,,,,,,,,,,,,,,,,,,,
,,,,,626788,001,2024-06-17_08h58.42.893,experiment,2024.1.5,Win32,60.24096386,66463a60ee450cd8ae9bebc2,667045947eb812cbdacbf325,66704d388479de6f3cc536d8,,,,,,,,,,,,,,,,,,,,,,,,,,,,,,,,,,,,246.9139,252.9963,0,1,1,0,1,SoundStimuli/Weak_SWV_Original5S.wav,,,,,,,,,,,,,,,,,,,,,,,,,,,,,,,,,,,,,,,,,,,,,,,,,,,,,,,,,,
,,,,,626788,001,2024-06-17_08h58.42.893,experiment,2024.1.5,Win32,60.24096386,66463a60ee450cd8ae9bebc2,667045947eb812cbdacbf325,66704d388479de6f3cc536d8,,,,,,,,,,,,,,,,,,,,,,,,,,,,,,,,,,,,,,,,,,,,252.9964,256.3974,1.338888889,3.3954,0,10,10,6,1,song_indices/Weak_SWV.csv,,,,,,,,,,,,,,,,,,,,,,,,,,,,,,,,,,,,,,,,,,,,,,,,
,,,,,626788,001,2024-06-17_08h58.42.893,experiment,2024.1.5,Win32,60.24096386,66463a60ee450cd8ae9bebc2,667045947eb812cbdacbf325,66704d388479de6f3cc536d8,,,,,,,,,,,,,,,,,,,,,,,,,,,,,,,,,,,,256.3979,261.6921,0,0,0,1,1,SoundStimuli/Superstition_StevieWonder_Cover5S.wav,,,,,,,,,,,,,,,,,,,,,,,,,,,,,,,,,,,,,,,,,,,,,,,,,,,,,,,,,,
,,,,,626788,001,2024-06-17_08h58.42.893,experiment,2024.1.5,Win32,60.24096386,66463a60ee450cd8ae9bebc2,667045947eb812cbdacbf325,66704d388479de6f3cc536d8,,,,,,,,,,,,,,,,,,,,,,,,,,,,,,,,,,,,261.6976,267.8474,0,1,1,0,1,SoundStimuli/Superstition_StevieWonder_Original5S.wav,,,,,,,,,,,,,,,,,,,,,,,,,,,,,,,,,,,,,,,,,,,,,,,,,,,,,,,,,,
,,,,,626788,001,2024-06-17_08h58.42.893,experiment,2024.1.5,Win32,60.24096386,66463a60ee450cd8ae9bebc2,667045947eb812cbdacbf325,66704d388479de6f3cc536d8,,,,,,,,,,,,,,,,,,,,,,,,,,,,,,,,,,,,,,,,,,,,267.8475,268.9254,2.766666667,1.0699,0,11,11,15,1,song_indices/Superstition_StevieWonder.csv,,,,,,,,,,,,,,,,,,,,,,,,,,,,,,,,,,,,,,,,,,,,,,,,
,,,,,626788,001,2024-06-17_08h58.42.893,experiment,2024.1.5,Win32,60.24096386,66463a60ee450cd8ae9bebc2,667045947eb812cbdacbf325,66704d388479de6f3cc536d8,,,,,,,,,,,,,,,,,,,,,,,,,,,,,,,,,,,,268.9259,275.1422,0,0,0,0,1,SoundStimuli/TikTok_Kesha_Original5S.wav,,,,,,,,,,,,,,,,,,,,,,,,,,,,,,,,,,,,,,,,,,,,,,,,,,,,,,,,,,
,,,,,626788,001,2024-06-17_08h58.42.893,experiment,2024.1.5,Win32,60.24096386,66463a60ee450cd8ae9bebc2,667045947eb812cbdacbf325,66704d388479de6f3cc536d8,,,,,,,,,,,,,,,,,,,,,,,,,,,,,,,,,,,,275.1473,282.6798,0,1,1,1,1,SoundStimuli/TikTok_Kesha_Cover5S.wav,,,,,,,,,,,,,,,,,,,,,,,,,,,,,,,,,,,,,,,,,,,,,,,,,,,,,,,,,,
,,,,,626788,001,2024-06-17_08h58.42.893,experiment,2024.1.5,Win32,60.24096386,66463a60ee450cd8ae9bebc2,667045947eb812cbdacbf325,66704d388479de6f3cc536d8,,,,,,,,,,,,,,,,,,,,,,,,,,,,,,,,,,,,,,,,,,,,282.6799,291.4921,1.055555556,8.8014,0,12,12,3,1,song_indices/TikTok_Kesha.csv,,,,,,,,,,,,,,,,,,,,,,,,,,,,,,,,,,,,,,,,,,,,,,,,
,,,,,626788,001,2024-06-17_08h58.42.893,experiment,2024.1.5,Win32,60.24096386,66463a60ee450cd8ae9bebc2,667045947eb812cbdacbf325,66704d388479de6f3cc536d8,,,,,,,,,,,,,,,,,,,,,,,,,,,,,,,,,,,,291.4927,297.6919,0,0,0,0,1,SoundStimuli/Dilemma_NellyKellyRowland_Original5S.wav,,,,,,,,,,,,,,,,,,,,,,,,,,,,,,,,,,,,,,,,,,,,,,,,,,,,,,,,,,
,,,,,626788,001,2024-06-17_08h58.42.893,experiment,2024.1.5,Win32,60.24096386,66463a60ee450cd8ae9bebc2,667045947eb812cbdacbf325,66704d388479de6f3cc536d8,,,,,,,,,,,,,,,,,,,,,,,,,,,,,,,,,,,,297.6971,304.6812,0,1,1,1,1,SoundStimuli/Dilemma_NellyKellyRowland_Cover5S.wav,,,,,,,,,,,,,,,,,,,,,,,,,,,,,,,,,,,,,,,,,,,,,,,,,,,,,,,,,,
,,,,,626788,001,2024-06-17_08h58.42.893,experiment,2024.1.5,Win32,60.24096386,66463a60ee450cd8ae9bebc2,667045947eb812cbdacbf325,66704d388479de6f3cc536d8,,,,,,,,,,,,,,,,,,,,,,,,,,,,,,,,,,,,,,,,,,,,304.6812,305.9303,1.288888889,1.2433,0,13,13,2,1,song_indices/Dilemma_NellyKellyRowland.csv,,,,,,,,,,,,,,,,,,,,,,,,,,,,,,,,,,,,,,,,,,,,,,,,
,,,,,626788,001,2024-06-17_08h58.42.893,experiment,2024.1.5,Win32,60.24096386,66463a60ee450cd8ae9bebc2,667045947eb812cbdacbf325,66704d388479de6f3cc536d8,,,,,,,,,,,,,,,,,,,,,,,,,,,,,,,,,,,,305.9307,312.7797,0,0,0,1,1,SoundStimuli/PokerFace_LadyGaga_Cover5S.wav,,,,,,,,,,,,,,,,,,,,,,,,,,,,,,,,,,,,,,,,,,,,,,,,,,,,,,,,,,
,,,,,626788,001,2024-06-17_08h58.42.893,experiment,2024.1.5,Win32,60.24096386,66463a60ee450cd8ae9bebc2,667045947eb812cbdacbf325,66704d388479de6f3cc536d8,,,,,,,,,,,,,,,,,,,,,,,,,,,,,,,,,,,,312.7849,319.7918,0,1,1,0,1,SoundStimuli/PokerFace_LadyGaga_Original5S.wav,,,,,,,,,,,,,,,,,,,,,,,,,,,,,,,,,,,,,,,,,,,,,,,,,,,,,,,,,,
,,,,,626788,001,2024-06-17_08h58.42.893,experiment,2024.1.5,Win32,60.24096386,66463a60ee450cd8ae9bebc2,667045947eb812cbdacbf325,66704d388479de6f3cc536d8,,,,,,,,,,,,,,,,,,,,,,,,,,,,,,,,,,,,,,,,,,,,319.7919,321.8253,1.161111111,2.0171,0,14,14,23,1,song_indices/PokerFace_LadyGaga.csv,,,,,,,,,,,,,,,,,,,,,,,,,,,,,,,,,,,,,,,,,,,,,,,,
,,,,,626788,001,2024-06-17_08h58.42.893,experiment,2024.1.5,Win32,60.24096386,66463a60ee450cd8ae9bebc2,667045947eb812cbdacbf325,66704d388479de6f3cc536d8,,,,,,,,,,,,,,,,,,,,,,,,,,,,,,,,,,,,321.8259,328.3418,0,0,0,0,1,SoundStimuli/Dreams_FleetwoodMac_Original5S.wav,,,,,,,,,,,,,,,,,,,,,,,,,,,,,,,,,,,,,,,,,,,,,,,,,,,,,,,,,,
,,,,,626788,001,2024-06-17_08h58.42.893,experiment,2024.1.5,Win32,60.24096386,66463a60ee450cd8ae9bebc2,667045947eb812cbdacbf325,66704d388479de6f3cc536d8,,,,,,,,,,,,,,,,,,,,,,,,,,,,,,,,,,,,328.347,336.1803,0,1,1,1,1,SoundStimuli/Dreams_FleetwoodMac_Cover5S.wav,,,,,,,,,,,,,,,,,,,,,,,,,,,,,,,,,,,,,,,,,,,,,,,,,,,,,,,,,,
,,,,,626788,001,2024-06-17_08h58.42.893,experiment,2024.1.5,Win32,60.24096386,66463a60ee450cd8ae9bebc2,667045947eb812cbdacbf325,66704d388479de6f3cc536d8,,,,,,,,,,,,,,,,,,,,,,,,,,,,,,,,,,,,,,,,,,,,336.1804,337.8758,3.15,1.6895,0,15,15,1,1,song_indices/Dreams_FleetwoodMac.csv,,,,,,,,,,,,,,,,,,,,,,,,,,,,,,,,,,,,,,,,,,,,,,,,
,,,,,626788,001,2024-06-17_08h58.42.893,experiment,2024.1.5,Win32,60.24096386,66463a60ee450cd8ae9bebc2,667045947eb812cbdacbf325,66704d388479de6f3cc536d8,,,,,,,,,,,,,,,,,,,,,,,,,,,,,,,,,,,,337.8763,343.9622,0,0,0,0,1,SoundStimuli/YouLightUpMyLife_DebbyBoone_Original5S.wav,,,,,,,,,,,,,,,,,,,,,,,,,,,,,,,,,,,,,,,,,,,,,,,,,,,,,,,,,,
,,,,,626788,001,2024-06-17_08h58.42.893,experiment,2024.1.5,Win32,60.24096386,66463a60ee450cd8ae9bebc2,667045947eb812cbdacbf325,66704d388479de6f3cc536d8,,,,,,,,,,,,,,,,,,,,,,,,,,,,,,,,,,,,343.9672,350.4122,0,1,1,1,1,SoundStimuli/YouLightUpMyLife_DebbyBoone_Cover5S.wav,,,,,,,,,,,,,,,,,,,,,,,,,,,,,,,,,,,,,,,,,,,,,,,,,,,,,,,,,,
,,,,,626788,001,2024-06-17_08h58.42.893,experiment,2024.1.5,Win32,60.24096386,66463a60ee450cd8ae9bebc2,667045947eb812cbdacbf325,66704d388479de6f3cc536d8,,,,,,,,,,,,,,,,,,,,,,,,,,,,,,,,,,,,,,,,,,,,350.4123,392.9254,6.277777778,42.5061,0,16,16,4,1,song_indices/YouLightUpMyLife_DebbyBoone.csv,,,,,,,,,,,,,,,,,,,,,,,,,,,,,,,,,,,,,,,,,,,,,,,,
,,,,,626788,001,2024-06-17_08h58.42.893,experiment,2024.1.5,Win32,60.24096386,66463a60ee450cd8ae9bebc2,667045947eb812cbdacbf325,66704d388479de6f3cc536d8,,,,,,,,,,,,,,,,,,,,,,,,,,,,,,,,,,,,392.9261,398.8583,0,0,0,0,1,SoundStimuli/Respect_ArethaFranklin_Original5S.wav,,,,,,,,,,,,,,,,,,,,,,,,,,,,,,,,,,,,,,,,,,,,,,,,,,,,,,,,,,
,,,,,626788,001,2024-06-17_08h58.42.893,experiment,2024.1.5,Win32,60.24096386,66463a60ee450cd8ae9bebc2,667045947eb812cbdacbf325,66704d388479de6f3cc536d8,,,,,,,,,,,,,,,,,,,,,,,,,,,,,,,,,,,,398.8634,404.9252,0,1,1,1,1,SoundStimuli/Respect_ArethaFranklin_Cover5S.wav,,,,,,,,,,,,,,,,,,,,,,,,,,,,,,,,,,,,,,,,,,,,,,,,,,,,,,,,,,
,,,,,626788,001,2024-06-17_08h58.42.893,experiment,2024.1.5,Win32,60.24096386,66463a60ee450cd8ae9bebc2,667045947eb812cbdacbf325,66704d388479de6f3cc536d8,,,,,,,,,,,,,,,,,,,,,,,,,,,,,,,,,,,,,,,,,,,,404.9252,407.5418,1.127777778,2.5994,0,17,17,0,1,song_indices/Respect_ArethaFranklin.csv,,,,,,,,,,,,,,,,,,,,,,,,,,,,,,,,,,,,,,,,,,,,,,,,
,,,,,626788,001,2024-06-17_08h58.42.893,experiment,2024.1.5,Win32,60.24096386,66463a60ee450cd8ae9bebc2,667045947eb812cbdacbf325,66704d388479de6f3cc536d8,,,,,,,,,,,,,,,,,,,,,,,,,,,,,,,,,,,,407.5424,413.5418,0,0,0,0,1,SoundStimuli/Levitating_DuaLipa_Original5S.wav,,,,,,,,,,,,,,,,,,,,,,,,,,,,,,,,,,,,,,,,,,,,,,,,,,,,,,,,,,
,,,,,626788,001,2024-06-17_08h58.42.893,experiment,2024.1.5,Win32,60.24096386,66463a60ee450cd8ae9bebc2,667045947eb812cbdacbf325,66704d388479de6f3cc536d8,,,,,,,,,,,,,,,,,,,,,,,,,,,,,,,,,,,,413.547,419.2918,0,1,1,1,1,SoundStimuli/Levitating_DuaLipa_Cover5S.wav,,,,,,,,,,,,,,,,,,,,,,,,,,,,,,,,,,,,,,,,,,,,,,,,,,,,,,,,,,
,,,,,626788,001,2024-06-17_08h58.42.893,experiment,2024.1.5,Win32,60.24096386,66463a60ee450cd8ae9bebc2,667045947eb812cbdacbf325,66704d388479de6f3cc536d8,,,,,,,,,,,,,,,,,,,,,,,,,,,,,,,,,,,,,,,,,,,,419.2919,421.7807,3.022222222,2.4832,0,18,18,10,1,song_indices/Levitating_DuaLipa.csv,,,,,,,,,,,,,,,,,,,,,,,,,,,,,,,,,,,,,,,,,,,,,,,,
,,,,,626788,001,2024-06-17_08h58.42.893,experiment,2024.1.5,Win32,60.24096386,66463a60ee450cd8ae9bebc2,667045947eb812cbdacbf325,66704d388479de6f3cc536d8,,,,,,,,,,,,,,,,,,,,,,,,,,,,,,,,,,,,421.7813,427.875,0,0,0,0,1,SoundStimuli/UnbreakMyHeart_ToniBraxton_Original5S.wav,,,,,,,,,,,,,,,,,,,,,,,,,,,,,,,,,,,,,,,,,,,,,,,,,,,,,,,,,,
,,,,,626788,001,2024-06-17_08h58.42.893,experiment,2024.1.5,Win32,60.24096386,66463a60ee450cd8ae9bebc2,667045947eb812cbdacbf325,66704d388479de6f3cc536d8,,,,,,,,,,,,,,,,,,,,,,,,,,,,,,,,,,,,427.8801,431.8585,0,1,1,1,1,SoundStimuli/UnbreakMyHeart_ToniBraxton_Cover5S.wav,,,,,,,,,,,,,,,,,,,,,,,,,,,,,,,,,,,,,,,,,,,,,,,,,,,,,,,,,,
,,,,,626788,001,2024-06-17_08h58.42.893,experiment,2024.1.5,Win32,60.24096386,66463a60ee450cd8ae9bebc2,667045947eb812cbdacbf325,66704d388479de6f3cc536d8,,,,,,,,,,,,,,,,,,,,,,,,,,,,,,,,,,,,,,,,,,,,431.8586,434.4584,1.372222222,2.5896,0,19,19,16,1,song_indices/UnbreakMyHeart_ToniBraxton.csv,,,,,,,,,,,,,,,,,,,,,,,,,,,,,,,,,,,,,,,,,,,,,,,,
,,,,,626788,001,2024-06-17_08h58.42.893,experiment,2024.1.5,Win32,60.24096386,66463a60ee450cd8ae9bebc2,667045947eb812cbdacbf325,66704d388479de6f3cc536d8,,,,,,,,,,,,,,,,,,,,,,,,,,,,,,,,,,,,434.4588,441.2084,0,0,0,0,1,SoundStimuli/BlurredLines_RobinThicke_Original5S.wav,,,,,,,,,,,,,,,,,,,,,,,,,,,,,,,,,,,,,,,,,,,,,,,,,,,,,,,,,,
,,,,,626788,001,2024-06-17_08h58.42.893,experiment,2024.1.5,Win32,60.24096386,66463a60ee450cd8ae9bebc2,667045947eb812cbdacbf325,66704d388479de6f3cc536d8,,,,,,,,,,,,,,,,,,,,,,,,,,,,,,,,,,,,441.2136,448.3128,0,1,1,1,1,SoundStimuli/BlurredLines_RobinThicke_Cover5S.wav,,,,,,,,,,,,,,,,,,,,,,,,,,,,,,,,,,,,,,,,,,,,,,,,,,,,,,,,,,
,,,,,626788,001,2024-06-17_08h58.42.893,experiment,2024.1.5,Win32,60.24096386,66463a60ee450cd8ae9bebc2,667045947eb812cbdacbf325,66704d388479de6f3cc536d8,,,,,,,,,,,,,,,,,,,,,,,,,,,,,,,,,,,,,,,,,,,,448.3129,449.9636,6.727777778,1.6451,0,20,20,9,1,song_indices/BlurredLines_RobinThicke.csv,,,,,,,,,,,,,,,,,,,,,,,,,,,,,,,,,,,,,,,,,,,,,,,,
,,,,,626788,001,2024-06-17_08h58.42.893,experiment,2024.1.5,Win32,60.24096386,66463a60ee450cd8ae9bebc2,667045947eb812cbdacbf325,66704d388479de6f3cc536d8,,,,,,,,,,,,,,,,,,,,,,,,,,,,,,,,,,,,449.964,457.0294,0,0,0,1,1,SoundStimuli/ComeAndGetYourLove_Redbone_Cover5S.wav,,,,,,,,,,,,,,,,,,,,,,,,,,,,,,,,,,,,,,,,,,,,,,,,,,,,,,,,,,
,,,,,626788,001,2024-06-17_08h58.42.893,experiment,2024.1.5,Win32,60.24096386,66463a60ee450cd8ae9bebc2,667045947eb812cbdacbf325,66704d388479de6f3cc536d8,,,,,,,,,,,,,,,,,,,,,,,,,,,,,,,,,,,,457.0343,463.125,0,1,1,0,1,SoundStimuli/ComeAndGetYourLove_Redbone_Original5S.wav,,,,,,,,,,,,,,,,,,,,,,,,,,,,,,,,,,,,,,,,,,,,,,,,,,,,,,,,,,
,,,,,626788,001,2024-06-17_08h58.42.893,experiment,2024.1.5,Win32,60.24096386,66463a60ee450cd8ae9bebc2,667045947eb812cbdacbf325,66704d388479de6f3cc536d8,,,,,,,,,,,,,,,,,,,,,,,,,,,,,,,,,,,,,,,,,,,,463.1251,464.8136,5.333333333,1.6829,0,21,21,22,1,song_indices/ComeAndGetYourLove_Redbone.csv,,,,,,,,,,,,,,,,,,,,,,,,,,,,,,,,,,,,,,,,,,,,,,,,
,,,,,626788,001,2024-06-17_08h58.42.893,experiment,2024.1.5,Win32,60.24096386,66463a60ee450cd8ae9bebc2,667045947eb812cbdacbf325,66704d388479de6f3cc536d8,,,,,,,,,,,,,,,,,,,,,,,,,,,,,,,,,,,,464.8139,472.0418,0,0,0,0,1,SoundStimuli/SomebodyThatIUsedtoKnow_Gotye_Original5S.wav,,,,,,,,,,,,,,,,,,,,,,,,,,,,,,,,,,,,,,,,,,,,,,,,,,,,,,,,,,
,,,,,626788,001,2024-06-17_08h58.42.893,experiment,2024.1.5,Win32,60.24096386,66463a60ee450cd8ae9bebc2,667045947eb812cbdacbf325,66704d388479de6f3cc536d8,,,,,,,,,,,,,,,,,,,,,,,,,,,,,,,,,,,,472.0472,478.8461,0,1,1,1,1,SoundStimuli/SomebodyThatIUsedtoKnow_Gotye_Cover5S.wav,,,,,,,,,,,,,,,,,,,,,,,,,,,,,,,,,,,,,,,,,,,,,,,,,,,,,,,,,,
,,,,,626788,001,2024-06-17_08h58.42.893,experiment,2024.1.5,Win32,60.24096386,66463a60ee450cd8ae9bebc2,667045947eb812cbdacbf325,66704d388479de6f3cc536d8,,,,,,,,,,,,,,,,,,,,,,,,,,,,,,,,,,,,,,,,,,,,478.8462,480.6091,4.766666667,1.7572,0,22,22,7,1,song_indices/SomebodyThatIUsedtoKnow_Gotye.csv,,,,,,,,,,,,,,,,,,,,,,,,,,,,,,,,,,,,,,,,,,,,,,,,
,,,,,626788,001,2024-06-17_08h58.42.893,experiment,2024.1.5,Win32,60.24096386,66463a60ee450cd8ae9bebc2,667045947eb812cbdacbf325,66704d388479de6f3cc536d8,,,,,,,,,,,,,,,,,,,,,,,,,,,,,,,,,,,,480.6095,485.7418,0,0,0,1,1,SoundStimuli/JoyToTheWorld_ThreeDogNight_Cover5S.wav,,,,,,,,,,,,,,,,,,,,,,,,,,,,,,,,,,,,,,,,,,,,,,,,,,,,,,,,,,
,,,,,626788,001,2024-06-17_08h58.42.893,experiment,2024.1.5,Win32,60.24096386,66463a60ee450cd8ae9bebc2,667045947eb812cbdacbf325,66704d388479de6f3cc536d8,,,,,,,,,,,,,,,,,,,,,,,,,,,,,,,,,,,,485.7474,491.8583,0,1,1,0,1,SoundStimuli/JoyToTheWorld_ThreeDogNight_Original5S.wav,,,,,,,,,,,,,,,,,,,,,,,,,,,,,,,,,,,,,,,,,,,,,,,,,,,,,,,,,,
,,,,,626788,001,2024-06-17_08h58.42.893,experiment,2024.1.5,Win32,60.24096386,66463a60ee450cd8ae9bebc2,667045947eb812cbdacbf325,66704d388479de6f3cc536d8,,,,,,,,,,,,,,,,,,,,,,,,,,,,,,,,,,,,,,,,,,,,491.8584,503.6583,5.716666667,11.7823,0,23,23,8,1,song_indices/JoyToTheWorld_ThreeDogNight.csv,,,,,,,,,,,,,,,,,,,,,,,,,,,,,,,,,,,,,,,,,,,,,,,,
,,,,,626788,001,2024-06-17_08h58.42.893,experiment,2024.1.5,Win32,60.24096386,66463a60ee450cd8ae9bebc2,667045947eb812cbdacbf325,66704d388479de6f3cc536d8,,,,,,,,,,,,,,,,,,,,,,,,,,,,,,,,,,,,,,,,,,,,,,,,,,,,,,503.6586,506.6918,space,3.0043,,0,0,0,2,1,choose_song_b3.csv,,,,,,,,,,,,,,,,,,,,,,,,,,,,,,,,,,,,,
,,,,,626788,001,2024-06-17_08h58.42.893,experiment,2024.1.5,Win32,60.24096386,66463a60ee450cd8ae9bebc2,667045947eb812cbdacbf325,66704d388479de6f3cc536d8,,,,,,,,,,,,,,,,,,,,,,,,,,,,,,,,,,,,506.6928,512.8748,0,0,0,0,1,SoundStimuli/Fallin_AliciaKeys_Original5S.wav,,,,,,,,,,,,,,,,,,,,,,,,,,,,,,,,,,,,,,,,,,,,,,,,,,,,,,,,,,
,,,,,626788,001,2024-06-17_08h58.42.893,experiment,2024.1.5,Win32,60.24096386,66463a60ee450cd8ae9bebc2,667045947eb812cbdacbf325,66704d388479de6f3cc536d8,,,,,,,,,,,,,,,,,,,,,,,,,,,,,,,,,,,,512.8797,519.3127,0,1,1,1,1,SoundStimuli/Fallin_AliciaKeys_Cover5S.wav,,,,,,,,,,,,,,,,,,,,,,,,,,,,,,,,,,,,,,,,,,,,,,,,,,,,,,,,,,
,,,,,626788,001,2024-06-17_08h58.42.893,experiment,2024.1.5,Win32,60.24096386,66463a60ee450cd8ae9bebc2,667045947eb812cbdacbf325,66704d388479de6f3cc536d8,,,,,,,,,,,,,,,,,,,,,,,,,,,,,,,,,,,,,,,,,,,,519.3128,523.3916,4.833333333,4.0623,0,0,0,12,1,song_indices/Fallin_AliciaKeys.csv,,,,,,,,,,,,,,,,,,,,,,,,,,,,,,,,,,,,,,,,,,,,,,,,
,,,,,626788,001,2024-06-17_08h58.42.893,experiment,2024.1.5,Win32,60.24096386,66463a60ee450cd8ae9bebc2,667045947eb812cbdacbf325,66704d388479de6f3cc536d8,,,,,,,,,,,,,,,,,,,,,,,,,,,,,,,,,,,,523.3921,529.3083,0,0,0,0,1,SoundStimuli/StandByMe_BenEKing_Original5S.wav,,,,,,,,,,,,,,,,,,,,,,,,,,,,,,,,,,,,,,,,,,,,,,,,,,,,,,,,,,
,,,,,626788,001,2024-06-17_08h58.42.893,experiment,2024.1.5,Win32,60.24096386,66463a60ee450cd8ae9bebc2,667045947eb812cbdacbf325,66704d388479de6f3cc536d8,,,,,,,,,,,,,,,,,,,,,,,,,,,,,,,,,,,,529.3135,535.3415,0,1,1,1,1,SoundStimuli/StandByMe_BenEKing_Cover5S.wav,,,,,,,,,,,,,,,,,,,,,,,,,,,,,,,,,,,,,,,,,,,,,,,,,,,,,,,,,,
,,,,,626788,001,2024-06-17_08h58.42.893,experiment,2024.1.5,Win32,60.24096386,66463a60ee450cd8ae9bebc2,667045947eb812cbdacbf325,66704d388479de6f3cc536d8,,,,,,,,,,,,,,,,,,,,,,,,,,,,,,,,,,,,,,,,,,,,535.3416,538.9749,2.4,3.6217,0,1,1,1,1,song_indices/StandByMe_BenEKing.csv,,,,,,,,,,,,,,,,,,,,,,,,,,,,,,,,,,,,,,,,,,,,,,,,
,,,,,626788,001,2024-06-17_08h58.42.893,experiment,2024.1.5,Win32,60.24096386,66463a60ee450cd8ae9bebc2,667045947eb812cbdacbf325,66704d388479de6f3cc536d8,,,,,,,,,,,,,,,,,,,,,,,,,,,,,,,,,,,,538.9753,545.5248,0,0,0,0,1,SoundStimuli/CrazyInLove_BeyonceFtJayZ_Original5S.wav,,,,,,,,,,,,,,,,,,,,,,,,,,,,,,,,,,,,,,,,,,,,,,,,,,,,,,,,,,
,,,,,626788,001,2024-06-17_08h58.42.893,experiment,2024.1.5,Win32,60.24096386,66463a60ee450cd8ae9bebc2,667045947eb812cbdacbf325,66704d388479de6f3cc536d8,,,,,,,,,,,,,,,,,,,,,,,,,,,,,,,,,,,,545.5307,555.7749,0,1,1,1,1,SoundStimuli/CrazyInLove_BeyonceFtJayZ_Cover5S.wav,,,,,,,,,,,,,,,,,,,,,,,,,,,,,,,,,,,,,,,,,,,,,,,,,,,,,,,,,,
,,,,,626788,001,2024-06-17_08h58.42.893,experiment,2024.1.5,Win32,60.24096386,66463a60ee450cd8ae9bebc2,667045947eb812cbdacbf325,66704d388479de6f3cc536d8,,,,,,,,,,,,,,,,,,,,,,,,,,,,,,,,,,,,,,,,,,,,555.7749,558.2915,1.072222222,2.5003,0,2,2,3,1,song_indices/CrazyInLove_BeyonceFtJayZ.csv,,,,,,,,,,,,,,,,,,,,,,,,,,,,,,,,,,,,,,,,,,,,,,,,
,,,,,626788,001,2024-06-17_08h58.42.893,experiment,2024.1.5,Win32,60.24096386,66463a60ee450cd8ae9bebc2,667045947eb812cbdacbf325,66704d388479de6f3cc536d8,,,,,,,,,,,,,,,,,,,,,,,,,,,,,,,,,,,,558.2919,564.5963,0,0,0,0,1,SoundStimuli/HeyYa_Outkast_Original5S.wav,,,,,,,,,,,,,,,,,,,,,,,,,,,,,,,,,,,,,,,,,,,,,,,,,,,,,,,,,,
,,,,,626788,001,2024-06-17_08h58.42.893,experiment,2024.1.5,Win32,60.24096386,66463a60ee450cd8ae9bebc2,667045947eb812cbdacbf325,66704d388479de6f3cc536d8,,,,,,,,,,,,,,,,,,,,,,,,,,,,,,,,,,,,564.6017,573.5081,0,1,1,1,1,SoundStimuli/HeyYa_Outkast_Cover5S.wav,,,,,,,,,,,,,,,,,,,,,,,,,,,,,,,,,,,,,,,,,,,,,,,,,,,,,,,,,,
,,,,,626788,001,2024-06-17_08h58.42.893,experiment,2024.1.5,Win32,60.24096386,66463a60ee450cd8ae9bebc2,667045947eb812cbdacbf325,66704d388479de6f3cc536d8,,,,,,,,,,,,,,,,,,,,,,,,,,,,,,,,,,,,,,,,,,,,573.5082,577.597,1.838888889,4.0831,0,3,3,22,1,song_indices/HeyYa_Outkast.csv,,,,,,,,,,,,,,,,,,,,,,,,,,,,,,,,,,,,,,,,,,,,,,,,
,,,,,626788,001,2024-06-17_08h58.42.893,experiment,2024.1.5,Win32,60.24096386,66463a60ee450cd8ae9bebc2,667045947eb812cbdacbf325,66704d388479de6f3cc536d8,,,,,,,,,,,,,,,,,,,,,,,,,,,,,,,,,,,,577.5976,583.6582,0,0,0,0,1,SoundStimuli/GoodGollyMissMolly_LittleRichard_Original5S.wav,,,,,,,,,,,,,,,,,,,,,,,,,,,,,,,,,,,,,,,,,,,,,,,,,,,,,,,,,,
,,,,,626788,001,2024-06-17_08h58.42.893,experiment,2024.1.5,Win32,60.24096386,66463a60ee450cd8ae9bebc2,667045947eb812cbdacbf325,66704d388479de6f3cc536d8,,,,,,,,,,,,,,,,,,,,,,,,,,,,,,,,,,,,583.6636,590.0248,0,1,1,1,1,SoundStimuli/GoodGollyMissMolly_LittleRichard_Cover5S.wav,,,,,,,,,,,,,,,,,,,,,,,,,,,,,,,,,,,,,,,,,,,,,,,,,,,,,,,,,,
,,,,,626788,001,2024-06-17_08h58.42.893,experiment,2024.1.5,Win32,60.24096386,66463a60ee450cd8ae9bebc2,667045947eb812cbdacbf325,66704d388479de6f3cc536d8,,,,,,,,,,,,,,,,,,,,,,,,,,,,,,,,,,,,,,,,,,,,590.0249,594.5465,2.116666667,4.5158,0,4,4,0,1,song_indices/GoodGollyMissMolly_LittleRichard.csv,,,,,,,,,,,,,,,,,,,,,,,,,,,,,,,,,,,,,,,,,,,,,,,,
,,,,,626788,001,2024-06-17_08h58.42.893,experiment,2024.1.5,Win32,60.24096386,66463a60ee450cd8ae9bebc2,667045947eb812cbdacbf325,66704d388479de6f3cc536d8,,,,,,,,,,,,,,,,,,,,,,,,,,,,,,,,,,,,594.5468,600.7625,0,0,0,1,1,SoundStimuli/GimmeShelter_RollingStones_Cover5S.wav,,,,,,,,,,,,,,,,,,,,,,,,,,,,,,,,,,,,,,,,,,,,,,,,,,,,,,,,,,
,,,,,626788,001,2024-06-17_08h58.42.893,experiment,2024.1.5,Win32,60.24096386,66463a60ee450cd8ae9bebc2,667045947eb812cbdacbf325,66704d388479de6f3cc536d8,,,,,,,,,,,,,,,,,,,,,,,,,,,,,,,,,,,,600.7676,606.8792,0,1,1,0,1,SoundStimuli/GimmeShelter_RollingStones_Original5S.wav,,,,,,,,,,,,,,,,,,,,,,,,,,,,,,,,,,,,,,,,,,,,,,,,,,,,,,,,,,
,,,,,626788,001,2024-06-17_08h58.42.893,experiment,2024.1.5,Win32,60.24096386,66463a60ee450cd8ae9bebc2,667045947eb812cbdacbf325,66704d388479de6f3cc536d8,,,,,,,,,,,,,,,,,,,,,,,,,,,,,,,,,,,,,,,,,,,,606.8793,608.5079,3.977777778,1.6199,0,5,5,20,1,song_indices/GimmeShelter_RollingStones.csv,,,,,,,,,,,,,,,,,,,,,,,,,,,,,,,,,,,,,,,,,,,,,,,,
,,,,,626788,001,2024-06-17_08h58.42.893,experiment,2024.1.5,Win32,60.24096386,66463a60ee450cd8ae9bebc2,667045947eb812cbdacbf325,66704d388479de6f3cc536d8,,,,,,,,,,,,,,,,,,,,,,,,,,,,,,,,,,,,608.5083,614.708,0,0,0,0,1,SoundStimuli/SmellsLikeTeenSpirit_Nirvana_Original5S.wav,,,,,,,,,,,,,,,,,,,,,,,,,,,,,,,,,,,,,,,,,,,,,,,,,,,,,,,,,,
,,,,,626788,001,2024-06-17_08h58.42.893,experiment,2024.1.5,Win32,60.24096386,66463a60ee450cd8ae9bebc2,667045947eb812cbdacbf325,66704d388479de6f3cc536d8,,,,,,,,,,,,,,,,,,,,,,,,,,,,,,,,,,,,614.7134,620.4792,0,1,1,1,1,SoundStimuli/SmellsLikeTeenSpirit_Nirvana_Cover5S.wav,,,,,,,,,,,,,,,,,,,,,,,,,,,,,,,,,,,,,,,,,,,,,,,,,,,,,,,,,,
,,,,,626788,001,2024-06-17_08h58.42.893,experiment,2024.1.5,Win32,60.24096386,66463a60ee450cd8ae9bebc2,667045947eb812cbdacbf325,66704d388479de6f3cc536d8,,,,,,,,,,,,,,,,,,,,,,,,,,,,,,,,,,,,,,,,,,,,620.4793,623.5414,5.783333333,3.055,0,6,6,8,1,song_indices/SmellsLikeTeenSpirit_Nirvana.csv,,,,,,,,,,,,,,,,,,,,,,,,,,,,,,,,,,,,,,,,,,,,,,,,
,,,,,626788,001,2024-06-17_08h58.42.893,experiment,2024.1.5,Win32,60.24096386,66463a60ee450cd8ae9bebc2,667045947eb812cbdacbf325,66704d388479de6f3cc536d8,,,,,,,,,,,,,,,,,,,,,,,,,,,,,,,,,,,,623.542,629.758,0,0,0,1,1,SoundStimuli/NoOne_AliciaKeys_Cover5S.wav,,,,,,,,,,,,,,,,,,,,,,,,,,,,,,,,,,,,,,,,,,,,,,,,,,,,,,,,,,
,,,,,626788,001,2024-06-17_08h58.42.893,experiment,2024.1.5,Win32,60.24096386,66463a60ee450cd8ae9bebc2,667045947eb812cbdacbf325,66704d388479de6f3cc536d8,,,,,,,,,,,,,,,,,,,,,,,,,,,,,,,,,,,,629.7631,637.4966,0,1,1,0,1,SoundStimuli/NoOne_AliciaKeys_Original5S.wav,,,,,,,,,,,,,,,,,,,,,,,,,,,,,,,,,,,,,,,,,,,,,,,,,,,,,,,,,,
,,,,,626788,001,2024-06-17_08h58.42.893,experiment,2024.1.5,Win32,60.24096386,66463a60ee450cd8ae9bebc2,667045947eb812cbdacbf325,66704d388479de6f3cc536d8,,,,,,,,,,,,,,,,,,,,,,,,,,,,,,,,,,,,,,,,,,,,637.4967,639.7579,3.344444444,2.2452,0,7,7,19,1,song_indices/NoOne_AliciaKeys.csv,,,,,,,,,,,,,,,,,,,,,,,,,,,,,,,,,,,,,,,,,,,,,,,,
,,,,,626788,001,2024-06-17_08h58.42.893,experiment,2024.1.5,Win32,60.24096386,66463a60ee450cd8ae9bebc2,667045947eb812cbdacbf325,66704d388479de6f3cc536d8,,,,,,,,,,,,,,,,,,,,,,,,,,,,,,,,,,,,639.7585,646.1412,0,0,0,0,1,SoundStimuli/IWillAlwaysLoveYou_WhitneyHouston_Original5S.wav,,,,,,,,,,,,,,,,,,,,,,,,,,,,,,,,,,,,,,,,,,,,,,,,,,,,,,,,,,
,,,,,626788,001,2024-06-17_08h58.42.893,experiment,2024.1.5,Win32,60.24096386,66463a60ee450cd8ae9bebc2,667045947eb812cbdacbf325,66704d388479de6f3cc536d8,,,,,,,,,,,,,,,,,,,,,,,,,,,,,,,,,,,,646.1465,651.9911,0,1,1,1,1,SoundStimuli/IWillAlwaysLoveYou_WhitneyHouston_Cover5S.wav,,,,,,,,,,,,,,,,,,,,,,,,,,,,,,,,,,,,,,,,,,,,,,,,,,,,,,,,,,
,,,,,626788,001,2024-06-17_08h58.42.893,experiment,2024.1.5,Win32,60.24096386,66463a60ee450cd8ae9bebc2,667045947eb812cbdacbf325,66704d388479de6f3cc536d8,,,,,,,,,,,,,,,,,,,,,,,,,,,,,,,,,,,,,,,,,,,,651.9912,658.6632,6.888888889,6.6665,0,8,8,10,1,song_indices/IWillAlwaysLoveYou_WhitneyHouston.csv,,,,,,,,,,,,,,,,,,,,,,,,,,,,,,,,,,,,,,,,,,,,,,,,
,,,,,626788,001,2024-06-17_08h58.42.893,experiment,2024.1.5,Win32,60.24096386,66463a60ee450cd8ae9bebc2,667045947eb812cbdacbf325,66704d388479de6f3cc536d8,,,,,,,,,,,,,,,,,,,,,,,,,,,,,,,,,,,,658.6635,665.2412,0,0,0,1,1,SoundStimuli/GetUrFreakOn_MissyElliot_Cover5S.wav,,,,,,,,,,,,,,,,,,,,,,,,,,,,,,,,,,,,,,,,,,,,,,,,,,,,,,,,,,
,,,,,626788,001,2024-06-17_08h58.42.893,experiment,2024.1.5,Win32,60.24096386,66463a60ee450cd8ae9bebc2,667045947eb812cbdacbf325,66704d388479de6f3cc536d8,,,,,,,,,,,,,,,,,,,,,,,,,,,,,,,,,,,,665.247,671.3292,0,1,1,0,1,SoundStimuli/GetUrFreakOn_MissyElliot_Original5S.wav,,,,,,,,,,,,,,,,,,,,,,,,,,,,,,,,,,,,,,,,,,,,,,,,,,,,,,,,,,
,,,,,626788,001,2024-06-17_08h58.42.893,experiment,2024.1.5,Win32,60.24096386,66463a60ee450cd8ae9bebc2,667045947eb812cbdacbf325,66704d388479de6f3cc536d8,,,,,,,,,,,,,,,,,,,,,,,,,,,,,,,,,,,,,,,,,,,,671.3293,674.7132,1.583333333,3.3785,0,9,9,18,1,song_indices/GetUrFreakOn_MissyElliot.csv,,,,,,,,,,,,,,,,,,,,,,,,,,,,,,,,,,,,,,,,,,,,,,,,
,,,,,626788,001,2024-06-17_08h58.42.893,experiment,2024.1.5,Win32,60.24096386,66463a60ee450cd8ae9bebc2,667045947eb812cbdacbf325,66704d388479de6f3cc536d8,,,,,,,,,,,,,,,,,,,,,,,,,,,,,,,,,,,,674.7137,681.7462,0,0,0,1,1,SoundStimuli/UptownFunk_MarkRonson_Cover5S.wav,,,,,,,,,,,,,,,,,,,,,,,,,,,,,,,,,,,,,,,,,,,,,,,,,,,,,,,,,,
,,,,,626788,001,2024-06-17_08h58.42.893,experiment,2024.1.5,Win32,60.24096386,66463a60ee450cd8ae9bebc2,667045947eb812cbdacbf325,66704d388479de6f3cc536d8,,,,,,,,,,,,,,,,,,,,,,,,,,,,,,,,,,,,681.7514,688.9743,0,1,1,0,1,SoundStimuli/UptownFunk_MarkRonson_Original5S.wav,,,,,,,,,,,,,,,,,,,,,,,,,,,,,,,,,,,,,,,,,,,,,,,,,,,,,,,,,,
,,,,,626788,001,2024-06-17_08h58.42.893,experiment,2024.1.5,Win32,60.24096386,66463a60ee450cd8ae9bebc2,667045947eb812cbdacbf325,66704d388479de6f3cc536d8,,,,,,,,,,,,,,,,,,,,,,,,,,,,,,,,,,,,,,,,,,,,688.9744,691.3413,5.333333333,2.3607,0,10,10,15,1,song_indices/UptownFunk_MarkRonson.csv,,,,,,,,,,,,,,,,,,,,,,,,,,,,,,,,,,,,,,,,,,,,,,,,
,,,,,626788,001,2024-06-17_08h58.42.893,experiment,2024.1.5,Win32,60.24096386,66463a60ee450cd8ae9bebc2,667045947eb812cbdacbf325,66704d388479de6f3cc536d8,,,,,,,,,,,,,,,,,,,,,,,,,,,,,,,,,,,,691.342,697.5624,0,0,0,0,1,SoundStimuli/BetteDavisEyes_KimCarnes_Original5S.wav,,,,,,,,,,,,,,,,,,,,,,,,,,,,,,,,,,,,,,,,,,,,,,,,,,,,,,,,,,
,,,,,626788,001,2024-06-17_08h58.42.893,experiment,2024.1.5,Win32,60.24096386,66463a60ee450cd8ae9bebc2,667045947eb812cbdacbf325,66704d388479de6f3cc536d8,,,,,,,,,,,,,,,,,,,,,,,,,,,,,,,,,,,,697.5674,703.2793,0,1,1,1,1,SoundStimuli/BetteDavisEyes_KimCarnes_Cover5S.wav,,,,,,,,,,,,,,,,,,,,,,,,,,,,,,,,,,,,,,,,,,,,,,,,,,,,,,,,,,
,,,,,626788,001,2024-06-17_08h58.42.893,experiment,2024.1.5,Win32,60.24096386,66463a60ee450cd8ae9bebc2,667045947eb812cbdacbf325,66704d388479de6f3cc536d8,,,,,,,,,,,,,,,,,,,,,,,,,,,,,,,,,,,,,,,,,,,,703.2793,704.3245,1.433333333,1.0347,0,11,11,5,1,song_indices/BetteDavisEyes_KimCarnes.csv,,,,,,,,,,,,,,,,,,,,,,,,,,,,,,,,,,,,,,,,,,,,,,,,
,,,,,626788,001,2024-06-17_08h58.42.893,experiment,2024.1.5,Win32,60.24096386,66463a60ee450cd8ae9bebc2,667045947eb812cbdacbf325,66704d388479de6f3cc536d8,,,,,,,,,,,,,,,,,,,,,,,,,,,,,,,,,,,,704.325,710.5411,0,0,0,0,1,SoundStimuli/TheBoyIsMine_BrandyMonica_Original5S.wav,,,,,,,,,,,,,,,,,,,,,,,,,,,,,,,,,,,,,,,,,,,,,,,,,,,,,,,,,,
,,,,,626788,001,2024-06-17_08h58.42.893,experiment,2024.1.5,Win32,60.24096386,66463a60ee450cd8ae9bebc2,667045947eb812cbdacbf325,66704d388479de6f3cc536d8,,,,,,,,,,,,,,,,,,,,,,,,,,,,,,,,,,,,710.5461,716.4946,0,1,1,1,1,SoundStimuli/TheBoyIsMine_BrandyMonica_Cover5S.wav,,,,,,,,,,,,,,,,,,,,,,,,,,,,,,,,,,,,,,,,,,,,,,,,,,,,,,,,,,
,,,,,626788,001,2024-06-17_08h58.42.893,experiment,2024.1.5,Win32,60.24096386,66463a60ee450cd8ae9bebc2,667045947eb812cbdacbf325,66704d388479de6f3cc536d8,,,,,,,,,,,,,,,,,,,,,,,,,,,,,,,,,,,,,,,,,,,,716.4948,718.3457,5.083333333,1.8455,0,12,12,6,1,song_indices/TheBoyIsMine_BrandyMonica.csv,,,,,,,,,,,,,,,,,,,,,,,,,,,,,,,,,,,,,,,,,,,,,,,,
,,,,,626788,001,2024-06-17_08h58.42.893,experiment,2024.1.5,Win32,60.24096386,66463a60ee450cd8ae9bebc2,667045947eb812cbdacbf325,66704d388479de6f3cc536d8,,,,,,,,,,,,,,,,,,,,,,,,,,,,,,,,,,,,718.3461,724.8076,0,0,0,0,1,SoundStimuli/ShapeofYou_EdSheeran_Original5S.wav,,,,,,,,,,,,,,,,,,,,,,,,,,,,,,,,,,,,,,,,,,,,,,,,,,,,,,,,,,
,,,,,626788,001,2024-06-17_08h58.42.893,experiment,2024.1.5,Win32,60.24096386,66463a60ee450cd8ae9bebc2,667045947eb812cbdacbf325,66704d388479de6f3cc536d8,,,,,,,,,,,,,,,,,,,,,,,,,,,,,,,,,,,,724.813,731.129,0,1,1,1,1,SoundStimuli/ShapeofYou_EdSheeran_Cover5S.wav,,,,,,,,,,,,,,,,,,,,,,,,,,,,,,,,,,,,,,,,,,,,,,,,,,,,,,,,,,
,,,,,626788,001,2024-06-17_08h58.42.893,experiment,2024.1.5,Win32,60.24096386,66463a60ee450cd8ae9bebc2,667045947eb812cbdacbf325,66704d388479de6f3cc536d8,,,,,,,,,,,,,,,,,,,,,,,,,,,,,,,,,,,,,,,,,,,,731.129,733.8744,2.611111111,2.7363,0,13,13,21,1,song_indices/ShapeofYou_EdSheeran.csv,,,,,,,,,,,,,,,,,,,,,,,,,,,,,,,,,,,,,,,,,,,,,,,,
,,,,,626788,001,2024-06-17_08h58.42.893,experiment,2024.1.5,Win32,60.24096386,66463a60ee450cd8ae9bebc2,667045947eb812cbdacbf325,66704d388479de6f3cc536d8,,,,,,,,,,,,,,,,,,,,,,,,,,,,,,,,,,,,733.875,740.1911,0,0,0,1,1,SoundStimuli/Stronger_KanyeWest_Cover5S.wav,,,,,,,,,,,,,,,,,,,,,,,,,,,,,,,,,,,,,,,,,,,,,,,,,,,,,,,,,,
,,,,,626788,001,2024-06-17_08h58.42.893,experiment,2024.1.5,Win32,60.24096386,66463a60ee450cd8ae9bebc2,667045947eb812cbdacbf325,66704d388479de6f3cc536d8,,,,,,,,,,,,,,,,,,,,,,,,,,,,,,,,,,,,740.1963,746.2623,0,1,1,0,1,SoundStimuli/Stronger_KanyeWest_Original5S.wav,,,,,,,,,,,,,,,,,,,,,,,,,,,,,,,,,,,,,,,,,,,,,,,,,,,,,,,,,,
,,,,,626788,001,2024-06-17_08h58.42.893,experiment,2024.1.5,Win32,60.24096386,66463a60ee450cd8ae9bebc2,667045947eb812cbdacbf325,66704d388479de6f3cc536d8,,,,,,,,,,,,,,,,,,,,,,,,,,,,,,,,,,,,,,,,,,,,746.2623,752.9077,1.066666667,6.6356,0,14,14,9,1,song_indices/Stronger_KanyeWest.csv,,,,,,,,,,,,,,,,,,,,,,,,,,,,,,,,,,,,,,,,,,,,,,,,
,,,,,626788,001,2024-06-17_08h58.42.893,experiment,2024.1.5,Win32,60.24096386,66463a60ee450cd8ae9bebc2,667045947eb812cbdacbf325,66704d388479de6f3cc536d8,,,,,,,,,,,,,,,,,,,,,,,,,,,,,,,,,,,,752.9084,758.7956,0,0,0,0,1,SoundStimuli/EyeOfTheTiger_Survivor_Original5S.wav,,,,,,,,,,,,,,,,,,,,,,,,,,,,,,,,,,,,,,,,,,,,,,,,,,,,,,,,,,
,,,,,626788,001,2024-06-17_08h58.42.893,experiment,2024.1.5,Win32,60.24096386,66463a60ee450cd8ae9bebc2,667045947eb812cbdacbf325,66704d388479de6f3cc536d8,,,,,,,,,,,,,,,,,,,,,,,,,,,,,,,,,,,,758.8008,764.9291,0,1,1,1,1,SoundStimuli/EyeOfTheTiger_Survivor_Cover5S.wav,,,,,,,,,,,,,,,,,,,,,,,,,,,,,,,,,,,,,,,,,,,,,,,,,,,,,,,,,,
,,,,,626788,001,2024-06-17_08h58.42.893,experiment,2024.1.5,Win32,60.24096386,66463a60ee450cd8ae9bebc2,667045947eb812cbdacbf325,66704d388479de6f3cc536d8,,,,,,,,,,,,,,,,,,,,,,,,,,,,,,,,,,,,,,,,,,,,764.9292,769.1801,4.661111111,4.2454,0,15,15,11,1,song_indices/EyeOfTheTiger_Survivor.csv,,,,,,,,,,,,,,,,,,,,,,,,,,,,,,,,,,,,,,,,,,,,,,,,
,,,,,626788,001,2024-06-17_08h58.42.893,experiment,2024.1.5,Win32,60.24096386,66463a60ee450cd8ae9bebc2,667045947eb812cbdacbf325,66704d388479de6f3cc536d8,,,,,,,,,,,,,,,,,,,,,,,,,,,,,,,,,,,,769.1805,775.3743,0,0,0,0,1,SoundStimuli/NoScrubs_TLC_Original5S.wav,,,,,,,,,,,,,,,,,,,,,,,,,,,,,,,,,,,,,,,,,,,,,,,,,,,,,,,,,,
,,,,,626788,001,2024-06-17_08h58.42.893,experiment,2024.1.5,Win32,60.24096386,66463a60ee450cd8ae9bebc2,667045947eb812cbdacbf325,66704d388479de6f3cc536d8,,,,,,,,,,,,,,,,,,,,,,,,,,,,,,,,,,,,775.3797,781.5123,0,1,1,1,1,SoundStimuli/NoScrubs_TLC_Cover5S.wav,,,,,,,,,,,,,,,,,,,,,,,,,,,,,,,,,,,,,,,,,,,,,,,,,,,,,,,,,,
,,,,,626788,001,2024-06-17_08h58.42.893,experiment,2024.1.5,Win32,60.24096386,66463a60ee450cd8ae9bebc2,667045947eb812cbdacbf325,66704d388479de6f3cc536d8,,,,,,,,,,,,,,,,,,,,,,,,,,,,,,,,,,,,,,,,,,,,781.5124,784.4242,4.772222222,2.8945,0,16,16,14,1,song_indices/NoScrubs_TLC.csv,,,,,,,,,,,,,,,,,,,,,,,,,,,,,,,,,,,,,,,,,,,,,,,,
,,,,,626788,001,2024-06-17_08h58.42.893,experiment,2024.1.5,Win32,60.24096386,66463a60ee450cd8ae9bebc2,667045947eb812cbdacbf325,66704d388479de6f3cc536d8,,,,,,,,,,,,,,,,,,,,,,,,,,,,,,,,,,,,784.4249,791.212,0,0,0,1,1,SoundStimuli/PartyRockAnthem_LMFAO_Cover5S.wav,,,,,,,,,,,,,,,,,,,,,,,,,,,,,,,,,,,,,,,,,,,,,,,,,,,,,,,,,,
,,,,,626788,001,2024-06-17_08h58.42.893,experiment,2024.1.5,Win32,60.24096386,66463a60ee450cd8ae9bebc2,667045947eb812cbdacbf325,66704d388479de6f3cc536d8,,,,,,,,,,,,,,,,,,,,,,,,,,,,,,,,,,,,791.2173,797.9576,0,1,1,0,1,SoundStimuli/PartyRockAnthem_LMFAO_Original5S.wav,,,,,,,,,,,,,,,,,,,,,,,,,,,,,,,,,,,,,,,,,,,,,,,,,,,,,,,,,,
,,,,,626788,001,2024-06-17_08h58.42.893,experiment,2024.1.5,Win32,60.24096386,66463a60ee450cd8ae9bebc2,667045947eb812cbdacbf325,66704d388479de6f3cc536d8,,,,,,,,,,,,,,,,,,,,,,,,,,,,,,,,,,,,,,,,,,,,797.9578,801.141,1.45,3.1659,0,17,17,2,1,song_indices/PartyRockAnthem_LMFAO.csv,,,,,,,,,,,,,,,,,,,,,,,,,,,,,,,,,,,,,,,,,,,,,,,,
,,,,,626788,001,2024-06-17_08h58.42.893,experiment,2024.1.5,Win32,60.24096386,66463a60ee450cd8ae9bebc2,667045947eb812cbdacbf325,66704d388479de6f3cc536d8,,,,,,,,,,,,,,,,,,,,,,,,,,,,,,,,,,,,801.1414,807.4793,0,0,0,0,1,SoundStimuli/RockWithYou_MichaelJackson_Original5S.wav,,,,,,,,,,,,,,,,,,,,,,,,,,,,,,,,,,,,,,,,,,,,,,,,,,,,,,,,,,
,,,,,626788,001,2024-06-17_08h58.42.893,experiment,2024.1.5,Win32,60.24096386,66463a60ee450cd8ae9bebc2,667045947eb812cbdacbf325,66704d388479de6f3cc536d8,,,,,,,,,,,,,,,,,,,,,,,,,,,,,,,,,,,,807.4848,813.5574,0,1,1,1,1,SoundStimuli/RockWithYou_MichaelJackson_Cover5S.wav,,,,,,,,,,,,,,,,,,,,,,,,,,,,,,,,,,,,,,,,,,,,,,,,,,,,,,,,,,
,,,,,626788,001,2024-06-17_08h58.42.893,experiment,2024.1.5,Win32,60.24096386,66463a60ee450cd8ae9bebc2,667045947eb812cbdacbf325,66704d388479de6f3cc536d8,,,,,,,,,,,,,,,,,,,,,,,,,,,,,,,,,,,,,,,,,,,,813.5575,814.4456,2.983333333,0.8826,0,18,18,16,1,song_indices/RockWithYou_MichaelJackson.csv,,,,,,,,,,,,,,,,,,,,,,,,,,,,,,,,,,,,,,,,,,,,,,,,
,,,,,626788,001,2024-06-17_08h58.42.893,experiment,2024.1.5,Win32,60.24096386,66463a60ee450cd8ae9bebc2,667045947eb812cbdacbf325,66704d388479de6f3cc536d8,,,,,,,,,,,,,,,,,,,,,,,,,,,,,,,,,,,,814.446,821.8075,0,0,0,0,1,SoundStimuli/Happy_PharellWilliams_Original5S.wav,,,,,,,,,,,,,,,,,,,,,,,,,,,,,,,,,,,,,,,,,,,,,,,,,,,,,,,,,,
,,,,,626788,001,2024-06-17_08h58.42.893,experiment,2024.1.5,Win32,60.24096386,66463a60ee450cd8ae9bebc2,667045947eb812cbdacbf325,66704d388479de6f3cc536d8,,,,,,,,,,,,,,,,,,,,,,,,,,,,,,,,,,,,821.8129,829.1743,0,1,1,1,1,SoundStimuli/Happy_PharellWilliams_Cover5S.wav,,,,,,,,,,,,,,,,,,,,,,,,,,,,,,,,,,,,,,,,,,,,,,,,,,,,,,,,,,
,,,,,626788,001,2024-06-17_08h58.42.893,experiment,2024.1.5,Win32,60.24096386,66463a60ee450cd8ae9bebc2,667045947eb812cbdacbf325,66704d388479de6f3cc536d8,,,,,,,,,,,,,,,,,,,,,,,,,,,,,,,,,,,,,,,,,,,,829.1743,833.041,6.472222222,3.8578,0,19,19,7,1,song_indices/Happy_PharellWilliams.csv,,,,,,,,,,,,,,,,,,,,,,,,,,,,,,,,,,,,,,,,,,,,,,,,
,,,,,626788,001,2024-06-17_08h58.42.893,experiment,2024.1.5,Win32,60.24096386,66463a60ee450cd8ae9bebc2,667045947eb812cbdacbf325,66704d388479de6f3cc536d8,,,,,,,,,,,,,,,,,,,,,,,,,,,,,,,,,,,,833.0416,839.2576,0,0,0,0,1,SoundStimuli/TheBattleOfNewOrleans_JohnnyHorton_Original5S.wav,,,,,,,,,,,,,,,,,,,,,,,,,,,,,,,,,,,,,,,,,,,,,,,,,,,,,,,,,,
,,,,,626788,001,2024-06-17_08h58.42.893,experiment,2024.1.5,Win32,60.24096386,66463a60ee450cd8ae9bebc2,667045947eb812cbdacbf325,66704d388479de6f3cc536d8,,,,,,,,,,,,,,,,,,,,,,,,,,,,,,,,,,,,839.263,847.2409,0,1,1,1,1,SoundStimuli/TheBattleOfNewOrleans_JohnnyHorton_Cover5S.wav,,,,,,,,,,,,,,,,,,,,,,,,,,,,,,,,,,,,,,,,,,,,,,,,,,,,,,,,,,
,,,,,626788,001,2024-06-17_08h58.42.893,experiment,2024.1.5,Win32,60.24096386,66463a60ee450cd8ae9bebc2,667045947eb812cbdacbf325,66704d388479de6f3cc536d8,,,,,,,,,,,,,,,,,,,,,,,,,,,,,,,,,,,,,,,,,,,,847.241,850.5242,1.022222222,3.2759,0,20,20,4,1,song_indices/TheBattleOfNewOrleans_JohnnyHorton.csv,,,,,,,,,,,,,,,,,,,,,,,,,,,,,,,,,,,,,,,,,,,,,,,,
,,,,,626788,001,2024-06-17_08h58.42.893,experiment,2024.1.5,Win32,60.24096386,66463a60ee450cd8ae9bebc2,667045947eb812cbdacbf325,66704d388479de6f3cc536d8,,,,,,,,,,,,,,,,,,,,,,,,,,,,,,,,,,,,850.5247,856.796,0,0,0,0,1,SoundStimuli/ItsAllInTheGame_TommyEdwards_Original5S.wav,,,,,,,,,,,,,,,,,,,,,,,,,,,,,,,,,,,,,,,,,,,,,,,,,,,,,,,,,,
,,,,,626788,001,2024-06-17_08h58.42.893,experiment,2024.1.5,Win32,60.24096386,66463a60ee450cd8ae9bebc2,667045947eb812cbdacbf325,66704d388479de6f3cc536d8,,,,,,,,,,,,,,,,,,,,,,,,,,,,,,,,,,,,856.8014,863.0287,0,1,1,1,1,SoundStimuli/ItsAllInTheGame_TommyEdwards_Cover5S.wav,,,,,,,,,,,,,,,,,,,,,,,,,,,,,,,,,,,,,,,,,,,,,,,,,,,,,,,,,,
,,,,,626788,001,2024-06-17_08h58.42.893,experiment,2024.1.5,Win32,60.24096386,66463a60ee450cd8ae9bebc2,667045947eb812cbdacbf325,66704d388479de6f3cc536d8,,,,,,,,,,,,,,,,,,,,,,,,,,,,,,,,,,,,,,,,,,,,863.0289,864.9296,1.8,1.8951,0,21,21,13,1,song_indices/ItsAllInTheGame_TommyEdwards.csv,,,,,,,,,,,,,,,,,,,,,,,,,,,,,,,,,,,,,,,,,,,,,,,,
,,,,,626788,001,2024-06-17_08h58.42.893,experiment,2024.1.5,Win32,60.24096386,66463a60ee450cd8ae9bebc2,667045947eb812cbdacbf325,66704d388479de6f3cc536d8,,,,,,,,,,,,,,,,,,,,,,,,,,,,,,,,,,,,864.9301,872.074,0,0,0,1,1,SoundStimuli/IWalkTheLine_JohnnyCash_Cover5S.wav,,,,,,,,,,,,,,,,,,,,,,,,,,,,,,,,,,,,,,,,,,,,,,,,,,,,,,,,,,
,,,,,626788,001,2024-06-17_08h58.42.893,experiment,2024.1.5,Win32,60.24096386,66463a60ee450cd8ae9bebc2,667045947eb812cbdacbf325,66704d388479de6f3cc536d8,,,,,,,,,,,,,,,,,,,,,,,,,,,,,,,,,,,,872.0794,878.0741,0,1,1,0,1,SoundStimuli/IWalkTheLine_JohnnyCash_Original5S.wav,,,,,,,,,,,,,,,,,,,,,,,,,,,,,,,,,,,,,,,,,,,,,,,,,,,,,,,,,,
,,,,,626788,001,2024-06-17_08h58.42.893,experiment,2024.1.5,Win32,60.24096386,66463a60ee450cd8ae9bebc2,667045947eb812cbdacbf325,66704d388479de6f3cc536d8,,,,,,,,,,,,,,,,,,,,,,,,,,,,,,,,,,,,,,,,,,,,878.0743,879.524,1,1.4332,0,22,22,17,1,song_indices/IWalkTheLine_JohnnyCash.csv,,,,,,,,,,,,,,,,,,,,,,,,,,,,,,,,,,,,,,,,,,,,,,,,
,,,,,626788,001,2024-06-17_08h58.42.893,experiment,2024.1.5,Win32,60.24096386,66463a60ee450cd8ae9bebc2,667045947eb812cbdacbf325,66704d388479de6f3cc536d8,,,,,,,,,,,,,,,,,,,,,,,,,,,,,,,,,,,,,,,,,,,,,,,,,,,,,,879.5241,911.3407,space,31.7832,,0,1,1,1,1,choose_song_b2.csv,,,,,,,,,,,,,,,,,,,,,,,,,,,,,,,,,,,,,
,,,,,626788,001,2024-06-17_08h58.42.893,experiment,2024.1.5,Win32,60.24096386,66463a60ee450cd8ae9bebc2,667045947eb812cbdacbf325,66704d388479de6f3cc536d8,,,,,,,,,,,,,,,,,,,,,,,,,,,,,,,,,,,,911.3418,918.8407,0,0,0,1,1,SoundStimuli/BadDay_DanielPowter_Cover5S.wav,,,,,,,,,,,,,,,,,,,,,,,,,,,,,,,,,,,,,,,,,,,,,,,,,,,,,,,,,,
,,,,,626788,001,2024-06-17_08h58.42.893,experiment,2024.1.5,Win32,60.24096386,66463a60ee450cd8ae9bebc2,667045947eb812cbdacbf325,66704d388479de6f3cc536d8,,,,,,,,,,,,,,,,,,,,,,,,,,,,,,,,,,,,918.8458,925.2907,0,1,1,0,1,SoundStimuli/BadDay_DanielPowter_Original5S.wav,,,,,,,,,,,,,,,,,,,,,,,,,,,,,,,,,,,,,,,,,,,,,,,,,,,,,,,,,,
,,,,,626788,001,2024-06-17_08h58.42.893,experiment,2024.1.5,Win32,60.24096386,66463a60ee450cd8ae9bebc2,667045947eb812cbdacbf325,66704d388479de6f3cc536d8,,,,,,,,,,,,,,,,,,,,,,,,,,,,,,,,,,,,,,,,,,,,925.2908,928.0073,1.955555556,2.7001,0,0,0,22,1,song_indices/BadDay_DanielPowter.csv,,,,,,,,,,,,,,,,,,,,,,,,,,,,,,,,,,,,,,,,,,,,,,,,
,,,,,626788,001,2024-06-17_08h58.42.893,experiment,2024.1.5,Win32,60.24096386,66463a60ee450cd8ae9bebc2,667045947eb812cbdacbf325,66704d388479de6f3cc536d8,,,,,,,,,,,,,,,,,,,,,,,,,,,,,,,,,,,,928.0078,934.3238,0,0,0,0,1,SoundStimuli/BridgeOverTroubledWater_SimonAndGarfunkel_Original5S.wav,,,,,,,,,,,,,,,,,,,,,,,,,,,,,,,,,,,,,,,,,,,,,,,,,,,,,,,,,,
,,,,,626788,001,2024-06-17_08h58.42.893,experiment,2024.1.5,Win32,60.24096386,66463a60ee450cd8ae9bebc2,667045947eb812cbdacbf325,66704d388479de6f3cc536d8,,,,,,,,,,,,,,,,,,,,,,,,,,,,,,,,,,,,934.329,941.0239,0,1,1,1,1,SoundStimuli/BridgeOverTroubledWater_SimonAndGarfunkel_Cover5S.wav,,,,,,,,,,,,,,,,,,,,,,,,,,,,,,,,,,,,,,,,,,,,,,,,,,,,,,,,,,
,,,,,626788,001,2024-06-17_08h58.42.893,experiment,2024.1.5,Win32,60.24096386,66463a60ee450cd8ae9bebc2,667045947eb812cbdacbf325,66704d388479de6f3cc536d8,,,,,,,,,,,,,,,,,,,,,,,,,,,,,,,,,,,,,,,,,,,,941.0239,942.9072,3.238888889,1.8712,0,1,1,1,1,song_indices/BridgeOverTroubledWater_SimonAndGarfunkel.csv,,,,,,,,,,,,,,,,,,,,,,,,,,,,,,,,,,,,,,,,,,,,,,,,
,,,,,626788,001,2024-06-17_08h58.42.893,experiment,2024.1.5,Win32,60.24096386,66463a60ee450cd8ae9bebc2,667045947eb812cbdacbf325,66704d388479de6f3cc536d8,,,,,,,,,,,,,,,,,,,,,,,,,,,,,,,,,,,,942.9077,949.0404,0,0,0,1,1,SoundStimuli/Smooth_SantanaRobThomas_Cover5S.wav,,,,,,,,,,,,,,,,,,,,,,,,,,,,,,,,,,,,,,,,,,,,,,,,,,,,,,,,,,
,,,,,626788,001,2024-06-17_08h58.42.893,experiment,2024.1.5,Win32,60.24096386,66463a60ee450cd8ae9bebc2,667045947eb812cbdacbf325,66704d388479de6f3cc536d8,,,,,,,,,,,,,,,,,,,,,,,,,,,,,,,,,,,,949.0455,955.2786,0,1,1,0,1,SoundStimuli/Smooth_SantanaRobThomas_Original5S.wav,,,,,,,,,,,,,,,,,,,,,,,,,,,,,,,,,,,,,,,,,,,,,,,,,,,,,,,,,,
,,,,,626788,001,2024-06-17_08h58.42.893,experiment,2024.1.5,Win32,60.24096386,66463a60ee450cd8ae9bebc2,667045947eb812cbdacbf325,66704d388479de6f3cc536d8,,,,,,,,,,,,,,,,,,,,,,,,,,,,,,,,,,,,,,,,,,,,955.2786,957.7404,5.255555556,2.4523,0,2,2,4,1,song_indices/Smooth_SantanaRobThomas.csv,,,,,,,,,,,,,,,,,,,,,,,,,,,,,,,,,,,,,,,,,,,,,,,,
,,,,,626788,001,2024-06-17_08h58.42.893,experiment,2024.1.5,Win32,60.24096386,66463a60ee450cd8ae9bebc2,667045947eb812cbdacbf325,66704d388479de6f3cc536d8,,,,,,,,,,,,,,,,,,,,,,,,,,,,,,,,,,,,957.7411,966.0072,0,0,0,1,1,SoundStimuli/Perfect_EdSheeran_Cover5S.wav,,,,,,,,,,,,,,,,,,,,,,,,,,,,,,,,,,,,,,,,,,,,,,,,,,,,,,,,,,
,,,,,626788,001,2024-06-17_08h58.42.893,experiment,2024.1.5,Win32,60.24096386,66463a60ee450cd8ae9bebc2,667045947eb812cbdacbf325,66704d388479de6f3cc536d8,,,,,,,,,,,,,,,,,,,,,,,,,,,,,,,,,,,,966.0123,974.8738,0,1,1,0,1,SoundStimuli/Perfect_EdSheeran_Original5S.wav,,,,,,,,,,,,,,,,,,,,,,,,,,,,,,,,,,,,,,,,,,,,,,,,,,,,,,,,,,
,,,,,626788,001,2024-06-17_08h58.42.893,experiment,2024.1.5,Win32,60.24096386,66463a60ee450cd8ae9bebc2,667045947eb812cbdacbf325,66704d388479de6f3cc536d8,,,,,,,,,,,,,,,,,,,,,,,,,,,,,,,,,,,,,,,,,,,,974.8739,979.9738,6.122222222,5.0931,0,3,3,0,1,song_indices/Perfect_EdSheeran.csv,,,,,,,,,,,,,,,,,,,,,,,,,,,,,,,,,,,,,,,,,,,,,,,,
,,,,,626788,001,2024-06-17_08h58.42.893,experiment,2024.1.5,Win32,60.24096386,66463a60ee450cd8ae9bebc2,667045947eb812cbdacbf325,66704d388479de6f3cc536d8,,,,,,,,,,,,,,,,,,,,,,,,,,,,,,,,,,,,979.9743,987.3621,0,0,0,0,1,SoundStimuli/OldTownRoad_LilNasX_Original5S.wav,,,,,,,,,,,,,,,,,,,,,,,,,,,,,,,,,,,,,,,,,,,,,,,,,,,,,,,,,,
,,,,,626788,001,2024-06-17_08h58.42.893,experiment,2024.1.5,Win32,60.24096386,66463a60ee450cd8ae9bebc2,667045947eb812cbdacbf325,66704d388479de6f3cc536d8,,,,,,,,,,,,,,,,,,,,,,,,,,,,,,,,,,,,987.3673,993.8789,0,1,1,1,1,SoundStimuli/OldTownRoad_LilNasX_Cover5S.wav,,,,,,,,,,,,,,,,,,,,,,,,,,,,,,,,,,,,,,,,,,,,,,,,,,,,,,,,,,
,,,,,626788,001,2024-06-17_08h58.42.893,experiment,2024.1.5,Win32,60.24096386,66463a60ee450cd8ae9bebc2,667045947eb812cbdacbf325,66704d388479de6f3cc536d8,,,,,,,,,,,,,,,,,,,,,,,,,,,,,,,,,,,,,,,,,,,,993.879,996.0406,3.844444444,2.1453,0,4,4,20,1,song_indices/OldTownRoad_LilNasX.csv,,,,,,,,,,,,,,,,,,,,,,,,,,,,,,,,,,,,,,,,,,,,,,,,
,,,,,626788,001,2024-06-17_08h58.42.893,experiment,2024.1.5,Win32,60.24096386,66463a60ee450cd8ae9bebc2,667045947eb812cbdacbf325,66704d388479de6f3cc536d8,,,,,,,,,,,,,,,,,,,,,,,,,,,,,,,,,,,,996.0413,1000.7572,0,0,0,1,1,SoundStimuli/AChangeIsGonnaCome_SamCooke_Cover5S.wav,,,,,,,,,,,,,,,,,,,,,,,,,,,,,,,,,,,,,,,,,,,,,,,,,,,,,,,,,,
,,,,,626788,001,2024-06-17_08h58.42.893,experiment,2024.1.5,Win32,60.24096386,66463a60ee450cd8ae9bebc2,667045947eb812cbdacbf325,66704d388479de6f3cc536d8,,,,,,,,,,,,,,,,,,,,,,,,,,,,,,,,,,,,1000.7622,1006.8072,0,1,1,0,1,SoundStimuli/AChangeIsGonnaCome_SamCooke_Original5S.wav,,,,,,,,,,,,,,,,,,,,,,,,,,,,,,,,,,,,,,,,,,,,,,,,,,,,,,,,,,
,,,,,626788,001,2024-06-17_08h58.42.893,experiment,2024.1.5,Win32,60.24096386,66463a60ee450cd8ae9bebc2,667045947eb812cbdacbf325,66704d388479de6f3cc536d8,,,,,,,,,,,,,,,,,,,,,,,,,,,,,,,,,,,,,,,,,,,,1006.8073,1009.2622,3.711111111,2.4495,0,5,5,17,1,song_indices/AChangeIsGonnaCome_SamCooke.csv,,,,,,,,,,,,,,,,,,,,,,,,,,,,,,,,,,,,,,,,,,,,,,,,
,,,,,626788,001,2024-06-17_08h58.42.893,experiment,2024.1.5,Win32,60.24096386,66463a60ee450cd8ae9bebc2,667045947eb812cbdacbf325,66704d388479de6f3cc536d8,,,,,,,,,,,,,,,,,,,,,,,,,,,,,,,,,,,,1009.2627,1015.4284,0,0,0,0,1,SoundStimuli/LikeARollingStone_BobDylan_Original5S.wav,,,,,,,,,,,,,,,,,,,,,,,,,,,,,,,,,,,,,,,,,,,,,,,,,,,,,,,,,,
,,,,,626788,001,2024-06-17_08h58.42.893,experiment,2024.1.5,Win32,60.24096386,66463a60ee450cd8ae9bebc2,667045947eb812cbdacbf325,66704d388479de6f3cc536d8,,,,,,,,,,,,,,,,,,,,,,,,,,,,,,,,,,,,1015.4333,1019.8288,0,1,1,1,1,SoundStimuli/LikeARollingStone_BobDylan_Cover5S.wav,,,,,,,,,,,,,,,,,,,,,,,,,,,,,,,,,,,,,,,,,,,,,,,,,,,,,,,,,,
,,,,,626788,001,2024-06-17_08h58.42.893,experiment,2024.1.5,Win32,60.24096386,66463a60ee450cd8ae9bebc2,667045947eb812cbdacbf325,66704d388479de6f3cc536d8,,,,,,,,,,,,,,,,,,,,,,,,,,,,,,,,,,,,,,,,,,,,1019.8289,1025.2576,2.544444444,5.4234,0,6,6,12,1,song_indices/LikeARollingStone_BobDylan.csv,,,,,,,,,,,,,,,,,,,,,,,,,,,,,,,,,,,,,,,,,,,,,,,,
,,,,,626788,001,2024-06-17_08h58.42.893,experiment,2024.1.5,Win32,60.24096386,66463a60ee450cd8ae9bebc2,667045947eb812cbdacbf325,66704d388479de6f3cc536d8,,,,,,,,,,,,,,,,,,,,,,,,,,,,,,,,,,,,1025.258,1031.6447,0,0,0,0,1,SoundStimuli/MyGirl_TheTemptations_Original5S.wav,,,,,,,,,,,,,,,,,,,,,,,,,,,,,,,,,,,,,,,,,,,,,,,,,,,,,,,,,,
,,,,,626788,001,2024-06-17_08h58.42.893,experiment,2024.1.5,Win32,60.24096386,66463a60ee450cd8ae9bebc2,667045947eb812cbdacbf325,66704d388479de6f3cc536d8,,,,,,,,,,,,,,,,,,,,,,,,,,,,,,,,,,,,1031.6497,1039.3071,0,1,1,1,1,SoundStimuli/MyGirl_TheTemptations_Cover5S.wav,,,,,,,,,,,,,,,,,,,,,,,,,,,,,,,,,,,,,,,,,,,,,,,,,,,,,,,,,,
,,,,,626788,001,2024-06-17_08h58.42.893,experiment,2024.1.5,Win32,60.24096386,66463a60ee450cd8ae9bebc2,667045947eb812cbdacbf325,66704d388479de6f3cc536d8,,,,,,,,,,,,,,,,,,,,,,,,,,,,,,,,,,,,,,,,,,,,1039.3071,1042.6238,1.138888889,3.2991,0,7,7,15,1,song_indices/MyGirl_TheTemptations.csv,,,,,,,,,,,,,,,,,,,,,,,,,,,,,,,,,,,,,,,,,,,,,,,,
,,,,,626788,001,2024-06-17_08h58.42.893,experiment,2024.1.5,Win32,60.24096386,66463a60ee450cd8ae9bebc2,667045947eb812cbdacbf325,66704d388479de6f3cc536d8,,,,,,,,,,,,,,,,,,,,,,,,,,,,,,,,,,,,1042.6244,1050.1404,0,0,0,1,1,SoundStimuli/EndlessLove_DianaRossLionelRichie_Cover5S.wav,,,,,,,,,,,,,,,,,,,,,,,,,,,,,,,,,,,,,,,,,,,,,,,,,,,,,,,,,,
,,,,,626788,001,2024-06-17_08h58.42.893,experiment,2024.1.5,Win32,60.24096386,66463a60ee450cd8ae9bebc2,667045947eb812cbdacbf325,66704d388479de6f3cc536d8,,,,,,,,,,,,,,,,,,,,,,,,,,,,,,,,,,,,1050.1457,1056.5121,0,1,1,0,1,SoundStimuli/EndlessLove_DianaRossLionelRichie_Original5S.wav,,,,,,,,,,,,,,,,,,,,,,,,,,,,,,,,,,,,,,,,,,,,,,,,,,,,,,,,,,
,,,,,626788,001,2024-06-17_08h58.42.893,experiment,2024.1.5,Win32,60.24096386,66463a60ee450cd8ae9bebc2,667045947eb812cbdacbf325,66704d388479de6f3cc536d8,,,,,,,,,,,,,,,,,,,,,,,,,,,,,,,,,,,,,,,,,,,,1056.5122,1059.5071,4.122222222,2.9799,0,8,8,3,1,song_indices/EndlessLove_DianaRossLionelRichie.csv,,,,,,,,,,,,,,,,,,,,,,,,,,,,,,,,,,,,,,,,,,,,,,,,
,,,,,626788,001,2024-06-17_08h58.42.893,experiment,2024.1.5,Win32,60.24096386,66463a60ee450cd8ae9bebc2,667045947eb812cbdacbf325,66704d388479de6f3cc536d8,,,,,,,,,,,,,,,,,,,,,,,,,,,,,,,,,,,,1059.5076,1065.5285,0,0,0,1,1,SoundStimuli/IWantToHoldYourHand_TheBeatles_Cover5S.wav,,,,,,,,,,,,,,,,,,,,,,,,,,,,,,,,,,,,,,,,,,,,,,,,,,,,,,,,,,
,,,,,626788,001,2024-06-17_08h58.42.893,experiment,2024.1.5,Win32,60.24096386,66463a60ee450cd8ae9bebc2,667045947eb812cbdacbf325,66704d388479de6f3cc536d8,,,,,,,,,,,,,,,,,,,,,,,,,,,,,,,,,,,,1065.5335,1071.3238,0,1,1,0,1,SoundStimuli/IWantToHoldYourHand_TheBeatles_Original5S.wav,,,,,,,,,,,,,,,,,,,,,,,,,,,,,,,,,,,,,,,,,,,,,,,,,,,,,,,,,,
,,,,,626788,001,2024-06-17_08h58.42.893,experiment,2024.1.5,Win32,60.24096386,66463a60ee450cd8ae9bebc2,667045947eb812cbdacbf325,66704d388479de6f3cc536d8,,,,,,,,,,,,,,,,,,,,,,,,,,,,,,,,,,,,,,,,,,,,1071.3239,1072.6071,1.044444444,1.2705,0,9,9,19,1,song_indices/IWantToHoldYourHand_TheBeatles.csv,,,,,,,,,,,,,,,,,,,,,,,,,,,,,,,,,,,,,,,,,,,,,,,,
,,,,,626788,001,2024-06-17_08h58.42.893,experiment,2024.1.5,Win32,60.24096386,66463a60ee450cd8ae9bebc2,667045947eb812cbdacbf325,66704d388479de6f3cc536d8,,,,,,,,,,,,,,,,,,,,,,,,,,,,,,,,,,,,1072.6076,1078.8737,0,0,0,1,1,SoundStimuli/MackTheKnife_BobbyDarin_Cover5S.wav,,,,,,,,,,,,,,,,,,,,,,,,,,,,,,,,,,,,,,,,,,,,,,,,,,,,,,,,,,
,,,,,626788,001,2024-06-17_08h58.42.893,experiment,2024.1.5,Win32,60.24096386,66463a60ee450cd8ae9bebc2,667045947eb812cbdacbf325,66704d388479de6f3cc536d8,,,,,,,,,,,,,,,,,,,,,,,,,,,,,,,,,,,,1078.8788,1085.0238,0,1,1,0,1,SoundStimuli/MackTheKnife_BobbyDarin_Original5S.wav,,,,,,,,,,,,,,,,,,,,,,,,,,,,,,,,,,,,,,,,,,,,,,,,,,,,,,,,,,
,,,,,626788,001,2024-06-17_08h58.42.893,experiment,2024.1.5,Win32,60.24096386,66463a60ee450cd8ae9bebc2,667045947eb812cbdacbf325,66704d388479de6f3cc536d8,,,,,,,,,,,,,,,,,,,,,,,,,,,,,,,,,,,,,,,,,,,,1085.0239,1090.1736,1.016666667,5.1361,0,10,10,21,1,song_indices/MackTheKnife_BobbyDarin.csv,,,,,,,,,,,,,,,,,,,,,,,,,,,,,,,,,,,,,,,,,,,,,,,,
,,,,,626788,001,2024-06-17_08h58.42.893,experiment,2024.1.5,Win32,60.24096386,66463a60ee450cd8ae9bebc2,667045947eb812cbdacbf325,66704d388479de6f3cc536d8,,,,,,,,,,,,,,,,,,,,,,,,,,,,,,,,,,,,1090.1741,1097.0117,0,0,0,1,1,SoundStimuli/IWannaDanceWithSomebody_WhitneyHouston_Cover5S.wav,,,,,,,,,,,,,,,,,,,,,,,,,,,,,,,,,,,,,,,,,,,,,,,,,,,,,,,,,,
,,,,,626788,001,2024-06-17_08h58.42.893,experiment,2024.1.5,Win32,60.24096386,66463a60ee450cd8ae9bebc2,667045947eb812cbdacbf325,66704d388479de6f3cc536d8,,,,,,,,,,,,,,,,,,,,,,,,,,,,,,,,,,,,1097.0167,1102.6284,0,1,1,0,1,SoundStimuli/IWannaDanceWithSomebody_WhitneyHouston_Original5S.wav,,,,,,,,,,,,,,,,,,,,,,,,,,,,,,,,,,,,,,,,,,,,,,,,,,,,,,,,,,
,,,,,626788,001,2024-06-17_08h58.42.893,experiment,2024.1.5,Win32,60.24096386,66463a60ee450cd8ae9bebc2,667045947eb812cbdacbf325,66704d388479de6f3cc536d8,,,,,,,,,,,,,,,,,,,,,,,,,,,,,,,,,,,,,,,,,,,,1102.6285,1105.4401,1.022222222,2.7945,0,11,11,13,1,song_indices/IWannaDanceWithSomebody_WhitneyHouston.csv,,,,,,,,,,,,,,,,,,,,,,,,,,,,,,,,,,,,,,,,,,,,,,,,
,,,,,626788,001,2024-06-17_08h58.42.893,experiment,2024.1.5,Win32,60.24096386,66463a60ee450cd8ae9bebc2,667045947eb812cbdacbf325,66704d388479de6f3cc536d8,,,,,,,,,,,,,,,,,,,,,,,,,,,,,,,,,,,,1105.4407,1114.0235,0,0,0,1,1,SoundStimuli/HeatWaves_GlassAnimals_Cover5S.wav,,,,,,,,,,,,,,,,,,,,,,,,,,,,,,,,,,,,,,,,,,,,,,,,,,,,,,,,,,
,,,,,626788,001,2024-06-17_08h58.42.893,experiment,2024.1.5,Win32,60.24096386,66463a60ee450cd8ae9bebc2,667045947eb812cbdacbf325,66704d388479de6f3cc536d8,,,,,,,,,,,,,,,,,,,,,,,,,,,,,,,,,,,,1114.0286,1120.1282,0,1,1,0,1,SoundStimuli/HeatWaves_GlassAnimals_Original5S.wav,,,,,,,,,,,,,,,,,,,,,,,,,,,,,,,,,,,,,,,,,,,,,,,,,,,,,,,,,,
,,,,,626788,001,2024-06-17_08h58.42.893,experiment,2024.1.5,Win32,60.24096386,66463a60ee450cd8ae9bebc2,667045947eb812cbdacbf325,66704d388479de6f3cc536d8,,,,,,,,,,,,,,,,,,,,,,,,,,,,,,,,,,,,,,,,,,,,1120.1282,1123.1118,3.283333333,2.9781,0,12,12,10,1,song_indices/HeatWaves_GlassAnimals.csv,,,,,,,,,,,,,,,,,,,,,,,,,,,,,,,,,,,,,,,,,,,,,,,,
,,,,,626788,001,2024-06-17_08h58.42.893,experiment,2024.1.5,Win32,60.24096386,66463a60ee450cd8ae9bebc2,667045947eb812cbdacbf325,66704d388479de6f3cc536d8,,,,,,,,,,,,,,,,,,,,,,,,,,,,,,,,,,,,1123.1123,1131.3948,0,0,0,1,1,SoundStimuli/Mood_24kGoldnianndior_Cover5S.wav,,,,,,,,,,,,,,,,,,,,,,,,,,,,,,,,,,,,,,,,,,,,,,,,,,,,,,,,,,
,,,,,626788,001,2024-06-17_08h58.42.893,experiment,2024.1.5,Win32,60.24096386,66463a60ee450cd8ae9bebc2,667045947eb812cbdacbf325,66704d388479de6f3cc536d8,,,,,,,,,,,,,,,,,,,,,,,,,,,,,,,,,,,,1131.3998,1137.6939,0,1,1,0,1,SoundStimuli/Mood_24kGoldnianndior_Original5S.wav,,,,,,,,,,,,,,,,,,,,,,,,,,,,,,,,,,,,,,,,,,,,,,,,,,,,,,,,,,
,,,,,626788,001,2024-06-17_08h58.42.893,experiment,2024.1.5,Win32,60.24096386,66463a60ee450cd8ae9bebc2,667045947eb812cbdacbf325,66704d388479de6f3cc536d8,,,,,,,,,,,,,,,,,,,,,,,,,,,,,,,,,,,,,,,,,,,,1137.694,1140.5235,1.794444444,2.8126,0,13,13,5,1,song_indices/Mood_24kGoldnianndior.csv,,,,,,,,,,,,,,,,,,,,,,,,,,,,,,,,,,,,,,,,,,,,,,,,
,,,,,626788,001,2024-06-17_08h58.42.893,experiment,2024.1.5,Win32,60.24096386,66463a60ee450cd8ae9bebc2,667045947eb812cbdacbf325,66704d388479de6f3cc536d8,,,,,,,,,,,,,,,,,,,,,,,,,,,,,,,,,,,,1140.524,1146.5772,0,0,0,0,1,SoundStimuli/StayinAlive_BeeGees_Original5S.wav,,,,,,,,,,,,,,,,,,,,,,,,,,,,,,,,,,,,,,,,,,,,,,,,,,,,,,,,,,
,,,,,626788,001,2024-06-17_08h58.42.893,experiment,2024.1.5,Win32,60.24096386,66463a60ee450cd8ae9bebc2,667045947eb812cbdacbf325,66704d388479de6f3cc536d8,,,,,,,,,,,,,,,,,,,,,,,,,,,,,,,,,,,,1146.5825,1152.4279,0,1,1,1,1,SoundStimuli/StayinAlive_BeeGees_Cover5S.wav,,,,,,,,,,,,,,,,,,,,,,,,,,,,,,,,,,,,,,,,,,,,,,,,,,,,,,,,,,
,,,,,626788,001,2024-06-17_08h58.42.893,experiment,2024.1.5,Win32,60.24096386,66463a60ee450cd8ae9bebc2,667045947eb812cbdacbf325,66704d388479de6f3cc536d8,,,,,,,,,,,,,,,,,,,,,,,,,,,,,,,,,,,,,,,,,,,,1152.428,1154.7401,2.166666667,2.3042,0,14,14,2,1,song_indices/StayinAlive_BeeGees.csv,,,,,,,,,,,,,,,,,,,,,,,,,,,,,,,,,,,,,,,,,,,,,,,,
,,,,,626788,001,2024-06-17_08h58.42.893,experiment,2024.1.5,Win32,60.24096386,66463a60ee450cd8ae9bebc2,667045947eb812cbdacbf325,66704d388479de6f3cc536d8,,,,,,,,,,,,,,,,,,,,,,,,,,,,,,,,,,,,1154.7407,1160.9901,0,0,0,0,1,SoundStimuli/LivinOnAPrayer_BonJovi_Original5S.wav,,,,,,,,,,,,,,,,,,,,,,,,,,,,,,,,,,,,,,,,,,,,,,,,,,,,,,,,,,
,,,,,626788,001,2024-06-17_08h58.42.893,experiment,2024.1.5,Win32,60.24096386,66463a60ee450cd8ae9bebc2,667045947eb812cbdacbf325,66704d388479de6f3cc536d8,,,,,,,,,,,,,,,,,,,,,,,,,,,,,,,,,,,,1160.9951,1168.7069,0,1,1,1,1,SoundStimuli/LivinOnAPrayer_BonJovi_Cover5S.wav,,,,,,,,,,,,,,,,,,,,,,,,,,,,,,,,,,,,,,,,,,,,,,,,,,,,,,,,,,
,,,,,626788,001,2024-06-17_08h58.42.893,experiment,2024.1.5,Win32,60.24096386,66463a60ee450cd8ae9bebc2,667045947eb812cbdacbf325,66704d388479de6f3cc536d8,,,,,,,,,,,,,,,,,,,,,,,,,,,,,,,,,,,,,,,,,,,,1168.7069,1174.9461,1.777777778,6.2334,0,15,15,16,1,song_indices/LivinOnAPrayer_BonJovi.csv,,,,,,,,,,,,,,,,,,,,,,,,,,,,,,,,,,,,,,,,,,,,,,,,
,,,,,626788,001,2024-06-17_08h58.42.893,experiment,2024.1.5,Win32,60.24096386,66463a60ee450cd8ae9bebc2,667045947eb812cbdacbf325,66704d388479de6f3cc536d8,,,,,,,,,,,,,,,,,,,,,,,,,,,,,,,,,,,,1174.9465,1181.9733,0,0,0,1,1,SoundStimuli/StrawberryFieldsForever_TheBeatles_Cover5S.wav,,,,,,,,,,,,,,,,,,,,,,,,,,,,,,,,,,,,,,,,,,,,,,,,,,,,,,,,,,
,,,,,626788,001,2024-06-17_08h58.42.893,experiment,2024.1.5,Win32,60.24096386,66463a60ee450cd8ae9bebc2,667045947eb812cbdacbf325,66704d388479de6f3cc536d8,,,,,,,,,,,,,,,,,,,,,,,,,,,,,,,,,,,,1181.9783,1188.1067,0,1,1,0,1,SoundStimuli/StrawberryFieldsForever_TheBeatles_Original5S.wav,,,,,,,,,,,,,,,,,,,,,,,,,,,,,,,,,,,,,,,,,,,,,,,,,,,,,,,,,,
,,,,,626788,001,2024-06-17_08h58.42.893,experiment,2024.1.5,Win32,60.24096386,66463a60ee450cd8ae9bebc2,667045947eb812cbdacbf325,66704d388479de6f3cc536d8,,,,,,,,,,,,,,,,,,,,,,,,,,,,,,,,,,,,,,,,,,,,1188.1068,1192.49,1.138888889,4.3721,0,16,16,14,1,song_indices/StrawberryFieldsForever_TheBeatles.csv,,,,,,,,,,,,,,,,,,,,,,,,,,,,,,,,,,,,,,,,,,,,,,,,
,,,,,626788,001,2024-06-17_08h58.42.893,experiment,2024.1.5,Win32,60.24096386,66463a60ee450cd8ae9bebc2,667045947eb812cbdacbf325,66704d388479de6f3cc536d8,,,,,,,,,,,,,,,,,,,,,,,,,,,,,,,,,,,,1192.4906,1198.6734,0,0,0,0,1,SoundStimuli/LikeAPrayer_Madonna_Original5S.wav,,,,,,,,,,,,,,,,,,,,,,,,,,,,,,,,,,,,,,,,,,,,,,,,,,,,,,,,,,
,,,,,626788,001,2024-06-17_08h58.42.893,experiment,2024.1.5,Win32,60.24096386,66463a60ee450cd8ae9bebc2,667045947eb812cbdacbf325,66704d388479de6f3cc536d8,,,,,,,,,,,,,,,,,,,,,,,,,,,,,,,,,,,,1198.6788,1204.8945,0,1,1,1,1,SoundStimuli/LikeAPrayer_Madonna_Cover5S.wav,,,,,,,,,,,,,,,,,,,,,,,,,,,,,,,,,,,,,,,,,,,,,,,,,,,,,,,,,,
,,,,,626788,001,2024-06-17_08h58.42.893,experiment,2024.1.5,Win32,60.24096386,66463a60ee450cd8ae9bebc2,667045947eb812cbdacbf325,66704d388479de6f3cc536d8,,,,,,,,,,,,,,,,,,,,,,,,,,,,,,,,,,,,,,,,,,,,1204.8946,1207.4733,5.855555556,2.5664,0,17,17,7,1,song_indices/LikeAPrayer_Madonna.csv,,,,,,,,,,,,,,,,,,,,,,,,,,,,,,,,,,,,,,,,,,,,,,,,
,,,,,626788,001,2024-06-17_08h58.42.893,experiment,2024.1.5,Win32,60.24096386,66463a60ee450cd8ae9bebc2,667045947eb812cbdacbf325,66704d388479de6f3cc536d8,,,,,,,,,,,,,,,,,,,,,,,,,,,,,,,,,,,,1207.4737,1214.04,0,0,0,0,1,SoundStimuli/Despacito_LuisFonsiDaddyYankee_Original5S.wav,,,,,,,,,,,,,,,,,,,,,,,,,,,,,,,,,,,,,,,,,,,,,,,,,,,,,,,,,,
,,,,,626788,001,2024-06-17_08h58.42.893,experiment,2024.1.5,Win32,60.24096386,66463a60ee450cd8ae9bebc2,667045947eb812cbdacbf325,66704d388479de6f3cc536d8,,,,,,,,,,,,,,,,,,,,,,,,,,,,,,,,,,,,1214.0452,1220.6399,0,1,1,1,1,SoundStimuli/Despacito_LuisFonsiDaddyYankee_Cover5S.wav,,,,,,,,,,,,,,,,,,,,,,,,,,,,,,,,,,,,,,,,,,,,,,,,,,,,,,,,,,
,,,,,626788,001,2024-06-17_08h58.42.893,experiment,2024.1.5,Win32,60.24096386,66463a60ee450cd8ae9bebc2,667045947eb812cbdacbf325,66704d388479de6f3cc536d8,,,,,,,,,,,,,,,,,,,,,,,,,,,,,,,,,,,,,,,,,,,,1220.6399,1222.7732,3.927777778,2.1159,0,18,18,11,1,song_indices/Despacito_LuisFonsiDaddyYankee.csv,,,,,,,,,,,,,,,,,,,,,,,,,,,,,,,,,,,,,,,,,,,,,,,,
,,,,,626788,001,2024-06-17_08h58.42.893,experiment,2024.1.5,Win32,60.24096386,66463a60ee450cd8ae9bebc2,667045947eb812cbdacbf325,66704d388479de6f3cc536d8,,,,,,,,,,,,,,,,,,,,,,,,,,,,,,,,,,,,1222.7737,1228.8612,0,0,0,0,1,SoundStimuli/IllMakeLoveToYou_BoyzIIMen_Original5S.wav,,,,,,,,,,,,,,,,,,,,,,,,,,,,,,,,,,,,,,,,,,,,,,,,,,,,,,,,,,
,,,,,626788,001,2024-06-17_08h58.42.893,experiment,2024.1.5,Win32,60.24096386,66463a60ee450cd8ae9bebc2,667045947eb812cbdacbf325,66704d388479de6f3cc536d8,,,,,,,,,,,,,,,,,,,,,,,,,,,,,,,,,,,,1228.8662,1234.8065,0,1,1,1,1,SoundStimuli/IllMakeLoveToYou_BoyzIIMen_Cover5S.wav,,,,,,,,,,,,,,,,,,,,,,,,,,,,,,,,,,,,,,,,,,,,,,,,,,,,,,,,,,
,,,,,626788,001,2024-06-17_08h58.42.893,experiment,2024.1.5,Win32,60.24096386,66463a60ee450cd8ae9bebc2,667045947eb812cbdacbf325,66704d388479de6f3cc536d8,,,,,,,,,,,,,,,,,,,,,,,,,,,,,,,,,,,,,,,,,,,,1234.8066,1237.5068,3.283333333,2.685,0,19,19,6,1,song_indices/IllMakeLoveToYou_BoyzIIMen.csv,,,,,,,,,,,,,,,,,,,,,,,,,,,,,,,,,,,,,,,,,,,,,,,,
,,,,,626788,001,2024-06-17_08h58.42.893,experiment,2024.1.5,Win32,60.24096386,66463a60ee450cd8ae9bebc2,667045947eb812cbdacbf325,66704d388479de6f3cc536d8,,,,,,,,,,,,,,,,,,,,,,,,,,,,,,,,,,,,1237.5073,1245.64,0,0,0,1,1,SoundStimuli/AnotherOneBitesTheDust_Queen_Cover5S.wav,,,,,,,,,,,,,,,,,,,,,,,,,,,,,,,,,,,,,,,,,,,,,,,,,,,,,,,,,,
,,,,,626788,001,2024-06-17_08h58.42.893,experiment,2024.1.5,Win32,60.24096386,66463a60ee450cd8ae9bebc2,667045947eb812cbdacbf325,66704d388479de6f3cc536d8,,,,,,,,,,,,,,,,,,,,,,,,,,,,,,,,,,,,1245.6453,1251.6944,0,1,1,0,1,SoundStimuli/AnotherOneBitesTheDust_Queen_Original5S.wav,,,,,,,,,,,,,,,,,,,,,,,,,,,,,,,,,,,,,,,,,,,,,,,,,,,,,,,,,,
,,,,,626788,001,2024-06-17_08h58.42.893,experiment,2024.1.5,Win32,60.24096386,66463a60ee450cd8ae9bebc2,667045947eb812cbdacbf325,66704d388479de6f3cc536d8,,,,,,,,,,,,,,,,,,,,,,,,,,,,,,,,,,,,,,,,,,,,1251.6944,1253.9067,2.4,2.1978,0,20,20,9,1,song_indices/AnotherOneBitesTheDust_Queen.csv,,,,,,,,,,,,,,,,,,,,,,,,,,,,,,,,,,,,,,,,,,,,,,,,
,,,,,626788,001,2024-06-17_08h58.42.893,experiment,2024.1.5,Win32,60.24096386,66463a60ee450cd8ae9bebc2,667045947eb812cbdacbf325,66704d388479de6f3cc536d8,,,,,,,,,,,,,,,,,,,,,,,,,,,,,,,,,,,,1253.9071,1260.7781,0,0,0,1,1,SoundStimuli/GodOnlyKnows_TheBeachBoys_Cover5S.wav,,,,,,,,,,,,,,,,,,,,,,,,,,,,,,,,,,,,,,,,,,,,,,,,,,,,,,,,,,
,,,,,626788,001,2024-06-17_08h58.42.893,experiment,2024.1.5,Win32,60.24096386,66463a60ee450cd8ae9bebc2,667045947eb812cbdacbf325,66704d388479de6f3cc536d8,,,,,,,,,,,,,,,,,,,,,,,,,,,,,,,,,,,,1260.7836,1267.0233,0,1,1,0,1,SoundStimuli/GodOnlyKnows_TheBeachBoys_Original5S.wav,,,,,,,,,,,,,,,,,,,,,,,,,,,,,,,,,,,,,,,,,,,,,,,,,,,,,,,,,,
,,,,,626788,001,2024-06-17_08h58.42.893,experiment,2024.1.5,Win32,60.24096386,66463a60ee450cd8ae9bebc2,667045947eb812cbdacbf325,66704d388479de6f3cc536d8,,,,,,,,,,,,,,,,,,,,,,,,,,,,,,,,,,,,,,,,,,,,1267.0234,1270.361,2.838888889,3.332,0,21,21,8,1,song_indices/GodOnlyKnows_TheBeachBoys.csv,,,,,,,,,,,,,,,,,,,,,,,,,,,,,,,,,,,,,,,,,,,,,,,,
,,,,,626788,001,2024-06-17_08h58.42.893,experiment,2024.1.5,Win32,60.24096386,66463a60ee450cd8ae9bebc2,667045947eb812cbdacbf325,66704d388479de6f3cc536d8,,,,,,,,,,,,,,,,,,,,,,,,,,,,,,,,,,,,1270.3614,1276.3232,0,0,0,0,1,SoundStimuli/BohemianRhapsody_Queen_Original5S.wav,,,,,,,,,,,,,,,,,,,,,,,,,,,,,,,,,,,,,,,,,,,,,,,,,,,,,,,,,,
,,,,,626788,001,2024-06-17_08h58.42.893,experiment,2024.1.5,Win32,60.24096386,66463a60ee450cd8ae9bebc2,667045947eb812cbdacbf325,66704d388479de6f3cc536d8,,,,,,,,,,,,,,,,,,,,,,,,,,,,,,,,,,,,1276.3283,1280.4066,0,1,1,1,1,SoundStimuli/BohemianRhapsody_Queen_Cover5S.wav,,,,,,,,,,,,,,,,,,,,,,,,,,,,,,,,,,,,,,,,,,,,,,,,,,,,,,,,,,
,,,,,626788,001,2024-06-17_08h58.42.893,experiment,2024.1.5,Win32,60.24096386,66463a60ee450cd8ae9bebc2,667045947eb812cbdacbf325,66704d388479de6f3cc536d8,,,,,,,,,,,,,,,,,,,,,,,,,,,,,,,,,,,,,,,,,,,,1280.4067,1282.4615,1.366666667,2.0494,0,22,22,18,1,song_indices/BohemianRhapsody_Queen.csv,,,,,,,,,,,,,,,,,,,,,,,,,,,,,,,,,,,,,,,,,,,,,,,,
,,,,,626788,001,2024-06-17_08h58.42.893,experiment,2024.1.5,Win32,60.24096386,66463a60ee450cd8ae9bebc2,667045947eb812cbdacbf325,66704d388479de6f3cc536d8,,,,,,,,,,,,,,,,,,,,,,,,,,,,,,,,,,,,,,,,,,,,,,,,,,,,,,1282.4615,1282.4615,,,,0,2,2,0,1,choose_song_b1.csv,,,,,,,,,,,,,,,,,,,,,,,,,,,,,,,,,,,,,
,,,,,626788,001,2024-06-17_08h58.42.893,experiment,2024.1.5,Win32,60.24096386,66463a60ee450cd8ae9bebc2,667045947eb812cbdacbf325,66704d388479de6f3cc536d8,,,,,,,,,,,,,,,,,,,,,,,,,,,,,,,,,,,,,,,,,,,,,,,,,,,,,,,,,,,,,,,,,29,Item 3,"Classically trained pianist from age 5-18, singer from age 10-29, self-taught kalimba player from age 25-29, self-taught amateur electric bassist from age 28-29",Item 5,"Spotify, occasionally youtube",4,5,"Driving, walking, working, laundry, running errands, shopping, crafting hobbies, cooking, cleaning",Sometimes,Rarely,Often,Never,Rarely,Rarely,Rarely,Never,Never,Always,Sometimes,Often,Rarely,Never,Often,Often,"Symphonic metal, Jrock, Irish folk, punk rock, pop rock, Broadway showtunes, Indie rock",Alternative rock,Indie rock,Pop rock,They have not changed much since I was a teenager. I still listen to music any chance I get. The only difference is now I listen to podcasts instead of music sometimes.,Sometimes I listen to the same songs on repeat and other times I only listen to new songs. It just depends on how I'm feeling.,0,0,0,0,1,,
,,,,,626788,001,2024-06-17_08h58.42.893,experiment,2024.1.5,Win32,60.24096386,66463a60ee450cd8ae9bebc2,667045947eb812cbdacbf325,66704d388479de6f3cc536d8,,,,,,,,,,,,,,,,,,,,,,,,,,,,,,,,,,,,,,,,,,,,,,,,,,,,,,,,,,,,,,,,,,,,,,,,,,,,,,,,,,,,,,,,,,,,,,,,,,,,1894.1907,1896.378
