welcome.started,welcome.stopped,space_to_continue.keys,space_to_continue.rt,space_to_continue.duration,participant,session,date,expName,psychopyVersion,OS,frameRate,PROLIFIC_PID,STUDY_ID,SESSION_ID,consent.consent,consent.consent_recontact,consent_check.started,consent_check.stopped,calibration_ready.started,calibration_ready.stopped,cal_ready.keys,cal_ready.rt,cal_ready.duration,calibration.started,calibration.stopped,mouse.x,mouse.y,mouse.leftButton,mouse.midButton,mouse.rightButton,mouse.time,mouse.clicked_name,move_on.keys,move_on.rt,move_on.duration,instructions.started,instructions.stopped,next.keys,next.rt,next.duration,practice_trial.started,practice_trial.stopped,practice_slider.response,practice_slider.rt,ready.started,ready.stopped,key_resp.keys,key_resp.rt,key_resp.duration,play_sound.started,play_sound.stopped,trials.thisRepN,trials.thisTrialN,trials.thisN,trials.thisIndex,trials.ran,orig_or_cover,rating.started,rating.stopped,slider.response,slider.rt,songs.thisRepN,songs.thisTrialN,songs.thisN,songs.thisIndex,songs.ran,song_id,short_break.started,short_break.stopped,space_to_move_on.keys,space_to_move_on.rt,space_to_move_on.duration,blocks.thisRepN,blocks.thisTrialN,blocks.thisN,blocks.thisIndex,blocks.ran,block,survey.age,survey.musician,survey.music_making,survey.listen_time,survey.medium,survey.music_seeking,survey.activities,survey.question1.Classic rock,survey.question1.Jazz,survey.question1.Classical,survey.question1.Alternative rock,survey.question1.Disco,survey.question1.A cappella,survey.question1.Electronic (EDM),survey.question1.Latin,survey.question1.Metal,survey.question1.R&B,survey.question1.Reggae,survey.question1.Pop,survey.question1.Country,survey.question1.Hip hop,survey.question1.Folk/indie,survey.question1.Ambient,survey.genres_ranked.text1,survey.genres_ranked.text2,survey.genres_ranked.text3,survey.habit_change,survey.habits,experiment.thisRepN,experiment.thisTrialN,experiment.thisN,experiment.thisIndex,experiment.ran,goodbye.started,goodbye.stopped
0.005,1.8442,space,1.8224,,714122,001,2024-06-14_09h35.35.742,experiment,2024.1.5,Win32,60.24096386,56bd7bf3d4e2180005a86846,666b5f73dbba3f0cd916b177,666c6faf10c451b9be0de405,,,,,,,,,,,,,,,,,,,,,,,,,,,,,,,,,,,,,,,,,,,,,,,,,,,,,,,,,,,,,,,,,,,,,,,,,,,,,,,,,,,,,,,,,,,,,,,,,,,
,,,,,714122,001,2024-06-14_09h35.35.742,experiment,2024.1.5,Win32,60.24096386,56bd7bf3d4e2180005a86846,666b5f73dbba3f0cd916b177,666c6faf10c451b9be0de405,yes,yes,,,,,,,,,,,,,,,,,,,,,,,,,,,,,,,,,,,,,,,,,,,,,,,,,,,,,,,,,,,,,,,,,,,,,,,,,,,,,,,,,,,,,,,,,,,,,,,,,
,,,,,714122,001,2024-06-14_09h35.35.742,experiment,2024.1.5,Win32,60.24096386,56bd7bf3d4e2180005a86846,666b5f73dbba3f0cd916b177,666c6faf10c451b9be0de405,,,13.3632,13.3634,,,,,,,,,,,,,,,,,,,,,,,,,,,,,,,,,,,,,,,,,,,,,,,,,,,,,,,,,,,,,,,,,,,,,,,,,,,,,,,,,,,,,,,,,,,,,,,
,,,,,714122,001,2024-06-14_09h35.35.742,experiment,2024.1.5,Win32,60.24096386,56bd7bf3d4e2180005a86846,666b5f73dbba3f0cd916b177,666c6faf10c451b9be0de405,,,,,13.3657,15.462,space,2.0603,,15.4626,40.1013,"[0.001388964696233006,-0.04207405943164653,-0.02080496704470355]","[-0.4210478906545034,-0.4478655581748017,-0.40717668331641804]","[1,1,1]","[0,0,0]","[0,0,0]","[1.81340000000597,7.448400000005961,21.910500000000013]","[""play_button""]",right,14.6201,,40.1021,49.5705,space,9.4224,,49.5713,76.7778,4.998267997,27.1405,76.778,78.1634,space,1.3753,,78.255,84.7783,0,0,0,1,1,SoundStimuli/OldTownRoad_LilNasX_Cover5S.wav,,,,,,,,,,,,,,,,,,,,,,,,,,,,,,,,,,,,,,,,,,,,,,,,,,,,,,,,
,,,,,714122,001,2024-06-14_09h35.35.742,experiment,2024.1.5,Win32,60.24096386,56bd7bf3d4e2180005a86846,666b5f73dbba3f0cd916b177,666c6faf10c451b9be0de405,,,,,,,,,,,,,,,,,,,,,,,,,,,,,,,,,,,,84.8187,92.2496,0,1,1,0,1,SoundStimuli/OldTownRoad_LilNasX_Original5S.wav,,,,,,,,,,,,,,,,,,,,,,,,,,,,,,,,,,,,,,,,,,,,,,,,,,,,,,,,
,,,,,714122,001,2024-06-14_09h35.35.742,experiment,2024.1.5,Win32,60.24096386,56bd7bf3d4e2180005a86846,666b5f73dbba3f0cd916b177,666c6faf10c451b9be0de405,,,,,,,,,,,,,,,,,,,,,,,,,,,,,,,,,,,,,,,,,,,,92.296,95.1794,4.953902881,2.8769,0,0,0,20,1,song_indices/OldTownRoad_LilNasX.csv,,,,,,,,,,,,,,,,,,,,,,,,,,,,,,,,,,,,,,,,,,,,,,
,,,,,714122,001,2024-06-14_09h35.35.742,experiment,2024.1.5,Win32,60.24096386,56bd7bf3d4e2180005a86846,666b5f73dbba3f0cd916b177,666c6faf10c451b9be0de405,,,,,,,,,,,,,,,,,,,,,,,,,,,,,,,,,,,,95.1806,102.9235,0,0,0,1,1,SoundStimuli/MyGirl_TheTemptations_Cover5S.wav,,,,,,,,,,,,,,,,,,,,,,,,,,,,,,,,,,,,,,,,,,,,,,,,,,,,,,,,
,,,,,714122,001,2024-06-14_09h35.35.742,experiment,2024.1.5,Win32,60.24096386,56bd7bf3d4e2180005a86846,666b5f73dbba3f0cd916b177,666c6faf10c451b9be0de405,,,,,,,,,,,,,,,,,,,,,,,,,,,,,,,,,,,,102.984,109.4072,0,1,1,0,1,SoundStimuli/MyGirl_TheTemptations_Original5S.wav,,,,,,,,,,,,,,,,,,,,,,,,,,,,,,,,,,,,,,,,,,,,,,,,,,,,,,,,
,,,,,714122,001,2024-06-14_09h35.35.742,experiment,2024.1.5,Win32,60.24096386,56bd7bf3d4e2180005a86846,666b5f73dbba3f0cd916b177,666c6faf10c451b9be0de405,,,,,,,,,,,,,,,,,,,,,,,,,,,,,,,,,,,,,,,,,,,,109.4081,111.9315,3.001838015,2.4814,0,1,1,15,1,song_indices/MyGirl_TheTemptations.csv,,,,,,,,,,,,,,,,,,,,,,,,,,,,,,,,,,,,,,,,,,,,,,
,,,,,714122,001,2024-06-14_09h35.35.742,experiment,2024.1.5,Win32,60.24096386,56bd7bf3d4e2180005a86846,666b5f73dbba3f0cd916b177,666c6faf10c451b9be0de405,,,,,,,,,,,,,,,,,,,,,,,,,,,,,,,,,,,,111.9328,120.0594,0,0,0,1,1,SoundStimuli/AnotherOneBitesTheDust_Queen_Cover5S.wav,,,,,,,,,,,,,,,,,,,,,,,,,,,,,,,,,,,,,,,,,,,,,,,,,,,,,,,,
,,,,,714122,001,2024-06-14_09h35.35.742,experiment,2024.1.5,Win32,60.24096386,56bd7bf3d4e2180005a86846,666b5f73dbba3f0cd916b177,666c6faf10c451b9be0de405,,,,,,,,,,,,,,,,,,,,,,,,,,,,,,,,,,,,120.0984,126.143,0,1,1,0,1,SoundStimuli/AnotherOneBitesTheDust_Queen_Original5S.wav,,,,,,,,,,,,,,,,,,,,,,,,,,,,,,,,,,,,,,,,,,,,,,,,,,,,,,,,
,,,,,714122,001,2024-06-14_09h35.35.742,experiment,2024.1.5,Win32,60.24096386,56bd7bf3d4e2180005a86846,666b5f73dbba3f0cd916b177,666c6faf10c451b9be0de405,,,,,,,,,,,,,,,,,,,,,,,,,,,,,,,,,,,,,,,,,,,,126.1435,127.9684,6.029756411,1.7818,0,2,2,9,1,song_indices/AnotherOneBitesTheDust_Queen.csv,,,,,,,,,,,,,,,,,,,,,,,,,,,,,,,,,,,,,,,,,,,,,,
,,,,,714122,001,2024-06-14_09h35.35.742,experiment,2024.1.5,Win32,60.24096386,56bd7bf3d4e2180005a86846,666b5f73dbba3f0cd916b177,666c6faf10c451b9be0de405,,,,,,,,,,,,,,,,,,,,,,,,,,,,,,,,,,,,127.9709,134.1636,0,0,0,0,1,SoundStimuli/LikeAPrayer_Madonna_Original5S.wav,,,,,,,,,,,,,,,,,,,,,,,,,,,,,,,,,,,,,,,,,,,,,,,,,,,,,,,,
,,,,,714122,001,2024-06-14_09h35.35.742,experiment,2024.1.5,Win32,60.24096386,56bd7bf3d4e2180005a86846,666b5f73dbba3f0cd916b177,666c6faf10c451b9be0de405,,,,,,,,,,,,,,,,,,,,,,,,,,,,,,,,,,,,134.1992,140.4096,0,1,1,1,1,SoundStimuli/LikeAPrayer_Madonna_Cover5S.wav,,,,,,,,,,,,,,,,,,,,,,,,,,,,,,,,,,,,,,,,,,,,,,,,,,,,,,,,
,,,,,714122,001,2024-06-14_09h35.35.742,experiment,2024.1.5,Win32,60.24096386,56bd7bf3d4e2180005a86846,666b5f73dbba3f0cd916b177,666c6faf10c451b9be0de405,,,,,,,,,,,,,,,,,,,,,,,,,,,,,,,,,,,,,,,,,,,,140.4123,142.3898,4.942811601,1.9323,0,3,3,7,1,song_indices/LikeAPrayer_Madonna.csv,,,,,,,,,,,,,,,,,,,,,,,,,,,,,,,,,,,,,,,,,,,,,,
,,,,,714122,001,2024-06-14_09h35.35.742,experiment,2024.1.5,Win32,60.24096386,56bd7bf3d4e2180005a86846,666b5f73dbba3f0cd916b177,666c6faf10c451b9be0de405,,,,,,,,,,,,,,,,,,,,,,,,,,,,,,,,,,,,142.3913,148.2348,0,0,0,0,1,SoundStimuli/IWantToHoldYourHand_TheBeatles_Original5S.wav,,,,,,,,,,,,,,,,,,,,,,,,,,,,,,,,,,,,,,,,,,,,,,,,,,,,,,,,
,,,,,714122,001,2024-06-14_09h35.35.742,experiment,2024.1.5,Win32,60.24096386,56bd7bf3d4e2180005a86846,666b5f73dbba3f0cd916b177,666c6faf10c451b9be0de405,,,,,,,,,,,,,,,,,,,,,,,,,,,,,,,,,,,,148.2498,154.2816,0,1,1,1,1,SoundStimuli/IWantToHoldYourHand_TheBeatles_Cover5S.wav,,,,,,,,,,,,,,,,,,,,,,,,,,,,,,,,,,,,,,,,,,,,,,,,,,,,,,,,
,,,,,714122,001,2024-06-14_09h35.35.742,experiment,2024.1.5,Win32,60.24096386,56bd7bf3d4e2180005a86846,666b5f73dbba3f0cd916b177,666c6faf10c451b9be0de405,,,,,,,,,,,,,,,,,,,,,,,,,,,,,,,,,,,,,,,,,,,,154.2821,155.2459,4.305063046,0.927,0,4,4,19,1,song_indices/IWantToHoldYourHand_TheBeatles.csv,,,,,,,,,,,,,,,,,,,,,,,,,,,,,,,,,,,,,,,,,,,,,,
,,,,,714122,001,2024-06-14_09h35.35.742,experiment,2024.1.5,Win32,60.24096386,56bd7bf3d4e2180005a86846,666b5f73dbba3f0cd916b177,666c6faf10c451b9be0de405,,,,,,,,,,,,,,,,,,,,,,,,,,,,,,,,,,,,155.2478,162.292,0,0,0,1,1,SoundStimuli/StrawberryFieldsForever_TheBeatles_Cover5S.wav,,,,,,,,,,,,,,,,,,,,,,,,,,,,,,,,,,,,,,,,,,,,,,,,,,,,,,,,
,,,,,714122,001,2024-06-14_09h35.35.742,experiment,2024.1.5,Win32,60.24096386,56bd7bf3d4e2180005a86846,666b5f73dbba3f0cd916b177,666c6faf10c451b9be0de405,,,,,,,,,,,,,,,,,,,,,,,,,,,,,,,,,,,,162.3382,168.47,0,1,1,0,1,SoundStimuli/StrawberryFieldsForever_TheBeatles_Original5S.wav,,,,,,,,,,,,,,,,,,,,,,,,,,,,,,,,,,,,,,,,,,,,,,,,,,,,,,,,
,,,,,714122,001,2024-06-14_09h35.35.742,experiment,2024.1.5,Win32,60.24096386,56bd7bf3d4e2180005a86846,666b5f73dbba3f0cd916b177,666c6faf10c451b9be0de405,,,,,,,,,,,,,,,,,,,,,,,,,,,,,,,,,,,,,,,,,,,,168.4707,169.8837,3.157115924,1.3675,0,5,5,14,1,song_indices/StrawberryFieldsForever_TheBeatles.csv,,,,,,,,,,,,,,,,,,,,,,,,,,,,,,,,,,,,,,,,,,,,,,
,,,,,714122,001,2024-06-14_09h35.35.742,experiment,2024.1.5,Win32,60.24096386,56bd7bf3d4e2180005a86846,666b5f73dbba3f0cd916b177,666c6faf10c451b9be0de405,,,,,,,,,,,,,,,,,,,,,,,,,,,,,,,,,,,,169.8851,178.7442,0,0,0,0,1,SoundStimuli/Perfect_EdSheeran_Original5S.wav,,,,,,,,,,,,,,,,,,,,,,,,,,,,,,,,,,,,,,,,,,,,,,,,,,,,,,,,
,,,,,714122,001,2024-06-14_09h35.35.742,experiment,2024.1.5,Win32,60.24096386,56bd7bf3d4e2180005a86846,666b5f73dbba3f0cd916b177,666c6faf10c451b9be0de405,,,,,,,,,,,,,,,,,,,,,,,,,,,,,,,,,,,,178.7823,187.0431,0,1,1,1,1,SoundStimuli/Perfect_EdSheeran_Cover5S.wav,,,,,,,,,,,,,,,,,,,,,,,,,,,,,,,,,,,,,,,,,,,,,,,,,,,,,,,,
,,,,,714122,001,2024-06-14_09h35.35.742,experiment,2024.1.5,Win32,60.24096386,56bd7bf3d4e2180005a86846,666b5f73dbba3f0cd916b177,666c6faf10c451b9be0de405,,,,,,,,,,,,,,,,,,,,,,,,,,,,,,,,,,,,,,,,,,,,187.0435,188.3695,5.90775234,1.2793,0,6,6,0,1,song_indices/Perfect_EdSheeran.csv,,,,,,,,,,,,,,,,,,,,,,,,,,,,,,,,,,,,,,,,,,,,,,
,,,,,714122,001,2024-06-14_09h35.35.742,experiment,2024.1.5,Win32,60.24096386,56bd7bf3d4e2180005a86846,666b5f73dbba3f0cd916b177,666c6faf10c451b9be0de405,,,,,,,,,,,,,,,,,,,,,,,,,,,,,,,,,,,,188.371,194.4152,0,0,0,0,1,SoundStimuli/BohemianRhapsody_Queen_Original5S.wav,,,,,,,,,,,,,,,,,,,,,,,,,,,,,,,,,,,,,,,,,,,,,,,,,,,,,,,,
,,,,,714122,001,2024-06-14_09h35.35.742,experiment,2024.1.5,Win32,60.24096386,56bd7bf3d4e2180005a86846,666b5f73dbba3f0cd916b177,666c6faf10c451b9be0de405,,,,,,,,,,,,,,,,,,,,,,,,,,,,,,,,,,,,194.4548,198.5285,0,1,1,1,1,SoundStimuli/BohemianRhapsody_Queen_Cover5S.wav,,,,,,,,,,,,,,,,,,,,,,,,,,,,,,,,,,,,,,,,,,,,,,,,,,,,,,,,
,,,,,714122,001,2024-06-14_09h35.35.742,experiment,2024.1.5,Win32,60.24096386,56bd7bf3d4e2180005a86846,666b5f73dbba3f0cd916b177,666c6faf10c451b9be0de405,,,,,,,,,,,,,,,,,,,,,,,,,,,,,,,,,,,,,,,,,,,,198.5292,210.0176,3.761590918,11.4227,0,7,7,18,1,song_indices/BohemianRhapsody_Queen.csv,,,,,,,,,,,,,,,,,,,,,,,,,,,,,,,,,,,,,,,,,,,,,,
,,,,,714122,001,2024-06-14_09h35.35.742,experiment,2024.1.5,Win32,60.24096386,56bd7bf3d4e2180005a86846,666b5f73dbba3f0cd916b177,666c6faf10c451b9be0de405,,,,,,,,,,,,,,,,,,,,,,,,,,,,,,,,,,,,210.0193,216.2465,0,0,0,0,1,SoundStimuli/GodOnlyKnows_TheBeachBoys_Original5S.wav,,,,,,,,,,,,,,,,,,,,,,,,,,,,,,,,,,,,,,,,,,,,,,,,,,,,,,,,
,,,,,714122,001,2024-06-14_09h35.35.742,experiment,2024.1.5,Win32,60.24096386,56bd7bf3d4e2180005a86846,666b5f73dbba3f0cd916b177,666c6faf10c451b9be0de405,,,,,,,,,,,,,,,,,,,,,,,,,,,,,,,,,,,,216.2913,223.1574,0,1,1,1,1,SoundStimuli/GodOnlyKnows_TheBeachBoys_Cover5S.wav,,,,,,,,,,,,,,,,,,,,,,,,,,,,,,,,,,,,,,,,,,,,,,,,,,,,,,,,
,,,,,714122,001,2024-06-14_09h35.35.742,experiment,2024.1.5,Win32,60.24096386,56bd7bf3d4e2180005a86846,666b5f73dbba3f0cd916b177,666c6faf10c451b9be0de405,,,,,,,,,,,,,,,,,,,,,,,,,,,,,,,,,,,,,,,,,,,,223.1577,226.155,2.003623162,2.9509,0,8,8,8,1,song_indices/GodOnlyKnows_TheBeachBoys.csv,,,,,,,,,,,,,,,,,,,,,,,,,,,,,,,,,,,,,,,,,,,,,,
,,,,,714122,001,2024-06-14_09h35.35.742,experiment,2024.1.5,Win32,60.24096386,56bd7bf3d4e2180005a86846,666b5f73dbba3f0cd916b177,666c6faf10c451b9be0de405,,,,,,,,,,,,,,,,,,,,,,,,,,,,,,,,,,,,226.1557,232.4993,0,0,0,0,1,SoundStimuli/EndlessLove_DianaRossLionelRichie_Original5S.wav,,,,,,,,,,,,,,,,,,,,,,,,,,,,,,,,,,,,,,,,,,,,,,,,,,,,,,,,
,,,,,714122,001,2024-06-14_09h35.35.742,experiment,2024.1.5,Win32,60.24096386,56bd7bf3d4e2180005a86846,666b5f73dbba3f0cd916b177,666c6faf10c451b9be0de405,,,,,,,,,,,,,,,,,,,,,,,,,,,,,,,,,,,,232.5336,240.0434,0,1,1,1,1,SoundStimuli/EndlessLove_DianaRossLionelRichie_Cover5S.wav,,,,,,,,,,,,,,,,,,,,,,,,,,,,,,,,,,,,,,,,,,,,,,,,,,,,,,,,
,,,,,714122,001,2024-06-14_09h35.35.742,experiment,2024.1.5,Win32,60.24096386,56bd7bf3d4e2180005a86846,666b5f73dbba3f0cd916b177,666c6faf10c451b9be0de405,,,,,,,,,,,,,,,,,,,,,,,,,,,,,,,,,,,,,,,,,,,,240.0438,242.1642,4.798624972,2.0863,0,9,9,3,1,song_indices/EndlessLove_DianaRossLionelRichie.csv,,,,,,,,,,,,,,,,,,,,,,,,,,,,,,,,,,,,,,,,,,,,,,
,,,,,714122,001,2024-06-14_09h35.35.742,experiment,2024.1.5,Win32,60.24096386,56bd7bf3d4e2180005a86846,666b5f73dbba3f0cd916b177,666c6faf10c451b9be0de405,,,,,,,,,,,,,,,,,,,,,,,,,,,,,,,,,,,,242.165,250.4513,0,0,0,1,1,SoundStimuli/Mood_24kGoldnianndior_Cover5S.wav,,,,,,,,,,,,,,,,,,,,,,,,,,,,,,,,,,,,,,,,,,,,,,,,,,,,,,,,
,,,,,714122,001,2024-06-14_09h35.35.742,experiment,2024.1.5,Win32,60.24096386,56bd7bf3d4e2180005a86846,666b5f73dbba3f0cd916b177,666c6faf10c451b9be0de405,,,,,,,,,,,,,,,,,,,,,,,,,,,,,,,,,,,,250.4855,256.7794,0,1,1,0,1,SoundStimuli/Mood_24kGoldnianndior_Original5S.wav,,,,,,,,,,,,,,,,,,,,,,,,,,,,,,,,,,,,,,,,,,,,,,,,,,,,,,,,
,,,,,714122,001,2024-06-14_09h35.35.742,experiment,2024.1.5,Win32,60.24096386,56bd7bf3d4e2180005a86846,666b5f73dbba3f0cd916b177,666c6faf10c451b9be0de405,,,,,,,,,,,,,,,,,,,,,,,,,,,,,,,,,,,,,,,,,,,,256.78,259.1102,4.460340955,2.2889,0,10,10,5,1,song_indices/Mood_24kGoldnianndior.csv,,,,,,,,,,,,,,,,,,,,,,,,,,,,,,,,,,,,,,,,,,,,,,
,,,,,714122,001,2024-06-14_09h35.35.742,experiment,2024.1.5,Win32,60.24096386,56bd7bf3d4e2180005a86846,666b5f73dbba3f0cd916b177,666c6faf10c451b9be0de405,,,,,,,,,,,,,,,,,,,,,,,,,,,,,,,,,,,,259.1115,265.7561,0,0,0,0,1,SoundStimuli/Despacito_LuisFonsiDaddyYankee_Original5S.wav,,,,,,,,,,,,,,,,,,,,,,,,,,,,,,,,,,,,,,,,,,,,,,,,,,,,,,,,
,,,,,714122,001,2024-06-14_09h35.35.742,experiment,2024.1.5,Win32,60.24096386,56bd7bf3d4e2180005a86846,666b5f73dbba3f0cd916b177,666c6faf10c451b9be0de405,,,,,,,,,,,,,,,,,,,,,,,,,,,,,,,,,,,,265.7908,272.3831,0,1,1,1,1,SoundStimuli/Despacito_LuisFonsiDaddyYankee_Cover5S.wav,,,,,,,,,,,,,,,,,,,,,,,,,,,,,,,,,,,,,,,,,,,,,,,,,,,,,,,,
,,,,,714122,001,2024-06-14_09h35.35.742,experiment,2024.1.5,Win32,60.24096386,56bd7bf3d4e2180005a86846,666b5f73dbba3f0cd916b177,666c6faf10c451b9be0de405,,,,,,,,,,,,,,,,,,,,,,,,,,,,,,,,,,,,,,,,,,,,272.3836,275.0645,3.855866238,2.6458,0,11,11,11,1,song_indices/Despacito_LuisFonsiDaddyYankee.csv,,,,,,,,,,,,,,,,,,,,,,,,,,,,,,,,,,,,,,,,,,,,,,
,,,,,714122,001,2024-06-14_09h35.35.742,experiment,2024.1.5,Win32,60.24096386,56bd7bf3d4e2180005a86846,666b5f73dbba3f0cd916b177,666c6faf10c451b9be0de405,,,,,,,,,,,,,,,,,,,,,,,,,,,,,,,,,,,,275.0656,281.3106,0,0,0,0,1,SoundStimuli/MackTheKnife_BobbyDarin_Original5S.wav,,,,,,,,,,,,,,,,,,,,,,,,,,,,,,,,,,,,,,,,,,,,,,,,,,,,,,,,
,,,,,714122,001,2024-06-14_09h35.35.742,experiment,2024.1.5,Win32,60.24096386,56bd7bf3d4e2180005a86846,666b5f73dbba3f0cd916b177,666c6faf10c451b9be0de405,,,,,,,,,,,,,,,,,,,,,,,,,,,,,,,,,,,,281.359,287.6207,0,1,1,1,1,SoundStimuli/MackTheKnife_BobbyDarin_Cover5S.wav,,,,,,,,,,,,,,,,,,,,,,,,,,,,,,,,,,,,,,,,,,,,,,,,,,,,,,,,
,,,,,714122,001,2024-06-14_09h35.35.742,experiment,2024.1.5,Win32,60.24096386,56bd7bf3d4e2180005a86846,666b5f73dbba3f0cd916b177,666c6faf10c451b9be0de405,,,,,,,,,,,,,,,,,,,,,,,,,,,,,,,,,,,,,,,,,,,,287.6213,307.6869,4.066600543,20.0262,0,12,12,21,1,song_indices/MackTheKnife_BobbyDarin.csv,,,,,,,,,,,,,,,,,,,,,,,,,,,,,,,,,,,,,,,,,,,,,,
,,,,,714122,001,2024-06-14_09h35.35.742,experiment,2024.1.5,Win32,60.24096386,56bd7bf3d4e2180005a86846,666b5f73dbba3f0cd916b177,666c6faf10c451b9be0de405,,,,,,,,,,,,,,,,,,,,,,,,,,,,,,,,,,,,307.6889,313.7166,0,0,0,0,1,SoundStimuli/AChangeIsGonnaCome_SamCooke_Original5S.wav,,,,,,,,,,,,,,,,,,,,,,,,,,,,,,,,,,,,,,,,,,,,,,,,,,,,,,,,
,,,,,714122,001,2024-06-14_09h35.35.742,experiment,2024.1.5,Win32,60.24096386,56bd7bf3d4e2180005a86846,666b5f73dbba3f0cd916b177,666c6faf10c451b9be0de405,,,,,,,,,,,,,,,,,,,,,,,,,,,,,,,,,,,,313.7558,318.5035,0,1,1,1,1,SoundStimuli/AChangeIsGonnaCome_SamCooke_Cover5S.wav,,,,,,,,,,,,,,,,,,,,,,,,,,,,,,,,,,,,,,,,,,,,,,,,,,,,,,,,
,,,,,714122,001,2024-06-14_09h35.35.742,experiment,2024.1.5,Win32,60.24096386,56bd7bf3d4e2180005a86846,666b5f73dbba3f0cd916b177,666c6faf10c451b9be0de405,,,,,,,,,,,,,,,,,,,,,,,,,,,,,,,,,,,,,,,,,,,,318.5042,325.7392,3.323485389,7.1881,0,13,13,17,1,song_indices/AChangeIsGonnaCome_SamCooke.csv,,,,,,,,,,,,,,,,,,,,,,,,,,,,,,,,,,,,,,,,,,,,,,
,,,,,714122,001,2024-06-14_09h35.35.742,experiment,2024.1.5,Win32,60.24096386,56bd7bf3d4e2180005a86846,666b5f73dbba3f0cd916b177,666c6faf10c451b9be0de405,,,,,,,,,,,,,,,,,,,,,,,,,,,,,,,,,,,,325.7406,332.0546,0,0,0,0,1,SoundStimuli/BridgeOverTroubledWater_SimonAndGarfunkel_Original5S.wav,,,,,,,,,,,,,,,,,,,,,,,,,,,,,,,,,,,,,,,,,,,,,,,,,,,,,,,,
,,,,,714122,001,2024-06-14_09h35.35.742,experiment,2024.1.5,Win32,60.24096386,56bd7bf3d4e2180005a86846,666b5f73dbba3f0cd916b177,666c6faf10c451b9be0de405,,,,,,,,,,,,,,,,,,,,,,,,,,,,,,,,,,,,332.0903,338.7788,0,1,1,1,1,SoundStimuli/BridgeOverTroubledWater_SimonAndGarfunkel_Cover5S.wav,,,,,,,,,,,,,,,,,,,,,,,,,,,,,,,,,,,,,,,,,,,,,,,,,,,,,,,,
,,,,,714122,001,2024-06-14_09h35.35.742,experiment,2024.1.5,Win32,60.24096386,56bd7bf3d4e2180005a86846,666b5f73dbba3f0cd916b177,666c6faf10c451b9be0de405,,,,,,,,,,,,,,,,,,,,,,,,,,,,,,,,,,,,,,,,,,,,338.7794,342.9295,3.955687751,4.1047,0,14,14,1,1,song_indices/BridgeOverTroubledWater_SimonAndGarfunkel.csv,,,,,,,,,,,,,,,,,,,,,,,,,,,,,,,,,,,,,,,,,,,,,,
,,,,,714122,001,2024-06-14_09h35.35.742,experiment,2024.1.5,Win32,60.24096386,56bd7bf3d4e2180005a86846,666b5f73dbba3f0cd916b177,666c6faf10c451b9be0de405,,,,,,,,,,,,,,,,,,,,,,,,,,,,,,,,,,,,342.9302,348.8702,0,0,0,1,1,SoundStimuli/IllMakeLoveToYou_BoyzIIMen_Cover5S.wav,,,,,,,,,,,,,,,,,,,,,,,,,,,,,,,,,,,,,,,,,,,,,,,,,,,,,,,,
,,,,,714122,001,2024-06-14_09h35.35.742,experiment,2024.1.5,Win32,60.24096386,56bd7bf3d4e2180005a86846,666b5f73dbba3f0cd916b177,666c6faf10c451b9be0de405,,,,,,,,,,,,,,,,,,,,,,,,,,,,,,,,,,,,348.9044,354.9821,0,1,1,0,1,SoundStimuli/IllMakeLoveToYou_BoyzIIMen_Original5S.wav,,,,,,,,,,,,,,,,,,,,,,,,,,,,,,,,,,,,,,,,,,,,,,,,,,,,,,,,
,,,,,714122,001,2024-06-14_09h35.35.742,experiment,2024.1.5,Win32,60.24096386,56bd7bf3d4e2180005a86846,666b5f73dbba3f0cd916b177,666c6faf10c451b9be0de405,,,,,,,,,,,,,,,,,,,,,,,,,,,,,,,,,,,,,,,,,,,,354.9827,358.9407,4.804170611,3.9238,0,15,15,6,1,song_indices/IllMakeLoveToYou_BoyzIIMen.csv,,,,,,,,,,,,,,,,,,,,,,,,,,,,,,,,,,,,,,,,,,,,,,
,,,,,714122,001,2024-06-14_09h35.35.742,experiment,2024.1.5,Win32,60.24096386,56bd7bf3d4e2180005a86846,666b5f73dbba3f0cd916b177,666c6faf10c451b9be0de405,,,,,,,,,,,,,,,,,,,,,,,,,,,,,,,,,,,,358.9423,365.174,0,0,0,0,1,SoundStimuli/LikeARollingStone_BobDylan_Original5S.wav,,,,,,,,,,,,,,,,,,,,,,,,,,,,,,,,,,,,,,,,,,,,,,,,,,,,,,,,
,,,,,714122,001,2024-06-14_09h35.35.742,experiment,2024.1.5,Win32,60.24096386,56bd7bf3d4e2180005a86846,666b5f73dbba3f0cd916b177,666c6faf10c451b9be0de405,,,,,,,,,,,,,,,,,,,,,,,,,,,,,,,,,,,,365.2095,369.654,0,1,1,1,1,SoundStimuli/LikeARollingStone_BobDylan_Cover5S.wav,,,,,,,,,,,,,,,,,,,,,,,,,,,,,,,,,,,,,,,,,,,,,,,,,,,,,,,,
,,,,,714122,001,2024-06-14_09h35.35.742,experiment,2024.1.5,Win32,60.24096386,56bd7bf3d4e2180005a86846,666b5f73dbba3f0cd916b177,666c6faf10c451b9be0de405,,,,,,,,,,,,,,,,,,,,,,,,,,,,,,,,,,,,,,,,,,,,369.6548,371.5844,3.140479005,1.8929,0,16,16,12,1,song_indices/LikeARollingStone_BobDylan.csv,,,,,,,,,,,,,,,,,,,,,,,,,,,,,,,,,,,,,,,,,,,,,,
,,,,,714122,001,2024-06-14_09h35.35.742,experiment,2024.1.5,Win32,60.24096386,56bd7bf3d4e2180005a86846,666b5f73dbba3f0cd916b177,666c6faf10c451b9be0de405,,,,,,,,,,,,,,,,,,,,,,,,,,,,,,,,,,,,371.586,377.6968,0,0,0,0,1,SoundStimuli/HeatWaves_GlassAnimals_Original5S.wav,,,,,,,,,,,,,,,,,,,,,,,,,,,,,,,,,,,,,,,,,,,,,,,,,,,,,,,,
,,,,,714122,001,2024-06-14_09h35.35.742,experiment,2024.1.5,Win32,60.24096386,56bd7bf3d4e2180005a86846,666b5f73dbba3f0cd916b177,666c6faf10c451b9be0de405,,,,,,,,,,,,,,,,,,,,,,,,,,,,,,,,,,,,377.7328,386.3229,0,1,1,1,1,SoundStimuli/HeatWaves_GlassAnimals_Cover5S.wav,,,,,,,,,,,,,,,,,,,,,,,,,,,,,,,,,,,,,,,,,,,,,,,,,,,,,,,,
,,,,,714122,001,2024-06-14_09h35.35.742,experiment,2024.1.5,Win32,60.24096386,56bd7bf3d4e2180005a86846,666b5f73dbba3f0cd916b177,666c6faf10c451b9be0de405,,,,,,,,,,,,,,,,,,,,,,,,,,,,,,,,,,,,,,,,,,,,386.3236,390.5535,4.898446484,4.1819,0,17,17,10,1,song_indices/HeatWaves_GlassAnimals.csv,,,,,,,,,,,,,,,,,,,,,,,,,,,,,,,,,,,,,,,,,,,,,,
,,,,,714122,001,2024-06-14_09h35.35.742,experiment,2024.1.5,Win32,60.24096386,56bd7bf3d4e2180005a86846,666b5f73dbba3f0cd916b177,666c6faf10c451b9be0de405,,,,,,,,,,,,,,,,,,,,,,,,,,,,,,,,,,,,390.5548,396.1989,0,0,0,0,1,SoundStimuli/IWannaDanceWithSomebody_WhitneyHouston_Original5S.wav,,,,,,,,,,,,,,,,,,,,,,,,,,,,,,,,,,,,,,,,,,,,,,,,,,,,,,,,
,,,,,714122,001,2024-06-14_09h35.35.742,experiment,2024.1.5,Win32,60.24096386,56bd7bf3d4e2180005a86846,666b5f73dbba3f0cd916b177,666c6faf10c451b9be0de405,,,,,,,,,,,,,,,,,,,,,,,,,,,,,,,,,,,,396.2317,403.0766,0,1,1,1,1,SoundStimuli/IWannaDanceWithSomebody_WhitneyHouston_Cover5S.wav,,,,,,,,,,,,,,,,,,,,,,,,,,,,,,,,,,,,,,,,,,,,,,,,,,,,,,,,
,,,,,714122,001,2024-06-14_09h35.35.742,experiment,2024.1.5,Win32,60.24096386,56bd7bf3d4e2180005a86846,666b5f73dbba3f0cd916b177,666c6faf10c451b9be0de405,,,,,,,,,,,,,,,,,,,,,,,,,,,,,,,,,,,,,,,,,,,,403.0775,407.3975,2.086807756,4.272,0,18,18,13,1,song_indices/IWannaDanceWithSomebody_WhitneyHouston.csv,,,,,,,,,,,,,,,,,,,,,,,,,,,,,,,,,,,,,,,,,,,,,,
,,,,,714122,001,2024-06-14_09h35.35.742,experiment,2024.1.5,Win32,60.24096386,56bd7bf3d4e2180005a86846,666b5f73dbba3f0cd916b177,666c6faf10c451b9be0de405,,,,,,,,,,,,,,,,,,,,,,,,,,,,,,,,,,,,407.3982,413.5171,0,0,0,1,1,SoundStimuli/Smooth_SantanaRobThomas_Cover5S.wav,,,,,,,,,,,,,,,,,,,,,,,,,,,,,,,,,,,,,,,,,,,,,,,,,,,,,,,,
,,,,,714122,001,2024-06-14_09h35.35.742,experiment,2024.1.5,Win32,60.24096386,56bd7bf3d4e2180005a86846,666b5f73dbba3f0cd916b177,666c6faf10c451b9be0de405,,,,,,,,,,,,,,,,,,,,,,,,,,,,,,,,,,,,413.5509,419.7787,0,1,1,0,1,SoundStimuli/Smooth_SantanaRobThomas_Original5S.wav,,,,,,,,,,,,,,,,,,,,,,,,,,,,,,,,,,,,,,,,,,,,,,,,,,,,,,,,
,,,,,714122,001,2024-06-14_09h35.35.742,experiment,2024.1.5,Win32,60.24096386,56bd7bf3d4e2180005a86846,666b5f73dbba3f0cd916b177,666c6faf10c451b9be0de405,,,,,,,,,,,,,,,,,,,,,,,,,,,,,,,,,,,,,,,,,,,,419.7793,426.0899,3.162661564,6.2622,0,19,19,4,1,song_indices/Smooth_SantanaRobThomas.csv,,,,,,,,,,,,,,,,,,,,,,,,,,,,,,,,,,,,,,,,,,,,,,
,,,,,714122,001,2024-06-14_09h35.35.742,experiment,2024.1.5,Win32,60.24096386,56bd7bf3d4e2180005a86846,666b5f73dbba3f0cd916b177,666c6faf10c451b9be0de405,,,,,,,,,,,,,,,,,,,,,,,,,,,,,,,,,,,,426.091,432.5588,0,0,0,0,1,SoundStimuli/BadDay_DanielPowter_Original5S.wav,,,,,,,,,,,,,,,,,,,,,,,,,,,,,,,,,,,,,,,,,,,,,,,,,,,,,,,,
,,,,,714122,001,2024-06-14_09h35.35.742,experiment,2024.1.5,Win32,60.24096386,56bd7bf3d4e2180005a86846,666b5f73dbba3f0cd916b177,666c6faf10c451b9be0de405,,,,,,,,,,,,,,,,,,,,,,,,,,,,,,,,,,,,432.598,440.0954,0,1,1,1,1,SoundStimuli/BadDay_DanielPowter_Cover5S.wav,,,,,,,,,,,,,,,,,,,,,,,,,,,,,,,,,,,,,,,,,,,,,,,,,,,,,,,,
,,,,,714122,001,2024-06-14_09h35.35.742,experiment,2024.1.5,Win32,60.24096386,56bd7bf3d4e2180005a86846,666b5f73dbba3f0cd916b177,666c6faf10c451b9be0de405,,,,,,,,,,,,,,,,,,,,,,,,,,,,,,,,,,,,,,,,,,,,440.0962,442.0098,4.787533692,1.8703,0,20,20,22,1,song_indices/BadDay_DanielPowter.csv,,,,,,,,,,,,,,,,,,,,,,,,,,,,,,,,,,,,,,,,,,,,,,
,,,,,714122,001,2024-06-14_09h35.35.742,experiment,2024.1.5,Win32,60.24096386,56bd7bf3d4e2180005a86846,666b5f73dbba3f0cd916b177,666c6faf10c451b9be0de405,,,,,,,,,,,,,,,,,,,,,,,,,,,,,,,,,,,,442.0115,449.7591,0,0,0,1,1,SoundStimuli/LivinOnAPrayer_BonJovi_Cover5S.wav,,,,,,,,,,,,,,,,,,,,,,,,,,,,,,,,,,,,,,,,,,,,,,,,,,,,,,,,
,,,,,714122,001,2024-06-14_09h35.35.742,experiment,2024.1.5,Win32,60.24096386,56bd7bf3d4e2180005a86846,666b5f73dbba3f0cd916b177,666c6faf10c451b9be0de405,,,,,,,,,,,,,,,,,,,,,,,,,,,,,,,,,,,,449.7956,456.1377,0,1,1,0,1,SoundStimuli/LivinOnAPrayer_BonJovi_Original5S.wav,,,,,,,,,,,,,,,,,,,,,,,,,,,,,,,,,,,,,,,,,,,,,,,,,,,,,,,,
,,,,,714122,001,2024-06-14_09h35.35.742,experiment,2024.1.5,Win32,60.24096386,56bd7bf3d4e2180005a86846,666b5f73dbba3f0cd916b177,666c6faf10c451b9be0de405,,,,,,,,,,,,,,,,,,,,,,,,,,,,,,,,,,,,,,,,,,,,456.1398,457.3023,5.10918079,1.1195,0,21,21,16,1,song_indices/LivinOnAPrayer_BonJovi.csv,,,,,,,,,,,,,,,,,,,,,,,,,,,,,,,,,,,,,,,,,,,,,,
,,,,,714122,001,2024-06-14_09h35.35.742,experiment,2024.1.5,Win32,60.24096386,56bd7bf3d4e2180005a86846,666b5f73dbba3f0cd916b177,666c6faf10c451b9be0de405,,,,,,,,,,,,,,,,,,,,,,,,,,,,,,,,,,,,457.3034,463.3266,0,0,0,0,1,SoundStimuli/StayinAlive_BeeGees_Original5S.wav,,,,,,,,,,,,,,,,,,,,,,,,,,,,,,,,,,,,,,,,,,,,,,,,,,,,,,,,
,,,,,714122,001,2024-06-14_09h35.35.742,experiment,2024.1.5,Win32,60.24096386,56bd7bf3d4e2180005a86846,666b5f73dbba3f0cd916b177,666c6faf10c451b9be0de405,,,,,,,,,,,,,,,,,,,,,,,,,,,,,,,,,,,,463.3784,469.2216,0,1,1,1,1,SoundStimuli/StayinAlive_BeeGees_Cover5S.wav,,,,,,,,,,,,,,,,,,,,,,,,,,,,,,,,,,,,,,,,,,,,,,,,,,,,,,,,
,,,,,714122,001,2024-06-14_09h35.35.742,experiment,2024.1.5,Win32,60.24096386,56bd7bf3d4e2180005a86846,666b5f73dbba3f0cd916b177,666c6faf10c451b9be0de405,,,,,,,,,,,,,,,,,,,,,,,,,,,,,,,,,,,,,,,,,,,,469.2221,470.4198,4.061054904,1.1507,0,22,22,2,1,song_indices/StayinAlive_BeeGees.csv,,,,,,,,,,,,,,,,,,,,,,,,,,,,,,,,,,,,,,,,,,,,,,
,,,,,714122,001,2024-06-14_09h35.35.742,experiment,2024.1.5,Win32,60.24096386,56bd7bf3d4e2180005a86846,666b5f73dbba3f0cd916b177,666c6faf10c451b9be0de405,,,,,,,,,,,,,,,,,,,,,,,,,,,,,,,,,,,,,,,,,,,,,,,,,,,,,,470.4206,675.8304,space,205.3616,,0,0,0,0,1,choose_song_b1.csv,,,,,,,,,,,,,,,,,,,,,,,,,,,,,,,,,,,
,,,,,714122,001,2024-06-14_09h35.35.742,experiment,2024.1.5,Win32,60.24096386,56bd7bf3d4e2180005a86846,666b5f73dbba3f0cd916b177,666c6faf10c451b9be0de405,,,,,,,,,,,,,,,,,,,,,,,,,,,,,,,,,,,,675.8368,682.8613,0,0,0,0,1,SoundStimuli/PokerFace_LadyGaga_Original5S.wav,,,,,,,,,,,,,,,,,,,,,,,,,,,,,,,,,,,,,,,,,,,,,,,,,,,,,,,,
,,,,,714122,001,2024-06-14_09h35.35.742,experiment,2024.1.5,Win32,60.24096386,56bd7bf3d4e2180005a86846,666b5f73dbba3f0cd916b177,666c6faf10c451b9be0de405,,,,,,,,,,,,,,,,,,,,,,,,,,,,,,,,,,,,682.8733,689.7067,0,1,1,1,1,SoundStimuli/PokerFace_LadyGaga_Cover5S.wav,,,,,,,,,,,,,,,,,,,,,,,,,,,,,,,,,,,,,,,,,,,,,,,,,,,,,,,,
,,,,,714122,001,2024-06-14_09h35.35.742,experiment,2024.1.5,Win32,60.24096386,56bd7bf3d4e2180005a86846,666b5f73dbba3f0cd916b177,666c6faf10c451b9be0de405,,,,,,,,,,,,,,,,,,,,,,,,,,,,,,,,,,,,,,,,,,,,689.7074,691.6937,6.961423866,1.9444,0,0,0,23,1,song_indices/PokerFace_LadyGaga.csv,,,,,,,,,,,,,,,,,,,,,,,,,,,,,,,,,,,,,,,,,,,,,,
,,,,,714122,001,2024-06-14_09h35.35.742,experiment,2024.1.5,Win32,60.24096386,56bd7bf3d4e2180005a86846,666b5f73dbba3f0cd916b177,666c6faf10c451b9be0de405,,,,,,,,,,,,,,,,,,,,,,,,,,,,,,,,,,,,691.6946,698.2342,0,0,0,1,1,SoundStimuli/YouLightUpMyLife_DebbyBoone_Cover5S.wav,,,,,,,,,,,,,,,,,,,,,,,,,,,,,,,,,,,,,,,,,,,,,,,,,,,,,,,,
,,,,,714122,001,2024-06-14_09h35.35.742,experiment,2024.1.5,Win32,60.24096386,56bd7bf3d4e2180005a86846,666b5f73dbba3f0cd916b177,666c6faf10c451b9be0de405,,,,,,,,,,,,,,,,,,,,,,,,,,,,,,,,,,,,698.2786,704.4114,0,1,1,0,1,SoundStimuli/YouLightUpMyLife_DebbyBoone_Original5S.wav,,,,,,,,,,,,,,,,,,,,,,,,,,,,,,,,,,,,,,,,,,,,,,,,,,,,,,,,
,,,,,714122,001,2024-06-14_09h35.35.742,experiment,2024.1.5,Win32,60.24096386,56bd7bf3d4e2180005a86846,666b5f73dbba3f0cd916b177,666c6faf10c451b9be0de405,,,,,,,,,,,,,,,,,,,,,,,,,,,,,,,,,,,,,,,,,,,,704.4127,707.1749,6.656413687,2.7231,0,1,1,4,1,song_indices/YouLightUpMyLife_DebbyBoone.csv,,,,,,,,,,,,,,,,,,,,,,,,,,,,,,,,,,,,,,,,,,,,,,
,,,,,714122,001,2024-06-14_09h35.35.742,experiment,2024.1.5,Win32,60.24096386,56bd7bf3d4e2180005a86846,666b5f73dbba3f0cd916b177,666c6faf10c451b9be0de405,,,,,,,,,,,,,,,,,,,,,,,,,,,,,,,,,,,,707.1765,713.2209,0,0,0,0,1,SoundStimuli/LeFreak_Chic_Original5S.wav,,,,,,,,,,,,,,,,,,,,,,,,,,,,,,,,,,,,,,,,,,,,,,,,,,,,,,,,
,,,,,714122,001,2024-06-14_09h35.35.742,experiment,2024.1.5,Win32,60.24096386,56bd7bf3d4e2180005a86846,666b5f73dbba3f0cd916b177,666c6faf10c451b9be0de405,,,,,,,,,,,,,,,,,,,,,,,,,,,,,,,,,,,,713.266,718.7991,0,1,1,1,1,SoundStimuli/LeFreak_Chic_Cover5S.wav,,,,,,,,,,,,,,,,,,,,,,,,,,,,,,,,,,,,,,,,,,,,,,,,,,,,,,,,
,,,,,714122,001,2024-06-14_09h35.35.742,experiment,2024.1.5,Win32,60.24096386,56bd7bf3d4e2180005a86846,666b5f73dbba3f0cd916b177,666c6faf10c451b9be0de405,,,,,,,,,,,,,,,,,,,,,,,,,,,,,,,,,,,,,,,,,,,,718.7999,725.399,5.397553496,6.5636,0,2,2,11,1,song_indices/LeFreak_Chic.csv,,,,,,,,,,,,,,,,,,,,,,,,,,,,,,,,,,,,,,,,,,,,,,
,,,,,714122,001,2024-06-14_09h35.35.742,experiment,2024.1.5,Win32,60.24096386,56bd7bf3d4e2180005a86846,666b5f73dbba3f0cd916b177,666c6faf10c451b9be0de405,,,,,,,,,,,,,,,,,,,,,,,,,,,,,,,,,,,,725.4008,732.1388,0,0,0,1,1,SoundStimuli/LetsGetItOn_MarvinGaye_Cover5S.wav,,,,,,,,,,,,,,,,,,,,,,,,,,,,,,,,,,,,,,,,,,,,,,,,,,,,,,,,
,,,,,714122,001,2024-06-14_09h35.35.742,experiment,2024.1.5,Win32,60.24096386,56bd7bf3d4e2180005a86846,666b5f73dbba3f0cd916b177,666c6faf10c451b9be0de405,,,,,,,,,,,,,,,,,,,,,,,,,,,,,,,,,,,,732.1732,738.4661,0,1,1,0,1,SoundStimuli/LetsGetItOn_MarvinGaye_Original5S.wav,,,,,,,,,,,,,,,,,,,,,,,,,,,,,,,,,,,,,,,,,,,,,,,,,,,,,,,,
,,,,,714122,001,2024-06-14_09h35.35.742,experiment,2024.1.5,Win32,60.24096386,56bd7bf3d4e2180005a86846,666b5f73dbba3f0cd916b177,666c6faf10c451b9be0de405,,,,,,,,,,,,,,,,,,,,,,,,,,,,,,,,,,,,,,,,,,,,738.4666,742.6446,1.914893481,4.1344,0,3,3,20,1,song_indices/LetsGetItOn_MarvinGaye.csv,,,,,,,,,,,,,,,,,,,,,,,,,,,,,,,,,,,,,,,,,,,,,,
,,,,,714122,001,2024-06-14_09h35.35.742,experiment,2024.1.5,Win32,60.24096386,56bd7bf3d4e2180005a86846,666b5f73dbba3f0cd916b177,666c6faf10c451b9be0de405,,,,,,,,,,,,,,,,,,,,,,,,,,,,,,,,,,,,742.6456,747.9801,0,0,0,1,1,SoundStimuli/Superstition_StevieWonder_Cover5S.wav,,,,,,,,,,,,,,,,,,,,,,,,,,,,,,,,,,,,,,,,,,,,,,,,,,,,,,,,
,,,,,714122,001,2024-06-14_09h35.35.742,experiment,2024.1.5,Win32,60.24096386,56bd7bf3d4e2180005a86846,666b5f73dbba3f0cd916b177,666c6faf10c451b9be0de405,,,,,,,,,,,,,,,,,,,,,,,,,,,,,,,,,,,,748.0188,754.2579,0,1,1,0,1,SoundStimuli/Superstition_StevieWonder_Original5S.wav,,,,,,,,,,,,,,,,,,,,,,,,,,,,,,,,,,,,,,,,,,,,,,,,,,,,,,,,
,,,,,714122,001,2024-06-14_09h35.35.742,experiment,2024.1.5,Win32,60.24096386,56bd7bf3d4e2180005a86846,666b5f73dbba3f0cd916b177,666c6faf10c451b9be0de405,,,,,,,,,,,,,,,,,,,,,,,,,,,,,,,,,,,,,,,,,,,,754.2586,757.0839,5.236731053,2.8195,0,4,4,15,1,song_indices/Superstition_StevieWonder.csv,,,,,,,,,,,,,,,,,,,,,,,,,,,,,,,,,,,,,,,,,,,,,,
,,,,,714122,001,2024-06-14_09h35.35.742,experiment,2024.1.5,Win32,60.24096386,56bd7bf3d4e2180005a86846,666b5f73dbba3f0cd916b177,666c6faf10c451b9be0de405,,,,,,,,,,,,,,,,,,,,,,,,,,,,,,,,,,,,757.0852,763.1293,0,0,0,1,1,SoundStimuli/TheSign_AceOfBase_Cover5S.wav,,,,,,,,,,,,,,,,,,,,,,,,,,,,,,,,,,,,,,,,,,,,,,,,,,,,,,,,
,,,,,714122,001,2024-06-14_09h35.35.742,experiment,2024.1.5,Win32,60.24096386,56bd7bf3d4e2180005a86846,666b5f73dbba3f0cd916b177,666c6faf10c451b9be0de405,,,,,,,,,,,,,,,,,,,,,,,,,,,,,,,,,,,,763.1644,769.4084,0,1,1,0,1,SoundStimuli/TheSign_AceOfBase_Original5S.wav,,,,,,,,,,,,,,,,,,,,,,,,,,,,,,,,,,,,,,,,,,,,,,,,,,,,,,,,
,,,,,714122,001,2024-06-14_09h35.35.742,experiment,2024.1.5,Win32,60.24096386,56bd7bf3d4e2180005a86846,666b5f73dbba3f0cd916b177,666c6faf10c451b9be0de405,,,,,,,,,,,,,,,,,,,,,,,,,,,,,,,,,,,,,,,,,,,,769.4099,772.7302,5.247822333,3.2821,0,5,5,5,1,song_indices/TheSign_AceOfBase.csv,,,,,,,,,,,,,,,,,,,,,,,,,,,,,,,,,,,,,,,,,,,,,,
,,,,,714122,001,2024-06-14_09h35.35.742,experiment,2024.1.5,Win32,60.24096386,56bd7bf3d4e2180005a86846,666b5f73dbba3f0cd916b177,666c6faf10c451b9be0de405,,,,,,,,,,,,,,,,,,,,,,,,,,,,,,,,,,,,772.731,778.8667,0,0,0,0,1,SoundStimuli/UnbreakMyHeart_ToniBraxton_Original5S.wav,,,,,,,,,,,,,,,,,,,,,,,,,,,,,,,,,,,,,,,,,,,,,,,,,,,,,,,,
,,,,,714122,001,2024-06-14_09h35.35.742,experiment,2024.1.5,Win32,60.24096386,56bd7bf3d4e2180005a86846,666b5f73dbba3f0cd916b177,666c6faf10c451b9be0de405,,,,,,,,,,,,,,,,,,,,,,,,,,,,,,,,,,,,778.9009,782.9471,0,1,1,1,1,SoundStimuli/UnbreakMyHeart_ToniBraxton_Cover5S.wav,,,,,,,,,,,,,,,,,,,,,,,,,,,,,,,,,,,,,,,,,,,,,,,,,,,,,,,,
,,,,,714122,001,2024-06-14_09h35.35.742,experiment,2024.1.5,Win32,60.24096386,56bd7bf3d4e2180005a86846,666b5f73dbba3f0cd916b177,666c6faf10c451b9be0de405,,,,,,,,,,,,,,,,,,,,,,,,,,,,,,,,,,,,,,,,,,,,782.9477,785.2271,1.465696397,2.2371,0,6,6,16,1,song_indices/UnbreakMyHeart_ToniBraxton.csv,,,,,,,,,,,,,,,,,,,,,,,,,,,,,,,,,,,,,,,,,,,,,,
,,,,,714122,001,2024-06-14_09h35.35.742,experiment,2024.1.5,Win32,60.24096386,56bd7bf3d4e2180005a86846,666b5f73dbba3f0cd916b177,666c6faf10c451b9be0de405,,,,,,,,,,,,,,,,,,,,,,,,,,,,,,,,,,,,785.2295,791.3732,0,0,0,0,1,SoundStimuli/JoyToTheWorld_ThreeDogNight_Original5S.wav,,,,,,,,,,,,,,,,,,,,,,,,,,,,,,,,,,,,,,,,,,,,,,,,,,,,,,,,
,,,,,714122,001,2024-06-14_09h35.35.742,experiment,2024.1.5,Win32,60.24096386,56bd7bf3d4e2180005a86846,666b5f73dbba3f0cd916b177,666c6faf10c451b9be0de405,,,,,,,,,,,,,,,,,,,,,,,,,,,,,,,,,,,,791.4077,796.5519,0,1,1,1,1,SoundStimuli/JoyToTheWorld_ThreeDogNight_Cover5S.wav,,,,,,,,,,,,,,,,,,,,,,,,,,,,,,,,,,,,,,,,,,,,,,,,,,,,,,,,
,,,,,714122,001,2024-06-14_09h35.35.742,experiment,2024.1.5,Win32,60.24096386,56bd7bf3d4e2180005a86846,666b5f73dbba3f0cd916b177,666c6faf10c451b9be0de405,,,,,,,,,,,,,,,,,,,,,,,,,,,,,,,,,,,,,,,,,,,,796.5526,797.9667,4.720986017,1.3714,0,7,7,8,1,song_indices/JoyToTheWorld_ThreeDogNight.csv,,,,,,,,,,,,,,,,,,,,,,,,,,,,,,,,,,,,,,,,,,,,,,
,,,,,714122,001,2024-06-14_09h35.35.742,experiment,2024.1.5,Win32,60.24096386,56bd7bf3d4e2180005a86846,666b5f73dbba3f0cd916b177,666c6faf10c451b9be0de405,,,,,,,,,,,,,,,,,,,,,,,,,,,,,,,,,,,,797.9683,803.7128,0,0,0,1,1,SoundStimuli/Levitating_DuaLipa_Cover5S.wav,,,,,,,,,,,,,,,,,,,,,,,,,,,,,,,,,,,,,,,,,,,,,,,,,,,,,,,,
,,,,,714122,001,2024-06-14_09h35.35.742,experiment,2024.1.5,Win32,60.24096386,56bd7bf3d4e2180005a86846,666b5f73dbba3f0cd916b177,666c6faf10c451b9be0de405,,,,,,,,,,,,,,,,,,,,,,,,,,,,,,,,,,,,803.7471,809.7918,0,1,1,0,1,SoundStimuli/Levitating_DuaLipa_Original5S.wav,,,,,,,,,,,,,,,,,,,,,,,,,,,,,,,,,,,,,,,,,,,,,,,,,,,,,,,,
,,,,,714122,001,2024-06-14_09h35.35.742,experiment,2024.1.5,Win32,60.24096386,56bd7bf3d4e2180005a86846,666b5f73dbba3f0cd916b177,666c6faf10c451b9be0de405,,,,,,,,,,,,,,,,,,,,,,,,,,,,,,,,,,,,,,,,,,,,809.7927,811.7733,4.953902881,1.9444,0,8,8,10,1,song_indices/Levitating_DuaLipa.csv,,,,,,,,,,,,,,,,,,,,,,,,,,,,,,,,,,,,,,,,,,,,,,
,,,,,714122,001,2024-06-14_09h35.35.742,experiment,2024.1.5,Win32,60.24096386,56bd7bf3d4e2180005a86846,666b5f73dbba3f0cd916b177,666c6faf10c451b9be0de405,,,,,,,,,,,,,,,,,,,,,,,,,,,,,,,,,,,,811.7744,817.7015,0,0,0,1,1,SoundStimuli/Irreplaceable_Beyonce_Cover5S.wav,,,,,,,,,,,,,,,,,,,,,,,,,,,,,,,,,,,,,,,,,,,,,,,,,,,,,,,,
,,,,,714122,001,2024-06-14_09h35.35.742,experiment,2024.1.5,Win32,60.24096386,56bd7bf3d4e2180005a86846,666b5f73dbba3f0cd916b177,666c6faf10c451b9be0de405,,,,,,,,,,,,,,,,,,,,,,,,,,,,,,,,,,,,817.742,823.6132,0,1,1,0,1,SoundStimuli/Irreplaceable_Beyonce_Original5S.wav,,,,,,,,,,,,,,,,,,,,,,,,,,,,,,,,,,,,,,,,,,,,,,,,,,,,,,,,
,,,,,714122,001,2024-06-14_09h35.35.742,experiment,2024.1.5,Win32,60.24096386,56bd7bf3d4e2180005a86846,666b5f73dbba3f0cd916b177,666c6faf10c451b9be0de405,,,,,,,,,,,,,,,,,,,,,,,,,,,,,,,,,,,,,,,,,,,,823.614,826.3103,4.266243569,2.6431,0,9,9,19,1,song_indices/Irreplaceable_Beyonce.csv,,,,,,,,,,,,,,,,,,,,,,,,,,,,,,,,,,,,,,,,,,,,,,
,,,,,714122,001,2024-06-14_09h35.35.742,experiment,2024.1.5,Win32,60.24096386,56bd7bf3d4e2180005a86846,666b5f73dbba3f0cd916b177,666c6faf10c451b9be0de405,,,,,,,,,,,,,,,,,,,,,,,,,,,,,,,,,,,,826.312,832.3558,0,0,0,0,1,SoundStimuli/HowDoILive_LeAnnRimes_Original5S.wav,,,,,,,,,,,,,,,,,,,,,,,,,,,,,,,,,,,,,,,,,,,,,,,,,,,,,,,,
,,,,,714122,001,2024-06-14_09h35.35.742,experiment,2024.1.5,Win32,60.24096386,56bd7bf3d4e2180005a86846,666b5f73dbba3f0cd916b177,666c6faf10c451b9be0de405,,,,,,,,,,,,,,,,,,,,,,,,,,,,,,,,,,,,832.3928,837.9345,0,1,1,1,1,SoundStimuli/HowDoILive_LeAnnRimes_Cover5S.wav,,,,,,,,,,,,,,,,,,,,,,,,,,,,,,,,,,,,,,,,,,,,,,,,,,,,,,,,
,,,,,714122,001,2024-06-14_09h35.35.742,experiment,2024.1.5,Win32,60.24096386,56bd7bf3d4e2180005a86846,666b5f73dbba3f0cd916b177,666c6faf10c451b9be0de405,,,,,,,,,,,,,,,,,,,,,,,,,,,,,,,,,,,,,,,,,,,,837.9353,839.6157,6.905967469,1.6395,0,10,10,17,1,song_indices/HowDoILive_LeAnnRimes.csv,,,,,,,,,,,,,,,,,,,,,,,,,,,,,,,,,,,,,,,,,,,,,,
,,,,,714122,001,2024-06-14_09h35.35.742,experiment,2024.1.5,Win32,60.24096386,56bd7bf3d4e2180005a86846,666b5f73dbba3f0cd916b177,666c6faf10c451b9be0de405,,,,,,,,,,,,,,,,,,,,,,,,,,,,,,,,,,,,839.6175,846.8943,0,0,0,1,1,SoundStimuli/FlashdanceWhatAFeeling_IreneCara_Cover5S.wav,,,,,,,,,,,,,,,,,,,,,,,,,,,,,,,,,,,,,,,,,,,,,,,,,,,,,,,,
,,,,,714122,001,2024-06-14_09h35.35.742,experiment,2024.1.5,Win32,60.24096386,56bd7bf3d4e2180005a86846,666b5f73dbba3f0cd916b177,666c6faf10c451b9be0de405,,,,,,,,,,,,,,,,,,,,,,,,,,,,,,,,,,,,846.9384,853.3296,0,1,1,0,1,SoundStimuli/FlashdanceWhatAFeeling_IreneCara_Original5S.wav,,,,,,,,,,,,,,,,,,,,,,,,,,,,,,,,,,,,,,,,,,,,,,,,,,,,,,,,
,,,,,714122,001,2024-06-14_09h35.35.742,experiment,2024.1.5,Win32,60.24096386,56bd7bf3d4e2180005a86846,666b5f73dbba3f0cd916b177,666c6faf10c451b9be0de405,,,,,,,,,,,,,,,,,,,,,,,,,,,,,,,,,,,,,,,,,,,,853.3301,854.3208,6.639776768,0.9363,0,11,11,18,1,song_indices/FlashdanceWhatAFeeling_IreneCara.csv,,,,,,,,,,,,,,,,,,,,,,,,,,,,,,,,,,,,,,,,,,,,,,
,,,,,714122,001,2024-06-14_09h35.35.742,experiment,2024.1.5,Win32,60.24096386,56bd7bf3d4e2180005a86846,666b5f73dbba3f0cd916b177,666c6faf10c451b9be0de405,,,,,,,,,,,,,,,,,,,,,,,,,,,,,,,,,,,,854.3224,860.8661,0,0,0,1,1,SoundStimuli/Weak_SWV_Cover5S.wav,,,,,,,,,,,,,,,,,,,,,,,,,,,,,,,,,,,,,,,,,,,,,,,,,,,,,,,,
,,,,,714122,001,2024-06-14_09h35.35.742,experiment,2024.1.5,Win32,60.24096386,56bd7bf3d4e2180005a86846,666b5f73dbba3f0cd916b177,666c6faf10c451b9be0de405,,,,,,,,,,,,,,,,,,,,,,,,,,,,,,,,,,,,860.9051,867.0433,0,1,1,0,1,SoundStimuli/Weak_SWV_Original5S.wav,,,,,,,,,,,,,,,,,,,,,,,,,,,,,,,,,,,,,,,,,,,,,,,,,,,,,,,,
,,,,,714122,001,2024-06-14_09h35.35.742,experiment,2024.1.5,Win32,60.24096386,56bd7bf3d4e2180005a86846,666b5f73dbba3f0cd916b177,666c6faf10c451b9be0de405,,,,,,,,,,,,,,,,,,,,,,,,,,,,,,,,,,,,,,,,,,,,867.0437,868.4639,3.439943268,1.4073,0,12,12,6,1,song_indices/Weak_SWV.csv,,,,,,,,,,,,,,,,,,,,,,,,,,,,,,,,,,,,,,,,,,,,,,
,,,,,714122,001,2024-06-14_09h35.35.742,experiment,2024.1.5,Win32,60.24096386,56bd7bf3d4e2180005a86846,666b5f73dbba3f0cd916b177,666c6faf10c451b9be0de405,,,,,,,,,,,,,,,,,,,,,,,,,,,,,,,,,,,,868.465,874.4111,0,0,0,1,1,SoundStimuli/SaveYourTears_TheWeekndArianaGrande_Cover5S.wav,,,,,,,,,,,,,,,,,,,,,,,,,,,,,,,,,,,,,,,,,,,,,,,,,,,,,,,,
,,,,,714122,001,2024-06-14_09h35.35.742,experiment,2024.1.5,Win32,60.24096386,56bd7bf3d4e2180005a86846,666b5f73dbba3f0cd916b177,666c6faf10c451b9be0de405,,,,,,,,,,,,,,,,,,,,,,,,,,,,,,,,,,,,874.4554,880.6999,0,1,1,0,1,SoundStimuli/SaveYourTears_TheWeekndArianaGrande_Original5S.wav,,,,,,,,,,,,,,,,,,,,,,,,,,,,,,,,,,,,,,,,,,,,,,,,,,,,,,,,
,,,,,714122,001,2024-06-14_09h35.35.742,experiment,2024.1.5,Win32,60.24096386,56bd7bf3d4e2180005a86846,666b5f73dbba3f0cd916b177,666c6faf10c451b9be0de405,,,,,,,,,,,,,,,,,,,,,,,,,,,,,,,,,,,,,,,,,,,,880.7007,882.7469,4.155330777,2.0093,0,13,13,12,1,song_indices/SaveYourTears_TheWeekndArianaGrande.csv,,,,,,,,,,,,,,,,,,,,,,,,,,,,,,,,,,,,,,,,,,,,,,
,,,,,714122,001,2024-06-14_09h35.35.742,experiment,2024.1.5,Win32,60.24096386,56bd7bf3d4e2180005a86846,666b5f73dbba3f0cd916b177,666c6faf10c451b9be0de405,,,,,,,,,,,,,,,,,,,,,,,,,,,,,,,,,,,,882.7486,889.0927,0,0,0,1,1,SoundStimuli/Kiss_Prince_Cover5S.wav,,,,,,,,,,,,,,,,,,,,,,,,,,,,,,,,,,,,,,,,,,,,,,,,,,,,,,,,
,,,,,714122,001,2024-06-14_09h35.35.742,experiment,2024.1.5,Win32,60.24096386,56bd7bf3d4e2180005a86846,666b5f73dbba3f0cd916b177,666c6faf10c451b9be0de405,,,,,,,,,,,,,,,,,,,,,,,,,,,,,,,,,,,,889.1268,896.5703,0,1,1,0,1,SoundStimuli/Kiss_Prince_Original5S.wav,,,,,,,,,,,,,,,,,,,,,,,,,,,,,,,,,,,,,,,,,,,,,,,,,,,,,,,,
,,,,,714122,001,2024-06-14_09h35.35.742,experiment,2024.1.5,Win32,60.24096386,56bd7bf3d4e2180005a86846,666b5f73dbba3f0cd916b177,666c6faf10c451b9be0de405,,,,,,,,,,,,,,,,,,,,,,,,,,,,,,,,,,,,,,,,,,,,896.571,900.4324,3.772682197,3.8252,0,14,14,14,1,song_indices/Kiss_Prince.csv,,,,,,,,,,,,,,,,,,,,,,,,,,,,,,,,,,,,,,,,,,,,,,
,,,,,714122,001,2024-06-14_09h35.35.742,experiment,2024.1.5,Win32,60.24096386,56bd7bf3d4e2180005a86846,666b5f73dbba3f0cd916b177,666c6faf10c451b9be0de405,,,,,,,,,,,,,,,,,,,,,,,,,,,,,,,,,,,,900.4343,907.9771,0,0,0,1,1,SoundStimuli/TikTok_Kesha_Cover5S.wav,,,,,,,,,,,,,,,,,,,,,,,,,,,,,,,,,,,,,,,,,,,,,,,,,,,,,,,,
,,,,,714122,001,2024-06-14_09h35.35.742,experiment,2024.1.5,Win32,60.24096386,56bd7bf3d4e2180005a86846,666b5f73dbba3f0cd916b177,666c6faf10c451b9be0de405,,,,,,,,,,,,,,,,,,,,,,,,,,,,,,,,,,,,908.0103,914.2555,0,1,1,0,1,SoundStimuli/TikTok_Kesha_Original5S.wav,,,,,,,,,,,,,,,,,,,,,,,,,,,,,,,,,,,,,,,,,,,,,,,,,,,,,,,,
,,,,,714122,001,2024-06-14_09h35.35.742,experiment,2024.1.5,Win32,60.24096386,56bd7bf3d4e2180005a86846,666b5f73dbba3f0cd916b177,666c6faf10c451b9be0de405,,,,,,,,,,,,,,,,,,,,,,,,,,,,,,,,,,,,,,,,,,,,914.2562,916.4193,6.257127635,2.1205,0,15,15,3,1,song_indices/TikTok_Kesha.csv,,,,,,,,,,,,,,,,,,,,,,,,,,,,,,,,,,,,,,,,,,,,,,
,,,,,714122,001,2024-06-14_09h35.35.742,experiment,2024.1.5,Win32,60.24096386,56bd7bf3d4e2180005a86846,666b5f73dbba3f0cd916b177,666c6faf10c451b9be0de405,,,,,,,,,,,,,,,,,,,,,,,,,,,,,,,,,,,,916.4205,922.5652,0,0,0,1,1,SoundStimuli/TossinAndTurnin_BobbyLewis_Cover5S.wav,,,,,,,,,,,,,,,,,,,,,,,,,,,,,,,,,,,,,,,,,,,,,,,,,,,,,,,,
,,,,,714122,001,2024-06-14_09h35.35.742,experiment,2024.1.5,Win32,60.24096386,56bd7bf3d4e2180005a86846,666b5f73dbba3f0cd916b177,666c6faf10c451b9be0de405,,,,,,,,,,,,,,,,,,,,,,,,,,,,,,,,,,,,922.6026,928.7442,0,1,1,0,1,SoundStimuli/TossinAndTurnin_BobbyLewis_Original5S.wav,,,,,,,,,,,,,,,,,,,,,,,,,,,,,,,,,,,,,,,,,,,,,,,,,,,,,,,,
,,,,,714122,001,2024-06-14_09h35.35.742,experiment,2024.1.5,Win32,60.24096386,56bd7bf3d4e2180005a86846,666b5f73dbba3f0cd916b177,666c6faf10c451b9be0de405,,,,,,,,,,,,,,,,,,,,,,,,,,,,,,,,,,,,,,,,,,,,928.7454,931.6125,5.025996195,2.825,0,16,16,13,1,song_indices/TossinAndTurnin_BobbyLewis.csv,,,,,,,,,,,,,,,,,,,,,,,,,,,,,,,,,,,,,,,,,,,,,,
,,,,,714122,001,2024-06-14_09h35.35.742,experiment,2024.1.5,Win32,60.24096386,56bd7bf3d4e2180005a86846,666b5f73dbba3f0cd916b177,666c6faf10c451b9be0de405,,,,,,,,,,,,,,,,,,,,,,,,,,,,,,,,,,,,931.6139,937.7028,0,0,0,0,1,SoundStimuli/ComeAndGetYourLove_Redbone_Original5S.wav,,,,,,,,,,,,,,,,,,,,,,,,,,,,,,,,,,,,,,,,,,,,,,,,,,,,,,,,
,,,,,714122,001,2024-06-14_09h35.35.742,experiment,2024.1.5,Win32,60.24096386,56bd7bf3d4e2180005a86846,666b5f73dbba3f0cd916b177,666c6faf10c451b9be0de405,,,,,,,,,,,,,,,,,,,,,,,,,,,,,,,,,,,,937.7445,944.7972,0,1,1,1,1,SoundStimuli/ComeAndGetYourLove_Redbone_Cover5S.wav,,,,,,,,,,,,,,,,,,,,,,,,,,,,,,,,,,,,,,,,,,,,,,,,,,,,,,,,
,,,,,714122,001,2024-06-14_09h35.35.742,experiment,2024.1.5,Win32,60.24096386,56bd7bf3d4e2180005a86846,666b5f73dbba3f0cd916b177,666c6faf10c451b9be0de405,,,,,,,,,,,,,,,,,,,,,,,,,,,,,,,,,,,,,,,,,,,,944.7981,946.9612,4.510251712,2.1053,0,17,17,22,1,song_indices/ComeAndGetYourLove_Redbone.csv,,,,,,,,,,,,,,,,,,,,,,,,,,,,,,,,,,,,,,,,,,,,,,
,,,,,714122,001,2024-06-14_09h35.35.742,experiment,2024.1.5,Win32,60.24096386,56bd7bf3d4e2180005a86846,666b5f73dbba3f0cd916b177,666c6faf10c451b9be0de405,,,,,,,,,,,,,,,,,,,,,,,,,,,,,,,,,,,,946.9627,954.0059,0,0,0,1,1,SoundStimuli/Dilemma_NellyKellyRowland_Cover5S.wav,,,,,,,,,,,,,,,,,,,,,,,,,,,,,,,,,,,,,,,,,,,,,,,,,,,,,,,,
,,,,,714122,001,2024-06-14_09h35.35.742,experiment,2024.1.5,Win32,60.24096386,56bd7bf3d4e2180005a86846,666b5f73dbba3f0cd916b177,666c6faf10c451b9be0de405,,,,,,,,,,,,,,,,,,,,,,,,,,,,,,,,,,,,954.0405,960.2842,0,1,1,0,1,SoundStimuli/Dilemma_NellyKellyRowland_Original5S.wav,,,,,,,,,,,,,,,,,,,,,,,,,,,,,,,,,,,,,,,,,,,,,,,,,,,,,,,,
,,,,,714122,001,2024-06-14_09h35.35.742,experiment,2024.1.5,Win32,60.24096386,56bd7bf3d4e2180005a86846,666b5f73dbba3f0cd916b177,666c6faf10c451b9be0de405,,,,,,,,,,,,,,,,,,,,,,,,,,,,,,,,,,,,,,,,,,,,960.285,962.3708,6.151760483,2.0536,0,18,18,2,1,song_indices/Dilemma_NellyKellyRowland.csv,,,,,,,,,,,,,,,,,,,,,,,,,,,,,,,,,,,,,,,,,,,,,,
,,,,,714122,001,2024-06-14_09h35.35.742,experiment,2024.1.5,Win32,60.24096386,56bd7bf3d4e2180005a86846,666b5f73dbba3f0cd916b177,666c6faf10c451b9be0de405,,,,,,,,,,,,,,,,,,,,,,,,,,,,,,,,,,,,962.3719,969.5101,0,0,0,1,1,SoundStimuli/BlurredLines_RobinThicke_Cover5S.wav,,,,,,,,,,,,,,,,,,,,,,,,,,,,,,,,,,,,,,,,,,,,,,,,,,,,,,,,
,,,,,714122,001,2024-06-14_09h35.35.742,experiment,2024.1.5,Win32,60.24096386,56bd7bf3d4e2180005a86846,666b5f73dbba3f0cd916b177,666c6faf10c451b9be0de405,,,,,,,,,,,,,,,,,,,,,,,,,,,,,,,,,,,,969.5641,976.3879,0,1,1,0,1,SoundStimuli/BlurredLines_RobinThicke_Original5S.wav,,,,,,,,,,,,,,,,,,,,,,,,,,,,,,,,,,,,,,,,,,,,,,,,,,,,,,,,
,,,,,714122,001,2024-06-14_09h35.35.742,experiment,2024.1.5,Win32,60.24096386,56bd7bf3d4e2180005a86846,666b5f73dbba3f0cd916b177,666c6faf10c451b9be0de405,,,,,,,,,,,,,,,,,,,,,,,,,,,,,,,,,,,,,,,,,,,,976.389,979.0682,5.197911576,2.6336,0,19,19,9,1,song_indices/BlurredLines_RobinThicke.csv,,,,,,,,,,,,,,,,,,,,,,,,,,,,,,,,,,,,,,,,,,,,,,
,,,,,714122,001,2024-06-14_09h35.35.742,experiment,2024.1.5,Win32,60.24096386,56bd7bf3d4e2180005a86846,666b5f73dbba3f0cd916b177,666c6faf10c451b9be0de405,,,,,,,,,,,,,,,,,,,,,,,,,,,,,,,,,,,,979.0694,984.997,0,0,0,0,1,SoundStimuli/Respect_ArethaFranklin_Original5S.wav,,,,,,,,,,,,,,,,,,,,,,,,,,,,,,,,,,,,,,,,,,,,,,,,,,,,,,,,
,,,,,714122,001,2024-06-14_09h35.35.742,experiment,2024.1.5,Win32,60.24096386,56bd7bf3d4e2180005a86846,666b5f73dbba3f0cd916b177,666c6faf10c451b9be0de405,,,,,,,,,,,,,,,,,,,,,,,,,,,,,,,,,,,,985.0432,991.1746,0,1,1,1,1,SoundStimuli/Respect_ArethaFranklin_Cover5S.wav,,,,,,,,,,,,,,,,,,,,,,,,,,,,,,,,,,,,,,,,,,,,,,,,,,,,,,,,
,,,,,714122,001,2024-06-14_09h35.35.742,experiment,2024.1.5,Win32,60.24096386,56bd7bf3d4e2180005a86846,666b5f73dbba3f0cd916b177,666c6faf10c451b9be0de405,,,,,,,,,,,,,,,,,,,,,,,,,,,,,,,,,,,,,,,,,,,,991.1753,994.7051,4.271789209,3.4964,0,20,20,0,1,song_indices/Respect_ArethaFranklin.csv,,,,,,,,,,,,,,,,,,,,,,,,,,,,,,,,,,,,,,,,,,,,,,
,,,,,714122,001,2024-06-14_09h35.35.742,experiment,2024.1.5,Win32,60.24096386,56bd7bf3d4e2180005a86846,666b5f73dbba3f0cd916b177,666c6faf10c451b9be0de405,,,,,,,,,,,,,,,,,,,,,,,,,,,,,,,,,,,,994.7068,1001.2504,0,0,0,0,1,SoundStimuli/Dreams_FleetwoodMac_Original5S.wav,,,,,,,,,,,,,,,,,,,,,,,,,,,,,,,,,,,,,,,,,,,,,,,,,,,,,,,,
,,,,,714122,001,2024-06-14_09h35.35.742,experiment,2024.1.5,Win32,60.24096386,56bd7bf3d4e2180005a86846,666b5f73dbba3f0cd916b177,666c6faf10c451b9be0de405,,,,,,,,,,,,,,,,,,,,,,,,,,,,,,,,,,,,1001.2891,1009.1279,0,1,1,1,1,SoundStimuli/Dreams_FleetwoodMac_Cover5S.wav,,,,,,,,,,,,,,,,,,,,,,,,,,,,,,,,,,,,,,,,,,,,,,,,,,,,,,,,
,,,,,714122,001,2024-06-14_09h35.35.742,experiment,2024.1.5,Win32,60.24096386,56bd7bf3d4e2180005a86846,666b5f73dbba3f0cd916b177,666c6faf10c451b9be0de405,,,,,,,,,,,,,,,,,,,,,,,,,,,,,,,,,,,,,,,,,,,,1009.1292,1015.2424,4.271789209,6.0761,0,21,21,1,1,song_indices/Dreams_FleetwoodMac.csv,,,,,,,,,,,,,,,,,,,,,,,,,,,,,,,,,,,,,,,,,,,,,,
,,,,,714122,001,2024-06-14_09h35.35.742,experiment,2024.1.5,Win32,60.24096386,56bd7bf3d4e2180005a86846,666b5f73dbba3f0cd916b177,666c6faf10c451b9be0de405,,,,,,,,,,,,,,,,,,,,,,,,,,,,,,,,,,,,1015.2433,1022.0832,0,0,0,1,1,SoundStimuli/BlindingLights_TheWeeknd_Cover5S.wav,,,,,,,,,,,,,,,,,,,,,,,,,,,,,,,,,,,,,,,,,,,,,,,,,,,,,,,,
,,,,,714122,001,2024-06-14_09h35.35.742,experiment,2024.1.5,Win32,60.24096386,56bd7bf3d4e2180005a86846,666b5f73dbba3f0cd916b177,666c6faf10c451b9be0de405,,,,,,,,,,,,,,,,,,,,,,,,,,,,,,,,,,,,1022.1161,1028.6109,0,1,1,0,1,SoundStimuli/BlindingLights_TheWeeknd_Original5S.wav,,,,,,,,,,,,,,,,,,,,,,,,,,,,,,,,,,,,,,,,,,,,,,,,,,,,,,,,
,,,,,714122,001,2024-06-14_09h35.35.742,experiment,2024.1.5,Win32,60.24096386,56bd7bf3d4e2180005a86846,666b5f73dbba3f0cd916b177,666c6faf10c451b9be0de405,,,,,,,,,,,,,,,,,,,,,,,,,,,,,,,,,,,,,,,,,,,,1028.6112,1073.5962,4.765351134,44.9358,0,22,22,21,1,song_indices/BlindingLights_TheWeeknd.csv,,,,,,,,,,,,,,,,,,,,,,,,,,,,,,,,,,,,,,,,,,,,,,
,,,,,714122,001,2024-06-14_09h35.35.742,experiment,2024.1.5,Win32,60.24096386,56bd7bf3d4e2180005a86846,666b5f73dbba3f0cd916b177,666c6faf10c451b9be0de405,,,,,,,,,,,,,,,,,,,,,,,,,,,,,,,,,,,,1073.5971,1080.4384,0,0,0,1,1,SoundStimuli/SomebodyThatIUsedtoKnow_Gotye_Cover5S.wav,,,,,,,,,,,,,,,,,,,,,,,,,,,,,,,,,,,,,,,,,,,,,,,,,,,,,,,,
,,,,,714122,001,2024-06-14_09h35.35.742,experiment,2024.1.5,Win32,60.24096386,56bd7bf3d4e2180005a86846,666b5f73dbba3f0cd916b177,666c6faf10c451b9be0de405,,,,,,,,,,,,,,,,,,,,,,,,,,,,,,,,,,,,1080.4508,1087.684,0,1,1,0,1,SoundStimuli/SomebodyThatIUsedtoKnow_Gotye_Original5S.wav,,,,,,,,,,,,,,,,,,,,,,,,,,,,,,,,,,,,,,,,,,,,,,,,,,,,,,,,
,,,,,714122,001,2024-06-14_09h35.35.742,experiment,2024.1.5,Win32,60.24096386,56bd7bf3d4e2180005a86846,666b5f73dbba3f0cd916b177,666c6faf10c451b9be0de405,,,,,,,,,,,,,,,,,,,,,,,,,,,,,,,,,,,,,,,,,,,,1087.6849,1092.3743,5.392007857,4.6618,0,23,23,7,1,song_indices/SomebodyThatIUsedtoKnow_Gotye.csv,,,,,,,,,,,,,,,,,,,,,,,,,,,,,,,,,,,,,,,,,,,,,,
,,,,,714122,001,2024-06-14_09h35.35.742,experiment,2024.1.5,Win32,60.24096386,56bd7bf3d4e2180005a86846,666b5f73dbba3f0cd916b177,666c6faf10c451b9be0de405,,,,,,,,,,,,,,,,,,,,,,,,,,,,,,,,,,,,,,,,,,,,,,,,,,,,,,1092.3745,1170.6751,space,78.2555,,0,1,1,2,1,choose_song_b3.csv,,,,,,,,,,,,,,,,,,,,,,,,,,,,,,,,,,,
,,,,,714122,001,2024-06-14_09h35.35.742,experiment,2024.1.5,Win32,60.24096386,56bd7bf3d4e2180005a86846,666b5f73dbba3f0cd916b177,666c6faf10c451b9be0de405,,,,,,,,,,,,,,,,,,,,,,,,,,,,,,,,,,,,1170.6786,1176.8259,0,0,0,1,1,SoundStimuli/NoScrubs_TLC_Cover5S.wav,,,,,,,,,,,,,,,,,,,,,,,,,,,,,,,,,,,,,,,,,,,,,,,,,,,,,,,,
,,,,,714122,001,2024-06-14_09h35.35.742,experiment,2024.1.5,Win32,60.24096386,56bd7bf3d4e2180005a86846,666b5f73dbba3f0cd916b177,666c6faf10c451b9be0de405,,,,,,,,,,,,,,,,,,,,,,,,,,,,,,,,,,,,1176.8385,1183.0685,0,1,1,0,1,SoundStimuli/NoScrubs_TLC_Original5S.wav,,,,,,,,,,,,,,,,,,,,,,,,,,,,,,,,,,,,,,,,,,,,,,,,,,,,,,,,
,,,,,714122,001,2024-06-14_09h35.35.742,experiment,2024.1.5,Win32,60.24096386,56bd7bf3d4e2180005a86846,666b5f73dbba3f0cd916b177,666c6faf10c451b9be0de405,,,,,,,,,,,,,,,,,,,,,,,,,,,,,,,,,,,,,,,,,,,,1183.0699,1184.7825,6.19057996,1.6606,0,0,0,14,1,song_indices/NoScrubs_TLC.csv,,,,,,,,,,,,,,,,,,,,,,,,,,,,,,,,,,,,,,,,,,,,,,
,,,,,714122,001,2024-06-14_09h35.35.742,experiment,2024.1.5,Win32,60.24096386,56bd7bf3d4e2180005a86846,666b5f73dbba3f0cd916b177,666c6faf10c451b9be0de405,,,,,,,,,,,,,,,,,,,,,,,,,,,,,,,,,,,,1184.7837,1192.7755,0,0,0,1,1,SoundStimuli/TheBattleOfNewOrleans_JohnnyHorton_Cover5S.wav,,,,,,,,,,,,,,,,,,,,,,,,,,,,,,,,,,,,,,,,,,,,,,,,,,,,,,,,
,,,,,714122,001,2024-06-14_09h35.35.742,experiment,2024.1.5,Win32,60.24096386,56bd7bf3d4e2180005a86846,666b5f73dbba3f0cd916b177,666c6faf10c451b9be0de405,,,,,,,,,,,,,,,,,,,,,,,,,,,,,,,,,,,,1192.8111,1199.0207,0,1,1,0,1,SoundStimuli/TheBattleOfNewOrleans_JohnnyHorton_Original5S.wav,,,,,,,,,,,,,,,,,,,,,,,,,,,,,,,,,,,,,,,,,,,,,,,,,,,,,,,,
,,,,,714122,001,2024-06-14_09h35.35.742,experiment,2024.1.5,Win32,60.24096386,56bd7bf3d4e2180005a86846,666b5f73dbba3f0cd916b177,666c6faf10c451b9be0de405,,,,,,,,,,,,,,,,,,,,,,,,,,,,,,,,,,,,,,,,,,,,1199.0211,1201.1849,4.610073225,2.1181,0,1,1,4,1,song_indices/TheBattleOfNewOrleans_JohnnyHorton.csv,,,,,,,,,,,,,,,,,,,,,,,,,,,,,,,,,,,,,,,,,,,,,,
,,,,,714122,001,2024-06-14_09h35.35.742,experiment,2024.1.5,Win32,60.24096386,56bd7bf3d4e2180005a86846,666b5f73dbba3f0cd916b177,666c6faf10c451b9be0de405,,,,,,,,,,,,,,,,,,,,,,,,,,,,,,,,,,,,1201.1863,1207.4303,0,0,0,1,1,SoundStimuli/NoOne_AliciaKeys_Cover5S.wav,,,,,,,,,,,,,,,,,,,,,,,,,,,,,,,,,,,,,,,,,,,,,,,,,,,,,,,,
,,,,,714122,001,2024-06-14_09h35.35.742,experiment,2024.1.5,Win32,60.24096386,56bd7bf3d4e2180005a86846,666b5f73dbba3f0cd916b177,666c6faf10c451b9be0de405,,,,,,,,,,,,,,,,,,,,,,,,,,,,,,,,,,,,1207.4646,1215.2085,0,1,1,0,1,SoundStimuli/NoOne_AliciaKeys_Original5S.wav,,,,,,,,,,,,,,,,,,,,,,,,,,,,,,,,,,,,,,,,,,,,,,,,,,,,,,,,
,,,,,714122,001,2024-06-14_09h35.35.742,experiment,2024.1.5,Win32,60.24096386,56bd7bf3d4e2180005a86846,666b5f73dbba3f0cd916b177,666c6faf10c451b9be0de405,,,,,,,,,,,,,,,,,,,,,,,,,,,,,,,,,,,,,,,,,,,,1215.2101,1217.3051,4.920629043,2.0416,0,2,2,19,1,song_indices/NoOne_AliciaKeys.csv,,,,,,,,,,,,,,,,,,,,,,,,,,,,,,,,,,,,,,,,,,,,,,
,,,,,714122,001,2024-06-14_09h35.35.742,experiment,2024.1.5,Win32,60.24096386,56bd7bf3d4e2180005a86846,666b5f73dbba3f0cd916b177,666c6faf10c451b9be0de405,,,,,,,,,,,,,,,,,,,,,,,,,,,,,,,,,,,,1217.3063,1223.3504,0,0,0,0,1,SoundStimuli/IWalkTheLine_JohnnyCash_Original5S.wav,,,,,,,,,,,,,,,,,,,,,,,,,,,,,,,,,,,,,,,,,,,,,,,,,,,,,,,,
,,,,,714122,001,2024-06-14_09h35.35.742,experiment,2024.1.5,Win32,60.24096386,56bd7bf3d4e2180005a86846,666b5f73dbba3f0cd916b177,666c6faf10c451b9be0de405,,,,,,,,,,,,,,,,,,,,,,,,,,,,,,,,,,,,1223.3764,1230.6134,0,1,1,1,1,SoundStimuli/IWalkTheLine_JohnnyCash_Cover5S.wav,,,,,,,,,,,,,,,,,,,,,,,,,,,,,,,,,,,,,,,,,,,,,,,,,,,,,,,,
,,,,,714122,001,2024-06-14_09h35.35.742,experiment,2024.1.5,Win32,60.24096386,56bd7bf3d4e2180005a86846,666b5f73dbba3f0cd916b177,666c6faf10c451b9be0de405,,,,,,,,,,,,,,,,,,,,,,,,,,,,,,,,,,,,,,,,,,,,1230.6141,1233.3095,4.643347063,2.671,0,3,3,17,1,song_indices/IWalkTheLine_JohnnyCash.csv,,,,,,,,,,,,,,,,,,,,,,,,,,,,,,,,,,,,,,,,,,,,,,
,,,,,714122,001,2024-06-14_09h35.35.742,experiment,2024.1.5,Win32,60.24096386,56bd7bf3d4e2180005a86846,666b5f73dbba3f0cd916b177,666c6faf10c451b9be0de405,,,,,,,,,,,,,,,,,,,,,,,,,,,,,,,,,,,,1233.311,1239.3708,0,0,0,0,1,SoundStimuli/Stronger_KanyeWest_Original5S.wav,,,,,,,,,,,,,,,,,,,,,,,,,,,,,,,,,,,,,,,,,,,,,,,,,,,,,,,,
,,,,,714122,001,2024-06-14_09h35.35.742,experiment,2024.1.5,Win32,60.24096386,56bd7bf3d4e2180005a86846,666b5f73dbba3f0cd916b177,666c6faf10c451b9be0de405,,,,,,,,,,,,,,,,,,,,,,,,,,,,,,,,,,,,1239.4086,1245.7326,0,1,1,1,1,SoundStimuli/Stronger_KanyeWest_Cover5S.wav,,,,,,,,,,,,,,,,,,,,,,,,,,,,,,,,,,,,,,,,,,,,,,,,,,,,,,,,
,,,,,714122,001,2024-06-14_09h35.35.742,experiment,2024.1.5,Win32,60.24096386,56bd7bf3d4e2180005a86846,666b5f73dbba3f0cd916b177,666c6faf10c451b9be0de405,,,,,,,,,,,,,,,,,,,,,,,,,,,,,,,,,,,,,,,,,,,,1245.7336,1250.2783,1.959258598,4.4932,0,4,4,9,1,song_indices/Stronger_KanyeWest.csv,,,,,,,,,,,,,,,,,,,,,,,,,,,,,,,,,,,,,,,,,,,,,,
,,,,,714122,001,2024-06-14_09h35.35.742,experiment,2024.1.5,Win32,60.24096386,56bd7bf3d4e2180005a86846,666b5f73dbba3f0cd916b177,666c6faf10c451b9be0de405,,,,,,,,,,,,,,,,,,,,,,,,,,,,,,,,,,,,1250.2793,1256.3401,0,0,0,0,1,SoundStimuli/GoodGollyMissMolly_LittleRichard_Original5S.wav,,,,,,,,,,,,,,,,,,,,,,,,,,,,,,,,,,,,,,,,,,,,,,,,,,,,,,,,
,,,,,714122,001,2024-06-14_09h35.35.742,experiment,2024.1.5,Win32,60.24096386,56bd7bf3d4e2180005a86846,666b5f73dbba3f0cd916b177,666c6faf10c451b9be0de405,,,,,,,,,,,,,,,,,,,,,,,,,,,,,,,,,,,,1256.3722,1262.7179,0,1,1,1,1,SoundStimuli/GoodGollyMissMolly_LittleRichard_Cover5S.wav,,,,,,,,,,,,,,,,,,,,,,,,,,,,,,,,,,,,,,,,,,,,,,,,,,,,,,,,
,,,,,714122,001,2024-06-14_09h35.35.742,experiment,2024.1.5,Win32,60.24096386,56bd7bf3d4e2180005a86846,666b5f73dbba3f0cd916b177,666c6faf10c451b9be0de405,,,,,,,,,,,,,,,,,,,,,,,,,,,,,,,,,,,,,,,,,,,,1262.7181,1266.6149,2.902017055,3.8703,0,5,5,0,1,song_indices/GoodGollyMissMolly_LittleRichard.csv,,,,,,,,,,,,,,,,,,,,,,,,,,,,,,,,,,,,,,,,,,,,,,
,,,,,714122,001,2024-06-14_09h35.35.742,experiment,2024.1.5,Win32,60.24096386,56bd7bf3d4e2180005a86846,666b5f73dbba3f0cd916b177,666c6faf10c451b9be0de405,,,,,,,,,,,,,,,,,,,,,,,,,,,,,,,,,,,,1266.6157,1273.2597,0,0,0,1,1,SoundStimuli/GetUrFreakOn_MissyElliot_Cover5S.wav,,,,,,,,,,,,,,,,,,,,,,,,,,,,,,,,,,,,,,,,,,,,,,,,,,,,,,,,
,,,,,714122,001,2024-06-14_09h35.35.742,experiment,2024.1.5,Win32,60.24096386,56bd7bf3d4e2180005a86846,666b5f73dbba3f0cd916b177,666c6faf10c451b9be0de405,,,,,,,,,,,,,,,,,,,,,,,,,,,,,,,,,,,,1273.2967,1279.4379,0,1,1,0,1,SoundStimuli/GetUrFreakOn_MissyElliot_Original5S.wav,,,,,,,,,,,,,,,,,,,,,,,,,,,,,,,,,,,,,,,,,,,,,,,,,,,,,,,,
,,,,,714122,001,2024-06-14_09h35.35.742,experiment,2024.1.5,Win32,60.24096386,56bd7bf3d4e2180005a86846,666b5f73dbba3f0cd916b177,666c6faf10c451b9be0de405,,,,,,,,,,,,,,,,,,,,,,,,,,,,,,,,,,,,,,,,,,,,1279.4389,1284.205,2.630280438,4.7312,0,6,6,18,1,song_indices/GetUrFreakOn_MissyElliot.csv,,,,,,,,,,,,,,,,,,,,,,,,,,,,,,,,,,,,,,,,,,,,,,
,,,,,714122,001,2024-06-14_09h35.35.742,experiment,2024.1.5,Win32,60.24096386,56bd7bf3d4e2180005a86846,666b5f73dbba3f0cd916b177,666c6faf10c451b9be0de405,,,,,,,,,,,,,,,,,,,,,,,,,,,,,,,,,,,,1284.2061,1290.4519,0,0,0,1,1,SoundStimuli/GimmeShelter_RollingStones_Cover5S.wav,,,,,,,,,,,,,,,,,,,,,,,,,,,,,,,,,,,,,,,,,,,,,,,,,,,,,,,,
,,,,,714122,001,2024-06-14_09h35.35.742,experiment,2024.1.5,Win32,60.24096386,56bd7bf3d4e2180005a86846,666b5f73dbba3f0cd916b177,666c6faf10c451b9be0de405,,,,,,,,,,,,,,,,,,,,,,,,,,,,,,,,,,,,1290.4949,1296.6402,0,1,1,0,1,SoundStimuli/GimmeShelter_RollingStones_Original5S.wav,,,,,,,,,,,,,,,,,,,,,,,,,,,,,,,,,,,,,,,,,,,,,,,,,,,,,,,,
,,,,,714122,001,2024-06-14_09h35.35.742,experiment,2024.1.5,Win32,60.24096386,56bd7bf3d4e2180005a86846,666b5f73dbba3f0cd916b177,666c6faf10c451b9be0de405,,,,,,,,,,,,,,,,,,,,,,,,,,,,,,,,,,,,,,,,,,,,1296.641,1301.4527,3.229209239,4.7662,0,7,7,20,1,song_indices/GimmeShelter_RollingStones.csv,,,,,,,,,,,,,,,,,,,,,,,,,,,,,,,,,,,,,,,,,,,,,,
,,,,,714122,001,2024-06-14_09h35.35.742,experiment,2024.1.5,Win32,60.24096386,56bd7bf3d4e2180005a86846,666b5f73dbba3f0cd916b177,666c6faf10c451b9be0de405,,,,,,,,,,,,,,,,,,,,,,,,,,,,,,,,,,,,1301.4543,1307.6649,0,0,0,0,1,SoundStimuli/SmellsLikeTeenSpirit_Nirvana_Original5S.wav,,,,,,,,,,,,,,,,,,,,,,,,,,,,,,,,,,,,,,,,,,,,,,,,,,,,,,,,
,,,,,714122,001,2024-06-14_09h35.35.742,experiment,2024.1.5,Win32,60.24096386,56bd7bf3d4e2180005a86846,666b5f73dbba3f0cd916b177,666c6faf10c451b9be0de405,,,,,,,,,,,,,,,,,,,,,,,,,,,,,,,,,,,,1307.7003,1313.4763,0,1,1,1,1,SoundStimuli/SmellsLikeTeenSpirit_Nirvana_Cover5S.wav,,,,,,,,,,,,,,,,,,,,,,,,,,,,,,,,,,,,,,,,,,,,,,,,,,,,,,,,
,,,,,714122,001,2024-06-14_09h35.35.742,experiment,2024.1.5,Win32,60.24096386,56bd7bf3d4e2180005a86846,666b5f73dbba3f0cd916b177,666c6faf10c451b9be0de405,,,,,,,,,,,,,,,,,,,,,,,,,,,,,,,,,,,,,,,,,,,,1313.477,1333.3097,3.68949705,19.7865,0,8,8,8,1,song_indices/SmellsLikeTeenSpirit_Nirvana.csv,,,,,,,,,,,,,,,,,,,,,,,,,,,,,,,,,,,,,,,,,,,,,,
,,,,,714122,001,2024-06-14_09h35.35.742,experiment,2024.1.5,Win32,60.24096386,56bd7bf3d4e2180005a86846,666b5f73dbba3f0cd916b177,666c6faf10c451b9be0de405,,,,,,,,,,,,,,,,,,,,,,,,,,,,,,,,,,,,1333.311,1339.655,0,0,0,0,1,SoundStimuli/ItsAllInTheGame_TommyEdwards_Original5S.wav,,,,,,,,,,,,,,,,,,,,,,,,,,,,,,,,,,,,,,,,,,,,,,,,,,,,,,,,
,,,,,714122,001,2024-06-14_09h35.35.742,experiment,2024.1.5,Win32,60.24096386,56bd7bf3d4e2180005a86846,666b5f73dbba3f0cd916b177,666c6faf10c451b9be0de405,,,,,,,,,,,,,,,,,,,,,,,,,,,,,,,,,,,,1339.6893,1345.9334,0,1,1,1,1,SoundStimuli/ItsAllInTheGame_TommyEdwards_Cover5S.wav,,,,,,,,,,,,,,,,,,,,,,,,,,,,,,,,,,,,,,,,,,,,,,,,,,,,,,,,
,,,,,714122,001,2024-06-14_09h35.35.742,experiment,2024.1.5,Win32,60.24096386,56bd7bf3d4e2180005a86846,666b5f73dbba3f0cd916b177,666c6faf10c451b9be0de405,,,,,,,,,,,,,,,,,,,,,,,,,,,,,,,,,,,,,,,,,,,,1345.9342,1444.5906,3.201481041,98.622,0,9,9,13,1,song_indices/ItsAllInTheGame_TommyEdwards.csv,,,,,,,,,,,,,,,,,,,,,,,,,,,,,,,,,,,,,,,,,,,,,,
,,,,,714122,001,2024-06-14_09h35.35.742,experiment,2024.1.5,Win32,60.24096386,56bd7bf3d4e2180005a86846,666b5f73dbba3f0cd916b177,666c6faf10c451b9be0de405,,,,,,,,,,,,,,,,,,,,,,,,,,,,,,,,,,,,1444.5914,1450.5173,0,0,0,0,1,SoundStimuli/StandByMe_BenEKing_Original5S.wav,,,,,,,,,,,,,,,,,,,,,,,,,,,,,,,,,,,,,,,,,,,,,,,,,,,,,,,,
,,,,,714122,001,2024-06-14_09h35.35.742,experiment,2024.1.5,Win32,60.24096386,56bd7bf3d4e2180005a86846,666b5f73dbba3f0cd916b177,666c6faf10c451b9be0de405,,,,,,,,,,,,,,,,,,,,,,,,,,,,,,,,,,,,1450.5285,1456.548,0,1,1,1,1,SoundStimuli/StandByMe_BenEKing_Cover5S.wav,,,,,,,,,,,,,,,,,,,,,,,,,,,,,,,,,,,,,,,,,,,,,,,,,,,,,,,,
,,,,,714122,001,2024-06-14_09h35.35.742,experiment,2024.1.5,Win32,60.24096386,56bd7bf3d4e2180005a86846,666b5f73dbba3f0cd916b177,666c6faf10c451b9be0de405,,,,,,,,,,,,,,,,,,,,,,,,,,,,,,,,,,,,,,,,,,,,1456.5485,1463.328,2.957472898,6.7329,0,10,10,1,1,song_indices/StandByMe_BenEKing.csv,,,,,,,,,,,,,,,,,,,,,,,,,,,,,,,,,,,,,,,,,,,,,,
,,,,,714122,001,2024-06-14_09h35.35.742,experiment,2024.1.5,Win32,60.24096386,56bd7bf3d4e2180005a86846,666b5f73dbba3f0cd916b177,666c6faf10c451b9be0de405,,,,,,,,,,,,,,,,,,,,,,,,,,,,,,,,,,,,1463.3294,1469.031,0,0,0,1,1,SoundStimuli/BetteDavisEyes_KimCarnes_Cover5S.wav,,,,,,,,,,,,,,,,,,,,,,,,,,,,,,,,,,,,,,,,,,,,,,,,,,,,,,,,
,,,,,714122,001,2024-06-14_09h35.35.742,experiment,2024.1.5,Win32,60.24096386,56bd7bf3d4e2180005a86846,666b5f73dbba3f0cd916b177,666c6faf10c451b9be0de405,,,,,,,,,,,,,,,,,,,,,,,,,,,,,,,,,,,,1469.0464,1475.2434,0,1,1,0,1,SoundStimuli/BetteDavisEyes_KimCarnes_Original5S.wav,,,,,,,,,,,,,,,,,,,,,,,,,,,,,,,,,,,,,,,,,,,,,,,,,,,,,,,,
,,,,,714122,001,2024-06-14_09h35.35.742,experiment,2024.1.5,Win32,60.24096386,56bd7bf3d4e2180005a86846,666b5f73dbba3f0cd916b177,666c6faf10c451b9be0de405,,,,,,,,,,,,,,,,,,,,,,,,,,,,,,,,,,,,,,,,,,,,1475.2441,1476.1086,5.979845655,0.8237,0,11,11,5,1,song_indices/BetteDavisEyes_KimCarnes.csv,,,,,,,,,,,,,,,,,,,,,,,,,,,,,,,,,,,,,,,,,,,,,,
,,,,,714122,001,2024-06-14_09h35.35.742,experiment,2024.1.5,Win32,60.24096386,56bd7bf3d4e2180005a86846,666b5f73dbba3f0cd916b177,666c6faf10c451b9be0de405,,,,,,,,,,,,,,,,,,,,,,,,,,,,,,,,,,,,1476.1102,1482.3546,0,0,0,0,1,SoundStimuli/Fallin_AliciaKeys_Original5S.wav,,,,,,,,,,,,,,,,,,,,,,,,,,,,,,,,,,,,,,,,,,,,,,,,,,,,,,,,
,,,,,714122,001,2024-06-14_09h35.35.742,experiment,2024.1.5,Win32,60.24096386,56bd7bf3d4e2180005a86846,666b5f73dbba3f0cd916b177,666c6faf10c451b9be0de405,,,,,,,,,,,,,,,,,,,,,,,,,,,,,,,,,,,,1482.3901,1488.8324,0,1,1,1,1,SoundStimuli/Fallin_AliciaKeys_Cover5S.wav,,,,,,,,,,,,,,,,,,,,,,,,,,,,,,,,,,,,,,,,,,,,,,,,,,,,,,,,
,,,,,714122,001,2024-06-14_09h35.35.742,experiment,2024.1.5,Win32,60.24096386,56bd7bf3d4e2180005a86846,666b5f73dbba3f0cd916b177,666c6faf10c451b9be0de405,,,,,,,,,,,,,,,,,,,,,,,,,,,,,,,,,,,,,,,,,,,,1488.8335,1489.7309,6.129577924,0.8515,0,12,12,12,1,song_indices/Fallin_AliciaKeys.csv,,,,,,,,,,,,,,,,,,,,,,,,,,,,,,,,,,,,,,,,,,,,,,
,,,,,714122,001,2024-06-14_09h35.35.742,experiment,2024.1.5,Win32,60.24096386,56bd7bf3d4e2180005a86846,666b5f73dbba3f0cd916b177,666c6faf10c451b9be0de405,,,,,,,,,,,,,,,,,,,,,,,,,,,,,,,,,,,,1489.732,1495.6765,0,0,0,0,1,SoundStimuli/EyeOfTheTiger_Survivor_Original5S.wav,,,,,,,,,,,,,,,,,,,,,,,,,,,,,,,,,,,,,,,,,,,,,,,,,,,,,,,,
,,,,,714122,001,2024-06-14_09h35.35.742,experiment,2024.1.5,Win32,60.24096386,56bd7bf3d4e2180005a86846,666b5f73dbba3f0cd916b177,666c6faf10c451b9be0de405,,,,,,,,,,,,,,,,,,,,,,,,,,,,,,,,,,,,1495.7096,1501.8563,0,1,1,1,1,SoundStimuli/EyeOfTheTiger_Survivor_Cover5S.wav,,,,,,,,,,,,,,,,,,,,,,,,,,,,,,,,,,,,,,,,,,,,,,,,,,,,,,,,
,,,,,714122,001,2024-06-14_09h35.35.742,experiment,2024.1.5,Win32,60.24096386,56bd7bf3d4e2180005a86846,666b5f73dbba3f0cd916b177,666c6faf10c451b9be0de405,,,,,,,,,,,,,,,,,,,,,,,,,,,,,,,,,,,,,,,,,,,,1501.8568,1513.4132,5.519557568,11.5152,0,13,13,11,1,song_indices/EyeOfTheTiger_Survivor.csv,,,,,,,,,,,,,,,,,,,,,,,,,,,,,,,,,,,,,,,,,,,,,,
,,,,,714122,001,2024-06-14_09h35.35.742,experiment,2024.1.5,Win32,60.24096386,56bd7bf3d4e2180005a86846,666b5f73dbba3f0cd916b177,666c6faf10c451b9be0de405,,,,,,,,,,,,,,,,,,,,,,,,,,,,,,,,,,,,1513.4141,1519.7579,0,0,0,1,1,SoundStimuli/ShapeofYou_EdSheeran_Cover5S.wav,,,,,,,,,,,,,,,,,,,,,,,,,,,,,,,,,,,,,,,,,,,,,,,,,,,,,,,,
,,,,,714122,001,2024-06-14_09h35.35.742,experiment,2024.1.5,Win32,60.24096386,56bd7bf3d4e2180005a86846,666b5f73dbba3f0cd916b177,666c6faf10c451b9be0de405,,,,,,,,,,,,,,,,,,,,,,,,,,,,,,,,,,,,1519.7949,1526.3352,0,1,1,0,1,SoundStimuli/ShapeofYou_EdSheeran_Original5S.wav,,,,,,,,,,,,,,,,,,,,,,,,,,,,,,,,,,,,,,,,,,,,,,,,,,,,,,,,
,,,,,714122,001,2024-06-14_09h35.35.742,experiment,2024.1.5,Win32,60.24096386,56bd7bf3d4e2180005a86846,666b5f73dbba3f0cd916b177,666c6faf10c451b9be0de405,,,,,,,,,,,,,,,,,,,,,,,,,,,,,,,,,,,,,,,,,,,,1526.3363,1540.14,5.519557568,13.7604,0,14,14,21,1,song_indices/ShapeofYou_EdSheeran.csv,,,,,,,,,,,,,,,,,,,,,,,,,,,,,,,,,,,,,,,,,,,,,,
,,,,,714122,001,2024-06-14_09h35.35.742,experiment,2024.1.5,Win32,60.24096386,56bd7bf3d4e2180005a86846,666b5f73dbba3f0cd916b177,666c6faf10c451b9be0de405,,,,,,,,,,,,,,,,,,,,,,,,,,,,,,,,,,,,1540.1409,1546.9019,0,0,0,0,1,SoundStimuli/PartyRockAnthem_LMFAO_Original5S.wav,,,,,,,,,,,,,,,,,,,,,,,,,,,,,,,,,,,,,,,,,,,,,,,,,,,,,,,,
,,,,,714122,001,2024-06-14_09h35.35.742,experiment,2024.1.5,Win32,60.24096386,56bd7bf3d4e2180005a86846,666b5f73dbba3f0cd916b177,666c6faf10c451b9be0de405,,,,,,,,,,,,,,,,,,,,,,,,,,,,,,,,,,,,1546.9428,1553.7175,0,1,1,1,1,SoundStimuli/PartyRockAnthem_LMFAO_Cover5S.wav,,,,,,,,,,,,,,,,,,,,,,,,,,,,,,,,,,,,,,,,,,,,,,,,,,,,,,,,
,,,,,714122,001,2024-06-14_09h35.35.742,experiment,2024.1.5,Win32,60.24096386,56bd7bf3d4e2180005a86846,666b5f73dbba3f0cd916b177,666c6faf10c451b9be0de405,,,,,,,,,,,,,,,,,,,,,,,,,,,,,,,,,,,,,,,,,,,,1553.7181,1568.4163,5.780202629,14.6611,0,15,15,2,1,song_indices/PartyRockAnthem_LMFAO.csv,,,,,,,,,,,,,,,,,,,,,,,,,,,,,,,,,,,,,,,,,,,,,,
,,,,,714122,001,2024-06-14_09h35.35.742,experiment,2024.1.5,Win32,60.24096386,56bd7bf3d4e2180005a86846,666b5f73dbba3f0cd916b177,666c6faf10c451b9be0de405,,,,,,,,,,,,,,,,,,,,,,,,,,,,,,,,,,,,1568.4173,1577.3593,0,0,0,1,1,SoundStimuli/HeyYa_Outkast_Cover5S.wav,,,,,,,,,,,,,,,,,,,,,,,,,,,,,,,,,,,,,,,,,,,,,,,,,,,,,,,,
,,,,,714122,001,2024-06-14_09h35.35.742,experiment,2024.1.5,Win32,60.24096386,56bd7bf3d4e2180005a86846,666b5f73dbba3f0cd916b177,666c6faf10c451b9be0de405,,,,,,,,,,,,,,,,,,,,,,,,,,,,,,,,,,,,1577.3952,1583.7378,0,1,1,0,1,SoundStimuli/HeyYa_Outkast_Original5S.wav,,,,,,,,,,,,,,,,,,,,,,,,,,,,,,,,,,,,,,,,,,,,,,,,,,,,,,,,
,,,,,714122,001,2024-06-14_09h35.35.742,experiment,2024.1.5,Win32,60.24096386,56bd7bf3d4e2180005a86846,666b5f73dbba3f0cd916b177,666c6faf10c451b9be0de405,,,,,,,,,,,,,,,,,,,,,,,,,,,,,,,,,,,,,,,,,,,,1583.7389,1591.3804,5.247822333,7.5958,0,16,16,22,1,song_indices/HeyYa_Outkast.csv,,,,,,,,,,,,,,,,,,,,,,,,,,,,,,,,,,,,,,,,,,,,,,
,,,,,714122,001,2024-06-14_09h35.35.742,experiment,2024.1.5,Win32,60.24096386,56bd7bf3d4e2180005a86846,666b5f73dbba3f0cd916b177,666c6faf10c451b9be0de405,,,,,,,,,,,,,,,,,,,,,,,,,,,,,,,,,,,,1591.3817,1597.3509,0,0,0,1,1,SoundStimuli/IWillAlwaysLoveYou_WhitneyHouston_Cover5S.wav,,,,,,,,,,,,,,,,,,,,,,,,,,,,,,,,,,,,,,,,,,,,,,,,,,,,,,,,
,,,,,714122,001,2024-06-14_09h35.35.742,experiment,2024.1.5,Win32,60.24096386,56bd7bf3d4e2180005a86846,666b5f73dbba3f0cd916b177,666c6faf10c451b9be0de405,,,,,,,,,,,,,,,,,,,,,,,,,,,,,,,,,,,,1597.352,1603.7373,0,1,1,0,1,SoundStimuli/IWillAlwaysLoveYou_WhitneyHouston_Original5S.wav,,,,,,,,,,,,,,,,,,,,,,,,,,,,,,,,,,,,,,,,,,,,,,,,,,,,,,,,
,,,,,714122,001,2024-06-14_09h35.35.742,experiment,2024.1.5,Win32,60.24096386,56bd7bf3d4e2180005a86846,666b5f73dbba3f0cd916b177,666c6faf10c451b9be0de405,,,,,,,,,,,,,,,,,,,,,,,,,,,,,,,,,,,,,,,,,,,,1603.7382,1605.0525,6.007573853,1.2729,0,17,17,10,1,song_indices/IWillAlwaysLoveYou_WhitneyHouston.csv,,,,,,,,,,,,,,,,,,,,,,,,,,,,,,,,,,,,,,,,,,,,,,
,,,,,714122,001,2024-06-14_09h35.35.742,experiment,2024.1.5,Win32,60.24096386,56bd7bf3d4e2180005a86846,666b5f73dbba3f0cd916b177,666c6faf10c451b9be0de405,,,,,,,,,,,,,,,,,,,,,,,,,,,,,,,,,,,,1605.0541,1612.4138,0,0,0,0,1,SoundStimuli/Happy_PharellWilliams_Original5S.wav,,,,,,,,,,,,,,,,,,,,,,,,,,,,,,,,,,,,,,,,,,,,,,,,,,,,,,,,
,,,,,714122,001,2024-06-14_09h35.35.742,experiment,2024.1.5,Win32,60.24096386,56bd7bf3d4e2180005a86846,666b5f73dbba3f0cd916b177,666c6faf10c451b9be0de405,,,,,,,,,,,,,,,,,,,,,,,,,,,,,,,,,,,,1612.4517,1619.7966,0,1,1,1,1,SoundStimuli/Happy_PharellWilliams_Cover5S.wav,,,,,,,,,,,,,,,,,,,,,,,,,,,,,,,,,,,,,,,,,,,,,,,,,,,,,,,,
,,,,,714122,001,2024-06-14_09h35.35.742,experiment,2024.1.5,Win32,60.24096386,56bd7bf3d4e2180005a86846,666b5f73dbba3f0cd916b177,666c6faf10c451b9be0de405,,,,,,,,,,,,,,,,,,,,,,,,,,,,,,,,,,,,,,,,,,,,1619.7972,1620.9076,5.519557568,1.0703,0,18,18,7,1,song_indices/Happy_PharellWilliams.csv,,,,,,,,,,,,,,,,,,,,,,,,,,,,,,,,,,,,,,,,,,,,,,
,,,,,714122,001,2024-06-14_09h35.35.742,experiment,2024.1.5,Win32,60.24096386,56bd7bf3d4e2180005a86846,666b5f73dbba3f0cd916b177,666c6faf10c451b9be0de405,,,,,,,,,,,,,,,,,,,,,,,,,,,,,,,,,,,,1620.9089,1626.853,0,0,0,1,1,SoundStimuli/TheBoyIsMine_BrandyMonica_Cover5S.wav,,,,,,,,,,,,,,,,,,,,,,,,,,,,,,,,,,,,,,,,,,,,,,,,,,,,,,,,
,,,,,714122,001,2024-06-14_09h35.35.742,experiment,2024.1.5,Win32,60.24096386,56bd7bf3d4e2180005a86846,666b5f73dbba3f0cd916b177,666c6faf10c451b9be0de405,,,,,,,,,,,,,,,,,,,,,,,,,,,,,,,,,,,,1626.9184,1633.1468,0,1,1,0,1,SoundStimuli/TheBoyIsMine_BrandyMonica_Original5S.wav,,,,,,,,,,,,,,,,,,,,,,,,,,,,,,,,,,,,,,,,,,,,,,,,,,,,,,,,
,,,,,714122,001,2024-06-14_09h35.35.742,experiment,2024.1.5,Win32,60.24096386,56bd7bf3d4e2180005a86846,666b5f73dbba3f0cd916b177,666c6faf10c451b9be0de405,,,,,,,,,,,,,,,,,,,,,,,,,,,,,,,,,,,,,,,,,,,,1633.1474,1639.2931,5.3420971,6.1115,0,19,19,6,1,song_indices/TheBoyIsMine_BrandyMonica.csv,,,,,,,,,,,,,,,,,,,,,,,,,,,,,,,,,,,,,,,,,,,,,,
,,,,,714122,001,2024-06-14_09h35.35.742,experiment,2024.1.5,Win32,60.24096386,56bd7bf3d4e2180005a86846,666b5f73dbba3f0cd916b177,666c6faf10c451b9be0de405,,,,,,,,,,,,,,,,,,,,,,,,,,,,,,,,,,,,1639.2941,1646.3365,0,0,0,1,1,SoundStimuli/UptownFunk_MarkRonson_Cover5S.wav,,,,,,,,,,,,,,,,,,,,,,,,,,,,,,,,,,,,,,,,,,,,,,,,,,,,,,,,
,,,,,714122,001,2024-06-14_09h35.35.742,experiment,2024.1.5,Win32,60.24096386,56bd7bf3d4e2180005a86846,666b5f73dbba3f0cd916b177,666c6faf10c451b9be0de405,,,,,,,,,,,,,,,,,,,,,,,,,,,,,,,,,,,,1646.3737,1653.6139,0,1,1,0,1,SoundStimuli/UptownFunk_MarkRonson_Original5S.wav,,,,,,,,,,,,,,,,,,,,,,,,,,,,,,,,,,,,,,,,,,,,,,,,,,,,,,,,
,,,,,714122,001,2024-06-14_09h35.35.742,experiment,2024.1.5,Win32,60.24096386,56bd7bf3d4e2180005a86846,666b5f73dbba3f0cd916b177,666c6faf10c451b9be0de405,,,,,,,,,,,,,,,,,,,,,,,,,,,,,,,,,,,,,,,,,,,,1653.6145,1655.0448,4.610073225,1.3834,0,20,20,15,1,song_indices/UptownFunk_MarkRonson.csv,,,,,,,,,,,,,,,,,,,,,,,,,,,,,,,,,,,,,,,,,,,,,,
,,,,,714122,001,2024-06-14_09h35.35.742,experiment,2024.1.5,Win32,60.24096386,56bd7bf3d4e2180005a86846,666b5f73dbba3f0cd916b177,666c6faf10c451b9be0de405,,,,,,,,,,,,,,,,,,,,,,,,,,,,,,,,,,,,1655.0462,1661.1907,0,0,0,1,1,SoundStimuli/RockWithYou_MichaelJackson_Cover5S.wav,,,,,,,,,,,,,,,,,,,,,,,,,,,,,,,,,,,,,,,,,,,,,,,,,,,,,,,,
,,,,,714122,001,2024-06-14_09h35.35.742,experiment,2024.1.5,Win32,60.24096386,56bd7bf3d4e2180005a86846,666b5f73dbba3f0cd916b177,666c6faf10c451b9be0de405,,,,,,,,,,,,,,,,,,,,,,,,,,,,,,,,,,,,1661.2299,1667.5697,0,1,1,0,1,SoundStimuli/RockWithYou_MichaelJackson_Original5S.wav,,,,,,,,,,,,,,,,,,,,,,,,,,,,,,,,,,,,,,,,,,,,,,,,,,,,,,,,
,,,,,714122,001,2024-06-14_09h35.35.742,experiment,2024.1.5,Win32,60.24096386,56bd7bf3d4e2180005a86846,666b5f73dbba3f0cd916b177,666c6faf10c451b9be0de405,,,,,,,,,,,,,,,,,,,,,,,,,,,,,,,,,,,,,,,,,,,,1667.5707,1668.2337,3.334576668,0.6239,0,21,21,16,1,song_indices/RockWithYou_MichaelJackson.csv,,,,,,,,,,,,,,,,,,,,,,,,,,,,,,,,,,,,,,,,,,,,,,
,,,,,714122,001,2024-06-14_09h35.35.742,experiment,2024.1.5,Win32,60.24096386,56bd7bf3d4e2180005a86846,666b5f73dbba3f0cd916b177,666c6faf10c451b9be0de405,,,,,,,,,,,,,,,,,,,,,,,,,,,,,,,,,,,,1668.2351,1674.7793,0,0,0,0,1,SoundStimuli/CrazyInLove_BeyonceFtJayZ_Original5S.wav,,,,,,,,,,,,,,,,,,,,,,,,,,,,,,,,,,,,,,,,,,,,,,,,,,,,,,,,
,,,,,714122,001,2024-06-14_09h35.35.742,experiment,2024.1.5,Win32,60.24096386,56bd7bf3d4e2180005a86846,666b5f73dbba3f0cd916b177,666c6faf10c451b9be0de405,,,,,,,,,,,,,,,,,,,,,,,,,,,,,,,,,,,,1674.8151,1685.0706,0,1,1,1,1,SoundStimuli/CrazyInLove_BeyonceFtJayZ_Cover5S.wav,,,,,,,,,,,,,,,,,,,,,,,,,,,,,,,,,,,,,,,,,,,,,,,,,,,,,,,,
,,,,,714122,001,2024-06-14_09h35.35.742,experiment,2024.1.5,Win32,60.24096386,56bd7bf3d4e2180005a86846,666b5f73dbba3f0cd916b177,666c6faf10c451b9be0de405,,,,,,,,,,,,,,,,,,,,,,,,,,,,,,,,,,,,,,,,,,,,1685.071,1692.6481,5.575013964,7.5426,0,22,22,3,1,song_indices/CrazyInLove_BeyonceFtJayZ.csv,,,,,,,,,,,,,,,,,,,,,,,,,,,,,,,,,,,,,,,,,,,,,,
,,,,,714122,001,2024-06-14_09h35.35.742,experiment,2024.1.5,Win32,60.24096386,56bd7bf3d4e2180005a86846,666b5f73dbba3f0cd916b177,666c6faf10c451b9be0de405,,,,,,,,,,,,,,,,,,,,,,,,,,,,,,,,,,,,,,,,,,,,,,,,,,,,,,1692.6481,1692.6481,,,,0,2,2,1,1,choose_song_b2.csv,,,,,,,,,,,,,,,,,,,,,,,,,,,,,,,,,,,
,,,,,714122,001,2024-06-14_09h35.35.742,experiment,2024.1.5,Win32,60.24096386,56bd7bf3d4e2180005a86846,666b5f73dbba3f0cd916b177,666c6faf10c451b9be0de405,,,,,,,,,,,,,,,,,,,,,,,,,,,,,,,,,,,,,,,,,,,,,,,,,,,,,,,,,,,,,,,,,39,Item 3,I have been in band and jazz band since the age of 13 . I play the alto saxophone ,Item 5,"Youtube , Amazon music ",6,I clean ,Often,Always,Rarely,Sometimes,Often,Rarely,Never,Never,Sometimes,Always,Never,Sometimes,Rarely,Always,Rarely,Often,Jazz ,r&B,disco,Over time I have realized that I like disco ,none,0,0,0,0,1,,
,,,,,714122,001,2024-06-14_09h35.35.742,experiment,2024.1.5,Win32,60.24096386,56bd7bf3d4e2180005a86846,666b5f73dbba3f0cd916b177,666c6faf10c451b9be0de405,,,,,,,,,,,,,,,,,,,,,,,,,,,,,,,,,,,,,,,,,,,,,,,,,,,,,,,,,,,,,,,,,,,,,,,,,,,,,,,,,,,,,,,,,,,,,,,,,,1882.9418,1884.7748
