welcome.started,welcome.stopped,space_to_continue.keys,space_to_continue.rt,space_to_continue.duration,participant,session,date,expName,psychopyVersion,OS,frameRate,PROLIFIC_PID,STUDY_ID,SESSION_ID,consent.consent,consent.consent_recontact,consent_check.started,consent_check.stopped,calibration_ready.started,calibration_ready.stopped,cal_ready.keys,cal_ready.rt,cal_ready.duration,calibration.started,calibration.stopped,mouse.x,mouse.y,mouse.leftButton,mouse.midButton,mouse.rightButton,mouse.time,mouse.clicked_name,move_on.keys,move_on.rt,move_on.duration,instructions.started,instructions.stopped,next.keys,next.rt,next.duration,practice_trial.started,practice_trial.stopped,practice_slider.response,practice_slider.rt,ready.started,ready.stopped,key_resp.keys,key_resp.rt,key_resp.duration,play_sound.started,play_sound.stopped,trials.thisRepN,trials.thisTrialN,trials.thisN,trials.thisIndex,trials.ran,orig_or_cover,rating.started,rating.stopped,slider.response,slider.rt,songs.thisRepN,songs.thisTrialN,songs.thisN,songs.thisIndex,songs.ran,song_id,short_break.started,short_break.stopped,space_to_move_on.keys,space_to_move_on.rt,space_to_move_on.duration,blocks.thisRepN,blocks.thisTrialN,blocks.thisN,blocks.thisIndex,blocks.ran,block,survey.age,survey.musician,survey.music_making,survey.listen_time,survey.medium,survey.music_seeking,survey.music_choice,survey.activities,survey.question1.Classic rock,survey.question1.Latin,survey.question1.Metal,survey.question1.Ambient,survey.question1.Folk/indie,survey.question1.Disco,survey.question1.Pop,survey.question1.Classical,survey.question1.Jazz,survey.question1.R&B,survey.question1.Country,survey.question1.Alternative rock,survey.question1.Electronic (EDM),survey.question1.A cappella,survey.question1.Hip hop,survey.question1.Reggae,survey.genres_ranked.text1,survey.genres_ranked.text2,survey.genres_ranked.text3,survey.habit_change,experiment.thisRepN,experiment.thisTrialN,experiment.thisN,experiment.thisIndex,experiment.ran,goodbye.started,goodbye.stopped
0.0004,2.2177,space,2.1089,0.0003,738562,001,2024-06-17_10h49.09.284,experiment,2024.1.5,Win32,10.01001001,5a3012083eff6600016f259c,667045947eb812cbdacbf325,66704ca58b5420009c673752,,,,,,,,,,,,,,,,,,,,,,,,,,,,,,,,,,,,,,,,,,,,,,,,,,,,,,,,,,,,,,,,,,,,,,,,,,,,,,,,,,,,,,,,,,,,,,,,,,,
,,,,,738562,001,2024-06-17_10h49.09.284,experiment,2024.1.5,Win32,10.01001001,5a3012083eff6600016f259c,667045947eb812cbdacbf325,66704ca58b5420009c673752,yes,yes,,,,,,,,,,,,,,,,,,,,,,,,,,,,,,,,,,,,,,,,,,,,,,,,,,,,,,,,,,,,,,,,,,,,,,,,,,,,,,,,,,,,,,,,,,,,,,,,,
,,,,,738562,001,2024-06-17_10h49.09.284,experiment,2024.1.5,Win32,10.01001001,5a3012083eff6600016f259c,667045947eb812cbdacbf325,66704ca58b5420009c673752,,,12.9322,12.9324,,,,,,,,,,,,,,,,,,,,,,,,,,,,,,,,,,,,,,,,,,,,,,,,,,,,,,,,,,,,,,,,,,,,,,,,,,,,,,,,,,,,,,,,,,,,,,,
,,,,,738562,001,2024-06-17_10h49.09.284,experiment,2024.1.5,Win32,10.01001001,5a3012083eff6600016f259c,667045947eb812cbdacbf325,66704ca58b5420009c673752,,,,,12.9335,17.2304,space,4.1785,0.0003,17.2305,106.5608,"[-0.012037037037037037,-0.025,-0.03796296296296296,-0.008333333333333333,-0.000925925925925926,0.5601851851851852,-0.006481481481481481,0.6324074074074074,0.725,0.5546296296296296,-0.7712962962962963,0.9031556039173014,-0.04351851851851852,0.5981481481481481,-0.32752992383025026,0.5538628944504896,0.48313384113166485,-0.03333333333333333,-0.025925925925925925,0.5509259259259259,0.575925925925926,0.08796296296296297,0.003703703703703704,0.003703703703703704,0.003703703703703704,0.002777777777777778,0.000925925925925926,0.1425925925925926,0.42592592592592593,0.7768518518518519,0.7620370370370371,0.39444444444444443]","[-0.44074074074074077,-0.41944444444444445,-0.4148148148148148,-0.4212962962962963,-0.41944444444444445,0.15462962962962962,-0.44074074074074077,-0.3111111111111111,-0.3527777777777778,-0.44537037037037036,-0.3787037037037037,0.25952121871599565,-0.42777777777777776,0.15833333333333333,0.4390642002176279,-0.05277475516866159,0.1311207834602829,-0.4166666666666667,-0.45740740740740743,-0.19166666666666668,-0.1175925925925926,-0.4527777777777778,-0.43425925925925923,-0.43425925925925923,-0.43425925925925923,-0.43425925925925923,-0.4361111111111111,0.06851851851851852,-0.39537037037037037,-0.2777777777777778,-0.4546296296296296,-0.03333333333333333]","[1,1,1,1,1,1,1,1,1,1,1,1,1,1,1,1,1,1,1,1,1,1,1,1,1,1,1,1,1,1,1,1]","[0,0,0,0,0,0,0,0,0,0,0,0,0,0,0,0,0,0,0,0,0,0,0,0,0,0,0,0,0,0,0,0]","[0,0,0,0,0,0,0,0,0,0,0,0,0,0,0,0,0,0,0,0,0,0,0,0,0,0,0,0,0,0,0,0]","[12.336199999988082,32.73109999996424,43.904299999952315,51.85279999995231,53.76039999997616,54.47029999995232,64.36749999999999,64.76739999997615,65.04879999995232,65.46739999997617,66.17189999997616,70.15989999997616,71.94109999996424,72.77819999998808,73.88269999998808,75.10799999999999,77.84809999996425,80.83439999997616,81.61629999995232,82.15809999996425,82.56739999997616,82.986,83.27129999995232,83.93119999998807,84.45509999996425,85.13669999998807,85.66949999999999,86.217,86.63059999996425,87.03219999998807,87.71909999996423,88.539]","[""play_button"",""play_button"",""play_button"",""play_button"",""play_button"",""play_button"",""play_button"",""play_button"",""play_button"",""play_button""]",right,79.1766,,106.561,120.1849,space,13.4957,,120.1851,135.4296,6.011111111,15.2375,135.4297,142.6487,space,7.1143,,142.6677,148.9208,0,0,0,1,1,SoundStimuli/StandByMe_BenEKing_Cover5S.wav,,,,,,,,,,,,,,,,,,,,,,,,,,,,,,,,,,,,,,,,,,,,,,,,,,,,,,,,
,,,,,738562,001,2024-06-17_10h49.09.284,experiment,2024.1.5,Win32,10.01001001,5a3012083eff6600016f259c,667045947eb812cbdacbf325,66704ca58b5420009c673752,,,,,,,,,,,,,,,,,,,,,,,,,,,,,,,,,,,,148.9289,155.0552,0,1,1,0,1,SoundStimuli/StandByMe_BenEKing_Original5S.wav,,,,,,,,,,,,,,,,,,,,,,,,,,,,,,,,,,,,,,,,,,,,,,,,,,,,,,,,
,,,,,738562,001,2024-06-17_10h49.09.284,experiment,2024.1.5,Win32,10.01001001,5a3012083eff6600016f259c,667045947eb812cbdacbf325,66704ca58b5420009c673752,,,,,,,,,,,,,,,,,,,,,,,,,,,,,,,,,,,,,,,,,,,,155.0633,157.9461,5.772222222,2.8821,0,0,0,1,1,song_indices/StandByMe_BenEKing.csv,,,,,,,,,,,,,,,,,,,,,,,,,,,,,,,,,,,,,,,,,,,,,,
,,,,,738562,001,2024-06-17_10h49.09.284,experiment,2024.1.5,Win32,10.01001001,5a3012083eff6600016f259c,667045947eb812cbdacbf325,66704ca58b5420009c673752,,,,,,,,,,,,,,,,,,,,,,,,,,,,,,,,,,,,157.9466,164.6872,0,0,0,0,1,SoundStimuli/CrazyInLove_BeyonceFtJayZ_Original5S.wav,,,,,,,,,,,,,,,,,,,,,,,,,,,,,,,,,,,,,,,,,,,,,,,,,,,,,,,,
,,,,,738562,001,2024-06-17_10h49.09.284,experiment,2024.1.5,Win32,10.01001001,5a3012083eff6600016f259c,667045947eb812cbdacbf325,66704ca58b5420009c673752,,,,,,,,,,,,,,,,,,,,,,,,,,,,,,,,,,,,164.6932,175.1523,0,1,1,1,1,SoundStimuli/CrazyInLove_BeyonceFtJayZ_Cover5S.wav,,,,,,,,,,,,,,,,,,,,,,,,,,,,,,,,,,,,,,,,,,,,,,,,,,,,,,,,
,,,,,738562,001,2024-06-17_10h49.09.284,experiment,2024.1.5,Win32,10.01001001,5a3012083eff6600016f259c,667045947eb812cbdacbf325,66704ca58b5420009c673752,,,,,,,,,,,,,,,,,,,,,,,,,,,,,,,,,,,,,,,,,,,,175.1524,177.335,4.683333333,2.1763,0,1,1,3,1,song_indices/CrazyInLove_BeyonceFtJayZ.csv,,,,,,,,,,,,,,,,,,,,,,,,,,,,,,,,,,,,,,,,,,,,,,
,,,,,738562,001,2024-06-17_10h49.09.284,experiment,2024.1.5,Win32,10.01001001,5a3012083eff6600016f259c,667045947eb812cbdacbf325,66704ca58b5420009c673752,,,,,,,,,,,,,,,,,,,,,,,,,,,,,,,,,,,,177.3356,183.6625,0,0,0,0,1,SoundStimuli/Stronger_KanyeWest_Original5S.wav,,,,,,,,,,,,,,,,,,,,,,,,,,,,,,,,,,,,,,,,,,,,,,,,,,,,,,,,
,,,,,738562,001,2024-06-17_10h49.09.284,experiment,2024.1.5,Win32,10.01001001,5a3012083eff6600016f259c,667045947eb812cbdacbf325,66704ca58b5420009c673752,,,,,,,,,,,,,,,,,,,,,,,,,,,,,,,,,,,,183.6684,190.1597,0,1,1,1,1,SoundStimuli/Stronger_KanyeWest_Cover5S.wav,,,,,,,,,,,,,,,,,,,,,,,,,,,,,,,,,,,,,,,,,,,,,,,,,,,,,,,,
,,,,,738562,001,2024-06-17_10h49.09.284,experiment,2024.1.5,Win32,10.01001001,5a3012083eff6600016f259c,667045947eb812cbdacbf325,66704ca58b5420009c673752,,,,,,,,,,,,,,,,,,,,,,,,,,,,,,,,,,,,,,,,,,,,190.1597,196.6903,4.988888889,6.5187,0,2,2,9,1,song_indices/Stronger_KanyeWest.csv,,,,,,,,,,,,,,,,,,,,,,,,,,,,,,,,,,,,,,,,,,,,,,
,,,,,738562,001,2024-06-17_10h49.09.284,experiment,2024.1.5,Win32,10.01001001,5a3012083eff6600016f259c,667045947eb812cbdacbf325,66704ca58b5420009c673752,,,,,,,,,,,,,,,,,,,,,,,,,,,,,,,,,,,,196.6907,203.243,0,0,0,1,1,SoundStimuli/GoodGollyMissMolly_LittleRichard_Cover5S.wav,,,,,,,,,,,,,,,,,,,,,,,,,,,,,,,,,,,,,,,,,,,,,,,,,,,,,,,,
,,,,,738562,001,2024-06-17_10h49.09.284,experiment,2024.1.5,Win32,10.01001001,5a3012083eff6600016f259c,667045947eb812cbdacbf325,66704ca58b5420009c673752,,,,,,,,,,,,,,,,,,,,,,,,,,,,,,,,,,,,203.2489,209.4863,0,1,1,0,1,SoundStimuli/GoodGollyMissMolly_LittleRichard_Original5S.wav,,,,,,,,,,,,,,,,,,,,,,,,,,,,,,,,,,,,,,,,,,,,,,,,,,,,,,,,
,,,,,738562,001,2024-06-17_10h49.09.284,experiment,2024.1.5,Win32,10.01001001,5a3012083eff6600016f259c,667045947eb812cbdacbf325,66704ca58b5420009c673752,,,,,,,,,,,,,,,,,,,,,,,,,,,,,,,,,,,,,,,,,,,,209.4864,211.9098,4.483333333,2.4171,0,3,3,0,1,song_indices/GoodGollyMissMolly_LittleRichard.csv,,,,,,,,,,,,,,,,,,,,,,,,,,,,,,,,,,,,,,,,,,,,,,
,,,,,738562,001,2024-06-17_10h49.09.284,experiment,2024.1.5,Win32,10.01001001,5a3012083eff6600016f259c,667045947eb812cbdacbf325,66704ca58b5420009c673752,,,,,,,,,,,,,,,,,,,,,,,,,,,,,,,,,,,,211.9104,218.3661,0,0,0,0,1,SoundStimuli/RockWithYou_MichaelJackson_Original5S.wav,,,,,,,,,,,,,,,,,,,,,,,,,,,,,,,,,,,,,,,,,,,,,,,,,,,,,,,,
,,,,,738562,001,2024-06-17_10h49.09.284,experiment,2024.1.5,Win32,10.01001001,5a3012083eff6600016f259c,667045947eb812cbdacbf325,66704ca58b5420009c673752,,,,,,,,,,,,,,,,,,,,,,,,,,,,,,,,,,,,218.3739,224.6181,0,1,1,1,1,SoundStimuli/RockWithYou_MichaelJackson_Cover5S.wav,,,,,,,,,,,,,,,,,,,,,,,,,,,,,,,,,,,,,,,,,,,,,,,,,,,,,,,,
,,,,,738562,001,2024-06-17_10h49.09.284,experiment,2024.1.5,Win32,10.01001001,5a3012083eff6600016f259c,667045947eb812cbdacbf325,66704ca58b5420009c673752,,,,,,,,,,,,,,,,,,,,,,,,,,,,,,,,,,,,,,,,,,,,224.6183,229.3678,6.005555556,4.7429,0,4,4,16,1,song_indices/RockWithYou_MichaelJackson.csv,,,,,,,,,,,,,,,,,,,,,,,,,,,,,,,,,,,,,,,,,,,,,,
,,,,,738562,001,2024-06-17_10h49.09.284,experiment,2024.1.5,Win32,10.01001001,5a3012083eff6600016f259c,667045947eb812cbdacbf325,66704ca58b5420009c673752,,,,,,,,,,,,,,,,,,,,,,,,,,,,,,,,,,,,229.3683,235.7794,0,0,0,0,1,SoundStimuli/Fallin_AliciaKeys_Original5S.wav,,,,,,,,,,,,,,,,,,,,,,,,,,,,,,,,,,,,,,,,,,,,,,,,,,,,,,,,
,,,,,738562,001,2024-06-17_10h49.09.284,experiment,2024.1.5,Win32,10.01001001,5a3012083eff6600016f259c,667045947eb812cbdacbf325,66704ca58b5420009c673752,,,,,,,,,,,,,,,,,,,,,,,,,,,,,,,,,,,,235.7853,242.4062,0,1,1,1,1,SoundStimuli/Fallin_AliciaKeys_Cover5S.wav,,,,,,,,,,,,,,,,,,,,,,,,,,,,,,,,,,,,,,,,,,,,,,,,,,,,,,,,
,,,,,738562,001,2024-06-17_10h49.09.284,experiment,2024.1.5,Win32,10.01001001,5a3012083eff6600016f259c,667045947eb812cbdacbf325,66704ca58b5420009c673752,,,,,,,,,,,,,,,,,,,,,,,,,,,,,,,,,,,,,,,,,,,,242.4062,246.2266,6.066666667,3.8141,0,5,5,12,1,song_indices/Fallin_AliciaKeys.csv,,,,,,,,,,,,,,,,,,,,,,,,,,,,,,,,,,,,,,,,,,,,,,
,,,,,738562,001,2024-06-17_10h49.09.284,experiment,2024.1.5,Win32,10.01001001,5a3012083eff6600016f259c,667045947eb812cbdacbf325,66704ca58b5420009c673752,,,,,,,,,,,,,,,,,,,,,,,,,,,,,,,,,,,,246.2271,252.9093,0,0,0,0,1,SoundStimuli/ShapeofYou_EdSheeran_Original5S.wav,,,,,,,,,,,,,,,,,,,,,,,,,,,,,,,,,,,,,,,,,,,,,,,,,,,,,,,,
,,,,,738562,001,2024-06-17_10h49.09.284,experiment,2024.1.5,Win32,10.01001001,5a3012083eff6600016f259c,667045947eb812cbdacbf325,66704ca58b5420009c673752,,,,,,,,,,,,,,,,,,,,,,,,,,,,,,,,,,,,252.9152,259.3869,0,1,1,1,1,SoundStimuli/ShapeofYou_EdSheeran_Cover5S.wav,,,,,,,,,,,,,,,,,,,,,,,,,,,,,,,,,,,,,,,,,,,,,,,,,,,,,,,,
,,,,,738562,001,2024-06-17_10h49.09.284,experiment,2024.1.5,Win32,10.01001001,5a3012083eff6600016f259c,667045947eb812cbdacbf325,66704ca58b5420009c673752,,,,,,,,,,,,,,,,,,,,,,,,,,,,,,,,,,,,,,,,,,,,259.3869,269.7364,5.211111111,10.3433,0,6,6,21,1,song_indices/ShapeofYou_EdSheeran.csv,,,,,,,,,,,,,,,,,,,,,,,,,,,,,,,,,,,,,,,,,,,,,,
,,,,,738562,001,2024-06-17_10h49.09.284,experiment,2024.1.5,Win32,10.01001001,5a3012083eff6600016f259c,667045947eb812cbdacbf325,66704ca58b5420009c673752,,,,,,,,,,,,,,,,,,,,,,,,,,,,,,,,,,,,269.7368,276.2073,0,0,0,1,1,SoundStimuli/NoOne_AliciaKeys_Cover5S.wav,,,,,,,,,,,,,,,,,,,,,,,,,,,,,,,,,,,,,,,,,,,,,,,,,,,,,,,,
,,,,,738562,001,2024-06-17_10h49.09.284,experiment,2024.1.5,Win32,10.01001001,5a3012083eff6600016f259c,667045947eb812cbdacbf325,66704ca58b5420009c673752,,,,,,,,,,,,,,,,,,,,,,,,,,,,,,,,,,,,276.2132,284.1241,0,1,1,0,1,SoundStimuli/NoOne_AliciaKeys_Original5S.wav,,,,,,,,,,,,,,,,,,,,,,,,,,,,,,,,,,,,,,,,,,,,,,,,,,,,,,,,
,,,,,738562,001,2024-06-17_10h49.09.284,experiment,2024.1.5,Win32,10.01001001,5a3012083eff6600016f259c,667045947eb812cbdacbf325,66704ca58b5420009c673752,,,,,,,,,,,,,,,,,,,,,,,,,,,,,,,,,,,,,,,,,,,,284.1242,286.433,4.561111111,2.3025,0,7,7,19,1,song_indices/NoOne_AliciaKeys.csv,,,,,,,,,,,,,,,,,,,,,,,,,,,,,,,,,,,,,,,,,,,,,,
,,,,,738562,001,2024-06-17_10h49.09.284,experiment,2024.1.5,Win32,10.01001001,5a3012083eff6600016f259c,667045947eb812cbdacbf325,66704ca58b5420009c673752,,,,,,,,,,,,,,,,,,,,,,,,,,,,,,,,,,,,286.4334,292.8644,0,0,0,0,1,SoundStimuli/TheBattleOfNewOrleans_JohnnyHorton_Original5S.wav,,,,,,,,,,,,,,,,,,,,,,,,,,,,,,,,,,,,,,,,,,,,,,,,,,,,,,,,
,,,,,738562,001,2024-06-17_10h49.09.284,experiment,2024.1.5,Win32,10.01001001,5a3012083eff6600016f259c,667045947eb812cbdacbf325,66704ca58b5420009c673752,,,,,,,,,,,,,,,,,,,,,,,,,,,,,,,,,,,,292.8702,301.0668,0,1,1,1,1,SoundStimuli/TheBattleOfNewOrleans_JohnnyHorton_Cover5S.wav,,,,,,,,,,,,,,,,,,,,,,,,,,,,,,,,,,,,,,,,,,,,,,,,,,,,,,,,
,,,,,738562,001,2024-06-17_10h49.09.284,experiment,2024.1.5,Win32,10.01001001,5a3012083eff6600016f259c,667045947eb812cbdacbf325,66704ca58b5420009c673752,,,,,,,,,,,,,,,,,,,,,,,,,,,,,,,,,,,,,,,,,,,,301.0668,303.522,2.966666667,2.4488,0,8,8,4,1,song_indices/TheBattleOfNewOrleans_JohnnyHorton.csv,,,,,,,,,,,,,,,,,,,,,,,,,,,,,,,,,,,,,,,,,,,,,,
,,,,,738562,001,2024-06-17_10h49.09.284,experiment,2024.1.5,Win32,10.01001001,5a3012083eff6600016f259c,667045947eb812cbdacbf325,66704ca58b5420009c673752,,,,,,,,,,,,,,,,,,,,,,,,,,,,,,,,,,,,303.5225,309.9422,0,0,0,0,1,SoundStimuli/TheBoyIsMine_BrandyMonica_Original5S.wav,,,,,,,,,,,,,,,,,,,,,,,,,,,,,,,,,,,,,,,,,,,,,,,,,,,,,,,,
,,,,,738562,001,2024-06-17_10h49.09.284,experiment,2024.1.5,Win32,10.01001001,5a3012083eff6600016f259c,667045947eb812cbdacbf325,66704ca58b5420009c673752,,,,,,,,,,,,,,,,,,,,,,,,,,,,,,,,,,,,309.9484,316.1269,0,1,1,1,1,SoundStimuli/TheBoyIsMine_BrandyMonica_Cover5S.wav,,,,,,,,,,,,,,,,,,,,,,,,,,,,,,,,,,,,,,,,,,,,,,,,,,,,,,,,
,,,,,738562,001,2024-06-17_10h49.09.284,experiment,2024.1.5,Win32,10.01001001,5a3012083eff6600016f259c,667045947eb812cbdacbf325,66704ca58b5420009c673752,,,,,,,,,,,,,,,,,,,,,,,,,,,,,,,,,,,,,,,,,,,,316.1271,317.128,7,0.9947,0,9,9,6,1,song_indices/TheBoyIsMine_BrandyMonica.csv,,,,,,,,,,,,,,,,,,,,,,,,,,,,,,,,,,,,,,,,,,,,,,
,,,,,738562,001,2024-06-17_10h49.09.284,experiment,2024.1.5,Win32,10.01001001,5a3012083eff6600016f259c,667045947eb812cbdacbf325,66704ca58b5420009c673752,,,,,,,,,,,,,,,,,,,,,,,,,,,,,,,,,,,,317.1285,324.1107,0,0,0,1,1,SoundStimuli/PartyRockAnthem_LMFAO_Cover5S.wav,,,,,,,,,,,,,,,,,,,,,,,,,,,,,,,,,,,,,,,,,,,,,,,,,,,,,,,,
,,,,,738562,001,2024-06-17_10h49.09.284,experiment,2024.1.5,Win32,10.01001001,5a3012083eff6600016f259c,667045947eb812cbdacbf325,66704ca58b5420009c673752,,,,,,,,,,,,,,,,,,,,,,,,,,,,,,,,,,,,324.117,331.0858,0,1,1,0,1,SoundStimuli/PartyRockAnthem_LMFAO_Original5S.wav,,,,,,,,,,,,,,,,,,,,,,,,,,,,,,,,,,,,,,,,,,,,,,,,,,,,,,,,
,,,,,738562,001,2024-06-17_10h49.09.284,experiment,2024.1.5,Win32,10.01001001,5a3012083eff6600016f259c,667045947eb812cbdacbf325,66704ca58b5420009c673752,,,,,,,,,,,,,,,,,,,,,,,,,,,,,,,,,,,,,,,,,,,,331.0859,332.8293,3.9,1.7368,0,10,10,2,1,song_indices/PartyRockAnthem_LMFAO.csv,,,,,,,,,,,,,,,,,,,,,,,,,,,,,,,,,,,,,,,,,,,,,,
,,,,,738562,001,2024-06-17_10h49.09.284,experiment,2024.1.5,Win32,10.01001001,5a3012083eff6600016f259c,667045947eb812cbdacbf325,66704ca58b5420009c673752,,,,,,,,,,,,,,,,,,,,,,,,,,,,,,,,,,,,332.8298,339.1061,0,0,0,0,1,SoundStimuli/GimmeShelter_RollingStones_Original5S.wav,,,,,,,,,,,,,,,,,,,,,,,,,,,,,,,,,,,,,,,,,,,,,,,,,,,,,,,,
,,,,,738562,001,2024-06-17_10h49.09.284,experiment,2024.1.5,Win32,10.01001001,5a3012083eff6600016f259c,667045947eb812cbdacbf325,66704ca58b5420009c673752,,,,,,,,,,,,,,,,,,,,,,,,,,,,,,,,,,,,339.1126,345.5242,0,1,1,1,1,SoundStimuli/GimmeShelter_RollingStones_Cover5S.wav,,,,,,,,,,,,,,,,,,,,,,,,,,,,,,,,,,,,,,,,,,,,,,,,,,,,,,,,
,,,,,738562,001,2024-06-17_10h49.09.284,experiment,2024.1.5,Win32,10.01001001,5a3012083eff6600016f259c,667045947eb812cbdacbf325,66704ca58b5420009c673752,,,,,,,,,,,,,,,,,,,,,,,,,,,,,,,,,,,,,,,,,,,,345.5243,348.0526,4.627777778,2.522,0,11,11,20,1,song_indices/GimmeShelter_RollingStones.csv,,,,,,,,,,,,,,,,,,,,,,,,,,,,,,,,,,,,,,,,,,,,,,
,,,,,738562,001,2024-06-17_10h49.09.284,experiment,2024.1.5,Win32,10.01001001,5a3012083eff6600016f259c,667045947eb812cbdacbf325,66704ca58b5420009c673752,,,,,,,,,,,,,,,,,,,,,,,,,,,,,,,,,,,,348.053,355.3393,0,0,0,1,1,SoundStimuli/IWalkTheLine_JohnnyCash_Cover5S.wav,,,,,,,,,,,,,,,,,,,,,,,,,,,,,,,,,,,,,,,,,,,,,,,,,,,,,,,,
,,,,,738562,001,2024-06-17_10h49.09.284,experiment,2024.1.5,Win32,10.01001001,5a3012083eff6600016f259c,667045947eb812cbdacbf325,66704ca58b5420009c673752,,,,,,,,,,,,,,,,,,,,,,,,,,,,,,,,,,,,355.3452,361.5695,0,1,1,0,1,SoundStimuli/IWalkTheLine_JohnnyCash_Original5S.wav,,,,,,,,,,,,,,,,,,,,,,,,,,,,,,,,,,,,,,,,,,,,,,,,,,,,,,,,
,,,,,738562,001,2024-06-17_10h49.09.284,experiment,2024.1.5,Win32,10.01001001,5a3012083eff6600016f259c,667045947eb812cbdacbf325,66704ca58b5420009c673752,,,,,,,,,,,,,,,,,,,,,,,,,,,,,,,,,,,,,,,,,,,,361.5695,363.6569,4.033333333,2.0812,0,12,12,17,1,song_indices/IWalkTheLine_JohnnyCash.csv,,,,,,,,,,,,,,,,,,,,,,,,,,,,,,,,,,,,,,,,,,,,,,
,,,,,738562,001,2024-06-17_10h49.09.284,experiment,2024.1.5,Win32,10.01001001,5a3012083eff6600016f259c,667045947eb812cbdacbf325,66704ca58b5420009c673752,,,,,,,,,,,,,,,,,,,,,,,,,,,,,,,,,,,,363.6574,370.0011,0,0,0,0,1,SoundStimuli/BetteDavisEyes_KimCarnes_Original5S.wav,,,,,,,,,,,,,,,,,,,,,,,,,,,,,,,,,,,,,,,,,,,,,,,,,,,,,,,,
,,,,,738562,001,2024-06-17_10h49.09.284,experiment,2024.1.5,Win32,10.01001001,5a3012083eff6600016f259c,667045947eb812cbdacbf325,66704ca58b5420009c673752,,,,,,,,,,,,,,,,,,,,,,,,,,,,,,,,,,,,370.0069,375.8676,0,1,1,1,1,SoundStimuli/BetteDavisEyes_KimCarnes_Cover5S.wav,,,,,,,,,,,,,,,,,,,,,,,,,,,,,,,,,,,,,,,,,,,,,,,,,,,,,,,,
,,,,,738562,001,2024-06-17_10h49.09.284,experiment,2024.1.5,Win32,10.01001001,5a3012083eff6600016f259c,667045947eb812cbdacbf325,66704ca58b5420009c673752,,,,,,,,,,,,,,,,,,,,,,,,,,,,,,,,,,,,,,,,,,,,375.8677,377.8462,5.122222222,1.9723,0,13,13,5,1,song_indices/BetteDavisEyes_KimCarnes.csv,,,,,,,,,,,,,,,,,,,,,,,,,,,,,,,,,,,,,,,,,,,,,,
,,,,,738562,001,2024-06-17_10h49.09.284,experiment,2024.1.5,Win32,10.01001001,5a3012083eff6600016f259c,667045947eb812cbdacbf325,66704ca58b5420009c673752,,,,,,,,,,,,,,,,,,,,,,,,,,,,,,,,,,,,377.8466,383.9747,0,0,0,1,1,SoundStimuli/IWillAlwaysLoveYou_WhitneyHouston_Cover5S.wav,,,,,,,,,,,,,,,,,,,,,,,,,,,,,,,,,,,,,,,,,,,,,,,,,,,,,,,,
,,,,,738562,001,2024-06-17_10h49.09.284,experiment,2024.1.5,Win32,10.01001001,5a3012083eff6600016f259c,667045947eb812cbdacbf325,66704ca58b5420009c673752,,,,,,,,,,,,,,,,,,,,,,,,,,,,,,,,,,,,383.9805,390.5844,0,1,1,0,1,SoundStimuli/IWillAlwaysLoveYou_WhitneyHouston_Original5S.wav,,,,,,,,,,,,,,,,,,,,,,,,,,,,,,,,,,,,,,,,,,,,,,,,,,,,,,,,
,,,,,738562,001,2024-06-17_10h49.09.284,experiment,2024.1.5,Win32,10.01001001,5a3012083eff6600016f259c,667045947eb812cbdacbf325,66704ca58b5420009c673752,,,,,,,,,,,,,,,,,,,,,,,,,,,,,,,,,,,,,,,,,,,,390.5844,391.8065,7,1.2152,0,14,14,10,1,song_indices/IWillAlwaysLoveYou_WhitneyHouston.csv,,,,,,,,,,,,,,,,,,,,,,,,,,,,,,,,,,,,,,,,,,,,,,
,,,,,738562,001,2024-06-17_10h49.09.284,experiment,2024.1.5,Win32,10.01001001,5a3012083eff6600016f259c,667045947eb812cbdacbf325,66704ca58b5420009c673752,,,,,,,,,,,,,,,,,,,,,,,,,,,,,,,,,,,,391.807,398.628,0,0,0,1,1,SoundStimuli/GetUrFreakOn_MissyElliot_Cover5S.wav,,,,,,,,,,,,,,,,,,,,,,,,,,,,,,,,,,,,,,,,,,,,,,,,,,,,,,,,
,,,,,738562,001,2024-06-17_10h49.09.284,experiment,2024.1.5,Win32,10.01001001,5a3012083eff6600016f259c,667045947eb812cbdacbf325,66704ca58b5420009c673752,,,,,,,,,,,,,,,,,,,,,,,,,,,,,,,,,,,,398.634,404.9545,0,1,1,0,1,SoundStimuli/GetUrFreakOn_MissyElliot_Original5S.wav,,,,,,,,,,,,,,,,,,,,,,,,,,,,,,,,,,,,,,,,,,,,,,,,,,,,,,,,
,,,,,738562,001,2024-06-17_10h49.09.284,experiment,2024.1.5,Win32,10.01001001,5a3012083eff6600016f259c,667045947eb812cbdacbf325,66704ca58b5420009c673752,,,,,,,,,,,,,,,,,,,,,,,,,,,,,,,,,,,,,,,,,,,,404.9546,406.938,3.622222222,1.9754,0,15,15,18,1,song_indices/GetUrFreakOn_MissyElliot.csv,,,,,,,,,,,,,,,,,,,,,,,,,,,,,,,,,,,,,,,,,,,,,,
,,,,,738562,001,2024-06-17_10h49.09.284,experiment,2024.1.5,Win32,10.01001001,5a3012083eff6600016f259c,667045947eb812cbdacbf325,66704ca58b5420009c673752,,,,,,,,,,,,,,,,,,,,,,,,,,,,,,,,,,,,406.9384,414.2935,0,0,0,0,1,SoundStimuli/UptownFunk_MarkRonson_Original5S.wav,,,,,,,,,,,,,,,,,,,,,,,,,,,,,,,,,,,,,,,,,,,,,,,,,,,,,,,,
,,,,,738562,001,2024-06-17_10h49.09.284,experiment,2024.1.5,Win32,10.01001001,5a3012083eff6600016f259c,667045947eb812cbdacbf325,66704ca58b5420009c673752,,,,,,,,,,,,,,,,,,,,,,,,,,,,,,,,,,,,414.2995,421.5168,0,1,1,1,1,SoundStimuli/UptownFunk_MarkRonson_Cover5S.wav,,,,,,,,,,,,,,,,,,,,,,,,,,,,,,,,,,,,,,,,,,,,,,,,,,,,,,,,
,,,,,738562,001,2024-06-17_10h49.09.284,experiment,2024.1.5,Win32,10.01001001,5a3012083eff6600016f259c,667045947eb812cbdacbf325,66704ca58b5420009c673752,,,,,,,,,,,,,,,,,,,,,,,,,,,,,,,,,,,,,,,,,,,,421.5169,422.845,5.972222222,1.3219,0,16,16,15,1,song_indices/UptownFunk_MarkRonson.csv,,,,,,,,,,,,,,,,,,,,,,,,,,,,,,,,,,,,,,,,,,,,,,
,,,,,738562,001,2024-06-17_10h49.09.284,experiment,2024.1.5,Win32,10.01001001,5a3012083eff6600016f259c,667045947eb812cbdacbf325,66704ca58b5420009c673752,,,,,,,,,,,,,,,,,,,,,,,,,,,,,,,,,,,,422.8454,429.2138,0,0,0,0,1,SoundStimuli/SmellsLikeTeenSpirit_Nirvana_Original5S.wav,,,,,,,,,,,,,,,,,,,,,,,,,,,,,,,,,,,,,,,,,,,,,,,,,,,,,,,,
,,,,,738562,001,2024-06-17_10h49.09.284,experiment,2024.1.5,Win32,10.01001001,5a3012083eff6600016f259c,667045947eb812cbdacbf325,66704ca58b5420009c673752,,,,,,,,,,,,,,,,,,,,,,,,,,,,,,,,,,,,429.2215,435.1552,0,1,1,1,1,SoundStimuli/SmellsLikeTeenSpirit_Nirvana_Cover5S.wav,,,,,,,,,,,,,,,,,,,,,,,,,,,,,,,,,,,,,,,,,,,,,,,,,,,,,,,,
,,,,,738562,001,2024-06-17_10h49.09.284,experiment,2024.1.5,Win32,10.01001001,5a3012083eff6600016f259c,667045947eb812cbdacbf325,66704ca58b5420009c673752,,,,,,,,,,,,,,,,,,,,,,,,,,,,,,,,,,,,,,,,,,,,435.1553,438.0913,5.344444444,2.9297,0,17,17,8,1,song_indices/SmellsLikeTeenSpirit_Nirvana.csv,,,,,,,,,,,,,,,,,,,,,,,,,,,,,,,,,,,,,,,,,,,,,,
,,,,,738562,001,2024-06-17_10h49.09.284,experiment,2024.1.5,Win32,10.01001001,5a3012083eff6600016f259c,667045947eb812cbdacbf325,66704ca58b5420009c673752,,,,,,,,,,,,,,,,,,,,,,,,,,,,,,,,,,,,438.0918,444.2404,0,0,0,0,1,SoundStimuli/EyeOfTheTiger_Survivor_Original5S.wav,,,,,,,,,,,,,,,,,,,,,,,,,,,,,,,,,,,,,,,,,,,,,,,,,,,,,,,,
,,,,,738562,001,2024-06-17_10h49.09.284,experiment,2024.1.5,Win32,10.01001001,5a3012083eff6600016f259c,667045947eb812cbdacbf325,66704ca58b5420009c673752,,,,,,,,,,,,,,,,,,,,,,,,,,,,,,,,,,,,444.2463,450.6209,0,1,1,1,1,SoundStimuli/EyeOfTheTiger_Survivor_Cover5S.wav,,,,,,,,,,,,,,,,,,,,,,,,,,,,,,,,,,,,,,,,,,,,,,,,,,,,,,,,
,,,,,738562,001,2024-06-17_10h49.09.284,experiment,2024.1.5,Win32,10.01001001,5a3012083eff6600016f259c,667045947eb812cbdacbf325,66704ca58b5420009c673752,,,,,,,,,,,,,,,,,,,,,,,,,,,,,,,,,,,,,,,,,,,,450.621,453.4617,4.727777778,2.8343,0,18,18,11,1,song_indices/EyeOfTheTiger_Survivor.csv,,,,,,,,,,,,,,,,,,,,,,,,,,,,,,,,,,,,,,,,,,,,,,
,,,,,738562,001,2024-06-17_10h49.09.284,experiment,2024.1.5,Win32,10.01001001,5a3012083eff6600016f259c,667045947eb812cbdacbf325,66704ca58b5420009c673752,,,,,,,,,,,,,,,,,,,,,,,,,,,,,,,,,,,,453.4622,459.7869,0,0,0,1,1,SoundStimuli/NoScrubs_TLC_Cover5S.wav,,,,,,,,,,,,,,,,,,,,,,,,,,,,,,,,,,,,,,,,,,,,,,,,,,,,,,,,
,,,,,738562,001,2024-06-17_10h49.09.284,experiment,2024.1.5,Win32,10.01001001,5a3012083eff6600016f259c,667045947eb812cbdacbf325,66704ca58b5420009c673752,,,,,,,,,,,,,,,,,,,,,,,,,,,,,,,,,,,,459.7927,466.1216,0,1,1,0,1,SoundStimuli/NoScrubs_TLC_Original5S.wav,,,,,,,,,,,,,,,,,,,,,,,,,,,,,,,,,,,,,,,,,,,,,,,,,,,,,,,,
,,,,,738562,001,2024-06-17_10h49.09.284,experiment,2024.1.5,Win32,10.01001001,5a3012083eff6600016f259c,667045947eb812cbdacbf325,66704ca58b5420009c673752,,,,,,,,,,,,,,,,,,,,,,,,,,,,,,,,,,,,,,,,,,,,466.1217,471.0676,5.055555556,4.9393,0,19,19,14,1,song_indices/NoScrubs_TLC.csv,,,,,,,,,,,,,,,,,,,,,,,,,,,,,,,,,,,,,,,,,,,,,,
,,,,,738562,001,2024-06-17_10h49.09.284,experiment,2024.1.5,Win32,10.01001001,5a3012083eff6600016f259c,667045947eb812cbdacbf325,66704ca58b5420009c673752,,,,,,,,,,,,,,,,,,,,,,,,,,,,,,,,,,,,471.068,480.2268,0,0,0,1,1,SoundStimuli/HeyYa_Outkast_Cover5S.wav,,,,,,,,,,,,,,,,,,,,,,,,,,,,,,,,,,,,,,,,,,,,,,,,,,,,,,,,
,,,,,738562,001,2024-06-17_10h49.09.284,experiment,2024.1.5,Win32,10.01001001,5a3012083eff6600016f259c,667045947eb812cbdacbf325,66704ca58b5420009c673752,,,,,,,,,,,,,,,,,,,,,,,,,,,,,,,,,,,,480.2328,486.6919,0,1,1,0,1,SoundStimuli/HeyYa_Outkast_Original5S.wav,,,,,,,,,,,,,,,,,,,,,,,,,,,,,,,,,,,,,,,,,,,,,,,,,,,,,,,,
,,,,,738562,001,2024-06-17_10h49.09.284,experiment,2024.1.5,Win32,10.01001001,5a3012083eff6600016f259c,667045947eb812cbdacbf325,66704ca58b5420009c673752,,,,,,,,,,,,,,,,,,,,,,,,,,,,,,,,,,,,,,,,,,,,486.692,492.0229,6.138888889,5.3246,0,20,20,22,1,song_indices/HeyYa_Outkast.csv,,,,,,,,,,,,,,,,,,,,,,,,,,,,,,,,,,,,,,,,,,,,,,
,,,,,738562,001,2024-06-17_10h49.09.284,experiment,2024.1.5,Win32,10.01001001,5a3012083eff6600016f259c,667045947eb812cbdacbf325,66704ca58b5420009c673752,,,,,,,,,,,,,,,,,,,,,,,,,,,,,,,,,,,,492.0234,498.4962,0,0,0,1,1,SoundStimuli/ItsAllInTheGame_TommyEdwards_Cover5S.wav,,,,,,,,,,,,,,,,,,,,,,,,,,,,,,,,,,,,,,,,,,,,,,,,,,,,,,,,
,,,,,738562,001,2024-06-17_10h49.09.284,experiment,2024.1.5,Win32,10.01001001,5a3012083eff6600016f259c,667045947eb812cbdacbf325,66704ca58b5420009c673752,,,,,,,,,,,,,,,,,,,,,,,,,,,,,,,,,,,,498.5021,504.9482,0,1,1,0,1,SoundStimuli/ItsAllInTheGame_TommyEdwards_Original5S.wav,,,,,,,,,,,,,,,,,,,,,,,,,,,,,,,,,,,,,,,,,,,,,,,,,,,,,,,,
,,,,,738562,001,2024-06-17_10h49.09.284,experiment,2024.1.5,Win32,10.01001001,5a3012083eff6600016f259c,667045947eb812cbdacbf325,66704ca58b5420009c673752,,,,,,,,,,,,,,,,,,,,,,,,,,,,,,,,,,,,,,,,,,,,504.9483,507.557,4.972222222,2.6007,0,21,21,13,1,song_indices/ItsAllInTheGame_TommyEdwards.csv,,,,,,,,,,,,,,,,,,,,,,,,,,,,,,,,,,,,,,,,,,,,,,
,,,,,738562,001,2024-06-17_10h49.09.284,experiment,2024.1.5,Win32,10.01001001,5a3012083eff6600016f259c,667045947eb812cbdacbf325,66704ca58b5420009c673752,,,,,,,,,,,,,,,,,,,,,,,,,,,,,,,,,,,,507.5575,515.1816,0,0,0,0,1,SoundStimuli/Happy_PharellWilliams_Original5S.wav,,,,,,,,,,,,,,,,,,,,,,,,,,,,,,,,,,,,,,,,,,,,,,,,,,,,,,,,
,,,,,738562,001,2024-06-17_10h49.09.284,experiment,2024.1.5,Win32,10.01001001,5a3012083eff6600016f259c,667045947eb812cbdacbf325,66704ca58b5420009c673752,,,,,,,,,,,,,,,,,,,,,,,,,,,,,,,,,,,,515.1878,522.7409,0,1,1,1,1,SoundStimuli/Happy_PharellWilliams_Cover5S.wav,,,,,,,,,,,,,,,,,,,,,,,,,,,,,,,,,,,,,,,,,,,,,,,,,,,,,,,,
,,,,,738562,001,2024-06-17_10h49.09.284,experiment,2024.1.5,Win32,10.01001001,5a3012083eff6600016f259c,667045947eb812cbdacbf325,66704ca58b5420009c673752,,,,,,,,,,,,,,,,,,,,,,,,,,,,,,,,,,,,,,,,,,,,522.741,524.3067,5.977777778,1.5577,0,22,22,7,1,song_indices/Happy_PharellWilliams.csv,,,,,,,,,,,,,,,,,,,,,,,,,,,,,,,,,,,,,,,,,,,,,,
,,,,,738562,001,2024-06-17_10h49.09.284,experiment,2024.1.5,Win32,10.01001001,5a3012083eff6600016f259c,667045947eb812cbdacbf325,66704ca58b5420009c673752,,,,,,,,,,,,,,,,,,,,,,,,,,,,,,,,,,,,,,,,,,,,,,,,,,,,,,524.307,577.5885,space,53.1647,0.0001,0,0,0,1,1,choose_song_b2.csv,,,,,,,,,,,,,,,,,,,,,,,,,,,,,,,,,,,
,,,,,738562,001,2024-06-17_10h49.09.284,experiment,2024.1.5,Win32,10.01001001,5a3012083eff6600016f259c,667045947eb812cbdacbf325,66704ca58b5420009c673752,,,,,,,,,,,,,,,,,,,,,,,,,,,,,,,,,,,,577.5957,584.3017,0,0,0,0,1,SoundStimuli/Dreams_FleetwoodMac_Original5S.wav,,,,,,,,,,,,,,,,,,,,,,,,,,,,,,,,,,,,,,,,,,,,,,,,,,,,,,,,
,,,,,738562,001,2024-06-17_10h49.09.284,experiment,2024.1.5,Win32,10.01001001,5a3012083eff6600016f259c,667045947eb812cbdacbf325,66704ca58b5420009c673752,,,,,,,,,,,,,,,,,,,,,,,,,,,,,,,,,,,,584.3078,592.2978,0,1,1,1,1,SoundStimuli/Dreams_FleetwoodMac_Cover5S.wav,,,,,,,,,,,,,,,,,,,,,,,,,,,,,,,,,,,,,,,,,,,,,,,,,,,,,,,,
,,,,,738562,001,2024-06-17_10h49.09.284,experiment,2024.1.5,Win32,10.01001001,5a3012083eff6600016f259c,667045947eb812cbdacbf325,66704ca58b5420009c673752,,,,,,,,,,,,,,,,,,,,,,,,,,,,,,,,,,,,,,,,,,,,592.2978,596.7479,4.422222222,4.4439,0,0,0,1,1,song_indices/Dreams_FleetwoodMac.csv,,,,,,,,,,,,,,,,,,,,,,,,,,,,,,,,,,,,,,,,,,,,,,
,,,,,738562,001,2024-06-17_10h49.09.284,experiment,2024.1.5,Win32,10.01001001,5a3012083eff6600016f259c,667045947eb812cbdacbf325,66704ca58b5420009c673752,,,,,,,,,,,,,,,,,,,,,,,,,,,,,,,,,,,,596.7483,601.989,0,0,0,1,1,SoundStimuli/JoyToTheWorld_ThreeDogNight_Cover5S.wav,,,,,,,,,,,,,,,,,,,,,,,,,,,,,,,,,,,,,,,,,,,,,,,,,,,,,,,,
,,,,,738562,001,2024-06-17_10h49.09.284,experiment,2024.1.5,Win32,10.01001001,5a3012083eff6600016f259c,667045947eb812cbdacbf325,66704ca58b5420009c673752,,,,,,,,,,,,,,,,,,,,,,,,,,,,,,,,,,,,601.9949,608.2703,0,1,1,0,1,SoundStimuli/JoyToTheWorld_ThreeDogNight_Original5S.wav,,,,,,,,,,,,,,,,,,,,,,,,,,,,,,,,,,,,,,,,,,,,,,,,,,,,,,,,
,,,,,738562,001,2024-06-17_10h49.09.284,experiment,2024.1.5,Win32,10.01001001,5a3012083eff6600016f259c,667045947eb812cbdacbf325,66704ca58b5420009c673752,,,,,,,,,,,,,,,,,,,,,,,,,,,,,,,,,,,,,,,,,,,,608.2704,610.1369,5.877777778,1.8601,0,1,1,8,1,song_indices/JoyToTheWorld_ThreeDogNight.csv,,,,,,,,,,,,,,,,,,,,,,,,,,,,,,,,,,,,,,,,,,,,,,
,,,,,738562,001,2024-06-17_10h49.09.284,experiment,2024.1.5,Win32,10.01001001,5a3012083eff6600016f259c,667045947eb812cbdacbf325,66704ca58b5420009c673752,,,,,,,,,,,,,,,,,,,,,,,,,,,,,,,,,,,,610.1374,616.3221,0,0,0,0,1,SoundStimuli/Levitating_DuaLipa_Original5S.wav,,,,,,,,,,,,,,,,,,,,,,,,,,,,,,,,,,,,,,,,,,,,,,,,,,,,,,,,
,,,,,738562,001,2024-06-17_10h49.09.284,experiment,2024.1.5,Win32,10.01001001,5a3012083eff6600016f259c,667045947eb812cbdacbf325,66704ca58b5420009c673752,,,,,,,,,,,,,,,,,,,,,,,,,,,,,,,,,,,,616.328,622.2284,0,1,1,1,1,SoundStimuli/Levitating_DuaLipa_Cover5S.wav,,,,,,,,,,,,,,,,,,,,,,,,,,,,,,,,,,,,,,,,,,,,,,,,,,,,,,,,
,,,,,738562,001,2024-06-17_10h49.09.284,experiment,2024.1.5,Win32,10.01001001,5a3012083eff6600016f259c,667045947eb812cbdacbf325,66704ca58b5420009c673752,,,,,,,,,,,,,,,,,,,,,,,,,,,,,,,,,,,,,,,,,,,,622.2285,638.6317,4.066666667,16.3955,0,2,2,10,1,song_indices/Levitating_DuaLipa.csv,,,,,,,,,,,,,,,,,,,,,,,,,,,,,,,,,,,,,,,,,,,,,,
,,,,,738562,001,2024-06-17_10h49.09.284,experiment,2024.1.5,Win32,10.01001001,5a3012083eff6600016f259c,667045947eb812cbdacbf325,66704ca58b5420009c673752,,,,,,,,,,,,,,,,,,,,,,,,,,,,,,,,,,,,638.6324,644.8846,0,0,0,1,1,SoundStimuli/TheSign_AceOfBase_Cover5S.wav,,,,,,,,,,,,,,,,,,,,,,,,,,,,,,,,,,,,,,,,,,,,,,,,,,,,,,,,
,,,,,738562,001,2024-06-17_10h49.09.284,experiment,2024.1.5,Win32,10.01001001,5a3012083eff6600016f259c,667045947eb812cbdacbf325,66704ca58b5420009c673752,,,,,,,,,,,,,,,,,,,,,,,,,,,,,,,,,,,,644.8905,651.3259,0,1,1,0,1,SoundStimuli/TheSign_AceOfBase_Original5S.wav,,,,,,,,,,,,,,,,,,,,,,,,,,,,,,,,,,,,,,,,,,,,,,,,,,,,,,,,
,,,,,738562,001,2024-06-17_10h49.09.284,experiment,2024.1.5,Win32,10.01001001,5a3012083eff6600016f259c,667045947eb812cbdacbf325,66704ca58b5420009c673752,,,,,,,,,,,,,,,,,,,,,,,,,,,,,,,,,,,,,,,,,,,,651.3261,658.5524,6.838888889,7.2198,0,3,3,5,1,song_indices/TheSign_AceOfBase.csv,,,,,,,,,,,,,,,,,,,,,,,,,,,,,,,,,,,,,,,,,,,,,,
,,,,,738562,001,2024-06-17_10h49.09.284,experiment,2024.1.5,Win32,10.01001001,5a3012083eff6600016f259c,667045947eb812cbdacbf325,66704ca58b5420009c673752,,,,,,,,,,,,,,,,,,,,,,,,,,,,,,,,,,,,658.5528,665.1985,0,0,0,1,1,SoundStimuli/YouLightUpMyLife_DebbyBoone_Cover5S.wav,,,,,,,,,,,,,,,,,,,,,,,,,,,,,,,,,,,,,,,,,,,,,,,,,,,,,,,,
,,,,,738562,001,2024-06-17_10h49.09.284,experiment,2024.1.5,Win32,10.01001001,5a3012083eff6600016f259c,667045947eb812cbdacbf325,66704ca58b5420009c673752,,,,,,,,,,,,,,,,,,,,,,,,,,,,,,,,,,,,665.2046,671.5567,0,1,1,0,1,SoundStimuli/YouLightUpMyLife_DebbyBoone_Original5S.wav,,,,,,,,,,,,,,,,,,,,,,,,,,,,,,,,,,,,,,,,,,,,,,,,,,,,,,,,
,,,,,738562,001,2024-06-17_10h49.09.284,experiment,2024.1.5,Win32,10.01001001,5a3012083eff6600016f259c,667045947eb812cbdacbf325,66704ca58b5420009c673752,,,,,,,,,,,,,,,,,,,,,,,,,,,,,,,,,,,,,,,,,,,,671.5568,675.735,6.65,4.1718,0,4,4,4,1,song_indices/YouLightUpMyLife_DebbyBoone.csv,,,,,,,,,,,,,,,,,,,,,,,,,,,,,,,,,,,,,,,,,,,,,,
,,,,,738562,001,2024-06-17_10h49.09.284,experiment,2024.1.5,Win32,10.01001001,5a3012083eff6600016f259c,667045947eb812cbdacbf325,66704ca58b5420009c673752,,,,,,,,,,,,,,,,,,,,,,,,,,,,,,,,,,,,675.7354,681.7955,0,0,0,1,1,SoundStimuli/Irreplaceable_Beyonce_Cover5S.wav,,,,,,,,,,,,,,,,,,,,,,,,,,,,,,,,,,,,,,,,,,,,,,,,,,,,,,,,
,,,,,738562,001,2024-06-17_10h49.09.284,experiment,2024.1.5,Win32,10.01001001,5a3012083eff6600016f259c,667045947eb812cbdacbf325,66704ca58b5420009c673752,,,,,,,,,,,,,,,,,,,,,,,,,,,,,,,,,,,,681.8014,687.8322,0,1,1,0,1,SoundStimuli/Irreplaceable_Beyonce_Original5S.wav,,,,,,,,,,,,,,,,,,,,,,,,,,,,,,,,,,,,,,,,,,,,,,,,,,,,,,,,
,,,,,738562,001,2024-06-17_10h49.09.284,experiment,2024.1.5,Win32,10.01001001,5a3012083eff6600016f259c,667045947eb812cbdacbf325,66704ca58b5420009c673752,,,,,,,,,,,,,,,,,,,,,,,,,,,,,,,,,,,,,,,,,,,,687.8323,691.2438,5.044444444,3.4047,0,5,5,19,1,song_indices/Irreplaceable_Beyonce.csv,,,,,,,,,,,,,,,,,,,,,,,,,,,,,,,,,,,,,,,,,,,,,,
,,,,,738562,001,2024-06-17_10h49.09.284,experiment,2024.1.5,Win32,10.01001001,5a3012083eff6600016f259c,667045947eb812cbdacbf325,66704ca58b5420009c673752,,,,,,,,,,,,,,,,,,,,,,,,,,,,,,,,,,,,691.2447,696.7935,0,0,0,1,1,SoundStimuli/Superstition_StevieWonder_Cover5S.wav,,,,,,,,,,,,,,,,,,,,,,,,,,,,,,,,,,,,,,,,,,,,,,,,,,,,,,,,
,,,,,738562,001,2024-06-17_10h49.09.284,experiment,2024.1.5,Win32,10.01001001,5a3012083eff6600016f259c,667045947eb812cbdacbf325,66704ca58b5420009c673752,,,,,,,,,,,,,,,,,,,,,,,,,,,,,,,,,,,,696.7993,703.1067,0,1,1,0,1,SoundStimuli/Superstition_StevieWonder_Original5S.wav,,,,,,,,,,,,,,,,,,,,,,,,,,,,,,,,,,,,,,,,,,,,,,,,,,,,,,,,
,,,,,738562,001,2024-06-17_10h49.09.284,experiment,2024.1.5,Win32,10.01001001,5a3012083eff6600016f259c,667045947eb812cbdacbf325,66704ca58b5420009c673752,,,,,,,,,,,,,,,,,,,,,,,,,,,,,,,,,,,,,,,,,,,,703.1068,704.581,2.983333333,1.4679,0,6,6,15,1,song_indices/Superstition_StevieWonder.csv,,,,,,,,,,,,,,,,,,,,,,,,,,,,,,,,,,,,,,,,,,,,,,
,,,,,738562,001,2024-06-17_10h49.09.284,experiment,2024.1.5,Win32,10.01001001,5a3012083eff6600016f259c,667045947eb812cbdacbf325,66704ca58b5420009c673752,,,,,,,,,,,,,,,,,,,,,,,,,,,,,,,,,,,,704.5814,710.205,0,0,0,1,1,SoundStimuli/LeFreak_Chic_Cover5S.wav,,,,,,,,,,,,,,,,,,,,,,,,,,,,,,,,,,,,,,,,,,,,,,,,,,,,,,,,
,,,,,738562,001,2024-06-17_10h49.09.284,experiment,2024.1.5,Win32,10.01001001,5a3012083eff6600016f259c,667045947eb812cbdacbf325,66704ca58b5420009c673752,,,,,,,,,,,,,,,,,,,,,,,,,,,,,,,,,,,,710.211,716.3765,0,1,1,0,1,SoundStimuli/LeFreak_Chic_Original5S.wav,,,,,,,,,,,,,,,,,,,,,,,,,,,,,,,,,,,,,,,,,,,,,,,,,,,,,,,,
,,,,,738562,001,2024-06-17_10h49.09.284,experiment,2024.1.5,Win32,10.01001001,5a3012083eff6600016f259c,667045947eb812cbdacbf325,66704ca58b5420009c673752,,,,,,,,,,,,,,,,,,,,,,,,,,,,,,,,,,,,,,,,,,,,716.3766,717.8047,5.133333333,1.4218,0,7,7,11,1,song_indices/LeFreak_Chic.csv,,,,,,,,,,,,,,,,,,,,,,,,,,,,,,,,,,,,,,,,,,,,,,
,,,,,738562,001,2024-06-17_10h49.09.284,experiment,2024.1.5,Win32,10.01001001,5a3012083eff6600016f259c,667045947eb812cbdacbf325,66704ca58b5420009c673752,,,,,,,,,,,,,,,,,,,,,,,,,,,,,,,,,,,,717.8051,724.7789,0,0,0,1,1,SoundStimuli/SomebodyThatIUsedtoKnow_Gotye_Cover5S.wav,,,,,,,,,,,,,,,,,,,,,,,,,,,,,,,,,,,,,,,,,,,,,,,,,,,,,,,,
,,,,,738562,001,2024-06-17_10h49.09.284,experiment,2024.1.5,Win32,10.01001001,5a3012083eff6600016f259c,667045947eb812cbdacbf325,66704ca58b5420009c673752,,,,,,,,,,,,,,,,,,,,,,,,,,,,,,,,,,,,724.7858,732.2348,0,1,1,0,1,SoundStimuli/SomebodyThatIUsedtoKnow_Gotye_Original5S.wav,,,,,,,,,,,,,,,,,,,,,,,,,,,,,,,,,,,,,,,,,,,,,,,,,,,,,,,,
,,,,,738562,001,2024-06-17_10h49.09.284,experiment,2024.1.5,Win32,10.01001001,5a3012083eff6600016f259c,667045947eb812cbdacbf325,66704ca58b5420009c673752,,,,,,,,,,,,,,,,,,,,,,,,,,,,,,,,,,,,,,,,,,,,732.2348,734.1099,5.955555556,1.8687,0,8,8,7,1,song_indices/SomebodyThatIUsedtoKnow_Gotye.csv,,,,,,,,,,,,,,,,,,,,,,,,,,,,,,,,,,,,,,,,,,,,,,
,,,,,738562,001,2024-06-17_10h49.09.284,experiment,2024.1.5,Win32,10.01001001,5a3012083eff6600016f259c,667045947eb812cbdacbf325,66704ca58b5420009c673752,,,,,,,,,,,,,,,,,,,,,,,,,,,,,,,,,,,,734.1102,740.3539,0,0,0,0,1,SoundStimuli/ComeAndGetYourLove_Redbone_Original5S.wav,,,,,,,,,,,,,,,,,,,,,,,,,,,,,,,,,,,,,,,,,,,,,,,,,,,,,,,,
,,,,,738562,001,2024-06-17_10h49.09.284,experiment,2024.1.5,Win32,10.01001001,5a3012083eff6600016f259c,667045947eb812cbdacbf325,66704ca58b5420009c673752,,,,,,,,,,,,,,,,,,,,,,,,,,,,,,,,,,,,740.3597,747.5778,0,1,1,1,1,SoundStimuli/ComeAndGetYourLove_Redbone_Cover5S.wav,,,,,,,,,,,,,,,,,,,,,,,,,,,,,,,,,,,,,,,,,,,,,,,,,,,,,,,,
,,,,,738562,001,2024-06-17_10h49.09.284,experiment,2024.1.5,Win32,10.01001001,5a3012083eff6600016f259c,667045947eb812cbdacbf325,66704ca58b5420009c673752,,,,,,,,,,,,,,,,,,,,,,,,,,,,,,,,,,,,,,,,,,,,747.5778,750.2358,2.722222222,2.6518,0,9,9,22,1,song_indices/ComeAndGetYourLove_Redbone.csv,,,,,,,,,,,,,,,,,,,,,,,,,,,,,,,,,,,,,,,,,,,,,,
,,,,,738562,001,2024-06-17_10h49.09.284,experiment,2024.1.5,Win32,10.01001001,5a3012083eff6600016f259c,667045947eb812cbdacbf325,66704ca58b5420009c673752,,,,,,,,,,,,,,,,,,,,,,,,,,,,,,,,,,,,750.2362,757.1425,0,0,0,0,1,SoundStimuli/BlurredLines_RobinThicke_Original5S.wav,,,,,,,,,,,,,,,,,,,,,,,,,,,,,,,,,,,,,,,,,,,,,,,,,,,,,,,,
,,,,,738562,001,2024-06-17_10h49.09.284,experiment,2024.1.5,Win32,10.01001001,5a3012083eff6600016f259c,667045947eb812cbdacbf325,66704ca58b5420009c673752,,,,,,,,,,,,,,,,,,,,,,,,,,,,,,,,,,,,757.1483,764.4604,0,1,1,1,1,SoundStimuli/BlurredLines_RobinThicke_Cover5S.wav,,,,,,,,,,,,,,,,,,,,,,,,,,,,,,,,,,,,,,,,,,,,,,,,,,,,,,,,
,,,,,738562,001,2024-06-17_10h49.09.284,experiment,2024.1.5,Win32,10.01001001,5a3012083eff6600016f259c,667045947eb812cbdacbf325,66704ca58b5420009c673752,,,,,,,,,,,,,,,,,,,,,,,,,,,,,,,,,,,,,,,,,,,,764.4604,766.0487,5.7,1.5821,0,10,10,9,1,song_indices/BlurredLines_RobinThicke.csv,,,,,,,,,,,,,,,,,,,,,,,,,,,,,,,,,,,,,,,,,,,,,,
,,,,,738562,001,2024-06-17_10h49.09.284,experiment,2024.1.5,Win32,10.01001001,5a3012083eff6600016f259c,667045947eb812cbdacbf325,66704ca58b5420009c673752,,,,,,,,,,,,,,,,,,,,,,,,,,,,,,,,,,,,766.0492,773.1385,0,0,0,1,1,SoundStimuli/Dilemma_NellyKellyRowland_Cover5S.wav,,,,,,,,,,,,,,,,,,,,,,,,,,,,,,,,,,,,,,,,,,,,,,,,,,,,,,,,
,,,,,738562,001,2024-06-17_10h49.09.284,experiment,2024.1.5,Win32,10.01001001,5a3012083eff6600016f259c,667045947eb812cbdacbf325,66704ca58b5420009c673752,,,,,,,,,,,,,,,,,,,,,,,,,,,,,,,,,,,,773.1445,779.5584,0,1,1,0,1,SoundStimuli/Dilemma_NellyKellyRowland_Original5S.wav,,,,,,,,,,,,,,,,,,,,,,,,,,,,,,,,,,,,,,,,,,,,,,,,,,,,,,,,
,,,,,738562,001,2024-06-17_10h49.09.284,experiment,2024.1.5,Win32,10.01001001,5a3012083eff6600016f259c,667045947eb812cbdacbf325,66704ca58b5420009c673752,,,,,,,,,,,,,,,,,,,,,,,,,,,,,,,,,,,,,,,,,,,,779.5585,782.4466,5.2,2.8818,0,11,11,2,1,song_indices/Dilemma_NellyKellyRowland.csv,,,,,,,,,,,,,,,,,,,,,,,,,,,,,,,,,,,,,,,,,,,,,,
,,,,,738562,001,2024-06-17_10h49.09.284,experiment,2024.1.5,Win32,10.01001001,5a3012083eff6600016f259c,667045947eb812cbdacbf325,66704ca58b5420009c673752,,,,,,,,,,,,,,,,,,,,,,,,,,,,,,,,,,,,782.447,788.7881,0,0,0,1,1,SoundStimuli/Respect_ArethaFranklin_Cover5S.wav,,,,,,,,,,,,,,,,,,,,,,,,,,,,,,,,,,,,,,,,,,,,,,,,,,,,,,,,
,,,,,738562,001,2024-06-17_10h49.09.284,experiment,2024.1.5,Win32,10.01001001,5a3012083eff6600016f259c,667045947eb812cbdacbf325,66704ca58b5420009c673752,,,,,,,,,,,,,,,,,,,,,,,,,,,,,,,,,,,,788.794,794.9205,0,1,1,0,1,SoundStimuli/Respect_ArethaFranklin_Original5S.wav,,,,,,,,,,,,,,,,,,,,,,,,,,,,,,,,,,,,,,,,,,,,,,,,,,,,,,,,
,,,,,738562,001,2024-06-17_10h49.09.284,experiment,2024.1.5,Win32,10.01001001,5a3012083eff6600016f259c,667045947eb812cbdacbf325,66704ca58b5420009c673752,,,,,,,,,,,,,,,,,,,,,,,,,,,,,,,,,,,,,,,,,,,,794.9206,797.3751,2.977777778,2.4482,0,12,12,0,1,song_indices/Respect_ArethaFranklin.csv,,,,,,,,,,,,,,,,,,,,,,,,,,,,,,,,,,,,,,,,,,,,,,
,,,,,738562,001,2024-06-17_10h49.09.284,experiment,2024.1.5,Win32,10.01001001,5a3012083eff6600016f259c,667045947eb812cbdacbf325,66704ca58b5420009c673752,,,,,,,,,,,,,,,,,,,,,,,,,,,,,,,,,,,,797.3756,801.5524,0,0,0,1,1,SoundStimuli/UnbreakMyHeart_ToniBraxton_Cover5S.wav,,,,,,,,,,,,,,,,,,,,,,,,,,,,,,,,,,,,,,,,,,,,,,,,,,,,,,,,
,,,,,738562,001,2024-06-17_10h49.09.284,experiment,2024.1.5,Win32,10.01001001,5a3012083eff6600016f259c,667045947eb812cbdacbf325,66704ca58b5420009c673752,,,,,,,,,,,,,,,,,,,,,,,,,,,,,,,,,,,,801.5583,807.9211,0,1,1,0,1,SoundStimuli/UnbreakMyHeart_ToniBraxton_Original5S.wav,,,,,,,,,,,,,,,,,,,,,,,,,,,,,,,,,,,,,,,,,,,,,,,,,,,,,,,,
,,,,,738562,001,2024-06-17_10h49.09.284,experiment,2024.1.5,Win32,10.01001001,5a3012083eff6600016f259c,667045947eb812cbdacbf325,66704ca58b5420009c673752,,,,,,,,,,,,,,,,,,,,,,,,,,,,,,,,,,,,,,,,,,,,807.9212,809.8061,2.011111111,1.8787,0,13,13,16,1,song_indices/UnbreakMyHeart_ToniBraxton.csv,,,,,,,,,,,,,,,,,,,,,,,,,,,,,,,,,,,,,,,,,,,,,,
,,,,,738562,001,2024-06-17_10h49.09.284,experiment,2024.1.5,Win32,10.01001001,5a3012083eff6600016f259c,667045947eb812cbdacbf325,66704ca58b5420009c673752,,,,,,,,,,,,,,,,,,,,,,,,,,,,,,,,,,,,809.8065,816.7884,0,0,0,1,1,SoundStimuli/PokerFace_LadyGaga_Cover5S.wav,,,,,,,,,,,,,,,,,,,,,,,,,,,,,,,,,,,,,,,,,,,,,,,,,,,,,,,,
,,,,,738562,001,2024-06-17_10h49.09.284,experiment,2024.1.5,Win32,10.01001001,5a3012083eff6600016f259c,667045947eb812cbdacbf325,66704ca58b5420009c673752,,,,,,,,,,,,,,,,,,,,,,,,,,,,,,,,,,,,816.7943,824.0085,0,1,1,0,1,SoundStimuli/PokerFace_LadyGaga_Original5S.wav,,,,,,,,,,,,,,,,,,,,,,,,,,,,,,,,,,,,,,,,,,,,,,,,,,,,,,,,
,,,,,738562,001,2024-06-17_10h49.09.284,experiment,2024.1.5,Win32,10.01001001,5a3012083eff6600016f259c,667045947eb812cbdacbf325,66704ca58b5420009c673752,,,,,,,,,,,,,,,,,,,,,,,,,,,,,,,,,,,,,,,,,,,,824.0086,829.9911,2.955555556,5.976,0,14,14,23,1,song_indices/PokerFace_LadyGaga.csv,,,,,,,,,,,,,,,,,,,,,,,,,,,,,,,,,,,,,,,,,,,,,,
,,,,,738562,001,2024-06-17_10h49.09.284,experiment,2024.1.5,Win32,10.01001001,5a3012083eff6600016f259c,667045947eb812cbdacbf325,66704ca58b5420009c673752,,,,,,,,,,,,,,,,,,,,,,,,,,,,,,,,,,,,829.9914,836.8522,0,0,0,1,1,SoundStimuli/LetsGetItOn_MarvinGaye_Cover5S.wav,,,,,,,,,,,,,,,,,,,,,,,,,,,,,,,,,,,,,,,,,,,,,,,,,,,,,,,,
,,,,,738562,001,2024-06-17_10h49.09.284,experiment,2024.1.5,Win32,10.01001001,5a3012083eff6600016f259c,667045947eb812cbdacbf325,66704ca58b5420009c673752,,,,,,,,,,,,,,,,,,,,,,,,,,,,,,,,,,,,836.8583,843.2998,0,1,1,0,1,SoundStimuli/LetsGetItOn_MarvinGaye_Original5S.wav,,,,,,,,,,,,,,,,,,,,,,,,,,,,,,,,,,,,,,,,,,,,,,,,,,,,,,,,
,,,,,738562,001,2024-06-17_10h49.09.284,experiment,2024.1.5,Win32,10.01001001,5a3012083eff6600016f259c,667045947eb812cbdacbf325,66704ca58b5420009c673752,,,,,,,,,,,,,,,,,,,,,,,,,,,,,,,,,,,,,,,,,,,,843.2999,845.7163,2.883333333,2.4101,0,15,15,20,1,song_indices/LetsGetItOn_MarvinGaye.csv,,,,,,,,,,,,,,,,,,,,,,,,,,,,,,,,,,,,,,,,,,,,,,
,,,,,738562,001,2024-06-17_10h49.09.284,experiment,2024.1.5,Win32,10.01001001,5a3012083eff6600016f259c,667045947eb812cbdacbf325,66704ca58b5420009c673752,,,,,,,,,,,,,,,,,,,,,,,,,,,,,,,,,,,,845.7167,851.9623,0,0,0,1,1,SoundStimuli/TossinAndTurnin_BobbyLewis_Cover5S.wav,,,,,,,,,,,,,,,,,,,,,,,,,,,,,,,,,,,,,,,,,,,,,,,,,,,,,,,,
,,,,,738562,001,2024-06-17_10h49.09.284,experiment,2024.1.5,Win32,10.01001001,5a3012083eff6600016f259c,667045947eb812cbdacbf325,66704ca58b5420009c673752,,,,,,,,,,,,,,,,,,,,,,,,,,,,,,,,,,,,851.9702,858.2279,0,1,1,0,1,SoundStimuli/TossinAndTurnin_BobbyLewis_Original5S.wav,,,,,,,,,,,,,,,,,,,,,,,,,,,,,,,,,,,,,,,,,,,,,,,,,,,,,,,,
,,,,,738562,001,2024-06-17_10h49.09.284,experiment,2024.1.5,Win32,10.01001001,5a3012083eff6600016f259c,667045947eb812cbdacbf325,66704ca58b5420009c673752,,,,,,,,,,,,,,,,,,,,,,,,,,,,,,,,,,,,,,,,,,,,858.228,859.6726,4.005555556,1.4381,0,16,16,13,1,song_indices/TossinAndTurnin_BobbyLewis.csv,,,,,,,,,,,,,,,,,,,,,,,,,,,,,,,,,,,,,,,,,,,,,,
,,,,,738562,001,2024-06-17_10h49.09.284,experiment,2024.1.5,Win32,10.01001001,5a3012083eff6600016f259c,667045947eb812cbdacbf325,66704ca58b5420009c673752,,,,,,,,,,,,,,,,,,,,,,,,,,,,,,,,,,,,859.6731,866.3704,0,0,0,1,1,SoundStimuli/Weak_SWV_Cover5S.wav,,,,,,,,,,,,,,,,,,,,,,,,,,,,,,,,,,,,,,,,,,,,,,,,,,,,,,,,
,,,,,738562,001,2024-06-17_10h49.09.284,experiment,2024.1.5,Win32,10.01001001,5a3012083eff6600016f259c,667045947eb812cbdacbf325,66704ca58b5420009c673752,,,,,,,,,,,,,,,,,,,,,,,,,,,,,,,,,,,,866.3763,872.6042,0,1,1,0,1,SoundStimuli/Weak_SWV_Original5S.wav,,,,,,,,,,,,,,,,,,,,,,,,,,,,,,,,,,,,,,,,,,,,,,,,,,,,,,,,
,,,,,738562,001,2024-06-17_10h49.09.284,experiment,2024.1.5,Win32,10.01001001,5a3012083eff6600016f259c,667045947eb812cbdacbf325,66704ca58b5420009c673752,,,,,,,,,,,,,,,,,,,,,,,,,,,,,,,,,,,,,,,,,,,,872.6044,875.9267,3.966666667,3.3162,0,17,17,6,1,song_indices/Weak_SWV.csv,,,,,,,,,,,,,,,,,,,,,,,,,,,,,,,,,,,,,,,,,,,,,,
,,,,,738562,001,2024-06-17_10h49.09.284,experiment,2024.1.5,Win32,10.01001001,5a3012083eff6600016f259c,667045947eb812cbdacbf325,66704ca58b5420009c673752,,,,,,,,,,,,,,,,,,,,,,,,,,,,,,,,,,,,875.9272,883.424,0,0,0,1,1,SoundStimuli/FlashdanceWhatAFeeling_IreneCara_Cover5S.wav,,,,,,,,,,,,,,,,,,,,,,,,,,,,,,,,,,,,,,,,,,,,,,,,,,,,,,,,
,,,,,738562,001,2024-06-17_10h49.09.284,experiment,2024.1.5,Win32,10.01001001,5a3012083eff6600016f259c,667045947eb812cbdacbf325,66704ca58b5420009c673752,,,,,,,,,,,,,,,,,,,,,,,,,,,,,,,,,,,,883.4301,889.9619,0,1,1,0,1,SoundStimuli/FlashdanceWhatAFeeling_IreneCara_Original5S.wav,,,,,,,,,,,,,,,,,,,,,,,,,,,,,,,,,,,,,,,,,,,,,,,,,,,,,,,,
,,,,,738562,001,2024-06-17_10h49.09.284,experiment,2024.1.5,Win32,10.01001001,5a3012083eff6600016f259c,667045947eb812cbdacbf325,66704ca58b5420009c673752,,,,,,,,,,,,,,,,,,,,,,,,,,,,,,,,,,,,,,,,,,,,889.962,891.4048,5.433333333,1.4368,0,18,18,18,1,song_indices/FlashdanceWhatAFeeling_IreneCara.csv,,,,,,,,,,,,,,,,,,,,,,,,,,,,,,,,,,,,,,,,,,,,,,
,,,,,738562,001,2024-06-17_10h49.09.284,experiment,2024.1.5,Win32,10.01001001,5a3012083eff6600016f259c,667045947eb812cbdacbf325,66704ca58b5420009c673752,,,,,,,,,,,,,,,,,,,,,,,,,,,,,,,,,,,,891.4052,897.8585,0,0,0,1,1,SoundStimuli/Kiss_Prince_Cover5S.wav,,,,,,,,,,,,,,,,,,,,,,,,,,,,,,,,,,,,,,,,,,,,,,,,,,,,,,,,
,,,,,738562,001,2024-06-17_10h49.09.284,experiment,2024.1.5,Win32,10.01001001,5a3012083eff6600016f259c,667045947eb812cbdacbf325,66704ca58b5420009c673752,,,,,,,,,,,,,,,,,,,,,,,,,,,,,,,,,,,,897.8645,905.5144,0,1,1,0,1,SoundStimuli/Kiss_Prince_Original5S.wav,,,,,,,,,,,,,,,,,,,,,,,,,,,,,,,,,,,,,,,,,,,,,,,,,,,,,,,,
,,,,,738562,001,2024-06-17_10h49.09.284,experiment,2024.1.5,Win32,10.01001001,5a3012083eff6600016f259c,667045947eb812cbdacbf325,66704ca58b5420009c673752,,,,,,,,,,,,,,,,,,,,,,,,,,,,,,,,,,,,,,,,,,,,905.5145,906.8362,1.988888889,1.3153,0,19,19,14,1,song_indices/Kiss_Prince.csv,,,,,,,,,,,,,,,,,,,,,,,,,,,,,,,,,,,,,,,,,,,,,,
,,,,,738562,001,2024-06-17_10h49.09.284,experiment,2024.1.5,Win32,10.01001001,5a3012083eff6600016f259c,667045947eb812cbdacbf325,66704ca58b5420009c673752,,,,,,,,,,,,,,,,,,,,,,,,,,,,,,,,,,,,906.8367,913.8455,0,0,0,1,1,SoundStimuli/BlindingLights_TheWeeknd_Cover5S.wav,,,,,,,,,,,,,,,,,,,,,,,,,,,,,,,,,,,,,,,,,,,,,,,,,,,,,,,,
,,,,,738562,001,2024-06-17_10h49.09.284,experiment,2024.1.5,Win32,10.01001001,5a3012083eff6600016f259c,667045947eb812cbdacbf325,66704ca58b5420009c673752,,,,,,,,,,,,,,,,,,,,,,,,,,,,,,,,,,,,913.8514,920.5846,0,1,1,0,1,SoundStimuli/BlindingLights_TheWeeknd_Original5S.wav,,,,,,,,,,,,,,,,,,,,,,,,,,,,,,,,,,,,,,,,,,,,,,,,,,,,,,,,
,,,,,738562,001,2024-06-17_10h49.09.284,experiment,2024.1.5,Win32,10.01001001,5a3012083eff6600016f259c,667045947eb812cbdacbf325,66704ca58b5420009c673752,,,,,,,,,,,,,,,,,,,,,,,,,,,,,,,,,,,,,,,,,,,,920.5847,922.3474,2.294444444,1.7566,0,20,20,21,1,song_indices/BlindingLights_TheWeeknd.csv,,,,,,,,,,,,,,,,,,,,,,,,,,,,,,,,,,,,,,,,,,,,,,
,,,,,738562,001,2024-06-17_10h49.09.284,experiment,2024.1.5,Win32,10.01001001,5a3012083eff6600016f259c,667045947eb812cbdacbf325,66704ca58b5420009c673752,,,,,,,,,,,,,,,,,,,,,,,,,,,,,,,,,,,,922.3479,928.8389,0,0,0,0,1,SoundStimuli/TikTok_Kesha_Original5S.wav,,,,,,,,,,,,,,,,,,,,,,,,,,,,,,,,,,,,,,,,,,,,,,,,,,,,,,,,
,,,,,738562,001,2024-06-17_10h49.09.284,experiment,2024.1.5,Win32,10.01001001,5a3012083eff6600016f259c,667045947eb812cbdacbf325,66704ca58b5420009c673752,,,,,,,,,,,,,,,,,,,,,,,,,,,,,,,,,,,,928.8448,936.5749,0,1,1,1,1,SoundStimuli/TikTok_Kesha_Cover5S.wav,,,,,,,,,,,,,,,,,,,,,,,,,,,,,,,,,,,,,,,,,,,,,,,,,,,,,,,,
,,,,,738562,001,2024-06-17_10h49.09.284,experiment,2024.1.5,Win32,10.01001001,5a3012083eff6600016f259c,667045947eb812cbdacbf325,66704ca58b5420009c673752,,,,,,,,,,,,,,,,,,,,,,,,,,,,,,,,,,,,,,,,,,,,936.5749,938.966,2.005555556,2.3851,0,21,21,3,1,song_indices/TikTok_Kesha.csv,,,,,,,,,,,,,,,,,,,,,,,,,,,,,,,,,,,,,,,,,,,,,,
,,,,,738562,001,2024-06-17_10h49.09.284,experiment,2024.1.5,Win32,10.01001001,5a3012083eff6600016f259c,667045947eb812cbdacbf325,66704ca58b5420009c673752,,,,,,,,,,,,,,,,,,,,,,,,,,,,,,,,,,,,938.9664,945.3471,0,0,0,0,1,SoundStimuli/SaveYourTears_TheWeekndArianaGrande_Original5S.wav,,,,,,,,,,,,,,,,,,,,,,,,,,,,,,,,,,,,,,,,,,,,,,,,,,,,,,,,
,,,,,738562,001,2024-06-17_10h49.09.284,experiment,2024.1.5,Win32,10.01001001,5a3012083eff6600016f259c,667045947eb812cbdacbf325,66704ca58b5420009c673752,,,,,,,,,,,,,,,,,,,,,,,,,,,,,,,,,,,,945.3532,951.5171,0,1,1,1,1,SoundStimuli/SaveYourTears_TheWeekndArianaGrande_Cover5S.wav,,,,,,,,,,,,,,,,,,,,,,,,,,,,,,,,,,,,,,,,,,,,,,,,,,,,,,,,
,,,,,738562,001,2024-06-17_10h49.09.284,experiment,2024.1.5,Win32,10.01001001,5a3012083eff6600016f259c,667045947eb812cbdacbf325,66704ca58b5420009c673752,,,,,,,,,,,,,,,,,,,,,,,,,,,,,,,,,,,,,,,,,,,,951.5172,954.8991,2.977777778,3.37,0,22,22,12,1,song_indices/SaveYourTears_TheWeekndArianaGrande.csv,,,,,,,,,,,,,,,,,,,,,,,,,,,,,,,,,,,,,,,,,,,,,,
,,,,,738562,001,2024-06-17_10h49.09.284,experiment,2024.1.5,Win32,10.01001001,5a3012083eff6600016f259c,667045947eb812cbdacbf325,66704ca58b5420009c673752,,,,,,,,,,,,,,,,,,,,,,,,,,,,,,,,,,,,954.8995,961.1366,0,0,0,0,1,SoundStimuli/HowDoILive_LeAnnRimes_Original5S.wav,,,,,,,,,,,,,,,,,,,,,,,,,,,,,,,,,,,,,,,,,,,,,,,,,,,,,,,,
,,,,,738562,001,2024-06-17_10h49.09.284,experiment,2024.1.5,Win32,10.01001001,5a3012083eff6600016f259c,667045947eb812cbdacbf325,66704ca58b5420009c673752,,,,,,,,,,,,,,,,,,,,,,,,,,,,,,,,,,,,961.1428,966.8052,0,1,1,1,1,SoundStimuli/HowDoILive_LeAnnRimes_Cover5S.wav,,,,,,,,,,,,,,,,,,,,,,,,,,,,,,,,,,,,,,,,,,,,,,,,,,,,,,,,
,,,,,738562,001,2024-06-17_10h49.09.284,experiment,2024.1.5,Win32,10.01001001,5a3012083eff6600016f259c,667045947eb812cbdacbf325,66704ca58b5420009c673752,,,,,,,,,,,,,,,,,,,,,,,,,,,,,,,,,,,,,,,,,,,,966.8054,968.6671,3.377777778,1.8555,0,23,23,17,1,song_indices/HowDoILive_LeAnnRimes.csv,,,,,,,,,,,,,,,,,,,,,,,,,,,,,,,,,,,,,,,,,,,,,,
,,,,,738562,001,2024-06-17_10h49.09.284,experiment,2024.1.5,Win32,10.01001001,5a3012083eff6600016f259c,667045947eb812cbdacbf325,66704ca58b5420009c673752,,,,,,,,,,,,,,,,,,,,,,,,,,,,,,,,,,,,,,,,,,,,,,,,,,,,,,968.6671,970.8936,space,2.1173,1E-04,0,1,1,2,1,choose_song_b3.csv,,,,,,,,,,,,,,,,,,,,,,,,,,,,,,,,,,,
,,,,,738562,001,2024-06-17_10h49.09.284,experiment,2024.1.5,Win32,10.01001001,5a3012083eff6600016f259c,667045947eb812cbdacbf325,66704ca58b5420009c673752,,,,,,,,,,,,,,,,,,,,,,,,,,,,,,,,,,,,970.8945,977.2977,0,0,0,1,1,SoundStimuli/LikeAPrayer_Madonna_Cover5S.wav,,,,,,,,,,,,,,,,,,,,,,,,,,,,,,,,,,,,,,,,,,,,,,,,,,,,,,,,
,,,,,738562,001,2024-06-17_10h49.09.284,experiment,2024.1.5,Win32,10.01001001,5a3012083eff6600016f259c,667045947eb812cbdacbf325,66704ca58b5420009c673752,,,,,,,,,,,,,,,,,,,,,,,,,,,,,,,,,,,,977.2979,983.7516,0,1,1,0,1,SoundStimuli/LikeAPrayer_Madonna_Original5S.wav,,,,,,,,,,,,,,,,,,,,,,,,,,,,,,,,,,,,,,,,,,,,,,,,,,,,,,,,
,,,,,738562,001,2024-06-17_10h49.09.284,experiment,2024.1.5,Win32,10.01001001,5a3012083eff6600016f259c,667045947eb812cbdacbf325,66704ca58b5420009c673752,,,,,,,,,,,,,,,,,,,,,,,,,,,,,,,,,,,,,,,,,,,,983.7517,988.5567,5,4.7987,0,0,0,7,1,song_indices/LikeAPrayer_Madonna.csv,,,,,,,,,,,,,,,,,,,,,,,,,,,,,,,,,,,,,,,,,,,,,,
,,,,,738562,001,2024-06-17_10h49.09.284,experiment,2024.1.5,Win32,10.01001001,5a3012083eff6600016f259c,667045947eb812cbdacbf325,66704ca58b5420009c673752,,,,,,,,,,,,,,,,,,,,,,,,,,,,,,,,,,,,988.5572,994.4333,0,0,0,0,1,SoundStimuli/IWantToHoldYourHand_TheBeatles_Original5S.wav,,,,,,,,,,,,,,,,,,,,,,,,,,,,,,,,,,,,,,,,,,,,,,,,,,,,,,,,
,,,,,738562,001,2024-06-17_10h49.09.284,experiment,2024.1.5,Win32,10.01001001,5a3012083eff6600016f259c,667045947eb812cbdacbf325,66704ca58b5420009c673752,,,,,,,,,,,,,,,,,,,,,,,,,,,,,,,,,,,,994.4392,1000.6827,0,1,1,1,1,SoundStimuli/IWantToHoldYourHand_TheBeatles_Cover5S.wav,,,,,,,,,,,,,,,,,,,,,,,,,,,,,,,,,,,,,,,,,,,,,,,,,,,,,,,,
,,,,,738562,001,2024-06-17_10h49.09.284,experiment,2024.1.5,Win32,10.01001001,5a3012083eff6600016f259c,667045947eb812cbdacbf325,66704ca58b5420009c673752,,,,,,,,,,,,,,,,,,,,,,,,,,,,,,,,,,,,,,,,,,,,1000.6828,1005.9917,2.827777778,5.3028,0,1,1,19,1,song_indices/IWantToHoldYourHand_TheBeatles.csv,,,,,,,,,,,,,,,,,,,,,,,,,,,,,,,,,,,,,,,,,,,,,,
,,,,,738562,001,2024-06-17_10h49.09.284,experiment,2024.1.5,Win32,10.01001001,5a3012083eff6600016f259c,667045947eb812cbdacbf325,66704ca58b5420009c673752,,,,,,,,,,,,,,,,,,,,,,,,,,,,,,,,,,,,1005.9923,1012.1941,0,0,0,1,1,SoundStimuli/IllMakeLoveToYou_BoyzIIMen_Cover5S.wav,,,,,,,,,,,,,,,,,,,,,,,,,,,,,,,,,,,,,,,,,,,,,,,,,,,,,,,,
,,,,,738562,001,2024-06-17_10h49.09.284,experiment,2024.1.5,Win32,10.01001001,5a3012083eff6600016f259c,667045947eb812cbdacbf325,66704ca58b5420009c673752,,,,,,,,,,,,,,,,,,,,,,,,,,,,,,,,,,,,1012.1999,1018.462,0,1,1,0,1,SoundStimuli/IllMakeLoveToYou_BoyzIIMen_Original5S.wav,,,,,,,,,,,,,,,,,,,,,,,,,,,,,,,,,,,,,,,,,,,,,,,,,,,,,,,,
,,,,,738562,001,2024-06-17_10h49.09.284,experiment,2024.1.5,Win32,10.01001001,5a3012083eff6600016f259c,667045947eb812cbdacbf325,66704ca58b5420009c673752,,,,,,,,,,,,,,,,,,,,,,,,,,,,,,,,,,,,,,,,,,,,1018.4621,1025.5445,3.144444444,7.0761,0,2,2,6,1,song_indices/IllMakeLoveToYou_BoyzIIMen.csv,,,,,,,,,,,,,,,,,,,,,,,,,,,,,,,,,,,,,,,,,,,,,,
,,,,,738562,001,2024-06-17_10h49.09.284,experiment,2024.1.5,Win32,10.01001001,5a3012083eff6600016f259c,667045947eb812cbdacbf325,66704ca58b5420009c673752,,,,,,,,,,,,,,,,,,,,,,,,,,,,,,,,,,,,1025.5449,1032.2649,0,0,0,1,1,SoundStimuli/OldTownRoad_LilNasX_Cover5S.wav,,,,,,,,,,,,,,,,,,,,,,,,,,,,,,,,,,,,,,,,,,,,,,,,,,,,,,,,
,,,,,738562,001,2024-06-17_10h49.09.284,experiment,2024.1.5,Win32,10.01001001,5a3012083eff6600016f259c,667045947eb812cbdacbf325,66704ca58b5420009c673752,,,,,,,,,,,,,,,,,,,,,,,,,,,,,,,,,,,,1032.271,1039.9089,0,1,1,0,1,SoundStimuli/OldTownRoad_LilNasX_Original5S.wav,,,,,,,,,,,,,,,,,,,,,,,,,,,,,,,,,,,,,,,,,,,,,,,,,,,,,,,,
,,,,,738562,001,2024-06-17_10h49.09.284,experiment,2024.1.5,Win32,10.01001001,5a3012083eff6600016f259c,667045947eb812cbdacbf325,66704ca58b5420009c673752,,,,,,,,,,,,,,,,,,,,,,,,,,,,,,,,,,,,,,,,,,,,1039.909,1042.1231,5.05,2.208,0,3,3,20,1,song_indices/OldTownRoad_LilNasX.csv,,,,,,,,,,,,,,,,,,,,,,,,,,,,,,,,,,,,,,,,,,,,,,
,,,,,738562,001,2024-06-17_10h49.09.284,experiment,2024.1.5,Win32,10.01001001,5a3012083eff6600016f259c,667045947eb812cbdacbf325,66704ca58b5420009c673752,,,,,,,,,,,,,,,,,,,,,,,,,,,,,,,,,,,,1042.1236,1049.932,0,0,0,1,1,SoundStimuli/LivinOnAPrayer_BonJovi_Cover5S.wav,,,,,,,,,,,,,,,,,,,,,,,,,,,,,,,,,,,,,,,,,,,,,,,,,,,,,,,,
,,,,,738562,001,2024-06-17_10h49.09.284,experiment,2024.1.5,Win32,10.01001001,5a3012083eff6600016f259c,667045947eb812cbdacbf325,66704ca58b5420009c673752,,,,,,,,,,,,,,,,,,,,,,,,,,,,,,,,,,,,1049.9379,1056.3936,0,1,1,0,1,SoundStimuli/LivinOnAPrayer_BonJovi_Original5S.wav,,,,,,,,,,,,,,,,,,,,,,,,,,,,,,,,,,,,,,,,,,,,,,,,,,,,,,,,
,,,,,738562,001,2024-06-17_10h49.09.284,experiment,2024.1.5,Win32,10.01001001,5a3012083eff6600016f259c,667045947eb812cbdacbf325,66704ca58b5420009c673752,,,,,,,,,,,,,,,,,,,,,,,,,,,,,,,,,,,,,,,,,,,,1056.3937,1060.7888,4.933333333,4.389,0,4,4,16,1,song_indices/LivinOnAPrayer_BonJovi.csv,,,,,,,,,,,,,,,,,,,,,,,,,,,,,,,,,,,,,,,,,,,,,,
,,,,,738562,001,2024-06-17_10h49.09.284,experiment,2024.1.5,Win32,10.01001001,5a3012083eff6600016f259c,667045947eb812cbdacbf325,66704ca58b5420009c673752,,,,,,,,,,,,,,,,,,,,,,,,,,,,,,,,,,,,1060.7892,1066.8377,0,0,0,1,1,SoundStimuli/StayinAlive_BeeGees_Cover5S.wav,,,,,,,,,,,,,,,,,,,,,,,,,,,,,,,,,,,,,,,,,,,,,,,,,,,,,,,,
,,,,,738562,001,2024-06-17_10h49.09.284,experiment,2024.1.5,Win32,10.01001001,5a3012083eff6600016f259c,667045947eb812cbdacbf325,66704ca58b5420009c673752,,,,,,,,,,,,,,,,,,,,,,,,,,,,,,,,,,,,1066.8436,1073.0297,0,1,1,0,1,SoundStimuli/StayinAlive_BeeGees_Original5S.wav,,,,,,,,,,,,,,,,,,,,,,,,,,,,,,,,,,,,,,,,,,,,,,,,,,,,,,,,
,,,,,738562,001,2024-06-17_10h49.09.284,experiment,2024.1.5,Win32,10.01001001,5a3012083eff6600016f259c,667045947eb812cbdacbf325,66704ca58b5420009c673752,,,,,,,,,,,,,,,,,,,,,,,,,,,,,,,,,,,,,,,,,,,,1073.0298,1074.2743,3.944444444,1.2382,0,5,5,2,1,song_indices/StayinAlive_BeeGees.csv,,,,,,,,,,,,,,,,,,,,,,,,,,,,,,,,,,,,,,,,,,,,,,
,,,,,738562,001,2024-06-17_10h49.09.284,experiment,2024.1.5,Win32,10.01001001,5a3012083eff6600016f259c,667045947eb812cbdacbf325,66704ca58b5420009c673752,,,,,,,,,,,,,,,,,,,,,,,,,,,,,,,,,,,,1074.2747,1080.6854,0,0,0,0,1,SoundStimuli/EndlessLove_DianaRossLionelRichie_Original5S.wav,,,,,,,,,,,,,,,,,,,,,,,,,,,,,,,,,,,,,,,,,,,,,,,,,,,,,,,,
,,,,,738562,001,2024-06-17_10h49.09.284,experiment,2024.1.5,Win32,10.01001001,5a3012083eff6600016f259c,667045947eb812cbdacbf325,66704ca58b5420009c673752,,,,,,,,,,,,,,,,,,,,,,,,,,,,,,,,,,,,1080.6913,1088.3783,0,1,1,1,1,SoundStimuli/EndlessLove_DianaRossLionelRichie_Cover5S.wav,,,,,,,,,,,,,,,,,,,,,,,,,,,,,,,,,,,,,,,,,,,,,,,,,,,,,,,,
,,,,,738562,001,2024-06-17_10h49.09.284,experiment,2024.1.5,Win32,10.01001001,5a3012083eff6600016f259c,667045947eb812cbdacbf325,66704ca58b5420009c673752,,,,,,,,,,,,,,,,,,,,,,,,,,,,,,,,,,,,,,,,,,,,1088.3784,1090.2269,4.977777778,1.8411,0,6,6,3,1,song_indices/EndlessLove_DianaRossLionelRichie.csv,,,,,,,,,,,,,,,,,,,,,,,,,,,,,,,,,,,,,,,,,,,,,,
,,,,,738562,001,2024-06-17_10h49.09.284,experiment,2024.1.5,Win32,10.01001001,5a3012083eff6600016f259c,667045947eb812cbdacbf325,66704ca58b5420009c673752,,,,,,,,,,,,,,,,,,,,,,,,,,,,,,,,,,,,1090.2274,1096.3387,0,0,0,0,1,SoundStimuli/AnotherOneBitesTheDust_Queen_Original5S.wav,,,,,,,,,,,,,,,,,,,,,,,,,,,,,,,,,,,,,,,,,,,,,,,,,,,,,,,,
,,,,,738562,001,2024-06-17_10h49.09.284,experiment,2024.1.5,Win32,10.01001001,5a3012083eff6600016f259c,667045947eb812cbdacbf325,66704ca58b5420009c673752,,,,,,,,,,,,,,,,,,,,,,,,,,,,,,,,,,,,1096.3447,1104.6449,0,1,1,1,1,SoundStimuli/AnotherOneBitesTheDust_Queen_Cover5S.wav,,,,,,,,,,,,,,,,,,,,,,,,,,,,,,,,,,,,,,,,,,,,,,,,,,,,,,,,
,,,,,738562,001,2024-06-17_10h49.09.284,experiment,2024.1.5,Win32,10.01001001,5a3012083eff6600016f259c,667045947eb812cbdacbf325,66704ca58b5420009c673752,,,,,,,,,,,,,,,,,,,,,,,,,,,,,,,,,,,,,,,,,,,,1104.6449,1111.861,3.294444444,7.2098,0,7,7,9,1,song_indices/AnotherOneBitesTheDust_Queen.csv,,,,,,,,,,,,,,,,,,,,,,,,,,,,,,,,,,,,,,,,,,,,,,
,,,,,738562,001,2024-06-17_10h49.09.284,experiment,2024.1.5,Win32,10.01001001,5a3012083eff6600016f259c,667045947eb812cbdacbf325,66704ca58b5420009c673752,,,,,,,,,,,,,,,,,,,,,,,,,,,,,,,,,,,,1111.8614,1116.1056,0,0,0,1,1,SoundStimuli/BohemianRhapsody_Queen_Cover5S.wav,,,,,,,,,,,,,,,,,,,,,,,,,,,,,,,,,,,,,,,,,,,,,,,,,,,,,,,,
,,,,,738562,001,2024-06-17_10h49.09.284,experiment,2024.1.5,Win32,10.01001001,5a3012083eff6600016f259c,667045947eb812cbdacbf325,66704ca58b5420009c673752,,,,,,,,,,,,,,,,,,,,,,,,,,,,,,,,,,,,1116.1115,1122.2573,0,1,1,0,1,SoundStimuli/BohemianRhapsody_Queen_Original5S.wav,,,,,,,,,,,,,,,,,,,,,,,,,,,,,,,,,,,,,,,,,,,,,,,,,,,,,,,,
,,,,,738562,001,2024-06-17_10h49.09.284,experiment,2024.1.5,Win32,10.01001001,5a3012083eff6600016f259c,667045947eb812cbdacbf325,66704ca58b5420009c673752,,,,,,,,,,,,,,,,,,,,,,,,,,,,,,,,,,,,,,,,,,,,1122.2574,1124.3246,1.933333333,2.0607,0,8,8,18,1,song_indices/BohemianRhapsody_Queen.csv,,,,,,,,,,,,,,,,,,,,,,,,,,,,,,,,,,,,,,,,,,,,,,
,,,,,738562,001,2024-06-17_10h49.09.284,experiment,2024.1.5,Win32,10.01001001,5a3012083eff6600016f259c,667045947eb812cbdacbf325,66704ca58b5420009c673752,,,,,,,,,,,,,,,,,,,,,,,,,,,,,,,,,,,,1124.325,1130.1804,0,0,0,0,1,SoundStimuli/IWannaDanceWithSomebody_WhitneyHouston_Original5S.wav,,,,,,,,,,,,,,,,,,,,,,,,,,,,,,,,,,,,,,,,,,,,,,,,,,,,,,,,
,,,,,738562,001,2024-06-17_10h49.09.284,experiment,2024.1.5,Win32,10.01001001,5a3012083eff6600016f259c,667045947eb812cbdacbf325,66704ca58b5420009c673752,,,,,,,,,,,,,,,,,,,,,,,,,,,,,,,,,,,,1130.1863,1137.2498,0,1,1,1,1,SoundStimuli/IWannaDanceWithSomebody_WhitneyHouston_Cover5S.wav,,,,,,,,,,,,,,,,,,,,,,,,,,,,,,,,,,,,,,,,,,,,,,,,,,,,,,,,
,,,,,738562,001,2024-06-17_10h49.09.284,experiment,2024.1.5,Win32,10.01001001,5a3012083eff6600016f259c,667045947eb812cbdacbf325,66704ca58b5420009c673752,,,,,,,,,,,,,,,,,,,,,,,,,,,,,,,,,,,,,,,,,,,,1137.25,1138.2386,1.455555556,0.9826,0,9,9,13,1,song_indices/IWannaDanceWithSomebody_WhitneyHouston.csv,,,,,,,,,,,,,,,,,,,,,,,,,,,,,,,,,,,,,,,,,,,,,,
,,,,,738562,001,2024-06-17_10h49.09.284,experiment,2024.1.5,Win32,10.01001001,5a3012083eff6600016f259c,667045947eb812cbdacbf325,66704ca58b5420009c673752,,,,,,,,,,,,,,,,,,,,,,,,,,,,,,,,,,,,1138.2391,1147.2998,0,0,0,0,1,SoundStimuli/Perfect_EdSheeran_Original5S.wav,,,,,,,,,,,,,,,,,,,,,,,,,,,,,,,,,,,,,,,,,,,,,,,,,,,,,,,,
,,,,,738562,001,2024-06-17_10h49.09.284,experiment,2024.1.5,Win32,10.01001001,5a3012083eff6600016f259c,667045947eb812cbdacbf325,66704ca58b5420009c673752,,,,,,,,,,,,,,,,,,,,,,,,,,,,,,,,,,,,1147.3058,1155.7939,0,1,1,1,1,SoundStimuli/Perfect_EdSheeran_Cover5S.wav,,,,,,,,,,,,,,,,,,,,,,,,,,,,,,,,,,,,,,,,,,,,,,,,,,,,,,,,
,,,,,738562,001,2024-06-17_10h49.09.284,experiment,2024.1.5,Win32,10.01001001,5a3012083eff6600016f259c,667045947eb812cbdacbf325,66704ca58b5420009c673752,,,,,,,,,,,,,,,,,,,,,,,,,,,,,,,,,,,,,,,,,,,,1155.7939,1158.254,4.927777778,2.4539,0,10,10,0,1,song_indices/Perfect_EdSheeran.csv,,,,,,,,,,,,,,,,,,,,,,,,,,,,,,,,,,,,,,,,,,,,,,
,,,,,738562,001,2024-06-17_10h49.09.284,experiment,2024.1.5,Win32,10.01001001,5a3012083eff6600016f259c,667045947eb812cbdacbf325,66704ca58b5420009c673752,,,,,,,,,,,,,,,,,,,,,,,,,,,,,,,,,,,,1158.2543,1165.8765,0,0,0,1,1,SoundStimuli/BadDay_DanielPowter_Cover5S.wav,,,,,,,,,,,,,,,,,,,,,,,,,,,,,,,,,,,,,,,,,,,,,,,,,,,,,,,,
,,,,,738562,001,2024-06-17_10h49.09.284,experiment,2024.1.5,Win32,10.01001001,5a3012083eff6600016f259c,667045947eb812cbdacbf325,66704ca58b5420009c673752,,,,,,,,,,,,,,,,,,,,,,,,,,,,,,,,,,,,1165.8826,1172.5191,0,1,1,0,1,SoundStimuli/BadDay_DanielPowter_Original5S.wav,,,,,,,,,,,,,,,,,,,,,,,,,,,,,,,,,,,,,,,,,,,,,,,,,,,,,,,,
,,,,,738562,001,2024-06-17_10h49.09.284,experiment,2024.1.5,Win32,10.01001001,5a3012083eff6600016f259c,667045947eb812cbdacbf325,66704ca58b5420009c673752,,,,,,,,,,,,,,,,,,,,,,,,,,,,,,,,,,,,,,,,,,,,1172.5192,1174.3826,3.916666667,1.8572,0,11,11,22,1,song_indices/BadDay_DanielPowter.csv,,,,,,,,,,,,,,,,,,,,,,,,,,,,,,,,,,,,,,,,,,,,,,
,,,,,738562,001,2024-06-17_10h49.09.284,experiment,2024.1.5,Win32,10.01001001,5a3012083eff6600016f259c,667045947eb812cbdacbf325,66704ca58b5420009c673752,,,,,,,,,,,,,,,,,,,,,,,,,,,,,,,,,,,,1174.3831,1180.6591,0,0,0,0,1,SoundStimuli/HeatWaves_GlassAnimals_Original5S.wav,,,,,,,,,,,,,,,,,,,,,,,,,,,,,,,,,,,,,,,,,,,,,,,,,,,,,,,,
,,,,,738562,001,2024-06-17_10h49.09.284,experiment,2024.1.5,Win32,10.01001001,5a3012083eff6600016f259c,667045947eb812cbdacbf325,66704ca58b5420009c673752,,,,,,,,,,,,,,,,,,,,,,,,,,,,,,,,,,,,1180.667,1189.4364,0,1,1,1,1,SoundStimuli/HeatWaves_GlassAnimals_Cover5S.wav,,,,,,,,,,,,,,,,,,,,,,,,,,,,,,,,,,,,,,,,,,,,,,,,,,,,,,,,
,,,,,738562,001,2024-06-17_10h49.09.284,experiment,2024.1.5,Win32,10.01001001,5a3012083eff6600016f259c,667045947eb812cbdacbf325,66704ca58b5420009c673752,,,,,,,,,,,,,,,,,,,,,,,,,,,,,,,,,,,,,,,,,,,,1189.4365,1190.3095,4.094444444,0.8667,0,12,12,10,1,song_indices/HeatWaves_GlassAnimals.csv,,,,,,,,,,,,,,,,,,,,,,,,,,,,,,,,,,,,,,,,,,,,,,
,,,,,738562,001,2024-06-17_10h49.09.284,experiment,2024.1.5,Win32,10.01001001,5a3012083eff6600016f259c,667045947eb812cbdacbf325,66704ca58b5420009c673752,,,,,,,,,,,,,,,,,,,,,,,,,,,,,,,,,,,,1190.3099,1196.6964,0,0,0,0,1,SoundStimuli/MackTheKnife_BobbyDarin_Original5S.wav,,,,,,,,,,,,,,,,,,,,,,,,,,,,,,,,,,,,,,,,,,,,,,,,,,,,,,,,
,,,,,738562,001,2024-06-17_10h49.09.284,experiment,2024.1.5,Win32,10.01001001,5a3012083eff6600016f259c,667045947eb812cbdacbf325,66704ca58b5420009c673752,,,,,,,,,,,,,,,,,,,,,,,,,,,,,,,,,,,,1196.7041,1203.1871,0,1,1,1,1,SoundStimuli/MackTheKnife_BobbyDarin_Cover5S.wav,,,,,,,,,,,,,,,,,,,,,,,,,,,,,,,,,,,,,,,,,,,,,,,,,,,,,,,,
,,,,,738562,001,2024-06-17_10h49.09.284,experiment,2024.1.5,Win32,10.01001001,5a3012083eff6600016f259c,667045947eb812cbdacbf325,66704ca58b5420009c673752,,,,,,,,,,,,,,,,,,,,,,,,,,,,,,,,,,,,,,,,,,,,1203.1872,1204.1913,1.983333333,0.9979,0,13,13,21,1,song_indices/MackTheKnife_BobbyDarin.csv,,,,,,,,,,,,,,,,,,,,,,,,,,,,,,,,,,,,,,,,,,,,,,
,,,,,738562,001,2024-06-17_10h49.09.284,experiment,2024.1.5,Win32,10.01001001,5a3012083eff6600016f259c,667045947eb812cbdacbf325,66704ca58b5420009c673752,,,,,,,,,,,,,,,,,,,,,,,,,,,,,,,,,,,,1204.1918,1212.5799,0,0,0,1,1,SoundStimuli/Mood_24kGoldnianndior_Cover5S.wav,,,,,,,,,,,,,,,,,,,,,,,,,,,,,,,,,,,,,,,,,,,,,,,,,,,,,,,,
,,,,,738562,001,2024-06-17_10h49.09.284,experiment,2024.1.5,Win32,10.01001001,5a3012083eff6600016f259c,667045947eb812cbdacbf325,66704ca58b5420009c673752,,,,,,,,,,,,,,,,,,,,,,,,,,,,,,,,,,,,1212.586,1219.0665,0,1,1,0,1,SoundStimuli/Mood_24kGoldnianndior_Original5S.wav,,,,,,,,,,,,,,,,,,,,,,,,,,,,,,,,,,,,,,,,,,,,,,,,,,,,,,,,
,,,,,738562,001,2024-06-17_10h49.09.284,experiment,2024.1.5,Win32,10.01001001,5a3012083eff6600016f259c,667045947eb812cbdacbf325,66704ca58b5420009c673752,,,,,,,,,,,,,,,,,,,,,,,,,,,,,,,,,,,,,,,,,,,,1219.0665,1220.8273,3.25,1.7547,0,14,14,5,1,song_indices/Mood_24kGoldnianndior.csv,,,,,,,,,,,,,,,,,,,,,,,,,,,,,,,,,,,,,,,,,,,,,,
,,,,,738562,001,2024-06-17_10h49.09.284,experiment,2024.1.5,Win32,10.01001001,5a3012083eff6600016f259c,667045947eb812cbdacbf325,66704ca58b5420009c673752,,,,,,,,,,,,,,,,,,,,,,,,,,,,,,,,,,,,1220.8278,1227.9519,0,0,0,1,1,SoundStimuli/GodOnlyKnows_TheBeachBoys_Cover5S.wav,,,,,,,,,,,,,,,,,,,,,,,,,,,,,,,,,,,,,,,,,,,,,,,,,,,,,,,,
,,,,,738562,001,2024-06-17_10h49.09.284,experiment,2024.1.5,Win32,10.01001001,5a3012083eff6600016f259c,667045947eb812cbdacbf325,66704ca58b5420009c673752,,,,,,,,,,,,,,,,,,,,,,,,,,,,,,,,,,,,1227.9582,1234.4274,0,1,1,0,1,SoundStimuli/GodOnlyKnows_TheBeachBoys_Original5S.wav,,,,,,,,,,,,,,,,,,,,,,,,,,,,,,,,,,,,,,,,,,,,,,,,,,,,,,,,
,,,,,738562,001,2024-06-17_10h49.09.284,experiment,2024.1.5,Win32,10.01001001,5a3012083eff6600016f259c,667045947eb812cbdacbf325,66704ca58b5420009c673752,,,,,,,,,,,,,,,,,,,,,,,,,,,,,,,,,,,,,,,,,,,,1234.4274,1235.3031,3.627777778,0.869,0,15,15,8,1,song_indices/GodOnlyKnows_TheBeachBoys.csv,,,,,,,,,,,,,,,,,,,,,,,,,,,,,,,,,,,,,,,,,,,,,,
,,,,,738562,001,2024-06-17_10h49.09.284,experiment,2024.1.5,Win32,10.01001001,5a3012083eff6600016f259c,667045947eb812cbdacbf325,66704ca58b5420009c673752,,,,,,,,,,,,,,,,,,,,,,,,,,,,,,,,,,,,1235.3035,1241.6462,0,0,0,0,1,SoundStimuli/StrawberryFieldsForever_TheBeatles_Original5S.wav,,,,,,,,,,,,,,,,,,,,,,,,,,,,,,,,,,,,,,,,,,,,,,,,,,,,,,,,
,,,,,738562,001,2024-06-17_10h49.09.284,experiment,2024.1.5,Win32,10.01001001,5a3012083eff6600016f259c,667045947eb812cbdacbf325,66704ca58b5420009c673752,,,,,,,,,,,,,,,,,,,,,,,,,,,,,,,,,,,,1241.6521,1248.8134,0,1,1,1,1,SoundStimuli/StrawberryFieldsForever_TheBeatles_Cover5S.wav,,,,,,,,,,,,,,,,,,,,,,,,,,,,,,,,,,,,,,,,,,,,,,,,,,,,,,,,
,,,,,738562,001,2024-06-17_10h49.09.284,experiment,2024.1.5,Win32,10.01001001,5a3012083eff6600016f259c,667045947eb812cbdacbf325,66704ca58b5420009c673752,,,,,,,,,,,,,,,,,,,,,,,,,,,,,,,,,,,,,,,,,,,,1248.8135,1252.588,2.472222222,3.7684,0,16,16,14,1,song_indices/StrawberryFieldsForever_TheBeatles.csv,,,,,,,,,,,,,,,,,,,,,,,,,,,,,,,,,,,,,,,,,,,,,,
,,,,,738562,001,2024-06-17_10h49.09.284,experiment,2024.1.5,Win32,10.01001001,5a3012083eff6600016f259c,667045947eb812cbdacbf325,66704ca58b5420009c673752,,,,,,,,,,,,,,,,,,,,,,,,,,,,,,,,,,,,1252.5884,1259.5342,0,0,0,1,1,SoundStimuli/BridgeOverTroubledWater_SimonAndGarfunkel_Cover5S.wav,,,,,,,,,,,,,,,,,,,,,,,,,,,,,,,,,,,,,,,,,,,,,,,,,,,,,,,,
,,,,,738562,001,2024-06-17_10h49.09.284,experiment,2024.1.5,Win32,10.01001001,5a3012083eff6600016f259c,667045947eb812cbdacbf325,66704ca58b5420009c673752,,,,,,,,,,,,,,,,,,,,,,,,,,,,,,,,,,,,1259.54,1266.0316,0,1,1,0,1,SoundStimuli/BridgeOverTroubledWater_SimonAndGarfunkel_Original5S.wav,,,,,,,,,,,,,,,,,,,,,,,,,,,,,,,,,,,,,,,,,,,,,,,,,,,,,,,,
,,,,,738562,001,2024-06-17_10h49.09.284,experiment,2024.1.5,Win32,10.01001001,5a3012083eff6600016f259c,667045947eb812cbdacbf325,66704ca58b5420009c673752,,,,,,,,,,,,,,,,,,,,,,,,,,,,,,,,,,,,,,,,,,,,1266.0317,1266.9067,4.533333333,0.8689,0,17,17,1,1,song_indices/BridgeOverTroubledWater_SimonAndGarfunkel.csv,,,,,,,,,,,,,,,,,,,,,,,,,,,,,,,,,,,,,,,,,,,,,,
,,,,,738562,001,2024-06-17_10h49.09.284,experiment,2024.1.5,Win32,10.01001001,5a3012083eff6600016f259c,667045947eb812cbdacbf325,66704ca58b5420009c673752,,,,,,,,,,,,,,,,,,,,,,,,,,,,,,,,,,,,1266.9071,1271.5577,0,0,0,1,1,SoundStimuli/LikeARollingStone_BobDylan_Cover5S.wav,,,,,,,,,,,,,,,,,,,,,,,,,,,,,,,,,,,,,,,,,,,,,,,,,,,,,,,,
,,,,,738562,001,2024-06-17_10h49.09.284,experiment,2024.1.5,Win32,10.01001001,5a3012083eff6600016f259c,667045947eb812cbdacbf325,66704ca58b5420009c673752,,,,,,,,,,,,,,,,,,,,,,,,,,,,,,,,,,,,1271.5635,1277.8914,0,1,1,0,1,SoundStimuli/LikeARollingStone_BobDylan_Original5S.wav,,,,,,,,,,,,,,,,,,,,,,,,,,,,,,,,,,,,,,,,,,,,,,,,,,,,,,,,
,,,,,738562,001,2024-06-17_10h49.09.284,experiment,2024.1.5,Win32,10.01001001,5a3012083eff6600016f259c,667045947eb812cbdacbf325,66704ca58b5420009c673752,,,,,,,,,,,,,,,,,,,,,,,,,,,,,,,,,,,,,,,,,,,,1277.8914,1278.7672,4.372222222,0.8695,0,18,18,12,1,song_indices/LikeARollingStone_BobDylan.csv,,,,,,,,,,,,,,,,,,,,,,,,,,,,,,,,,,,,,,,,,,,,,,
,,,,,738562,001,2024-06-17_10h49.09.284,experiment,2024.1.5,Win32,10.01001001,5a3012083eff6600016f259c,667045947eb812cbdacbf325,66704ca58b5420009c673752,,,,,,,,,,,,,,,,,,,,,,,,,,,,,,,,,,,,1278.7677,1283.7289,0,0,0,1,1,SoundStimuli/AChangeIsGonnaCome_SamCooke_Cover5S.wav,,,,,,,,,,,,,,,,,,,,,,,,,,,,,,,,,,,,,,,,,,,,,,,,,,,,,,,,
,,,,,738562,001,2024-06-17_10h49.09.284,experiment,2024.1.5,Win32,10.01001001,5a3012083eff6600016f259c,667045947eb812cbdacbf325,66704ca58b5420009c673752,,,,,,,,,,,,,,,,,,,,,,,,,,,,,,,,,,,,1283.7349,1289.9758,0,1,1,0,1,SoundStimuli/AChangeIsGonnaCome_SamCooke_Original5S.wav,,,,,,,,,,,,,,,,,,,,,,,,,,,,,,,,,,,,,,,,,,,,,,,,,,,,,,,,
,,,,,738562,001,2024-06-17_10h49.09.284,experiment,2024.1.5,Win32,10.01001001,5a3012083eff6600016f259c,667045947eb812cbdacbf325,66704ca58b5420009c673752,,,,,,,,,,,,,,,,,,,,,,,,,,,,,,,,,,,,,,,,,,,,1289.9758,1291.5188,5.011111111,1.5365,0,19,19,17,1,song_indices/AChangeIsGonnaCome_SamCooke.csv,,,,,,,,,,,,,,,,,,,,,,,,,,,,,,,,,,,,,,,,,,,,,,
,,,,,738562,001,2024-06-17_10h49.09.284,experiment,2024.1.5,Win32,10.01001001,5a3012083eff6600016f259c,667045947eb812cbdacbf325,66704ca58b5420009c673752,,,,,,,,,,,,,,,,,,,,,,,,,,,,,,,,,,,,1291.5194,1297.956,0,0,0,0,1,SoundStimuli/Smooth_SantanaRobThomas_Original5S.wav,,,,,,,,,,,,,,,,,,,,,,,,,,,,,,,,,,,,,,,,,,,,,,,,,,,,,,,,
,,,,,738562,001,2024-06-17_10h49.09.284,experiment,2024.1.5,Win32,10.01001001,5a3012083eff6600016f259c,667045947eb812cbdacbf325,66704ca58b5420009c673752,,,,,,,,,,,,,,,,,,,,,,,,,,,,,,,,,,,,1297.9619,1304.3179,0,1,1,1,1,SoundStimuli/Smooth_SantanaRobThomas_Cover5S.wav,,,,,,,,,,,,,,,,,,,,,,,,,,,,,,,,,,,,,,,,,,,,,,,,,,,,,,,,
,,,,,738562,001,2024-06-17_10h49.09.284,experiment,2024.1.5,Win32,10.01001001,5a3012083eff6600016f259c,667045947eb812cbdacbf325,66704ca58b5420009c673752,,,,,,,,,,,,,,,,,,,,,,,,,,,,,,,,,,,,,,,,,,,,1304.3179,1307.4999,4.383333333,3.1759,0,20,20,4,1,song_indices/Smooth_SantanaRobThomas.csv,,,,,,,,,,,,,,,,,,,,,,,,,,,,,,,,,,,,,,,,,,,,,,
,,,,,738562,001,2024-06-17_10h49.09.284,experiment,2024.1.5,Win32,10.01001001,5a3012083eff6600016f259c,667045947eb812cbdacbf325,66704ca58b5420009c673752,,,,,,,,,,,,,,,,,,,,,,,,,,,,,,,,,,,,1307.5004,1314.257,0,0,0,0,1,SoundStimuli/Despacito_LuisFonsiDaddyYankee_Original5S.wav,,,,,,,,,,,,,,,,,,,,,,,,,,,,,,,,,,,,,,,,,,,,,,,,,,,,,,,,
,,,,,738562,001,2024-06-17_10h49.09.284,experiment,2024.1.5,Win32,10.01001001,5a3012083eff6600016f259c,667045947eb812cbdacbf325,66704ca58b5420009c673752,,,,,,,,,,,,,,,,,,,,,,,,,,,,,,,,,,,,1314.2632,1321.0728,0,1,1,1,1,SoundStimuli/Despacito_LuisFonsiDaddyYankee_Cover5S.wav,,,,,,,,,,,,,,,,,,,,,,,,,,,,,,,,,,,,,,,,,,,,,,,,,,,,,,,,
,,,,,738562,001,2024-06-17_10h49.09.284,experiment,2024.1.5,Win32,10.01001001,5a3012083eff6600016f259c,667045947eb812cbdacbf325,66704ca58b5420009c673752,,,,,,,,,,,,,,,,,,,,,,,,,,,,,,,,,,,,,,,,,,,,1321.0729,1322.5909,4,1.5119,0,21,21,11,1,song_indices/Despacito_LuisFonsiDaddyYankee.csv,,,,,,,,,,,,,,,,,,,,,,,,,,,,,,,,,,,,,,,,,,,,,,
,,,,,738562,001,2024-06-17_10h49.09.284,experiment,2024.1.5,Win32,10.01001001,5a3012083eff6600016f259c,667045947eb812cbdacbf325,66704ca58b5420009c673752,,,,,,,,,,,,,,,,,,,,,,,,,,,,,,,,,,,,1322.5913,1330.3623,0,0,0,1,1,SoundStimuli/MyGirl_TheTemptations_Cover5S.wav,,,,,,,,,,,,,,,,,,,,,,,,,,,,,,,,,,,,,,,,,,,,,,,,,,,,,,,,
,,,,,738562,001,2024-06-17_10h49.09.284,experiment,2024.1.5,Win32,10.01001001,5a3012083eff6600016f259c,667045947eb812cbdacbf325,66704ca58b5420009c673752,,,,,,,,,,,,,,,,,,,,,,,,,,,,,,,,,,,,1330.3684,1336.9365,0,1,1,0,1,SoundStimuli/MyGirl_TheTemptations_Original5S.wav,,,,,,,,,,,,,,,,,,,,,,,,,,,,,,,,,,,,,,,,,,,,,,,,,,,,,,,,
,,,,,738562,001,2024-06-17_10h49.09.284,experiment,2024.1.5,Win32,10.01001001,5a3012083eff6600016f259c,667045947eb812cbdacbf325,66704ca58b5420009c673752,,,,,,,,,,,,,,,,,,,,,,,,,,,,,,,,,,,,,,,,,,,,1336.9365,1338.8046,2.916666667,1.8619,0,22,22,15,1,song_indices/MyGirl_TheTemptations.csv,,,,,,,,,,,,,,,,,,,,,,,,,,,,,,,,,,,,,,,,,,,,,,
,,,,,738562,001,2024-06-17_10h49.09.284,experiment,2024.1.5,Win32,10.01001001,5a3012083eff6600016f259c,667045947eb812cbdacbf325,66704ca58b5420009c673752,,,,,,,,,,,,,,,,,,,,,,,,,,,,,,,,,,,,,,,,,,,,,,,,,,,,,,1338.8046,1338.8047,,,,0,2,2,0,1,choose_song_b1.csv,,,,,,,,,,,,,,,,,,,,,,,,,,,,,,,,,,,
,,,,,738562,001,2024-06-17_10h49.09.284,experiment,2024.1.5,Win32,10.01001001,5a3012083eff6600016f259c,667045947eb812cbdacbf325,66704ca58b5420009c673752,,,,,,,,,,,,,,,,,,,,,,,,,,,,,,,,,,,,,,,,,,,,,,,,,,,,,,,,,,,,,,,,,35,Item 5,"Clasically trained pianist from age 8-14, then moved over to guitar self taught from 15-35(current age).  Play mostly metal, have recorded one album with a band in the 2010's.  Also play keyboard, bass and drums. ",Item 6,Spotify and Youtube,5,7,"Gaming, driving, working, sports. ",Often,Rarely,Always,Rarely,Sometimes,Sometimes,Rarely,Sometimes,Often,Often,Never,Sometimes,Rarely,Never,Often,Rarely,Metal,Classic Rock,Hip Hop,"Since the popularization of streaming platforms i have owned less and less physical media.  I collect classic vinyl but most of how i listen to music is thru streaming platforms.  I still like to listen to an ""album"" all at once rather than skip around or randomize songs. ",0,0,0,0,1,,
,,,,,738562,001,2024-06-17_10h49.09.284,experiment,2024.1.5,Win32,10.01001001,5a3012083eff6600016f259c,667045947eb812cbdacbf325,66704ca58b5420009c673752,,,,,,,,,,,,,,,,,,,,,,,,,,,,,,,,,,,,,,,,,,,,,,,,,,,,,,,,,,,,,,,,,,,,,,,,,,,,,,,,,,,,,,,,,,,,,,,,,,1596.0946,1598.7301
