welcome.started,welcome.stopped,space_to_continue.keys,space_to_continue.rt,space_to_continue.duration,participant,session,date,expName,psychopyVersion,OS,frameRate,PROLIFIC_PID,STUDY_ID,SESSION_ID,consent.consent,consent.consent_recontact,consent_check.started,consent_check.stopped,calibration_ready.started,calibration_ready.stopped,cal_ready.keys,cal_ready.rt,cal_ready.duration,calibration.started,calibration.stopped,mouse.x,mouse.y,mouse.leftButton,mouse.midButton,mouse.rightButton,mouse.time,mouse.clicked_name,move_on.keys,move_on.rt,move_on.duration,instructions.started,instructions.stopped,next.keys,next.rt,next.duration,practice_trial.started,practice_trial.stopped,practice_slider.response,practice_slider.rt,ready.started,ready.stopped,key_resp.keys,key_resp.rt,key_resp.duration,play_sound.started,play_sound.stopped,trials.thisRepN,trials.thisTrialN,trials.thisN,trials.thisIndex,trials.ran,orig_or_cover,rating.started,rating.stopped,slider.response,slider.rt,songs.thisRepN,songs.thisTrialN,songs.thisN,songs.thisIndex,songs.ran,song_id,short_break.started,short_break.stopped,space_to_move_on.keys,space_to_move_on.rt,space_to_move_on.duration,blocks.thisRepN,blocks.thisTrialN,blocks.thisN,blocks.thisIndex,blocks.ran,block,survey.age,survey.musician,survey.music_making,survey.listen_time,survey.medium,survey.music_seeking,survey.music_choice,survey.activities,survey.question1.Ambient,survey.question1.A cappella,survey.question1.R&B,survey.question1.Metal,survey.question1.Latin,survey.question1.Reggae,survey.question1.Pop,survey.question1.Disco,survey.question1.Country,survey.question1.Folk/indie,survey.question1.Classical,survey.question1.Jazz,survey.question1.Hip hop,survey.question1.Classic rock,survey.question1.Alternative rock,survey.question1.Electronic (EDM),survey.other_genres,survey.genres_ranked.text1,survey.genres_ranked.text2,survey.genres_ranked.text3,survey.habit_change,survey.habits,experiment.thisRepN,experiment.thisTrialN,experiment.thisN,experiment.thisIndex,experiment.ran,goodbye.started,goodbye.stopped
0.0002,51.8235,space,51.8135,,748237,001,2024-06-17_09h56.24.897,experiment,2024.1.5,Win32,59.88023952,568e7e33e3ef9e000da202a7,667045947eb812cbdacbf325,66704b5b1b101716cf98f116,,,,,,,,,,,,,,,,,,,,,,,,,,,,,,,,,,,,,,,,,,,,,,,,,,,,,,,,,,,,,,,,,,,,,,,,,,,,,,,,,,,,,,,,,,,,,,,,,,,,,
,,,,,748237,001,2024-06-17_09h56.24.897,experiment,2024.1.5,Win32,59.88023952,568e7e33e3ef9e000da202a7,667045947eb812cbdacbf325,66704b5b1b101716cf98f116,yes,yes,,,,,,,,,,,,,,,,,,,,,,,,,,,,,,,,,,,,,,,,,,,,,,,,,,,,,,,,,,,,,,,,,,,,,,,,,,,,,,,,,,,,,,,,,,,,,,,,,,,
,,,,,748237,001,2024-06-17_09h56.24.897,experiment,2024.1.5,Win32,59.88023952,568e7e33e3ef9e000da202a7,667045947eb812cbdacbf325,66704b5b1b101716cf98f116,,,78.1574,78.1578,,,,,,,,,,,,,,,,,,,,,,,,,,,,,,,,,,,,,,,,,,,,,,,,,,,,,,,,,,,,,,,,,,,,,,,,,,,,,,,,,,,,,,,,,,,,,,,,,
,,,,,748237,001,2024-06-17_09h56.24.897,experiment,2024.1.5,Win32,59.88023952,568e7e33e3ef9e000da202a7,667045947eb812cbdacbf325,66704b5b1b101716cf98f116,,,,,78.1604,83.2674,space,5.077,,83.2676,131.4198,"[-0.026851865980360243,0.0027778060347945603,-0.052777749520760996,0.004629629629629629,0.019444430315936054,0.015740783126265916,0.005555541427047165,-0.017592606721100985,-0.013888888888888888,-0.01111108285409433,-0.01111108285409433,-0.024074059945565683,0.011111153496636285,-0.009259259259259259,0.006481523867006655,0.037037037037037035,0.0425925784640842]","[-0.43425927338776765,-0.4314814673529731,-0.4287037319607205,-0.4166666666666667,-0.429629643758138,-0.429629643758138,-0.4305555555555556,-0.42777782016330296,-0.42777782016330296,-0.42777782016330296,-0.42407410233109083,-0.4351851851851852,-0.44166670905219185,-0.4111111252396195,-0.4398148148148148,-0.42777782016330296,-0.42777782016330296]","[1,1,1,1,1,1,1,1,1,1,1,1,1,1,1,1,1]","[0,0,0,0,0,0,0,0,0,0,0,0,0,0,0,0,0]","[0,0,0,0,0,0,0,0,0,0,0,0,0,0,0,0,0]","[3.5153000000119192,4.778100000023841,9.681300000011916,11.276600000023834,14.720500000000001,14.799999999999997,27.698199999988077,31.604300000011904,32.418600000023815,32.801400000035756,33.16719999998807,35.29410000002383,35.99230000001191,36.50749999999999,37.00630000001192,46.414100000023836,47.26160000002383]","[""play_button"",""play_button"",""play_button"",""play_button"",""play_button"",""play_button"",""play_button"",""play_button"",""play_button"",""play_button"",""play_button"",""play_button"",""play_button""]",right,38.1278,,131.4201,138.4672,space,7.0252,,138.4675,153.642,2.005555683,15.157,153.6421,155.0217,space,1.368,,155.0359,160.806,0,0,0,1,1,SoundStimuli/SmellsLikeTeenSpirit_Nirvana_Cover5S.wav,,,,,,,,,,,,,,,,,,,,,,,,,,,,,,,,,,,,,,,,,,,,,,,,,,,,,,,,,,
,,,,,748237,001,2024-06-17_09h56.24.897,experiment,2024.1.5,Win32,59.88023952,568e7e33e3ef9e000da202a7,667045947eb812cbdacbf325,66704b5b1b101716cf98f116,,,,,,,,,,,,,,,,,,,,,,,,,,,,,,,,,,,,160.813,167.0054,0,1,1,0,1,SoundStimuli/SmellsLikeTeenSpirit_Nirvana_Original5S.wav,,,,,,,,,,,,,,,,,,,,,,,,,,,,,,,,,,,,,,,,,,,,,,,,,,,,,,,,,,
,,,,,748237,001,2024-06-17_09h56.24.897,experiment,2024.1.5,Win32,59.88023952,568e7e33e3ef9e000da202a7,667045947eb812cbdacbf325,66704b5b1b101716cf98f116,,,,,,,,,,,,,,,,,,,,,,,,,,,,,,,,,,,,,,,,,,,,167.0131,169.6815,6.983333164,2.6608,0,0,0,8,1,song_indices/SmellsLikeTeenSpirit_Nirvana.csv,,,,,,,,,,,,,,,,,,,,,,,,,,,,,,,,,,,,,,,,,,,,,,,,
,,,,,748237,001,2024-06-17_09h56.24.897,experiment,2024.1.5,Win32,59.88023952,568e7e33e3ef9e000da202a7,667045947eb812cbdacbf325,66704b5b1b101716cf98f116,,,,,,,,,,,,,,,,,,,,,,,,,,,,,,,,,,,,169.6824,176.8288,0,0,0,1,1,SoundStimuli/IWalkTheLine_JohnnyCash_Cover5S.wav,,,,,,,,,,,,,,,,,,,,,,,,,,,,,,,,,,,,,,,,,,,,,,,,,,,,,,,,,,
,,,,,748237,001,2024-06-17_09h56.24.897,experiment,2024.1.5,Win32,59.88023952,568e7e33e3ef9e000da202a7,667045947eb812cbdacbf325,66704b5b1b101716cf98f116,,,,,,,,,,,,,,,,,,,,,,,,,,,,,,,,,,,,176.8369,182.8122,0,1,1,0,1,SoundStimuli/IWalkTheLine_JohnnyCash_Original5S.wav,,,,,,,,,,,,,,,,,,,,,,,,,,,,,,,,,,,,,,,,,,,,,,,,,,,,,,,,,,
,,,,,748237,001,2024-06-17_09h56.24.897,experiment,2024.1.5,Win32,59.88023952,568e7e33e3ef9e000da202a7,667045947eb812cbdacbf325,66704b5b1b101716cf98f116,,,,,,,,,,,,,,,,,,,,,,,,,,,,,,,,,,,,,,,,,,,,182.8124,186.9344,3.038889143,4.1027,0,1,1,17,1,song_indices/IWalkTheLine_JohnnyCash.csv,,,,,,,,,,,,,,,,,,,,,,,,,,,,,,,,,,,,,,,,,,,,,,,,
,,,,,748237,001,2024-06-17_09h56.24.897,experiment,2024.1.5,Win32,59.88023952,568e7e33e3ef9e000da202a7,667045947eb812cbdacbf325,66704b5b1b101716cf98f116,,,,,,,,,,,,,,,,,,,,,,,,,,,,,,,,,,,,186.9353,193.1008,0,0,0,0,1,SoundStimuli/Fallin_AliciaKeys_Original5S.wav,,,,,,,,,,,,,,,,,,,,,,,,,,,,,,,,,,,,,,,,,,,,,,,,,,,,,,,,,,
,,,,,748237,001,2024-06-17_09h56.24.897,experiment,2024.1.5,Win32,59.88023952,568e7e33e3ef9e000da202a7,667045947eb812cbdacbf325,66704b5b1b101716cf98f116,,,,,,,,,,,,,,,,,,,,,,,,,,,,,,,,,,,,193.1093,199.5332,0,1,1,1,1,SoundStimuli/Fallin_AliciaKeys_Cover5S.wav,,,,,,,,,,,,,,,,,,,,,,,,,,,,,,,,,,,,,,,,,,,,,,,,,,,,,,,,,,
,,,,,748237,001,2024-06-17_09h56.24.897,experiment,2024.1.5,Win32,59.88023952,568e7e33e3ef9e000da202a7,667045947eb812cbdacbf325,66704b5b1b101716cf98f116,,,,,,,,,,,,,,,,,,,,,,,,,,,,,,,,,,,,,,,,,,,,199.5333,201.4276,6.011110942,1.885,0,2,2,12,1,song_indices/Fallin_AliciaKeys.csv,,,,,,,,,,,,,,,,,,,,,,,,,,,,,,,,,,,,,,,,,,,,,,,,
,,,,,748237,001,2024-06-17_09h56.24.897,experiment,2024.1.5,Win32,59.88023952,568e7e33e3ef9e000da202a7,667045947eb812cbdacbf325,66704b5b1b101716cf98f116,,,,,,,,,,,,,,,,,,,,,,,,,,,,,,,,,,,,201.4283,208.1765,0,0,0,0,1,SoundStimuli/PartyRockAnthem_LMFAO_Original5S.wav,,,,,,,,,,,,,,,,,,,,,,,,,,,,,,,,,,,,,,,,,,,,,,,,,,,,,,,,,,
,,,,,748237,001,2024-06-17_09h56.24.897,experiment,2024.1.5,Win32,59.88023952,568e7e33e3ef9e000da202a7,667045947eb812cbdacbf325,66704b5b1b101716cf98f116,,,,,,,,,,,,,,,,,,,,,,,,,,,,,,,,,,,,208.1848,214.958,0,1,1,1,1,SoundStimuli/PartyRockAnthem_LMFAO_Cover5S.wav,,,,,,,,,,,,,,,,,,,,,,,,,,,,,,,,,,,,,,,,,,,,,,,,,,,,,,,,,,
,,,,,748237,001,2024-06-17_09h56.24.897,experiment,2024.1.5,Win32,59.88023952,568e7e33e3ef9e000da202a7,667045947eb812cbdacbf325,66704b5b1b101716cf98f116,,,,,,,,,,,,,,,,,,,,,,,,,,,,,,,,,,,,,,,,,,,,214.9581,216.2876,6.027777778,1.3121,0,3,3,2,1,song_indices/PartyRockAnthem_LMFAO.csv,,,,,,,,,,,,,,,,,,,,,,,,,,,,,,,,,,,,,,,,,,,,,,,,
,,,,,748237,001,2024-06-17_09h56.24.897,experiment,2024.1.5,Win32,59.88023952,568e7e33e3ef9e000da202a7,667045947eb812cbdacbf325,66704b5b1b101716cf98f116,,,,,,,,,,,,,,,,,,,,,,,,,,,,,,,,,,,,216.2884,222.7533,0,0,0,0,1,SoundStimuli/ShapeofYou_EdSheeran_Original5S.wav,,,,,,,,,,,,,,,,,,,,,,,,,,,,,,,,,,,,,,,,,,,,,,,,,,,,,,,,,,
,,,,,748237,001,2024-06-17_09h56.24.897,experiment,2024.1.5,Win32,59.88023952,568e7e33e3ef9e000da202a7,667045947eb812cbdacbf325,66704b5b1b101716cf98f116,,,,,,,,,,,,,,,,,,,,,,,,,,,,,,,,,,,,222.7617,229.053,0,1,1,1,1,SoundStimuli/ShapeofYou_EdSheeran_Cover5S.wav,,,,,,,,,,,,,,,,,,,,,,,,,,,,,,,,,,,,,,,,,,,,,,,,,,,,,,,,,,
,,,,,748237,001,2024-06-17_09h56.24.897,experiment,2024.1.5,Win32,59.88023952,568e7e33e3ef9e000da202a7,667045947eb812cbdacbf325,66704b5b1b101716cf98f116,,,,,,,,,,,,,,,,,,,,,,,,,,,,,,,,,,,,,,,,,,,,229.0531,232.0281,3.983333588,2.9655,0,4,4,21,1,song_indices/ShapeofYou_EdSheeran.csv,,,,,,,,,,,,,,,,,,,,,,,,,,,,,,,,,,,,,,,,,,,,,,,,
,,,,,748237,001,2024-06-17_09h56.24.897,experiment,2024.1.5,Win32,59.88023952,568e7e33e3ef9e000da202a7,667045947eb812cbdacbf325,66704b5b1b101716cf98f116,,,,,,,,,,,,,,,,,,,,,,,,,,,,,,,,,,,,232.0289,238.2443,0,0,0,0,1,SoundStimuli/TheBoyIsMine_BrandyMonica_Original5S.wav,,,,,,,,,,,,,,,,,,,,,,,,,,,,,,,,,,,,,,,,,,,,,,,,,,,,,,,,,,
,,,,,748237,001,2024-06-17_09h56.24.897,experiment,2024.1.5,Win32,59.88023952,568e7e33e3ef9e000da202a7,667045947eb812cbdacbf325,66704b5b1b101716cf98f116,,,,,,,,,,,,,,,,,,,,,,,,,,,,,,,,,,,,238.2524,244.1951,0,1,1,1,1,SoundStimuli/TheBoyIsMine_BrandyMonica_Cover5S.wav,,,,,,,,,,,,,,,,,,,,,,,,,,,,,,,,,,,,,,,,,,,,,,,,,,,,,,,,,,
,,,,,748237,001,2024-06-17_09h56.24.897,experiment,2024.1.5,Win32,59.88023952,568e7e33e3ef9e000da202a7,667045947eb812cbdacbf325,66704b5b1b101716cf98f116,,,,,,,,,,,,,,,,,,,,,,,,,,,,,,,,,,,,,,,,,,,,244.1953,245.6906,6.066666497,1.4785,0,5,5,6,1,song_indices/TheBoyIsMine_BrandyMonica.csv,,,,,,,,,,,,,,,,,,,,,,,,,,,,,,,,,,,,,,,,,,,,,,,,
,,,,,748237,001,2024-06-17_09h56.24.897,experiment,2024.1.5,Win32,59.88023952,568e7e33e3ef9e000da202a7,667045947eb812cbdacbf325,66704b5b1b101716cf98f116,,,,,,,,,,,,,,,,,,,,,,,,,,,,,,,,,,,,245.6914,251.7578,0,0,0,0,1,SoundStimuli/Stronger_KanyeWest_Original5S.wav,,,,,,,,,,,,,,,,,,,,,,,,,,,,,,,,,,,,,,,,,,,,,,,,,,,,,,,,,,
,,,,,748237,001,2024-06-17_09h56.24.897,experiment,2024.1.5,Win32,59.88023952,568e7e33e3ef9e000da202a7,667045947eb812cbdacbf325,66704b5b1b101716cf98f116,,,,,,,,,,,,,,,,,,,,,,,,,,,,,,,,,,,,251.7665,258.0903,0,1,1,1,1,SoundStimuli/Stronger_KanyeWest_Cover5S.wav,,,,,,,,,,,,,,,,,,,,,,,,,,,,,,,,,,,,,,,,,,,,,,,,,,,,,,,,,,
,,,,,748237,001,2024-06-17_09h56.24.897,experiment,2024.1.5,Win32,59.88023952,568e7e33e3ef9e000da202a7,667045947eb812cbdacbf325,66704b5b1b101716cf98f116,,,,,,,,,,,,,,,,,,,,,,,,,,,,,,,,,,,,,,,,,,,,258.0904,260.5831,3.977777693,2.4736,0,6,6,9,1,song_indices/Stronger_KanyeWest.csv,,,,,,,,,,,,,,,,,,,,,,,,,,,,,,,,,,,,,,,,,,,,,,,,
,,,,,748237,001,2024-06-17_09h56.24.897,experiment,2024.1.5,Win32,59.88023952,568e7e33e3ef9e000da202a7,667045947eb812cbdacbf325,66704b5b1b101716cf98f116,,,,,,,,,,,,,,,,,,,,,,,,,,,,,,,,,,,,260.5842,267.1153,0,0,0,0,1,SoundStimuli/CrazyInLove_BeyonceFtJayZ_Original5S.wav,,,,,,,,,,,,,,,,,,,,,,,,,,,,,,,,,,,,,,,,,,,,,,,,,,,,,,,,,,
,,,,,748237,001,2024-06-17_09h56.24.897,experiment,2024.1.5,Win32,59.88023952,568e7e33e3ef9e000da202a7,667045947eb812cbdacbf325,66704b5b1b101716cf98f116,,,,,,,,,,,,,,,,,,,,,,,,,,,,,,,,,,,,267.123,277.3708,0,1,1,1,1,SoundStimuli/CrazyInLove_BeyonceFtJayZ_Cover5S.wav,,,,,,,,,,,,,,,,,,,,,,,,,,,,,,,,,,,,,,,,,,,,,,,,,,,,,,,,,,
,,,,,748237,001,2024-06-17_09h56.24.897,experiment,2024.1.5,Win32,59.88023952,568e7e33e3ef9e000da202a7,667045947eb812cbdacbf325,66704b5b1b101716cf98f116,,,,,,,,,,,,,,,,,,,,,,,,,,,,,,,,,,,,,,,,,,,,277.371,279.0166,5.072222392,1.6316,0,7,7,3,1,song_indices/CrazyInLove_BeyonceFtJayZ.csv,,,,,,,,,,,,,,,,,,,,,,,,,,,,,,,,,,,,,,,,,,,,,,,,
,,,,,748237,001,2024-06-17_09h56.24.897,experiment,2024.1.5,Win32,59.88023952,568e7e33e3ef9e000da202a7,667045947eb812cbdacbf325,66704b5b1b101716cf98f116,,,,,,,,,,,,,,,,,,,,,,,,,,,,,,,,,,,,279.0173,285.1166,0,0,0,0,1,SoundStimuli/GimmeShelter_RollingStones_Original5S.wav,,,,,,,,,,,,,,,,,,,,,,,,,,,,,,,,,,,,,,,,,,,,,,,,,,,,,,,,,,
,,,,,748237,001,2024-06-17_09h56.24.897,experiment,2024.1.5,Win32,59.88023952,568e7e33e3ef9e000da202a7,667045947eb812cbdacbf325,66704b5b1b101716cf98f116,,,,,,,,,,,,,,,,,,,,,,,,,,,,,,,,,,,,285.1247,291.3331,0,1,1,1,1,SoundStimuli/GimmeShelter_RollingStones_Cover5S.wav,,,,,,,,,,,,,,,,,,,,,,,,,,,,,,,,,,,,,,,,,,,,,,,,,,,,,,,,,,
,,,,,748237,001,2024-06-17_09h56.24.897,experiment,2024.1.5,Win32,59.88023952,568e7e33e3ef9e000da202a7,667045947eb812cbdacbf325,66704b5b1b101716cf98f116,,,,,,,,,,,,,,,,,,,,,,,,,,,,,,,,,,,,,,,,,,,,291.3331,293.3275,1.027777778,1.976,0,8,8,20,1,song_indices/GimmeShelter_RollingStones.csv,,,,,,,,,,,,,,,,,,,,,,,,,,,,,,,,,,,,,,,,,,,,,,,,
,,,,,748237,001,2024-06-17_09h56.24.897,experiment,2024.1.5,Win32,59.88023952,568e7e33e3ef9e000da202a7,667045947eb812cbdacbf325,66704b5b1b101716cf98f116,,,,,,,,,,,,,,,,,,,,,,,,,,,,,,,,,,,,293.3282,299.4605,0,0,0,1,1,SoundStimuli/NoScrubs_TLC_Cover5S.wav,,,,,,,,,,,,,,,,,,,,,,,,,,,,,,,,,,,,,,,,,,,,,,,,,,,,,,,,,,
,,,,,748237,001,2024-06-17_09h56.24.897,experiment,2024.1.5,Win32,59.88023952,568e7e33e3ef9e000da202a7,667045947eb812cbdacbf325,66704b5b1b101716cf98f116,,,,,,,,,,,,,,,,,,,,,,,,,,,,,,,,,,,,299.4686,305.6604,0,1,1,0,1,SoundStimuli/NoScrubs_TLC_Original5S.wav,,,,,,,,,,,,,,,,,,,,,,,,,,,,,,,,,,,,,,,,,,,,,,,,,,,,,,,,,,
,,,,,748237,001,2024-06-17_09h56.24.897,experiment,2024.1.5,Win32,59.88023952,568e7e33e3ef9e000da202a7,667045947eb812cbdacbf325,66704b5b1b101716cf98f116,,,,,,,,,,,,,,,,,,,,,,,,,,,,,,,,,,,,,,,,,,,,305.6607,307.6051,6.994444953,1.9268,0,9,9,14,1,song_indices/NoScrubs_TLC.csv,,,,,,,,,,,,,,,,,,,,,,,,,,,,,,,,,,,,,,,,,,,,,,,,
,,,,,748237,001,2024-06-17_09h56.24.897,experiment,2024.1.5,Win32,59.88023952,568e7e33e3ef9e000da202a7,667045947eb812cbdacbf325,66704b5b1b101716cf98f116,,,,,,,,,,,,,,,,,,,,,,,,,,,,,,,,,,,,307.6059,313.9047,0,0,0,0,1,SoundStimuli/HeyYa_Outkast_Original5S.wav,,,,,,,,,,,,,,,,,,,,,,,,,,,,,,,,,,,,,,,,,,,,,,,,,,,,,,,,,,
,,,,,748237,001,2024-06-17_09h56.24.897,experiment,2024.1.5,Win32,59.88023952,568e7e33e3ef9e000da202a7,667045947eb812cbdacbf325,66704b5b1b101716cf98f116,,,,,,,,,,,,,,,,,,,,,,,,,,,,,,,,,,,,313.9125,322.8304,0,1,1,1,1,SoundStimuli/HeyYa_Outkast_Cover5S.wav,,,,,,,,,,,,,,,,,,,,,,,,,,,,,,,,,,,,,,,,,,,,,,,,,,,,,,,,,,
,,,,,748237,001,2024-06-17_09h56.24.897,experiment,2024.1.5,Win32,59.88023952,568e7e33e3ef9e000da202a7,667045947eb812cbdacbf325,66704b5b1b101716cf98f116,,,,,,,,,,,,,,,,,,,,,,,,,,,,,,,,,,,,,,,,,,,,322.8306,324.6089,3.966666751,1.7632,0,10,10,22,1,song_indices/HeyYa_Outkast.csv,,,,,,,,,,,,,,,,,,,,,,,,,,,,,,,,,,,,,,,,,,,,,,,,
,,,,,748237,001,2024-06-17_09h56.24.897,experiment,2024.1.5,Win32,59.88023952,568e7e33e3ef9e000da202a7,667045947eb812cbdacbf325,66704b5b1b101716cf98f116,,,,,,,,,,,,,,,,,,,,,,,,,,,,,,,,,,,,324.6097,330.3099,0,0,0,1,1,SoundStimuli/BetteDavisEyes_KimCarnes_Cover5S.wav,,,,,,,,,,,,,,,,,,,,,,,,,,,,,,,,,,,,,,,,,,,,,,,,,,,,,,,,,,
,,,,,748237,001,2024-06-17_09h56.24.897,experiment,2024.1.5,Win32,59.88023952,568e7e33e3ef9e000da202a7,667045947eb812cbdacbf325,66704b5b1b101716cf98f116,,,,,,,,,,,,,,,,,,,,,,,,,,,,,,,,,,,,330.3168,336.5262,0,1,1,0,1,SoundStimuli/BetteDavisEyes_KimCarnes_Original5S.wav,,,,,,,,,,,,,,,,,,,,,,,,,,,,,,,,,,,,,,,,,,,,,,,,,,,,,,,,,,
,,,,,748237,001,2024-06-17_09h56.24.897,experiment,2024.1.5,Win32,59.88023952,568e7e33e3ef9e000da202a7,667045947eb812cbdacbf325,66704b5b1b101716cf98f116,,,,,,,,,,,,,,,,,,,,,,,,,,,,,,,,,,,,,,,,,,,,336.5263,337.3574,3.966666751,0.8201,0,11,11,5,1,song_indices/BetteDavisEyes_KimCarnes.csv,,,,,,,,,,,,,,,,,,,,,,,,,,,,,,,,,,,,,,,,,,,,,,,,
,,,,,748237,001,2024-06-17_09h56.24.897,experiment,2024.1.5,Win32,59.88023952,568e7e33e3ef9e000da202a7,667045947eb812cbdacbf325,66704b5b1b101716cf98f116,,,,,,,,,,,,,,,,,,,,,,,,,,,,,,,,,,,,337.3582,343.69,0,0,0,0,1,SoundStimuli/RockWithYou_MichaelJackson_Original5S.wav,,,,,,,,,,,,,,,,,,,,,,,,,,,,,,,,,,,,,,,,,,,,,,,,,,,,,,,,,,
,,,,,748237,001,2024-06-17_09h56.24.897,experiment,2024.1.5,Win32,59.88023952,568e7e33e3ef9e000da202a7,667045947eb812cbdacbf325,66704b5b1b101716cf98f116,,,,,,,,,,,,,,,,,,,,,,,,,,,,,,,,,,,,343.6981,349.757,0,1,1,1,1,SoundStimuli/RockWithYou_MichaelJackson_Cover5S.wav,,,,,,,,,,,,,,,,,,,,,,,,,,,,,,,,,,,,,,,,,,,,,,,,,,,,,,,,,,
,,,,,748237,001,2024-06-17_09h56.24.897,experiment,2024.1.5,Win32,59.88023952,568e7e33e3ef9e000da202a7,667045947eb812cbdacbf325,66704b5b1b101716cf98f116,,,,,,,,,,,,,,,,,,,,,,,,,,,,,,,,,,,,,,,,,,,,349.7571,350.6543,3.983333588,0.8796,0,12,12,16,1,song_indices/RockWithYou_MichaelJackson.csv,,,,,,,,,,,,,,,,,,,,,,,,,,,,,,,,,,,,,,,,,,,,,,,,
,,,,,748237,001,2024-06-17_09h56.24.897,experiment,2024.1.5,Win32,59.88023952,568e7e33e3ef9e000da202a7,667045947eb812cbdacbf325,66704b5b1b101716cf98f116,,,,,,,,,,,,,,,,,,,,,,,,,,,,,,,,,,,,350.655,357.8848,0,0,0,0,1,SoundStimuli/UptownFunk_MarkRonson_Original5S.wav,,,,,,,,,,,,,,,,,,,,,,,,,,,,,,,,,,,,,,,,,,,,,,,,,,,,,,,,,,
,,,,,748237,001,2024-06-17_09h56.24.897,experiment,2024.1.5,Win32,59.88023952,568e7e33e3ef9e000da202a7,667045947eb812cbdacbf325,66704b5b1b101716cf98f116,,,,,,,,,,,,,,,,,,,,,,,,,,,,,,,,,,,,357.8934,364.9156,0,1,1,1,1,SoundStimuli/UptownFunk_MarkRonson_Cover5S.wav,,,,,,,,,,,,,,,,,,,,,,,,,,,,,,,,,,,,,,,,,,,,,,,,,,,,,,,,,,
,,,,,748237,001,2024-06-17_09h56.24.897,experiment,2024.1.5,Win32,59.88023952,568e7e33e3ef9e000da202a7,667045947eb812cbdacbf325,66704b5b1b101716cf98f116,,,,,,,,,,,,,,,,,,,,,,,,,,,,,,,,,,,,,,,,,,,,364.9158,365.7963,6.961111281,0.872,0,13,13,15,1,song_indices/UptownFunk_MarkRonson.csv,,,,,,,,,,,,,,,,,,,,,,,,,,,,,,,,,,,,,,,,,,,,,,,,
,,,,,748237,001,2024-06-17_09h56.24.897,experiment,2024.1.5,Win32,59.88023952,568e7e33e3ef9e000da202a7,667045947eb812cbdacbf325,66704b5b1b101716cf98f116,,,,,,,,,,,,,,,,,,,,,,,,,,,,,,,,,,,,365.797,371.7303,0,0,0,0,1,SoundStimuli/StandByMe_BenEKing_Original5S.wav,,,,,,,,,,,,,,,,,,,,,,,,,,,,,,,,,,,,,,,,,,,,,,,,,,,,,,,,,,
,,,,,748237,001,2024-06-17_09h56.24.897,experiment,2024.1.5,Win32,59.88023952,568e7e33e3ef9e000da202a7,667045947eb812cbdacbf325,66704b5b1b101716cf98f116,,,,,,,,,,,,,,,,,,,,,,,,,,,,,,,,,,,,371.738,377.7639,0,1,1,1,1,SoundStimuli/StandByMe_BenEKing_Cover5S.wav,,,,,,,,,,,,,,,,,,,,,,,,,,,,,,,,,,,,,,,,,,,,,,,,,,,,,,,,,,
,,,,,748237,001,2024-06-17_09h56.24.897,experiment,2024.1.5,Win32,59.88023952,568e7e33e3ef9e000da202a7,667045947eb812cbdacbf325,66704b5b1b101716cf98f116,,,,,,,,,,,,,,,,,,,,,,,,,,,,,,,,,,,,,,,,,,,,377.764,378.6949,4.977777693,0.9103,0,14,14,1,1,song_indices/StandByMe_BenEKing.csv,,,,,,,,,,,,,,,,,,,,,,,,,,,,,,,,,,,,,,,,,,,,,,,,
,,,,,748237,001,2024-06-17_09h56.24.897,experiment,2024.1.5,Win32,59.88023952,568e7e33e3ef9e000da202a7,667045947eb812cbdacbf325,66704b5b1b101716cf98f116,,,,,,,,,,,,,,,,,,,,,,,,,,,,,,,,,,,,378.6957,386.0579,0,0,0,0,1,SoundStimuli/Happy_PharellWilliams_Original5S.wav,,,,,,,,,,,,,,,,,,,,,,,,,,,,,,,,,,,,,,,,,,,,,,,,,,,,,,,,,,
,,,,,748237,001,2024-06-17_09h56.24.897,experiment,2024.1.5,Win32,59.88023952,568e7e33e3ef9e000da202a7,667045947eb812cbdacbf325,66704b5b1b101716cf98f116,,,,,,,,,,,,,,,,,,,,,,,,,,,,,,,,,,,,386.0663,393.4208,0,1,1,1,1,SoundStimuli/Happy_PharellWilliams_Cover5S.wav,,,,,,,,,,,,,,,,,,,,,,,,,,,,,,,,,,,,,,,,,,,,,,,,,,,,,,,,,,
,,,,,748237,001,2024-06-17_09h56.24.897,experiment,2024.1.5,Win32,59.88023952,568e7e33e3ef9e000da202a7,667045947eb812cbdacbf325,66704b5b1b101716cf98f116,,,,,,,,,,,,,,,,,,,,,,,,,,,,,,,,,,,,,,,,,,,,393.421,394.2351,5.055555556,0.7986,0,15,15,7,1,song_indices/Happy_PharellWilliams.csv,,,,,,,,,,,,,,,,,,,,,,,,,,,,,,,,,,,,,,,,,,,,,,,,
,,,,,748237,001,2024-06-17_09h56.24.897,experiment,2024.1.5,Win32,59.88023952,568e7e33e3ef9e000da202a7,667045947eb812cbdacbf325,66704b5b1b101716cf98f116,,,,,,,,,,,,,,,,,,,,,,,,,,,,,,,,,,,,394.2358,400.369,0,0,0,1,1,SoundStimuli/EyeOfTheTiger_Survivor_Cover5S.wav,,,,,,,,,,,,,,,,,,,,,,,,,,,,,,,,,,,,,,,,,,,,,,,,,,,,,,,,,,
,,,,,748237,001,2024-06-17_09h56.24.897,experiment,2024.1.5,Win32,59.88023952,568e7e33e3ef9e000da202a7,667045947eb812cbdacbf325,66704b5b1b101716cf98f116,,,,,,,,,,,,,,,,,,,,,,,,,,,,,,,,,,,,400.3762,406.2695,0,1,1,0,1,SoundStimuli/EyeOfTheTiger_Survivor_Original5S.wav,,,,,,,,,,,,,,,,,,,,,,,,,,,,,,,,,,,,,,,,,,,,,,,,,,,,,,,,,,
,,,,,748237,001,2024-06-17_09h56.24.897,experiment,2024.1.5,Win32,59.88023952,568e7e33e3ef9e000da202a7,667045947eb812cbdacbf325,66704b5b1b101716cf98f116,,,,,,,,,,,,,,,,,,,,,,,,,,,,,,,,,,,,,,,,,,,,406.2696,407.1835,6.950000339,0.8962,0,16,16,11,1,song_indices/EyeOfTheTiger_Survivor.csv,,,,,,,,,,,,,,,,,,,,,,,,,,,,,,,,,,,,,,,,,,,,,,,,
,,,,,748237,001,2024-06-17_09h56.24.897,experiment,2024.1.5,Win32,59.88023952,568e7e33e3ef9e000da202a7,667045947eb812cbdacbf325,66704b5b1b101716cf98f116,,,,,,,,,,,,,,,,,,,,,,,,,,,,,,,,,,,,407.1844,413.4,0,0,0,1,1,SoundStimuli/NoOne_AliciaKeys_Cover5S.wav,,,,,,,,,,,,,,,,,,,,,,,,,,,,,,,,,,,,,,,,,,,,,,,,,,,,,,,,,,
,,,,,748237,001,2024-06-17_09h56.24.897,experiment,2024.1.5,Win32,59.88023952,568e7e33e3ef9e000da202a7,667045947eb812cbdacbf325,66704b5b1b101716cf98f116,,,,,,,,,,,,,,,,,,,,,,,,,,,,,,,,,,,,413.408,421.1289,0,1,1,0,1,SoundStimuli/NoOne_AliciaKeys_Original5S.wav,,,,,,,,,,,,,,,,,,,,,,,,,,,,,,,,,,,,,,,,,,,,,,,,,,,,,,,,,,
,,,,,748237,001,2024-06-17_09h56.24.897,experiment,2024.1.5,Win32,59.88023952,568e7e33e3ef9e000da202a7,667045947eb812cbdacbf325,66704b5b1b101716cf98f116,,,,,,,,,,,,,,,,,,,,,,,,,,,,,,,,,,,,,,,,,,,,421.129,422.5082,4.866666582,1.3616,0,17,17,19,1,song_indices/NoOne_AliciaKeys.csv,,,,,,,,,,,,,,,,,,,,,,,,,,,,,,,,,,,,,,,,,,,,,,,,
,,,,,748237,001,2024-06-17_09h56.24.897,experiment,2024.1.5,Win32,59.88023952,568e7e33e3ef9e000da202a7,667045947eb812cbdacbf325,66704b5b1b101716cf98f116,,,,,,,,,,,,,,,,,,,,,,,,,,,,,,,,,,,,422.5091,430.4862,0,0,0,1,1,SoundStimuli/TheBattleOfNewOrleans_JohnnyHorton_Cover5S.wav,,,,,,,,,,,,,,,,,,,,,,,,,,,,,,,,,,,,,,,,,,,,,,,,,,,,,,,,,,
,,,,,748237,001,2024-06-17_09h56.24.897,experiment,2024.1.5,Win32,59.88023952,568e7e33e3ef9e000da202a7,667045947eb812cbdacbf325,66704b5b1b101716cf98f116,,,,,,,,,,,,,,,,,,,,,,,,,,,,,,,,,,,,430.493,436.7029,0,1,1,0,1,SoundStimuli/TheBattleOfNewOrleans_JohnnyHorton_Original5S.wav,,,,,,,,,,,,,,,,,,,,,,,,,,,,,,,,,,,,,,,,,,,,,,,,,,,,,,,,,,
,,,,,748237,001,2024-06-17_09h56.24.897,experiment,2024.1.5,Win32,59.88023952,568e7e33e3ef9e000da202a7,667045947eb812cbdacbf325,66704b5b1b101716cf98f116,,,,,,,,,,,,,,,,,,,,,,,,,,,,,,,,,,,,,,,,,,,,436.703,437.8,1,1.0769,0,18,18,4,1,song_indices/TheBattleOfNewOrleans_JohnnyHorton.csv,,,,,,,,,,,,,,,,,,,,,,,,,,,,,,,,,,,,,,,,,,,,,,,,
,,,,,748237,001,2024-06-17_09h56.24.897,experiment,2024.1.5,Win32,59.88023952,568e7e33e3ef9e000da202a7,667045947eb812cbdacbf325,66704b5b1b101716cf98f116,,,,,,,,,,,,,,,,,,,,,,,,,,,,,,,,,,,,437.8009,444.382,0,0,0,1,1,SoundStimuli/GetUrFreakOn_MissyElliot_Cover5S.wav,,,,,,,,,,,,,,,,,,,,,,,,,,,,,,,,,,,,,,,,,,,,,,,,,,,,,,,,,,
,,,,,748237,001,2024-06-17_09h56.24.897,experiment,2024.1.5,Win32,59.88023952,568e7e33e3ef9e000da202a7,667045947eb812cbdacbf325,66704b5b1b101716cf98f116,,,,,,,,,,,,,,,,,,,,,,,,,,,,,,,,,,,,444.3906,450.4652,0,1,1,0,1,SoundStimuli/GetUrFreakOn_MissyElliot_Original5S.wav,,,,,,,,,,,,,,,,,,,,,,,,,,,,,,,,,,,,,,,,,,,,,,,,,,,,,,,,,,
,,,,,748237,001,2024-06-17_09h56.24.897,experiment,2024.1.5,Win32,59.88023952,568e7e33e3ef9e000da202a7,667045947eb812cbdacbf325,66704b5b1b101716cf98f116,,,,,,,,,,,,,,,,,,,,,,,,,,,,,,,,,,,,,,,,,,,,450.4654,451.7119,2.994444529,1.2276,0,19,19,18,1,song_indices/GetUrFreakOn_MissyElliot.csv,,,,,,,,,,,,,,,,,,,,,,,,,,,,,,,,,,,,,,,,,,,,,,,,
,,,,,748237,001,2024-06-17_09h56.24.897,experiment,2024.1.5,Win32,59.88023952,568e7e33e3ef9e000da202a7,667045947eb812cbdacbf325,66704b5b1b101716cf98f116,,,,,,,,,,,,,,,,,,,,,,,,,,,,,,,,,,,,451.7124,458.0946,0,0,0,0,1,SoundStimuli/IWillAlwaysLoveYou_WhitneyHouston_Original5S.wav,,,,,,,,,,,,,,,,,,,,,,,,,,,,,,,,,,,,,,,,,,,,,,,,,,,,,,,,,,
,,,,,748237,001,2024-06-17_09h56.24.897,experiment,2024.1.5,Win32,59.88023952,568e7e33e3ef9e000da202a7,667045947eb812cbdacbf325,66704b5b1b101716cf98f116,,,,,,,,,,,,,,,,,,,,,,,,,,,,,,,,,,,,458.1026,463.9453,0,1,1,1,1,SoundStimuli/IWillAlwaysLoveYou_WhitneyHouston_Cover5S.wav,,,,,,,,,,,,,,,,,,,,,,,,,,,,,,,,,,,,,,,,,,,,,,,,,,,,,,,,,,
,,,,,748237,001,2024-06-17_09h56.24.897,experiment,2024.1.5,Win32,59.88023952,568e7e33e3ef9e000da202a7,667045947eb812cbdacbf325,66704b5b1b101716cf98f116,,,,,,,,,,,,,,,,,,,,,,,,,,,,,,,,,,,,,,,,,,,,463.9454,466.3221,6.983333164,2.3609,0,20,20,10,1,song_indices/IWillAlwaysLoveYou_WhitneyHouston.csv,,,,,,,,,,,,,,,,,,,,,,,,,,,,,,,,,,,,,,,,,,,,,,,,
,,,,,748237,001,2024-06-17_09h56.24.897,experiment,2024.1.5,Win32,59.88023952,568e7e33e3ef9e000da202a7,667045947eb812cbdacbf325,66704b5b1b101716cf98f116,,,,,,,,,,,,,,,,,,,,,,,,,,,,,,,,,,,,466.323,472.5884,0,0,0,0,1,SoundStimuli/ItsAllInTheGame_TommyEdwards_Original5S.wav,,,,,,,,,,,,,,,,,,,,,,,,,,,,,,,,,,,,,,,,,,,,,,,,,,,,,,,,,,
,,,,,748237,001,2024-06-17_09h56.24.897,experiment,2024.1.5,Win32,59.88023952,568e7e33e3ef9e000da202a7,667045947eb812cbdacbf325,66704b5b1b101716cf98f116,,,,,,,,,,,,,,,,,,,,,,,,,,,,,,,,,,,,472.5969,478.8215,0,1,1,1,1,SoundStimuli/ItsAllInTheGame_TommyEdwards_Cover5S.wav,,,,,,,,,,,,,,,,,,,,,,,,,,,,,,,,,,,,,,,,,,,,,,,,,,,,,,,,,,
,,,,,748237,001,2024-06-17_09h56.24.897,experiment,2024.1.5,Win32,59.88023952,568e7e33e3ef9e000da202a7,667045947eb812cbdacbf325,66704b5b1b101716cf98f116,,,,,,,,,,,,,,,,,,,,,,,,,,,,,,,,,,,,,,,,,,,,478.8217,479.9683,6.961111281,1.1255,0,21,21,13,1,song_indices/ItsAllInTheGame_TommyEdwards.csv,,,,,,,,,,,,,,,,,,,,,,,,,,,,,,,,,,,,,,,,,,,,,,,,
,,,,,748237,001,2024-06-17_09h56.24.897,experiment,2024.1.5,Win32,59.88023952,568e7e33e3ef9e000da202a7,667045947eb812cbdacbf325,66704b5b1b101716cf98f116,,,,,,,,,,,,,,,,,,,,,,,,,,,,,,,,,,,,479.9691,486.3342,0,0,0,1,1,SoundStimuli/GoodGollyMissMolly_LittleRichard_Cover5S.wav,,,,,,,,,,,,,,,,,,,,,,,,,,,,,,,,,,,,,,,,,,,,,,,,,,,,,,,,,,
,,,,,748237,001,2024-06-17_09h56.24.897,experiment,2024.1.5,Win32,59.88023952,568e7e33e3ef9e000da202a7,667045947eb812cbdacbf325,66704b5b1b101716cf98f116,,,,,,,,,,,,,,,,,,,,,,,,,,,,,,,,,,,,486.3405,492.401,0,1,1,0,1,SoundStimuli/GoodGollyMissMolly_LittleRichard_Original5S.wav,,,,,,,,,,,,,,,,,,,,,,,,,,,,,,,,,,,,,,,,,,,,,,,,,,,,,,,,,,
,,,,,748237,001,2024-06-17_09h56.24.897,experiment,2024.1.5,Win32,59.88023952,568e7e33e3ef9e000da202a7,667045947eb812cbdacbf325,66704b5b1b101716cf98f116,,,,,,,,,,,,,,,,,,,,,,,,,,,,,,,,,,,,,,,,,,,,492.4011,494.6779,2.994444529,2.2556,0,22,22,0,1,song_indices/GoodGollyMissMolly_LittleRichard.csv,,,,,,,,,,,,,,,,,,,,,,,,,,,,,,,,,,,,,,,,,,,,,,,,
,,,,,748237,001,2024-06-17_09h56.24.897,experiment,2024.1.5,Win32,59.88023952,568e7e33e3ef9e000da202a7,667045947eb812cbdacbf325,66704b5b1b101716cf98f116,,,,,,,,,,,,,,,,,,,,,,,,,,,,,,,,,,,,,,,,,,,,,,,,,,,,,,494.6782,496.9888,space,2.2981,,0,0,0,1,1,choose_song_b2.csv,,,,,,,,,,,,,,,,,,,,,,,,,,,,,,,,,,,,,
,,,,,748237,001,2024-06-17_09h56.24.897,experiment,2024.1.5,Win32,59.88023952,568e7e33e3ef9e000da202a7,667045947eb812cbdacbf325,66704b5b1b101716cf98f116,,,,,,,,,,,,,,,,,,,,,,,,,,,,,,,,,,,,496.9899,503.0887,0,0,0,0,1,SoundStimuli/HeatWaves_GlassAnimals_Original5S.wav,,,,,,,,,,,,,,,,,,,,,,,,,,,,,,,,,,,,,,,,,,,,,,,,,,,,,,,,,,
,,,,,748237,001,2024-06-17_09h56.24.897,experiment,2024.1.5,Win32,59.88023952,568e7e33e3ef9e000da202a7,667045947eb812cbdacbf325,66704b5b1b101716cf98f116,,,,,,,,,,,,,,,,,,,,,,,,,,,,,,,,,,,,503.0974,511.6818,0,1,1,1,1,SoundStimuli/HeatWaves_GlassAnimals_Cover5S.wav,,,,,,,,,,,,,,,,,,,,,,,,,,,,,,,,,,,,,,,,,,,,,,,,,,,,,,,,,,
,,,,,748237,001,2024-06-17_09h56.24.897,experiment,2024.1.5,Win32,59.88023952,568e7e33e3ef9e000da202a7,667045947eb812cbdacbf325,66704b5b1b101716cf98f116,,,,,,,,,,,,,,,,,,,,,,,,,,,,,,,,,,,,,,,,,,,,511.682,512.7788,5,1.0805,0,0,0,10,1,song_indices/HeatWaves_GlassAnimals.csv,,,,,,,,,,,,,,,,,,,,,,,,,,,,,,,,,,,,,,,,,,,,,,,,
,,,,,748237,001,2024-06-17_09h56.24.897,experiment,2024.1.5,Win32,59.88023952,568e7e33e3ef9e000da202a7,667045947eb812cbdacbf325,66704b5b1b101716cf98f116,,,,,,,,,,,,,,,,,,,,,,,,,,,,,,,,,,,,512.7797,519.1115,0,0,0,0,1,SoundStimuli/EndlessLove_DianaRossLionelRichie_Original5S.wav,,,,,,,,,,,,,,,,,,,,,,,,,,,,,,,,,,,,,,,,,,,,,,,,,,,,,,,,,,
,,,,,748237,001,2024-06-17_09h56.24.897,experiment,2024.1.5,Win32,59.88023952,568e7e33e3ef9e000da202a7,667045947eb812cbdacbf325,66704b5b1b101716cf98f116,,,,,,,,,,,,,,,,,,,,,,,,,,,,,,,,,,,,519.1194,526.6245,0,1,1,1,1,SoundStimuli/EndlessLove_DianaRossLionelRichie_Cover5S.wav,,,,,,,,,,,,,,,,,,,,,,,,,,,,,,,,,,,,,,,,,,,,,,,,,,,,,,,,,,
,,,,,748237,001,2024-06-17_09h56.24.897,experiment,2024.1.5,Win32,59.88023952,568e7e33e3ef9e000da202a7,667045947eb812cbdacbf325,66704b5b1b101716cf98f116,,,,,,,,,,,,,,,,,,,,,,,,,,,,,,,,,,,,,,,,,,,,526.6247,528.2865,6.944444444,1.6482,0,1,1,3,1,song_indices/EndlessLove_DianaRossLionelRichie.csv,,,,,,,,,,,,,,,,,,,,,,,,,,,,,,,,,,,,,,,,,,,,,,,,
,,,,,748237,001,2024-06-17_09h56.24.897,experiment,2024.1.5,Win32,59.88023952,568e7e33e3ef9e000da202a7,667045947eb812cbdacbf325,66704b5b1b101716cf98f116,,,,,,,,,,,,,,,,,,,,,,,,,,,,,,,,,,,,528.2872,534.586,0,0,0,0,1,SoundStimuli/Mood_24kGoldnianndior_Original5S.wav,,,,,,,,,,,,,,,,,,,,,,,,,,,,,,,,,,,,,,,,,,,,,,,,,,,,,,,,,,
,,,,,748237,001,2024-06-17_09h56.24.897,experiment,2024.1.5,Win32,59.88023952,568e7e33e3ef9e000da202a7,667045947eb812cbdacbf325,66704b5b1b101716cf98f116,,,,,,,,,,,,,,,,,,,,,,,,,,,,,,,,,,,,534.5932,542.88,0,1,1,1,1,SoundStimuli/Mood_24kGoldnianndior_Cover5S.wav,,,,,,,,,,,,,,,,,,,,,,,,,,,,,,,,,,,,,,,,,,,,,,,,,,,,,,,,,,
,,,,,748237,001,2024-06-17_09h56.24.897,experiment,2024.1.5,Win32,59.88023952,568e7e33e3ef9e000da202a7,667045947eb812cbdacbf325,66704b5b1b101716cf98f116,,,,,,,,,,,,,,,,,,,,,,,,,,,,,,,,,,,,,,,,,,,,542.8802,544.6586,3.027777778,1.7618,0,2,2,5,1,song_indices/Mood_24kGoldnianndior.csv,,,,,,,,,,,,,,,,,,,,,,,,,,,,,,,,,,,,,,,,,,,,,,,,
,,,,,748237,001,2024-06-17_09h56.24.897,experiment,2024.1.5,Win32,59.88023952,568e7e33e3ef9e000da202a7,667045947eb812cbdacbf325,66704b5b1b101716cf98f116,,,,,,,,,,,,,,,,,,,,,,,,,,,,,,,,,,,,544.6593,550.9242,0,0,0,1,1,SoundStimuli/MackTheKnife_BobbyDarin_Cover5S.wav,,,,,,,,,,,,,,,,,,,,,,,,,,,,,,,,,,,,,,,,,,,,,,,,,,,,,,,,,,
,,,,,748237,001,2024-06-17_09h56.24.897,experiment,2024.1.5,Win32,59.88023952,568e7e33e3ef9e000da202a7,667045947eb812cbdacbf325,66704b5b1b101716cf98f116,,,,,,,,,,,,,,,,,,,,,,,,,,,,,,,,,,,,550.9307,557.0747,0,1,1,0,1,SoundStimuli/MackTheKnife_BobbyDarin_Original5S.wav,,,,,,,,,,,,,,,,,,,,,,,,,,,,,,,,,,,,,,,,,,,,,,,,,,,,,,,,,,
,,,,,748237,001,2024-06-17_09h56.24.897,experiment,2024.1.5,Win32,59.88023952,568e7e33e3ef9e000da202a7,667045947eb812cbdacbf325,66704b5b1b101716cf98f116,,,,,,,,,,,,,,,,,,,,,,,,,,,,,,,,,,,,,,,,,,,,557.0749,558.2545,1.966666751,1.1607,0,3,3,21,1,song_indices/MackTheKnife_BobbyDarin.csv,,,,,,,,,,,,,,,,,,,,,,,,,,,,,,,,,,,,,,,,,,,,,,,,
,,,,,748237,001,2024-06-17_09h56.24.897,experiment,2024.1.5,Win32,59.88023952,568e7e33e3ef9e000da202a7,667045947eb812cbdacbf325,66704b5b1b101716cf98f116,,,,,,,,,,,,,,,,,,,,,,,,,,,,,,,,,,,,558.2554,562.6593,0,0,0,1,1,SoundStimuli/LikeARollingStone_BobDylan_Cover5S.wav,,,,,,,,,,,,,,,,,,,,,,,,,,,,,,,,,,,,,,,,,,,,,,,,,,,,,,,,,,
,,,,,748237,001,2024-06-17_09h56.24.897,experiment,2024.1.5,Win32,59.88023952,568e7e33e3ef9e000da202a7,667045947eb812cbdacbf325,66704b5b1b101716cf98f116,,,,,,,,,,,,,,,,,,,,,,,,,,,,,,,,,,,,562.6666,568.8092,0,1,1,0,1,SoundStimuli/LikeARollingStone_BobDylan_Original5S.wav,,,,,,,,,,,,,,,,,,,,,,,,,,,,,,,,,,,,,,,,,,,,,,,,,,,,,,,,,,
,,,,,748237,001,2024-06-17_09h56.24.897,experiment,2024.1.5,Win32,59.88023952,568e7e33e3ef9e000da202a7,667045947eb812cbdacbf325,66704b5b1b101716cf98f116,,,,,,,,,,,,,,,,,,,,,,,,,,,,,,,,,,,,,,,,,,,,568.8093,570.4213,2.977777693,1.6009,0,4,4,12,1,song_indices/LikeARollingStone_BobDylan.csv,,,,,,,,,,,,,,,,,,,,,,,,,,,,,,,,,,,,,,,,,,,,,,,,
,,,,,748237,001,2024-06-17_09h56.24.897,experiment,2024.1.5,Win32,59.88023952,568e7e33e3ef9e000da202a7,667045947eb812cbdacbf325,66704b5b1b101716cf98f116,,,,,,,,,,,,,,,,,,,,,,,,,,,,,,,,,,,,570.422,576.6711,0,0,0,0,1,SoundStimuli/LivinOnAPrayer_BonJovi_Original5S.wav,,,,,,,,,,,,,,,,,,,,,,,,,,,,,,,,,,,,,,,,,,,,,,,,,,,,,,,,,,
,,,,,748237,001,2024-06-17_09h56.24.897,experiment,2024.1.5,Win32,59.88023952,568e7e33e3ef9e000da202a7,667045947eb812cbdacbf325,66704b5b1b101716cf98f116,,,,,,,,,,,,,,,,,,,,,,,,,,,,,,,,,,,,576.6791,584.3503,0,1,1,1,1,SoundStimuli/LivinOnAPrayer_BonJovi_Cover5S.wav,,,,,,,,,,,,,,,,,,,,,,,,,,,,,,,,,,,,,,,,,,,,,,,,,,,,,,,,,,
,,,,,748237,001,2024-06-17_09h56.24.897,experiment,2024.1.5,Win32,59.88023952,568e7e33e3ef9e000da202a7,667045947eb812cbdacbf325,66704b5b1b101716cf98f116,,,,,,,,,,,,,,,,,,,,,,,,,,,,,,,,,,,,,,,,,,,,584.3505,586.7936,4.055555556,2.4227,0,5,5,16,1,song_indices/LivinOnAPrayer_BonJovi.csv,,,,,,,,,,,,,,,,,,,,,,,,,,,,,,,,,,,,,,,,,,,,,,,,
,,,,,748237,001,2024-06-17_09h56.24.897,experiment,2024.1.5,Win32,59.88023952,568e7e33e3ef9e000da202a7,667045947eb812cbdacbf325,66704b5b1b101716cf98f116,,,,,,,,,,,,,,,,,,,,,,,,,,,,,,,,,,,,586.7943,593.8245,0,0,0,1,1,SoundStimuli/StrawberryFieldsForever_TheBeatles_Cover5S.wav,,,,,,,,,,,,,,,,,,,,,,,,,,,,,,,,,,,,,,,,,,,,,,,,,,,,,,,,,,
,,,,,748237,001,2024-06-17_09h56.24.897,experiment,2024.1.5,Win32,59.88023952,568e7e33e3ef9e000da202a7,667045947eb812cbdacbf325,66704b5b1b101716cf98f116,,,,,,,,,,,,,,,,,,,,,,,,,,,,,,,,,,,,593.8329,599.9577,0,1,1,0,1,SoundStimuli/StrawberryFieldsForever_TheBeatles_Original5S.wav,,,,,,,,,,,,,,,,,,,,,,,,,,,,,,,,,,,,,,,,,,,,,,,,,,,,,,,,,,
,,,,,748237,001,2024-06-17_09h56.24.897,experiment,2024.1.5,Win32,59.88023952,568e7e33e3ef9e000da202a7,667045947eb812cbdacbf325,66704b5b1b101716cf98f116,,,,,,,,,,,,,,,,,,,,,,,,,,,,,,,,,,,,,,,,,,,,599.9579,601.1378,3.038889143,1.1642,0,6,6,14,1,song_indices/StrawberryFieldsForever_TheBeatles.csv,,,,,,,,,,,,,,,,,,,,,,,,,,,,,,,,,,,,,,,,,,,,,,,,
,,,,,748237,001,2024-06-17_09h56.24.897,experiment,2024.1.5,Win32,59.88023952,568e7e33e3ef9e000da202a7,667045947eb812cbdacbf325,66704b5b1b101716cf98f116,,,,,,,,,,,,,,,,,,,,,,,,,,,,,,,,,,,,601.1386,608.8002,0,0,0,1,1,SoundStimuli/MyGirl_TheTemptations_Cover5S.wav,,,,,,,,,,,,,,,,,,,,,,,,,,,,,,,,,,,,,,,,,,,,,,,,,,,,,,,,,,
,,,,,748237,001,2024-06-17_09h56.24.897,experiment,2024.1.5,Win32,59.88023952,568e7e33e3ef9e000da202a7,667045947eb812cbdacbf325,66704b5b1b101716cf98f116,,,,,,,,,,,,,,,,,,,,,,,,,,,,,,,,,,,,608.8064,615.183,0,1,1,0,1,SoundStimuli/MyGirl_TheTemptations_Original5S.wav,,,,,,,,,,,,,,,,,,,,,,,,,,,,,,,,,,,,,,,,,,,,,,,,,,,,,,,,,,
,,,,,748237,001,2024-06-17_09h56.24.897,experiment,2024.1.5,Win32,59.88023952,568e7e33e3ef9e000da202a7,667045947eb812cbdacbf325,66704b5b1b101716cf98f116,,,,,,,,,,,,,,,,,,,,,,,,,,,,,,,,,,,,,,,,,,,,615.1831,616.0306,3.938888974,0.8289,0,7,7,15,1,song_indices/MyGirl_TheTemptations.csv,,,,,,,,,,,,,,,,,,,,,,,,,,,,,,,,,,,,,,,,,,,,,,,,
,,,,,748237,001,2024-06-17_09h56.24.897,experiment,2024.1.5,Win32,59.88023952,568e7e33e3ef9e000da202a7,667045947eb812cbdacbf325,66704b5b1b101716cf98f116,,,,,,,,,,,,,,,,,,,,,,,,,,,,,,,,,,,,616.0314,622.2302,0,0,0,0,1,SoundStimuli/LikeAPrayer_Madonna_Original5S.wav,,,,,,,,,,,,,,,,,,,,,,,,,,,,,,,,,,,,,,,,,,,,,,,,,,,,,,,,,,
,,,,,748237,001,2024-06-17_09h56.24.897,experiment,2024.1.5,Win32,59.88023952,568e7e33e3ef9e000da202a7,667045947eb812cbdacbf325,66704b5b1b101716cf98f116,,,,,,,,,,,,,,,,,,,,,,,,,,,,,,,,,,,,622.2393,628.4469,0,1,1,1,1,SoundStimuli/LikeAPrayer_Madonna_Cover5S.wav,,,,,,,,,,,,,,,,,,,,,,,,,,,,,,,,,,,,,,,,,,,,,,,,,,,,,,,,,,
,,,,,748237,001,2024-06-17_09h56.24.897,experiment,2024.1.5,Win32,59.88023952,568e7e33e3ef9e000da202a7,667045947eb812cbdacbf325,66704b5b1b101716cf98f116,,,,,,,,,,,,,,,,,,,,,,,,,,,,,,,,,,,,,,,,,,,,628.447,629.8096,5.055555556,1.3473,0,8,8,7,1,song_indices/LikeAPrayer_Madonna.csv,,,,,,,,,,,,,,,,,,,,,,,,,,,,,,,,,,,,,,,,,,,,,,,,
,,,,,748237,001,2024-06-17_09h56.24.897,experiment,2024.1.5,Win32,59.88023952,568e7e33e3ef9e000da202a7,667045947eb812cbdacbf325,66704b5b1b101716cf98f116,,,,,,,,,,,,,,,,,,,,,,,,,,,,,,,,,,,,629.8101,635.6435,0,0,0,1,1,SoundStimuli/StayinAlive_BeeGees_Cover5S.wav,,,,,,,,,,,,,,,,,,,,,,,,,,,,,,,,,,,,,,,,,,,,,,,,,,,,,,,,,,
,,,,,748237,001,2024-06-17_09h56.24.897,experiment,2024.1.5,Win32,59.88023952,568e7e33e3ef9e000da202a7,667045947eb812cbdacbf325,66704b5b1b101716cf98f116,,,,,,,,,,,,,,,,,,,,,,,,,,,,,,,,,,,,635.6515,641.6773,0,1,1,0,1,SoundStimuli/StayinAlive_BeeGees_Original5S.wav,,,,,,,,,,,,,,,,,,,,,,,,,,,,,,,,,,,,,,,,,,,,,,,,,,,,,,,,,,
,,,,,748237,001,2024-06-17_09h56.24.897,experiment,2024.1.5,Win32,59.88023952,568e7e33e3ef9e000da202a7,667045947eb812cbdacbf325,66704b5b1b101716cf98f116,,,,,,,,,,,,,,,,,,,,,,,,,,,,,,,,,,,,,,,,,,,,641.6774,643.2562,5,1.5634,0,9,9,2,1,song_indices/StayinAlive_BeeGees.csv,,,,,,,,,,,,,,,,,,,,,,,,,,,,,,,,,,,,,,,,,,,,,,,,
,,,,,748237,001,2024-06-17_09h56.24.897,experiment,2024.1.5,Win32,59.88023952,568e7e33e3ef9e000da202a7,667045947eb812cbdacbf325,66704b5b1b101716cf98f116,,,,,,,,,,,,,,,,,,,,,,,,,,,,,,,,,,,,643.2571,648.8578,0,0,0,0,1,SoundStimuli/IWannaDanceWithSomebody_WhitneyHouston_Original5S.wav,,,,,,,,,,,,,,,,,,,,,,,,,,,,,,,,,,,,,,,,,,,,,,,,,,,,,,,,,,
,,,,,748237,001,2024-06-17_09h56.24.897,experiment,2024.1.5,Win32,59.88023952,568e7e33e3ef9e000da202a7,667045947eb812cbdacbf325,66704b5b1b101716cf98f116,,,,,,,,,,,,,,,,,,,,,,,,,,,,,,,,,,,,648.8664,655.689,0,1,1,1,1,SoundStimuli/IWannaDanceWithSomebody_WhitneyHouston_Cover5S.wav,,,,,,,,,,,,,,,,,,,,,,,,,,,,,,,,,,,,,,,,,,,,,,,,,,,,,,,,,,
,,,,,748237,001,2024-06-17_09h56.24.897,experiment,2024.1.5,Win32,59.88023952,568e7e33e3ef9e000da202a7,667045947eb812cbdacbf325,66704b5b1b101716cf98f116,,,,,,,,,,,,,,,,,,,,,,,,,,,,,,,,,,,,,,,,,,,,655.689,656.8523,1.044444402,1.1533,0,10,10,13,1,song_indices/IWannaDanceWithSomebody_WhitneyHouston.csv,,,,,,,,,,,,,,,,,,,,,,,,,,,,,,,,,,,,,,,,,,,,,,,,
,,,,,748237,001,2024-06-17_09h56.24.897,experiment,2024.1.5,Win32,59.88023952,568e7e33e3ef9e000da202a7,667045947eb812cbdacbf325,66704b5b1b101716cf98f116,,,,,,,,,,,,,,,,,,,,,,,,,,,,,,,,,,,,656.8531,663.0689,0,0,0,0,1,SoundStimuli/Smooth_SantanaRobThomas_Original5S.wav,,,,,,,,,,,,,,,,,,,,,,,,,,,,,,,,,,,,,,,,,,,,,,,,,,,,,,,,,,
,,,,,748237,001,2024-06-17_09h56.24.897,experiment,2024.1.5,Win32,59.88023952,568e7e33e3ef9e000da202a7,667045947eb812cbdacbf325,66704b5b1b101716cf98f116,,,,,,,,,,,,,,,,,,,,,,,,,,,,,,,,,,,,663.0777,669.2022,0,1,1,1,1,SoundStimuli/Smooth_SantanaRobThomas_Cover5S.wav,,,,,,,,,,,,,,,,,,,,,,,,,,,,,,,,,,,,,,,,,,,,,,,,,,,,,,,,,,
,,,,,748237,001,2024-06-17_09h56.24.897,experiment,2024.1.5,Win32,59.88023952,568e7e33e3ef9e000da202a7,667045947eb812cbdacbf325,66704b5b1b101716cf98f116,,,,,,,,,,,,,,,,,,,,,,,,,,,,,,,,,,,,,,,,,,,,669.2023,670.6151,6.988889058,1.4009,0,11,11,4,1,song_indices/Smooth_SantanaRobThomas.csv,,,,,,,,,,,,,,,,,,,,,,,,,,,,,,,,,,,,,,,,,,,,,,,,
,,,,,748237,001,2024-06-17_09h56.24.897,experiment,2024.1.5,Win32,59.88023952,568e7e33e3ef9e000da202a7,667045947eb812cbdacbf325,66704b5b1b101716cf98f116,,,,,,,,,,,,,,,,,,,,,,,,,,,,,,,,,,,,670.6158,676.8646,0,0,0,0,1,SoundStimuli/GodOnlyKnows_TheBeachBoys_Original5S.wav,,,,,,,,,,,,,,,,,,,,,,,,,,,,,,,,,,,,,,,,,,,,,,,,,,,,,,,,,,
,,,,,748237,001,2024-06-17_09h56.24.897,experiment,2024.1.5,Win32,59.88023952,568e7e33e3ef9e000da202a7,667045947eb812cbdacbf325,66704b5b1b101716cf98f116,,,,,,,,,,,,,,,,,,,,,,,,,,,,,,,,,,,,676.8728,683.7291,0,1,1,1,1,SoundStimuli/GodOnlyKnows_TheBeachBoys_Cover5S.wav,,,,,,,,,,,,,,,,,,,,,,,,,,,,,,,,,,,,,,,,,,,,,,,,,,,,,,,,,,
,,,,,748237,001,2024-06-17_09h56.24.897,experiment,2024.1.5,Win32,59.88023952,568e7e33e3ef9e000da202a7,667045947eb812cbdacbf325,66704b5b1b101716cf98f116,,,,,,,,,,,,,,,,,,,,,,,,,,,,,,,,,,,,,,,,,,,,683.7292,684.7096,3.89444436,0.9678,0,12,12,8,1,song_indices/GodOnlyKnows_TheBeachBoys.csv,,,,,,,,,,,,,,,,,,,,,,,,,,,,,,,,,,,,,,,,,,,,,,,,
,,,,,748237,001,2024-06-17_09h56.24.897,experiment,2024.1.5,Win32,59.88023952,568e7e33e3ef9e000da202a7,667045947eb812cbdacbf325,66704b5b1b101716cf98f116,,,,,,,,,,,,,,,,,,,,,,,,,,,,,,,,,,,,684.7103,692.9707,0,0,0,1,1,SoundStimuli/Perfect_EdSheeran_Cover5S.wav,,,,,,,,,,,,,,,,,,,,,,,,,,,,,,,,,,,,,,,,,,,,,,,,,,,,,,,,,,
,,,,,748237,001,2024-06-17_09h56.24.897,experiment,2024.1.5,Win32,59.88023952,568e7e33e3ef9e000da202a7,667045947eb812cbdacbf325,66704b5b1b101716cf98f116,,,,,,,,,,,,,,,,,,,,,,,,,,,,,,,,,,,,692.9798,701.8296,0,1,1,0,1,SoundStimuli/Perfect_EdSheeran_Original5S.wav,,,,,,,,,,,,,,,,,,,,,,,,,,,,,,,,,,,,,,,,,,,,,,,,,,,,,,,,,,
,,,,,748237,001,2024-06-17_09h56.24.897,experiment,2024.1.5,Win32,59.88023952,568e7e33e3ef9e000da202a7,667045947eb812cbdacbf325,66704b5b1b101716cf98f116,,,,,,,,,,,,,,,,,,,,,,,,,,,,,,,,,,,,,,,,,,,,701.8298,702.8269,4.816666921,0.9887,0,13,13,0,1,song_indices/Perfect_EdSheeran.csv,,,,,,,,,,,,,,,,,,,,,,,,,,,,,,,,,,,,,,,,,,,,,,,,
,,,,,748237,001,2024-06-17_09h56.24.897,experiment,2024.1.5,Win32,59.88023952,568e7e33e3ef9e000da202a7,667045947eb812cbdacbf325,66704b5b1b101716cf98f116,,,,,,,,,,,,,,,,,,,,,,,,,,,,,,,,,,,,702.8277,708.6113,0,0,0,0,1,SoundStimuli/IWantToHoldYourHand_TheBeatles_Original5S.wav,,,,,,,,,,,,,,,,,,,,,,,,,,,,,,,,,,,,,,,,,,,,,,,,,,,,,,,,,,
,,,,,748237,001,2024-06-17_09h56.24.897,experiment,2024.1.5,Win32,59.88023952,568e7e33e3ef9e000da202a7,667045947eb812cbdacbf325,66704b5b1b101716cf98f116,,,,,,,,,,,,,,,,,,,,,,,,,,,,,,,,,,,,708.6205,714.6449,0,1,1,1,1,SoundStimuli/IWantToHoldYourHand_TheBeatles_Cover5S.wav,,,,,,,,,,,,,,,,,,,,,,,,,,,,,,,,,,,,,,,,,,,,,,,,,,,,,,,,,,
,,,,,748237,001,2024-06-17_09h56.24.897,experiment,2024.1.5,Win32,59.88023952,568e7e33e3ef9e000da202a7,667045947eb812cbdacbf325,66704b5b1b101716cf98f116,,,,,,,,,,,,,,,,,,,,,,,,,,,,,,,,,,,,,,,,,,,,714.645,716.0907,4.044444614,1.4291,0,14,14,19,1,song_indices/IWantToHoldYourHand_TheBeatles.csv,,,,,,,,,,,,,,,,,,,,,,,,,,,,,,,,,,,,,,,,,,,,,,,,
,,,,,748237,001,2024-06-17_09h56.24.897,experiment,2024.1.5,Win32,59.88023952,568e7e33e3ef9e000da202a7,667045947eb812cbdacbf325,66704b5b1b101716cf98f116,,,,,,,,,,,,,,,,,,,,,,,,,,,,,,,,,,,,716.0914,722.6065,0,0,0,1,1,SoundStimuli/OldTownRoad_LilNasX_Cover5S.wav,,,,,,,,,,,,,,,,,,,,,,,,,,,,,,,,,,,,,,,,,,,,,,,,,,,,,,,,,,
,,,,,748237,001,2024-06-17_09h56.24.897,experiment,2024.1.5,Win32,59.88023952,568e7e33e3ef9e000da202a7,667045947eb812cbdacbf325,66704b5b1b101716cf98f116,,,,,,,,,,,,,,,,,,,,,,,,,,,,,,,,,,,,722.6147,729.9863,0,1,1,0,1,SoundStimuli/OldTownRoad_LilNasX_Original5S.wav,,,,,,,,,,,,,,,,,,,,,,,,,,,,,,,,,,,,,,,,,,,,,,,,,,,,,,,,,,
,,,,,748237,001,2024-06-17_09h56.24.897,experiment,2024.1.5,Win32,59.88023952,568e7e33e3ef9e000da202a7,667045947eb812cbdacbf325,66704b5b1b101716cf98f116,,,,,,,,,,,,,,,,,,,,,,,,,,,,,,,,,,,,,,,,,,,,729.9864,731.233,5.89999983,1.2314,0,15,15,20,1,song_indices/OldTownRoad_LilNasX.csv,,,,,,,,,,,,,,,,,,,,,,,,,,,,,,,,,,,,,,,,,,,,,,,,
,,,,,748237,001,2024-06-17_09h56.24.897,experiment,2024.1.5,Win32,59.88023952,568e7e33e3ef9e000da202a7,667045947eb812cbdacbf325,66704b5b1b101716cf98f116,,,,,,,,,,,,,,,,,,,,,,,,,,,,,,,,,,,,731.2337,737.549,0,0,0,0,1,SoundStimuli/BridgeOverTroubledWater_SimonAndGarfunkel_Original5S.wav,,,,,,,,,,,,,,,,,,,,,,,,,,,,,,,,,,,,,,,,,,,,,,,,,,,,,,,,,,
,,,,,748237,001,2024-06-17_09h56.24.897,experiment,2024.1.5,Win32,59.88023952,568e7e33e3ef9e000da202a7,667045947eb812cbdacbf325,66704b5b1b101716cf98f116,,,,,,,,,,,,,,,,,,,,,,,,,,,,,,,,,,,,737.5574,744.2475,0,1,1,1,1,SoundStimuli/BridgeOverTroubledWater_SimonAndGarfunkel_Cover5S.wav,,,,,,,,,,,,,,,,,,,,,,,,,,,,,,,,,,,,,,,,,,,,,,,,,,,,,,,,,,
,,,,,748237,001,2024-06-17_09h56.24.897,experiment,2024.1.5,Win32,59.88023952,568e7e33e3ef9e000da202a7,667045947eb812cbdacbf325,66704b5b1b101716cf98f116,,,,,,,,,,,,,,,,,,,,,,,,,,,,,,,,,,,,,,,,,,,,744.2477,745.4442,5.022222307,1.1864,0,16,16,1,1,song_indices/BridgeOverTroubledWater_SimonAndGarfunkel.csv,,,,,,,,,,,,,,,,,,,,,,,,,,,,,,,,,,,,,,,,,,,,,,,,
,,,,,748237,001,2024-06-17_09h56.24.897,experiment,2024.1.5,Win32,59.88023952,568e7e33e3ef9e000da202a7,667045947eb812cbdacbf325,66704b5b1b101716cf98f116,,,,,,,,,,,,,,,,,,,,,,,,,,,,,,,,,,,,745.4452,753.5717,0,0,0,1,1,SoundStimuli/AnotherOneBitesTheDust_Queen_Cover5S.wav,,,,,,,,,,,,,,,,,,,,,,,,,,,,,,,,,,,,,,,,,,,,,,,,,,,,,,,,,,
,,,,,748237,001,2024-06-17_09h56.24.897,experiment,2024.1.5,Win32,59.88023952,568e7e33e3ef9e000da202a7,667045947eb812cbdacbf325,66704b5b1b101716cf98f116,,,,,,,,,,,,,,,,,,,,,,,,,,,,,,,,,,,,753.5791,759.6053,0,1,1,0,1,SoundStimuli/AnotherOneBitesTheDust_Queen_Original5S.wav,,,,,,,,,,,,,,,,,,,,,,,,,,,,,,,,,,,,,,,,,,,,,,,,,,,,,,,,,,
,,,,,748237,001,2024-06-17_09h56.24.897,experiment,2024.1.5,Win32,59.88023952,568e7e33e3ef9e000da202a7,667045947eb812cbdacbf325,66704b5b1b101716cf98f116,,,,,,,,,,,,,,,,,,,,,,,,,,,,,,,,,,,,,,,,,,,,759.6054,760.7688,3.905555725,1.1446,0,17,17,9,1,song_indices/AnotherOneBitesTheDust_Queen.csv,,,,,,,,,,,,,,,,,,,,,,,,,,,,,,,,,,,,,,,,,,,,,,,,
,,,,,748237,001,2024-06-17_09h56.24.897,experiment,2024.1.5,Win32,59.88023952,568e7e33e3ef9e000da202a7,667045947eb812cbdacbf325,66704b5b1b101716cf98f116,,,,,,,,,,,,,,,,,,,,,,,,,,,,,,,,,,,,760.7696,767.2181,0,0,0,0,1,SoundStimuli/BadDay_DanielPowter_Original5S.wav,,,,,,,,,,,,,,,,,,,,,,,,,,,,,,,,,,,,,,,,,,,,,,,,,,,,,,,,,,
,,,,,748237,001,2024-06-17_09h56.24.897,experiment,2024.1.5,Win32,59.88023952,568e7e33e3ef9e000da202a7,667045947eb812cbdacbf325,66704b5b1b101716cf98f116,,,,,,,,,,,,,,,,,,,,,,,,,,,,,,,,,,,,767.2265,774.7306,0,1,1,1,1,SoundStimuli/BadDay_DanielPowter_Cover5S.wav,,,,,,,,,,,,,,,,,,,,,,,,,,,,,,,,,,,,,,,,,,,,,,,,,,,,,,,,,,
,,,,,748237,001,2024-06-17_09h56.24.897,experiment,2024.1.5,Win32,59.88023952,568e7e33e3ef9e000da202a7,667045947eb812cbdacbf325,66704b5b1b101716cf98f116,,,,,,,,,,,,,,,,,,,,,,,,,,,,,,,,,,,,,,,,,,,,774.7306,775.4287,4.14444436,0.6818,0,18,18,22,1,song_indices/BadDay_DanielPowter.csv,,,,,,,,,,,,,,,,,,,,,,,,,,,,,,,,,,,,,,,,,,,,,,,,
,,,,,748237,001,2024-06-17_09h56.24.897,experiment,2024.1.5,Win32,59.88023952,568e7e33e3ef9e000da202a7,667045947eb812cbdacbf325,66704b5b1b101716cf98f116,,,,,,,,,,,,,,,,,,,,,,,,,,,,,,,,,,,,775.4293,781.3795,0,0,0,1,1,SoundStimuli/IllMakeLoveToYou_BoyzIIMen_Cover5S.wav,,,,,,,,,,,,,,,,,,,,,,,,,,,,,,,,,,,,,,,,,,,,,,,,,,,,,,,,,,
,,,,,748237,001,2024-06-17_09h56.24.897,experiment,2024.1.5,Win32,59.88023952,568e7e33e3ef9e000da202a7,667045947eb812cbdacbf325,66704b5b1b101716cf98f116,,,,,,,,,,,,,,,,,,,,,,,,,,,,,,,,,,,,781.3876,787.4629,0,1,1,0,1,SoundStimuli/IllMakeLoveToYou_BoyzIIMen_Original5S.wav,,,,,,,,,,,,,,,,,,,,,,,,,,,,,,,,,,,,,,,,,,,,,,,,,,,,,,,,,,
,,,,,748237,001,2024-06-17_09h56.24.897,experiment,2024.1.5,Win32,59.88023952,568e7e33e3ef9e000da202a7,667045947eb812cbdacbf325,66704b5b1b101716cf98f116,,,,,,,,,,,,,,,,,,,,,,,,,,,,,,,,,,,,,,,,,,,,787.4631,788.6429,4.005555471,1.1616,0,19,19,6,1,song_indices/IllMakeLoveToYou_BoyzIIMen.csv,,,,,,,,,,,,,,,,,,,,,,,,,,,,,,,,,,,,,,,,,,,,,,,,
,,,,,748237,001,2024-06-17_09h56.24.897,experiment,2024.1.5,Win32,59.88023952,568e7e33e3ef9e000da202a7,667045947eb812cbdacbf325,66704b5b1b101716cf98f116,,,,,,,,,,,,,,,,,,,,,,,,,,,,,,,,,,,,788.6438,793.3636,0,0,0,1,1,SoundStimuli/AChangeIsGonnaCome_SamCooke_Cover5S.wav,,,,,,,,,,,,,,,,,,,,,,,,,,,,,,,,,,,,,,,,,,,,,,,,,,,,,,,,,,
,,,,,748237,001,2024-06-17_09h56.24.897,experiment,2024.1.5,Win32,59.88023952,568e7e33e3ef9e000da202a7,667045947eb812cbdacbf325,66704b5b1b101716cf98f116,,,,,,,,,,,,,,,,,,,,,,,,,,,,,,,,,,,,793.3724,799.3971,0,1,1,0,1,SoundStimuli/AChangeIsGonnaCome_SamCooke_Original5S.wav,,,,,,,,,,,,,,,,,,,,,,,,,,,,,,,,,,,,,,,,,,,,,,,,,,,,,,,,,,
,,,,,748237,001,2024-06-17_09h56.24.897,experiment,2024.1.5,Win32,59.88023952,568e7e33e3ef9e000da202a7,667045947eb812cbdacbf325,66704b5b1b101716cf98f116,,,,,,,,,,,,,,,,,,,,,,,,,,,,,,,,,,,,,,,,,,,,799.3974,803.22,5.022222307,3.8053,0,20,20,17,1,song_indices/AChangeIsGonnaCome_SamCooke.csv,,,,,,,,,,,,,,,,,,,,,,,,,,,,,,,,,,,,,,,,,,,,,,,,
,,,,,748237,001,2024-06-17_09h56.24.897,experiment,2024.1.5,Win32,59.88023952,568e7e33e3ef9e000da202a7,667045947eb812cbdacbf325,66704b5b1b101716cf98f116,,,,,,,,,,,,,,,,,,,,,,,,,,,,,,,,,,,,803.2207,807.2919,0,0,0,1,1,SoundStimuli/BohemianRhapsody_Queen_Cover5S.wav,,,,,,,,,,,,,,,,,,,,,,,,,,,,,,,,,,,,,,,,,,,,,,,,,,,,,,,,,,
,,,,,748237,001,2024-06-17_09h56.24.897,experiment,2024.1.5,Win32,59.88023952,568e7e33e3ef9e000da202a7,667045947eb812cbdacbf325,66704b5b1b101716cf98f116,,,,,,,,,,,,,,,,,,,,,,,,,,,,,,,,,,,,807.2978,813.2592,0,1,1,0,1,SoundStimuli/BohemianRhapsody_Queen_Original5S.wav,,,,,,,,,,,,,,,,,,,,,,,,,,,,,,,,,,,,,,,,,,,,,,,,,,,,,,,,,,
,,,,,748237,001,2024-06-17_09h56.24.897,experiment,2024.1.5,Win32,59.88023952,568e7e33e3ef9e000da202a7,667045947eb812cbdacbf325,66704b5b1b101716cf98f116,,,,,,,,,,,,,,,,,,,,,,,,,,,,,,,,,,,,,,,,,,,,813.2594,815.6857,4.055555556,2.4078,0,21,21,18,1,song_indices/BohemianRhapsody_Queen.csv,,,,,,,,,,,,,,,,,,,,,,,,,,,,,,,,,,,,,,,,,,,,,,,,
,,,,,748237,001,2024-06-17_09h56.24.897,experiment,2024.1.5,Win32,59.88023952,568e7e33e3ef9e000da202a7,667045947eb812cbdacbf325,66704b5b1b101716cf98f116,,,,,,,,,,,,,,,,,,,,,,,,,,,,,,,,,,,,815.6863,822.251,0,0,0,0,1,SoundStimuli/Despacito_LuisFonsiDaddyYankee_Original5S.wav,,,,,,,,,,,,,,,,,,,,,,,,,,,,,,,,,,,,,,,,,,,,,,,,,,,,,,,,,,
,,,,,748237,001,2024-06-17_09h56.24.897,experiment,2024.1.5,Win32,59.88023952,568e7e33e3ef9e000da202a7,667045947eb812cbdacbf325,66704b5b1b101716cf98f116,,,,,,,,,,,,,,,,,,,,,,,,,,,,,,,,,,,,822.2594,828.8334,0,1,1,1,1,SoundStimuli/Despacito_LuisFonsiDaddyYankee_Cover5S.wav,,,,,,,,,,,,,,,,,,,,,,,,,,,,,,,,,,,,,,,,,,,,,,,,,,,,,,,,,,
,,,,,748237,001,2024-06-17_09h56.24.897,experiment,2024.1.5,Win32,59.88023952,568e7e33e3ef9e000da202a7,667045947eb812cbdacbf325,66704b5b1b101716cf98f116,,,,,,,,,,,,,,,,,,,,,,,,,,,,,,,,,,,,,,,,,,,,828.8336,830.7449,6.988889058,1.8972,0,22,22,11,1,song_indices/Despacito_LuisFonsiDaddyYankee.csv,,,,,,,,,,,,,,,,,,,,,,,,,,,,,,,,,,,,,,,,,,,,,,,,
,,,,,748237,001,2024-06-17_09h56.24.897,experiment,2024.1.5,Win32,59.88023952,568e7e33e3ef9e000da202a7,667045947eb812cbdacbf325,66704b5b1b101716cf98f116,,,,,,,,,,,,,,,,,,,,,,,,,,,,,,,,,,,,,,,,,,,,,,,,,,,,,,830.745,832.3736,space,1.6165,,0,1,1,0,1,choose_song_b1.csv,,,,,,,,,,,,,,,,,,,,,,,,,,,,,,,,,,,,,
,,,,,748237,001,2024-06-17_09h56.24.897,experiment,2024.1.5,Win32,59.88023952,568e7e33e3ef9e000da202a7,667045947eb812cbdacbf325,66704b5b1b101716cf98f116,,,,,,,,,,,,,,,,,,,,,,,,,,,,,,,,,,,,832.3767,839.2214,0,0,0,1,1,SoundStimuli/PokerFace_LadyGaga_Cover5S.wav,,,,,,,,,,,,,,,,,,,,,,,,,,,,,,,,,,,,,,,,,,,,,,,,,,,,,,,,,,
,,,,,748237,001,2024-06-17_09h56.24.897,experiment,2024.1.5,Win32,59.88023952,568e7e33e3ef9e000da202a7,667045947eb812cbdacbf325,66704b5b1b101716cf98f116,,,,,,,,,,,,,,,,,,,,,,,,,,,,,,,,,,,,839.2277,846.2357,0,1,1,0,1,SoundStimuli/PokerFace_LadyGaga_Original5S.wav,,,,,,,,,,,,,,,,,,,,,,,,,,,,,,,,,,,,,,,,,,,,,,,,,,,,,,,,,,
,,,,,748237,001,2024-06-17_09h56.24.897,experiment,2024.1.5,Win32,59.88023952,568e7e33e3ef9e000da202a7,667045947eb812cbdacbf325,66704b5b1b101716cf98f116,,,,,,,,,,,,,,,,,,,,,,,,,,,,,,,,,,,,,,,,,,,,846.2359,847.017,5.977778117,0.7622,0,0,0,23,1,song_indices/PokerFace_LadyGaga.csv,,,,,,,,,,,,,,,,,,,,,,,,,,,,,,,,,,,,,,,,,,,,,,,,
,,,,,748237,001,2024-06-17_09h56.24.897,experiment,2024.1.5,Win32,59.88023952,568e7e33e3ef9e000da202a7,667045947eb812cbdacbf325,66704b5b1b101716cf98f116,,,,,,,,,,,,,,,,,,,,,,,,,,,,,,,,,,,,847.0179,852.502,0,0,0,1,1,SoundStimuli/HowDoILive_LeAnnRimes_Cover5S.wav,,,,,,,,,,,,,,,,,,,,,,,,,,,,,,,,,,,,,,,,,,,,,,,,,,,,,,,,,,
,,,,,748237,001,2024-06-17_09h56.24.897,experiment,2024.1.5,Win32,59.88023952,568e7e33e3ef9e000da202a7,667045947eb812cbdacbf325,66704b5b1b101716cf98f116,,,,,,,,,,,,,,,,,,,,,,,,,,,,,,,,,,,,852.51,858.5353,0,1,1,0,1,SoundStimuli/HowDoILive_LeAnnRimes_Original5S.wav,,,,,,,,,,,,,,,,,,,,,,,,,,,,,,,,,,,,,,,,,,,,,,,,,,,,,,,,,,
,,,,,748237,001,2024-06-17_09h56.24.897,experiment,2024.1.5,Win32,59.88023952,568e7e33e3ef9e000da202a7,667045947eb812cbdacbf325,66704b5b1b101716cf98f116,,,,,,,,,,,,,,,,,,,,,,,,,,,,,,,,,,,,,,,,,,,,858.5354,859.4829,6.916666667,0.933,0,1,1,17,1,song_indices/HowDoILive_LeAnnRimes.csv,,,,,,,,,,,,,,,,,,,,,,,,,,,,,,,,,,,,,,,,,,,,,,,,
,,,,,748237,001,2024-06-17_09h56.24.897,experiment,2024.1.5,Win32,59.88023952,568e7e33e3ef9e000da202a7,667045947eb812cbdacbf325,66704b5b1b101716cf98f116,,,,,,,,,,,,,,,,,,,,,,,,,,,,,,,,,,,,859.4836,866.7632,0,0,0,1,1,SoundStimuli/FlashdanceWhatAFeeling_IreneCara_Cover5S.wav,,,,,,,,,,,,,,,,,,,,,,,,,,,,,,,,,,,,,,,,,,,,,,,,,,,,,,,,,,
,,,,,748237,001,2024-06-17_09h56.24.897,experiment,2024.1.5,Win32,59.88023952,568e7e33e3ef9e000da202a7,667045947eb812cbdacbf325,66704b5b1b101716cf98f116,,,,,,,,,,,,,,,,,,,,,,,,,,,,,,,,,,,,866.772,873.1625,0,1,1,0,1,SoundStimuli/FlashdanceWhatAFeeling_IreneCara_Original5S.wav,,,,,,,,,,,,,,,,,,,,,,,,,,,,,,,,,,,,,,,,,,,,,,,,,,,,,,,,,,
,,,,,748237,001,2024-06-17_09h56.24.897,experiment,2024.1.5,Win32,59.88023952,568e7e33e3ef9e000da202a7,667045947eb812cbdacbf325,66704b5b1b101716cf98f116,,,,,,,,,,,,,,,,,,,,,,,,,,,,,,,,,,,,,,,,,,,,873.1625,874.7912,6.916666667,1.6103,0,2,2,18,1,song_indices/FlashdanceWhatAFeeling_IreneCara.csv,,,,,,,,,,,,,,,,,,,,,,,,,,,,,,,,,,,,,,,,,,,,,,,,
,,,,,748237,001,2024-06-17_09h56.24.897,experiment,2024.1.5,Win32,59.88023952,568e7e33e3ef9e000da202a7,667045947eb812cbdacbf325,66704b5b1b101716cf98f116,,,,,,,,,,,,,,,,,,,,,,,,,,,,,,,,,,,,874.7919,881.5896,0,0,0,1,1,SoundStimuli/SomebodyThatIUsedtoKnow_Gotye_Cover5S.wav,,,,,,,,,,,,,,,,,,,,,,,,,,,,,,,,,,,,,,,,,,,,,,,,,,,,,,,,,,
,,,,,748237,001,2024-06-17_09h56.24.897,experiment,2024.1.5,Win32,59.88023952,568e7e33e3ef9e000da202a7,667045947eb812cbdacbf325,66704b5b1b101716cf98f116,,,,,,,,,,,,,,,,,,,,,,,,,,,,,,,,,,,,881.598,888.8197,0,1,1,0,1,SoundStimuli/SomebodyThatIUsedtoKnow_Gotye_Original5S.wav,,,,,,,,,,,,,,,,,,,,,,,,,,,,,,,,,,,,,,,,,,,,,,,,,,,,,,,,,,
,,,,,748237,001,2024-06-17_09h56.24.897,experiment,2024.1.5,Win32,59.88023952,568e7e33e3ef9e000da202a7,667045947eb812cbdacbf325,66704b5b1b101716cf98f116,,,,,,,,,,,,,,,,,,,,,,,,,,,,,,,,,,,,,,,,,,,,888.8199,889.6175,6.022222731,0.7785,0,3,3,7,1,song_indices/SomebodyThatIUsedtoKnow_Gotye.csv,,,,,,,,,,,,,,,,,,,,,,,,,,,,,,,,,,,,,,,,,,,,,,,,
,,,,,748237,001,2024-06-17_09h56.24.897,experiment,2024.1.5,Win32,59.88023952,568e7e33e3ef9e000da202a7,667045947eb812cbdacbf325,66704b5b1b101716cf98f116,,,,,,,,,,,,,,,,,,,,,,,,,,,,,,,,,,,,889.6183,895.7342,0,0,0,1,1,SoundStimuli/TossinAndTurnin_BobbyLewis_Cover5S.wav,,,,,,,,,,,,,,,,,,,,,,,,,,,,,,,,,,,,,,,,,,,,,,,,,,,,,,,,,,
,,,,,748237,001,2024-06-17_09h56.24.897,experiment,2024.1.5,Win32,59.88023952,568e7e33e3ef9e000da202a7,667045947eb812cbdacbf325,66704b5b1b101716cf98f116,,,,,,,,,,,,,,,,,,,,,,,,,,,,,,,,,,,,895.7421,901.8008,0,1,1,0,1,SoundStimuli/TossinAndTurnin_BobbyLewis_Original5S.wav,,,,,,,,,,,,,,,,,,,,,,,,,,,,,,,,,,,,,,,,,,,,,,,,,,,,,,,,,,
,,,,,748237,001,2024-06-17_09h56.24.897,experiment,2024.1.5,Win32,59.88023952,568e7e33e3ef9e000da202a7,667045947eb812cbdacbf325,66704b5b1b101716cf98f116,,,,,,,,,,,,,,,,,,,,,,,,,,,,,,,,,,,,,,,,,,,,901.801,903.6788,1.016666624,1.8578,0,4,4,13,1,song_indices/TossinAndTurnin_BobbyLewis.csv,,,,,,,,,,,,,,,,,,,,,,,,,,,,,,,,,,,,,,,,,,,,,,,,
,,,,,748237,001,2024-06-17_09h56.24.897,experiment,2024.1.5,Win32,59.88023952,568e7e33e3ef9e000da202a7,667045947eb812cbdacbf325,66704b5b1b101716cf98f116,,,,,,,,,,,,,,,,,,,,,,,,,,,,,,,,,,,,903.6796,908.9813,0,0,0,1,1,SoundStimuli/Superstition_StevieWonder_Cover5S.wav,,,,,,,,,,,,,,,,,,,,,,,,,,,,,,,,,,,,,,,,,,,,,,,,,,,,,,,,,,
,,,,,748237,001,2024-06-17_09h56.24.897,experiment,2024.1.5,Win32,59.88023952,568e7e33e3ef9e000da202a7,667045947eb812cbdacbf325,66704b5b1b101716cf98f116,,,,,,,,,,,,,,,,,,,,,,,,,,,,,,,,,,,,908.9892,915.1147,0,1,1,0,1,SoundStimuli/Superstition_StevieWonder_Original5S.wav,,,,,,,,,,,,,,,,,,,,,,,,,,,,,,,,,,,,,,,,,,,,,,,,,,,,,,,,,,
,,,,,748237,001,2024-06-17_09h56.24.897,experiment,2024.1.5,Win32,59.88023952,568e7e33e3ef9e000da202a7,667045947eb812cbdacbf325,66704b5b1b101716cf98f116,,,,,,,,,,,,,,,,,,,,,,,,,,,,,,,,,,,,,,,,,,,,915.1148,915.9621,4.072222392,0.8262,0,5,5,15,1,song_indices/Superstition_StevieWonder.csv,,,,,,,,,,,,,,,,,,,,,,,,,,,,,,,,,,,,,,,,,,,,,,,,
,,,,,748237,001,2024-06-17_09h56.24.897,experiment,2024.1.5,Win32,59.88023952,568e7e33e3ef9e000da202a7,667045947eb812cbdacbf325,66704b5b1b101716cf98f116,,,,,,,,,,,,,,,,,,,,,,,,,,,,,,,,,,,,915.9632,922.727,0,0,0,0,1,SoundStimuli/BlurredLines_RobinThicke_Original5S.wav,,,,,,,,,,,,,,,,,,,,,,,,,,,,,,,,,,,,,,,,,,,,,,,,,,,,,,,,,,
,,,,,748237,001,2024-06-17_09h56.24.897,experiment,2024.1.5,Win32,59.88023952,568e7e33e3ef9e000da202a7,667045947eb812cbdacbf325,66704b5b1b101716cf98f116,,,,,,,,,,,,,,,,,,,,,,,,,,,,,,,,,,,,922.734,929.8247,0,1,1,1,1,SoundStimuli/BlurredLines_RobinThicke_Cover5S.wav,,,,,,,,,,,,,,,,,,,,,,,,,,,,,,,,,,,,,,,,,,,,,,,,,,,,,,,,,,
,,,,,748237,001,2024-06-17_09h56.24.897,experiment,2024.1.5,Win32,59.88023952,568e7e33e3ef9e000da202a7,667045947eb812cbdacbf325,66704b5b1b101716cf98f116,,,,,,,,,,,,,,,,,,,,,,,,,,,,,,,,,,,,,,,,,,,,929.8248,931.3036,5.044444614,1.4649,0,6,6,9,1,song_indices/BlurredLines_RobinThicke.csv,,,,,,,,,,,,,,,,,,,,,,,,,,,,,,,,,,,,,,,,,,,,,,,,
,,,,,748237,001,2024-06-17_09h56.24.897,experiment,2024.1.5,Win32,59.88023952,568e7e33e3ef9e000da202a7,667045947eb812cbdacbf325,66704b5b1b101716cf98f116,,,,,,,,,,,,,,,,,,,,,,,,,,,,,,,,,,,,931.3045,937.0214,0,0,0,1,1,SoundStimuli/Levitating_DuaLipa_Cover5S.wav,,,,,,,,,,,,,,,,,,,,,,,,,,,,,,,,,,,,,,,,,,,,,,,,,,,,,,,,,,
,,,,,748237,001,2024-06-17_09h56.24.897,experiment,2024.1.5,Win32,59.88023952,568e7e33e3ef9e000da202a7,667045947eb812cbdacbf325,66704b5b1b101716cf98f116,,,,,,,,,,,,,,,,,,,,,,,,,,,,,,,,,,,,937.0303,943.0386,0,1,1,0,1,SoundStimuli/Levitating_DuaLipa_Original5S.wav,,,,,,,,,,,,,,,,,,,,,,,,,,,,,,,,,,,,,,,,,,,,,,,,,,,,,,,,,,
,,,,,748237,001,2024-06-17_09h56.24.897,experiment,2024.1.5,Win32,59.88023952,568e7e33e3ef9e000da202a7,667045947eb812cbdacbf325,66704b5b1b101716cf98f116,,,,,,,,,,,,,,,,,,,,,,,,,,,,,,,,,,,,,,,,,,,,943.0386,943.9193,5.877777947,0.861,0,7,7,10,1,song_indices/Levitating_DuaLipa.csv,,,,,,,,,,,,,,,,,,,,,,,,,,,,,,,,,,,,,,,,,,,,,,,,
,,,,,748237,001,2024-06-17_09h56.24.897,experiment,2024.1.5,Win32,59.88023952,568e7e33e3ef9e000da202a7,667045947eb812cbdacbf325,66704b5b1b101716cf98f116,,,,,,,,,,,,,,,,,,,,,,,,,,,,,,,,,,,,943.9201,950.0358,0,0,0,0,1,SoundStimuli/JoyToTheWorld_ThreeDogNight_Original5S.wav,,,,,,,,,,,,,,,,,,,,,,,,,,,,,,,,,,,,,,,,,,,,,,,,,,,,,,,,,,
,,,,,748237,001,2024-06-17_09h56.24.897,experiment,2024.1.5,Win32,59.88023952,568e7e33e3ef9e000da202a7,667045947eb812cbdacbf325,66704b5b1b101716cf98f116,,,,,,,,,,,,,,,,,,,,,,,,,,,,,,,,,,,,950.0438,955.1719,0,1,1,1,1,SoundStimuli/JoyToTheWorld_ThreeDogNight_Cover5S.wav,,,,,,,,,,,,,,,,,,,,,,,,,,,,,,,,,,,,,,,,,,,,,,,,,,,,,,,,,,
,,,,,748237,001,2024-06-17_09h56.24.897,experiment,2024.1.5,Win32,59.88023952,568e7e33e3ef9e000da202a7,667045947eb812cbdacbf325,66704b5b1b101716cf98f116,,,,,,,,,,,,,,,,,,,,,,,,,,,,,,,,,,,,,,,,,,,,955.1721,957.7813,6.91111162,2.5899,0,8,8,8,1,song_indices/JoyToTheWorld_ThreeDogNight.csv,,,,,,,,,,,,,,,,,,,,,,,,,,,,,,,,,,,,,,,,,,,,,,,,
,,,,,748237,001,2024-06-17_09h56.24.897,experiment,2024.1.5,Win32,59.88023952,568e7e33e3ef9e000da202a7,667045947eb812cbdacbf325,66704b5b1b101716cf98f116,,,,,,,,,,,,,,,,,,,,,,,,,,,,,,,,,,,,957.782,964.8454,0,0,0,1,1,SoundStimuli/ComeAndGetYourLove_Redbone_Cover5S.wav,,,,,,,,,,,,,,,,,,,,,,,,,,,,,,,,,,,,,,,,,,,,,,,,,,,,,,,,,,
,,,,,748237,001,2024-06-17_09h56.24.897,experiment,2024.1.5,Win32,59.88023952,568e7e33e3ef9e000da202a7,667045947eb812cbdacbf325,66704b5b1b101716cf98f116,,,,,,,,,,,,,,,,,,,,,,,,,,,,,,,,,,,,964.8531,970.9455,0,1,1,0,1,SoundStimuli/ComeAndGetYourLove_Redbone_Original5S.wav,,,,,,,,,,,,,,,,,,,,,,,,,,,,,,,,,,,,,,,,,,,,,,,,,,,,,,,,,,
,,,,,748237,001,2024-06-17_09h56.24.897,experiment,2024.1.5,Win32,59.88023952,568e7e33e3ef9e000da202a7,667045947eb812cbdacbf325,66704b5b1b101716cf98f116,,,,,,,,,,,,,,,,,,,,,,,,,,,,,,,,,,,,,,,,,,,,970.9457,972.0758,6.955555386,1.1206,0,9,9,22,1,song_indices/ComeAndGetYourLove_Redbone.csv,,,,,,,,,,,,,,,,,,,,,,,,,,,,,,,,,,,,,,,,,,,,,,,,
,,,,,748237,001,2024-06-17_09h56.24.897,experiment,2024.1.5,Win32,59.88023952,568e7e33e3ef9e000da202a7,667045947eb812cbdacbf325,66704b5b1b101716cf98f116,,,,,,,,,,,,,,,,,,,,,,,,,,,,,,,,,,,,972.0766,977.9433,0,0,0,0,1,SoundStimuli/Irreplaceable_Beyonce_Original5S.wav,,,,,,,,,,,,,,,,,,,,,,,,,,,,,,,,,,,,,,,,,,,,,,,,,,,,,,,,,,
,,,,,748237,001,2024-06-17_09h56.24.897,experiment,2024.1.5,Win32,59.88023952,568e7e33e3ef9e000da202a7,667045947eb812cbdacbf325,66704b5b1b101716cf98f116,,,,,,,,,,,,,,,,,,,,,,,,,,,,,,,,,,,,977.952,983.8603,0,1,1,1,1,SoundStimuli/Irreplaceable_Beyonce_Cover5S.wav,,,,,,,,,,,,,,,,,,,,,,,,,,,,,,,,,,,,,,,,,,,,,,,,,,,,,,,,,,
,,,,,748237,001,2024-06-17_09h56.24.897,experiment,2024.1.5,Win32,59.88023952,568e7e33e3ef9e000da202a7,667045947eb812cbdacbf325,66704b5b1b101716cf98f116,,,,,,,,,,,,,,,,,,,,,,,,,,,,,,,,,,,,,,,,,,,,983.8605,987.5836,1.027777778,3.71,0,10,10,19,1,song_indices/Irreplaceable_Beyonce.csv,,,,,,,,,,,,,,,,,,,,,,,,,,,,,,,,,,,,,,,,,,,,,,,,
,,,,,748237,001,2024-06-17_09h56.24.897,experiment,2024.1.5,Win32,59.88023952,568e7e33e3ef9e000da202a7,667045947eb812cbdacbf325,66704b5b1b101716cf98f116,,,,,,,,,,,,,,,,,,,,,,,,,,,,,,,,,,,,987.5844,993.7501,0,0,0,0,1,SoundStimuli/TheSign_AceOfBase_Original5S.wav,,,,,,,,,,,,,,,,,,,,,,,,,,,,,,,,,,,,,,,,,,,,,,,,,,,,,,,,,,
,,,,,748237,001,2024-06-17_09h56.24.897,experiment,2024.1.5,Win32,59.88023952,568e7e33e3ef9e000da202a7,667045947eb812cbdacbf325,66704b5b1b101716cf98f116,,,,,,,,,,,,,,,,,,,,,,,,,,,,,,,,,,,,993.7594,999.767,0,1,1,1,1,SoundStimuli/TheSign_AceOfBase_Cover5S.wav,,,,,,,,,,,,,,,,,,,,,,,,,,,,,,,,,,,,,,,,,,,,,,,,,,,,,,,,,,
,,,,,748237,001,2024-06-17_09h56.24.897,experiment,2024.1.5,Win32,59.88023952,568e7e33e3ef9e000da202a7,667045947eb812cbdacbf325,66704b5b1b101716cf98f116,,,,,,,,,,,,,,,,,,,,,,,,,,,,,,,,,,,,,,,,,,,,999.7672,1000.5813,6.983333164,0.7945,0,11,11,5,1,song_indices/TheSign_AceOfBase.csv,,,,,,,,,,,,,,,,,,,,,,,,,,,,,,,,,,,,,,,,,,,,,,,,
,,,,,748237,001,2024-06-17_09h56.24.897,experiment,2024.1.5,Win32,59.88023952,568e7e33e3ef9e000da202a7,667045947eb812cbdacbf325,66704b5b1b101716cf98f116,,,,,,,,,,,,,,,,,,,,,,,,,,,,,,,,,,,,1000.5821,1007.3795,0,0,0,1,1,SoundStimuli/BlindingLights_TheWeeknd_Cover5S.wav,,,,,,,,,,,,,,,,,,,,,,,,,,,,,,,,,,,,,,,,,,,,,,,,,,,,,,,,,,
,,,,,748237,001,2024-06-17_09h56.24.897,experiment,2024.1.5,Win32,59.88023952,568e7e33e3ef9e000da202a7,667045947eb812cbdacbf325,66704b5b1b101716cf98f116,,,,,,,,,,,,,,,,,,,,,,,,,,,,,,,,,,,,1007.388,1013.8619,0,1,1,0,1,SoundStimuli/BlindingLights_TheWeeknd_Original5S.wav,,,,,,,,,,,,,,,,,,,,,,,,,,,,,,,,,,,,,,,,,,,,,,,,,,,,,,,,,,
,,,,,748237,001,2024-06-17_09h56.24.897,experiment,2024.1.5,Win32,59.88023952,568e7e33e3ef9e000da202a7,667045947eb812cbdacbf325,66704b5b1b101716cf98f116,,,,,,,,,,,,,,,,,,,,,,,,,,,,,,,,,,,,,,,,,,,,1013.8622,1014.6098,6.922222561,0.7266,0,12,12,21,1,song_indices/BlindingLights_TheWeeknd.csv,,,,,,,,,,,,,,,,,,,,,,,,,,,,,,,,,,,,,,,,,,,,,,,,
,,,,,748237,001,2024-06-17_09h56.24.897,experiment,2024.1.5,Win32,59.88023952,568e7e33e3ef9e000da202a7,667045947eb812cbdacbf325,66704b5b1b101716cf98f116,,,,,,,,,,,,,,,,,,,,,,,,,,,,,,,,,,,,1014.6105,1020.6933,0,0,0,0,1,SoundStimuli/YouLightUpMyLife_DebbyBoone_Original5S.wav,,,,,,,,,,,,,,,,,,,,,,,,,,,,,,,,,,,,,,,,,,,,,,,,,,,,,,,,,,
,,,,,748237,001,2024-06-17_09h56.24.897,experiment,2024.1.5,Win32,59.88023952,568e7e33e3ef9e000da202a7,667045947eb812cbdacbf325,66704b5b1b101716cf98f116,,,,,,,,,,,,,,,,,,,,,,,,,,,,,,,,,,,,1020.7013,1027.1424,0,1,1,1,1,SoundStimuli/YouLightUpMyLife_DebbyBoone_Cover5S.wav,,,,,,,,,,,,,,,,,,,,,,,,,,,,,,,,,,,,,,,,,,,,,,,,,,,,,,,,,,
,,,,,748237,001,2024-06-17_09h56.24.897,experiment,2024.1.5,Win32,59.88023952,568e7e33e3ef9e000da202a7,667045947eb812cbdacbf325,66704b5b1b101716cf98f116,,,,,,,,,,,,,,,,,,,,,,,,,,,,,,,,,,,,,,,,,,,,1027.1426,1028.206,6.944444444,1.0511,0,13,13,4,1,song_indices/YouLightUpMyLife_DebbyBoone.csv,,,,,,,,,,,,,,,,,,,,,,,,,,,,,,,,,,,,,,,,,,,,,,,,
,,,,,748237,001,2024-06-17_09h56.24.897,experiment,2024.1.5,Win32,59.88023952,568e7e33e3ef9e000da202a7,667045947eb812cbdacbf325,66704b5b1b101716cf98f116,,,,,,,,,,,,,,,,,,,,,,,,,,,,,,,,,,,,1028.2066,1034.4889,0,0,0,1,1,SoundStimuli/Kiss_Prince_Cover5S.wav,,,,,,,,,,,,,,,,,,,,,,,,,,,,,,,,,,,,,,,,,,,,,,,,,,,,,,,,,,
,,,,,748237,001,2024-06-17_09h56.24.897,experiment,2024.1.5,Win32,59.88023952,568e7e33e3ef9e000da202a7,667045947eb812cbdacbf325,66704b5b1b101716cf98f116,,,,,,,,,,,,,,,,,,,,,,,,,,,,,,,,,,,,1034.4969,1041.9188,0,1,1,0,1,SoundStimuli/Kiss_Prince_Original5S.wav,,,,,,,,,,,,,,,,,,,,,,,,,,,,,,,,,,,,,,,,,,,,,,,,,,,,,,,,,,
,,,,,748237,001,2024-06-17_09h56.24.897,experiment,2024.1.5,Win32,59.88023952,568e7e33e3ef9e000da202a7,667045947eb812cbdacbf325,66704b5b1b101716cf98f116,,,,,,,,,,,,,,,,,,,,,,,,,,,,,,,,,,,,,,,,,,,,1041.9189,1045.2761,1.016666624,3.3395,0,14,14,14,1,song_indices/Kiss_Prince.csv,,,,,,,,,,,,,,,,,,,,,,,,,,,,,,,,,,,,,,,,,,,,,,,,
,,,,,748237,001,2024-06-17_09h56.24.897,experiment,2024.1.5,Win32,59.88023952,568e7e33e3ef9e000da202a7,667045947eb812cbdacbf325,66704b5b1b101716cf98f116,,,,,,,,,,,,,,,,,,,,,,,,,,,,,,,,,,,,1045.2768,1051.7586,0,0,0,1,1,SoundStimuli/Weak_SWV_Cover5S.wav,,,,,,,,,,,,,,,,,,,,,,,,,,,,,,,,,,,,,,,,,,,,,,,,,,,,,,,,,,
,,,,,748237,001,2024-06-17_09h56.24.897,experiment,2024.1.5,Win32,59.88023952,568e7e33e3ef9e000da202a7,667045947eb812cbdacbf325,66704b5b1b101716cf98f116,,,,,,,,,,,,,,,,,,,,,,,,,,,,,,,,,,,,1051.7673,1057.8419,0,1,1,0,1,SoundStimuli/Weak_SWV_Original5S.wav,,,,,,,,,,,,,,,,,,,,,,,,,,,,,,,,,,,,,,,,,,,,,,,,,,,,,,,,,,
,,,,,748237,001,2024-06-17_09h56.24.897,experiment,2024.1.5,Win32,59.88023952,568e7e33e3ef9e000da202a7,667045947eb812cbdacbf325,66704b5b1b101716cf98f116,,,,,,,,,,,,,,,,,,,,,,,,,,,,,,,,,,,,,,,,,,,,1057.8421,1059.2545,2.027777778,1.4002,0,15,15,6,1,song_indices/Weak_SWV.csv,,,,,,,,,,,,,,,,,,,,,,,,,,,,,,,,,,,,,,,,,,,,,,,,
,,,,,748237,001,2024-06-17_09h56.24.897,experiment,2024.1.5,Win32,59.88023952,568e7e33e3ef9e000da202a7,667045947eb812cbdacbf325,66704b5b1b101716cf98f116,,,,,,,,,,,,,,,,,,,,,,,,,,,,,,,,,,,,1059.2554,1065.5543,0,0,0,0,1,SoundStimuli/LetsGetItOn_MarvinGaye_Original5S.wav,,,,,,,,,,,,,,,,,,,,,,,,,,,,,,,,,,,,,,,,,,,,,,,,,,,,,,,,,,
,,,,,748237,001,2024-06-17_09h56.24.897,experiment,2024.1.5,Win32,59.88023952,568e7e33e3ef9e000da202a7,667045947eb812cbdacbf325,66704b5b1b101716cf98f116,,,,,,,,,,,,,,,,,,,,,,,,,,,,,,,,,,,,1065.5617,1072.2028,0,1,1,1,1,SoundStimuli/LetsGetItOn_MarvinGaye_Cover5S.wav,,,,,,,,,,,,,,,,,,,,,,,,,,,,,,,,,,,,,,,,,,,,,,,,,,,,,,,,,,
,,,,,748237,001,2024-06-17_09h56.24.897,experiment,2024.1.5,Win32,59.88023952,568e7e33e3ef9e000da202a7,667045947eb812cbdacbf325,66704b5b1b101716cf98f116,,,,,,,,,,,,,,,,,,,,,,,,,,,,,,,,,,,,,,,,,,,,1072.203,1073.3996,4.083333333,1.1823,0,16,16,20,1,song_indices/LetsGetItOn_MarvinGaye.csv,,,,,,,,,,,,,,,,,,,,,,,,,,,,,,,,,,,,,,,,,,,,,,,,
,,,,,748237,001,2024-06-17_09h56.24.897,experiment,2024.1.5,Win32,59.88023952,568e7e33e3ef9e000da202a7,667045947eb812cbdacbf325,66704b5b1b101716cf98f116,,,,,,,,,,,,,,,,,,,,,,,,,,,,,,,,,,,,1073.4003,1079.6159,0,0,0,0,1,SoundStimuli/TikTok_Kesha_Original5S.wav,,,,,,,,,,,,,,,,,,,,,,,,,,,,,,,,,,,,,,,,,,,,,,,,,,,,,,,,,,
,,,,,748237,001,2024-06-17_09h56.24.897,experiment,2024.1.5,Win32,59.88023952,568e7e33e3ef9e000da202a7,667045947eb812cbdacbf325,66704b5b1b101716cf98f116,,,,,,,,,,,,,,,,,,,,,,,,,,,,,,,,,,,,1079.6242,1087.1453,0,1,1,1,1,SoundStimuli/TikTok_Kesha_Cover5S.wav,,,,,,,,,,,,,,,,,,,,,,,,,,,,,,,,,,,,,,,,,,,,,,,,,,,,,,,,,,
,,,,,748237,001,2024-06-17_09h56.24.897,experiment,2024.1.5,Win32,59.88023952,568e7e33e3ef9e000da202a7,667045947eb812cbdacbf325,66704b5b1b101716cf98f116,,,,,,,,,,,,,,,,,,,,,,,,,,,,,,,,,,,,,,,,,,,,1087.1454,1088.1924,2.994444529,1.0327,0,17,17,3,1,song_indices/TikTok_Kesha.csv,,,,,,,,,,,,,,,,,,,,,,,,,,,,,,,,,,,,,,,,,,,,,,,,
,,,,,748237,001,2024-06-17_09h56.24.897,experiment,2024.1.5,Win32,59.88023952,568e7e33e3ef9e000da202a7,667045947eb812cbdacbf325,66704b5b1b101716cf98f116,,,,,,,,,,,,,,,,,,,,,,,,,,,,,,,,,,,,1088.1931,1094.0765,0,0,0,1,1,SoundStimuli/SaveYourTears_TheWeekndArianaGrande_Cover5S.wav,,,,,,,,,,,,,,,,,,,,,,,,,,,,,,,,,,,,,,,,,,,,,,,,,,,,,,,,,,
,,,,,748237,001,2024-06-17_09h56.24.897,experiment,2024.1.5,Win32,59.88023952,568e7e33e3ef9e000da202a7,667045947eb812cbdacbf325,66704b5b1b101716cf98f116,,,,,,,,,,,,,,,,,,,,,,,,,,,,,,,,,,,,1094.0847,1100.2762,0,1,1,0,1,SoundStimuli/SaveYourTears_TheWeekndArianaGrande_Original5S.wav,,,,,,,,,,,,,,,,,,,,,,,,,,,,,,,,,,,,,,,,,,,,,,,,,,,,,,,,,,
,,,,,748237,001,2024-06-17_09h56.24.897,experiment,2024.1.5,Win32,59.88023952,568e7e33e3ef9e000da202a7,667045947eb812cbdacbf325,66704b5b1b101716cf98f116,,,,,,,,,,,,,,,,,,,,,,,,,,,,,,,,,,,,,,,,,,,,1100.2764,1101.3565,6.055555556,1.0695,0,18,18,12,1,song_indices/SaveYourTears_TheWeekndArianaGrande.csv,,,,,,,,,,,,,,,,,,,,,,,,,,,,,,,,,,,,,,,,,,,,,,,,
,,,,,748237,001,2024-06-17_09h56.24.897,experiment,2024.1.5,Win32,59.88023952,568e7e33e3ef9e000da202a7,667045947eb812cbdacbf325,66704b5b1b101716cf98f116,,,,,,,,,,,,,,,,,,,,,,,,,,,,,,,,,,,,1101.3574,1106.875,0,0,0,1,1,SoundStimuli/LeFreak_Chic_Cover5S.wav,,,,,,,,,,,,,,,,,,,,,,,,,,,,,,,,,,,,,,,,,,,,,,,,,,,,,,,,,,
,,,,,748237,001,2024-06-17_09h56.24.897,experiment,2024.1.5,Win32,59.88023952,568e7e33e3ef9e000da202a7,667045947eb812cbdacbf325,66704b5b1b101716cf98f116,,,,,,,,,,,,,,,,,,,,,,,,,,,,,,,,,,,,1106.8833,1112.9084,0,1,1,0,1,SoundStimuli/LeFreak_Chic_Original5S.wav,,,,,,,,,,,,,,,,,,,,,,,,,,,,,,,,,,,,,,,,,,,,,,,,,,,,,,,,,,
,,,,,748237,001,2024-06-17_09h56.24.897,experiment,2024.1.5,Win32,59.88023952,568e7e33e3ef9e000da202a7,667045947eb812cbdacbf325,66704b5b1b101716cf98f116,,,,,,,,,,,,,,,,,,,,,,,,,,,,,,,,,,,,,,,,,,,,1112.9086,1113.7228,4.988889058,0.7934,0,19,19,11,1,song_indices/LeFreak_Chic.csv,,,,,,,,,,,,,,,,,,,,,,,,,,,,,,,,,,,,,,,,,,,,,,,,
,,,,,748237,001,2024-06-17_09h56.24.897,experiment,2024.1.5,Win32,59.88023952,568e7e33e3ef9e000da202a7,667045947eb812cbdacbf325,66704b5b1b101716cf98f116,,,,,,,,,,,,,,,,,,,,,,,,,,,,,,,,,,,,1113.7235,1119.7898,0,0,0,1,1,SoundStimuli/Respect_ArethaFranklin_Cover5S.wav,,,,,,,,,,,,,,,,,,,,,,,,,,,,,,,,,,,,,,,,,,,,,,,,,,,,,,,,,,
,,,,,748237,001,2024-06-17_09h56.24.897,experiment,2024.1.5,Win32,59.88023952,568e7e33e3ef9e000da202a7,667045947eb812cbdacbf325,66704b5b1b101716cf98f116,,,,,,,,,,,,,,,,,,,,,,,,,,,,,,,,,,,,1119.7986,1125.7234,0,1,1,0,1,SoundStimuli/Respect_ArethaFranklin_Original5S.wav,,,,,,,,,,,,,,,,,,,,,,,,,,,,,,,,,,,,,,,,,,,,,,,,,,,,,,,,,,
,,,,,748237,001,2024-06-17_09h56.24.897,experiment,2024.1.5,Win32,59.88023952,568e7e33e3ef9e000da202a7,667045947eb812cbdacbf325,66704b5b1b101716cf98f116,,,,,,,,,,,,,,,,,,,,,,,,,,,,,,,,,,,,,,,,,,,,1125.7235,1126.5875,1.005555683,0.8488,0,20,20,0,1,song_indices/Respect_ArethaFranklin.csv,,,,,,,,,,,,,,,,,,,,,,,,,,,,,,,,,,,,,,,,,,,,,,,,
,,,,,748237,001,2024-06-17_09h56.24.897,experiment,2024.1.5,Win32,59.88023952,568e7e33e3ef9e000da202a7,667045947eb812cbdacbf325,66704b5b1b101716cf98f116,,,,,,,,,,,,,,,,,,,,,,,,,,,,,,,,,,,,1126.5882,1133.5852,0,0,0,1,1,SoundStimuli/Dilemma_NellyKellyRowland_Cover5S.wav,,,,,,,,,,,,,,,,,,,,,,,,,,,,,,,,,,,,,,,,,,,,,,,,,,,,,,,,,,
,,,,,748237,001,2024-06-17_09h56.24.897,experiment,2024.1.5,Win32,59.88023952,568e7e33e3ef9e000da202a7,667045947eb812cbdacbf325,66704b5b1b101716cf98f116,,,,,,,,,,,,,,,,,,,,,,,,,,,,,,,,,,,,1133.5937,1139.7848,0,1,1,0,1,SoundStimuli/Dilemma_NellyKellyRowland_Original5S.wav,,,,,,,,,,,,,,,,,,,,,,,,,,,,,,,,,,,,,,,,,,,,,,,,,,,,,,,,,,
,,,,,748237,001,2024-06-17_09h56.24.897,experiment,2024.1.5,Win32,59.88023952,568e7e33e3ef9e000da202a7,667045947eb812cbdacbf325,66704b5b1b101716cf98f116,,,,,,,,,,,,,,,,,,,,,,,,,,,,,,,,,,,,,,,,,,,,1139.7849,1140.6659,3.033333249,0.8656,0,21,21,2,1,song_indices/Dilemma_NellyKellyRowland.csv,,,,,,,,,,,,,,,,,,,,,,,,,,,,,,,,,,,,,,,,,,,,,,,,
,,,,,748237,001,2024-06-17_09h56.24.897,experiment,2024.1.5,Win32,59.88023952,568e7e33e3ef9e000da202a7,667045947eb812cbdacbf325,66704b5b1b101716cf98f116,,,,,,,,,,,,,,,,,,,,,,,,,,,,,,,,,,,,1140.6666,1146.766,0,0,0,0,1,SoundStimuli/UnbreakMyHeart_ToniBraxton_Original5S.wav,,,,,,,,,,,,,,,,,,,,,,,,,,,,,,,,,,,,,,,,,,,,,,,,,,,,,,,,,,
,,,,,748237,001,2024-06-17_09h56.24.897,experiment,2024.1.5,Win32,59.88023952,568e7e33e3ef9e000da202a7,667045947eb812cbdacbf325,66704b5b1b101716cf98f116,,,,,,,,,,,,,,,,,,,,,,,,,,,,,,,,,,,,1146.7739,1150.7547,0,1,1,1,1,SoundStimuli/UnbreakMyHeart_ToniBraxton_Cover5S.wav,,,,,,,,,,,,,,,,,,,,,,,,,,,,,,,,,,,,,,,,,,,,,,,,,,,,,,,,,,
,,,,,748237,001,2024-06-17_09h56.24.897,experiment,2024.1.5,Win32,59.88023952,568e7e33e3ef9e000da202a7,667045947eb812cbdacbf325,66704b5b1b101716cf98f116,,,,,,,,,,,,,,,,,,,,,,,,,,,,,,,,,,,,,,,,,,,,1150.7548,1153.0152,3.95555581,2.2488,0,22,22,16,1,song_indices/UnbreakMyHeart_ToniBraxton.csv,,,,,,,,,,,,,,,,,,,,,,,,,,,,,,,,,,,,,,,,,,,,,,,,
,,,,,748237,001,2024-06-17_09h56.24.897,experiment,2024.1.5,Win32,59.88023952,568e7e33e3ef9e000da202a7,667045947eb812cbdacbf325,66704b5b1b101716cf98f116,,,,,,,,,,,,,,,,,,,,,,,,,,,,,,,,,,,,1153.0157,1159.5313,0,0,0,0,1,SoundStimuli/Dreams_FleetwoodMac_Original5S.wav,,,,,,,,,,,,,,,,,,,,,,,,,,,,,,,,,,,,,,,,,,,,,,,,,,,,,,,,,,
,,,,,748237,001,2024-06-17_09h56.24.897,experiment,2024.1.5,Win32,59.88023952,568e7e33e3ef9e000da202a7,667045947eb812cbdacbf325,66704b5b1b101716cf98f116,,,,,,,,,,,,,,,,,,,,,,,,,,,,,,,,,,,,1159.5399,1167.3767,0,1,1,1,1,SoundStimuli/Dreams_FleetwoodMac_Cover5S.wav,,,,,,,,,,,,,,,,,,,,,,,,,,,,,,,,,,,,,,,,,,,,,,,,,,,,,,,,,,
,,,,,748237,001,2024-06-17_09h56.24.897,experiment,2024.1.5,Win32,59.88023952,568e7e33e3ef9e000da202a7,667045947eb812cbdacbf325,66704b5b1b101716cf98f116,,,,,,,,,,,,,,,,,,,,,,,,,,,,,,,,,,,,,,,,,,,,1167.3768,1169.0386,3.022222307,1.6493,0,23,23,1,1,song_indices/Dreams_FleetwoodMac.csv,,,,,,,,,,,,,,,,,,,,,,,,,,,,,,,,,,,,,,,,,,,,,,,,
,,,,,748237,001,2024-06-17_09h56.24.897,experiment,2024.1.5,Win32,59.88023952,568e7e33e3ef9e000da202a7,667045947eb812cbdacbf325,66704b5b1b101716cf98f116,,,,,,,,,,,,,,,,,,,,,,,,,,,,,,,,,,,,,,,,,,,,,,,,,,,,,,1169.0387,1169.0388,,,,0,2,2,2,1,choose_song_b3.csv,,,,,,,,,,,,,,,,,,,,,,,,,,,,,,,,,,,,,
,,,,,748237,001,2024-06-17_09h56.24.897,experiment,2024.1.5,Win32,59.88023952,568e7e33e3ef9e000da202a7,667045947eb812cbdacbf325,66704b5b1b101716cf98f116,,,,,,,,,,,,,,,,,,,,,,,,,,,,,,,,,,,,,,,,,,,,,,,,,,,,,,,,,,,,,,,,,58,Item 2,I have no involving in playing a musical instrument except playing with a organ I had as a teen. It was self taught at age 14 to 16,Item 2,Radio,4,3,"Driving, cleaning, with husband",Never,Never,Never,Rarely,Never,Never,Rarely,Never,Rarely,Never,Never,Never,Never,Often,Often,Never,Christian,Christian,Alternative Rock,Classic Rock,I listened to pop till probably till I was 30 and don't anymore,none,0,0,0,0,1,,
,,,,,748237,001,2024-06-17_09h56.24.897,experiment,2024.1.5,Win32,59.88023952,568e7e33e3ef9e000da202a7,667045947eb812cbdacbf325,66704b5b1b101716cf98f116,,,,,,,,,,,,,,,,,,,,,,,,,,,,,,,,,,,,,,,,,,,,,,,,,,,,,,,,,,,,,,,,,,,,,,,,,,,,,,,,,,,,,,,,,,,,,,,,,,,,1460.1758,1462.6387
