welcome.started,welcome.stopped,space_to_continue.keys,space_to_continue.rt,space_to_continue.duration,participant,session,date,expName,psychopyVersion,OS,frameRate,PROLIFIC_PID,STUDY_ID,SESSION_ID,consent.consent,consent.consent_recontact,consent_check.started,consent_check.stopped,calibration_ready.started,calibration_ready.stopped,cal_ready.keys,cal_ready.rt,cal_ready.duration,calibration.started,calibration.stopped,mouse.x,mouse.y,mouse.leftButton,mouse.midButton,mouse.rightButton,mouse.time,mouse.clicked_name,move_on.keys,move_on.rt,move_on.duration,instructions.started,instructions.stopped,next.keys,next.rt,next.duration,practice_trial.started,practice_trial.stopped,practice_slider.response,practice_slider.rt,ready.started,ready.stopped,key_resp.keys,key_resp.rt,key_resp.duration,play_sound.started,play_sound.stopped,trials.thisRepN,trials.thisTrialN,trials.thisN,trials.thisIndex,trials.ran,orig_or_cover,rating.started,rating.stopped,slider.response,slider.rt,songs.thisRepN,songs.thisTrialN,songs.thisN,songs.thisIndex,songs.ran,song_id,short_break.started,short_break.stopped,space_to_move_on.keys,space_to_move_on.rt,space_to_move_on.duration,blocks.thisRepN,blocks.thisTrialN,blocks.thisN,blocks.thisIndex,blocks.ran,block,survey.age,survey.musician,survey.music_making,survey.listen_time,survey.medium,survey.music_seeking,survey.music_choice,survey.activities,survey.question1.Classical,survey.question1.Disco,survey.question1.Country,survey.question1.A cappella,survey.question1.Pop,survey.question1.R&B,survey.question1.Alternative rock,survey.question1.Latin,survey.question1.Hip hop,survey.question1.Electronic (EDM),survey.question1.Folk/indie,survey.question1.Reggae,survey.question1.Classic rock,survey.question1.Jazz,survey.question1.Metal,survey.question1.Ambient,survey.other_genres,survey.genres_ranked.text1,survey.genres_ranked.text2,survey.genres_ranked.text3,survey.habit_change,survey.habits,experiment.thisRepN,experiment.thisTrialN,experiment.thisN,experiment.thisIndex,experiment.ran,goodbye.started,goodbye.stopped
0.0001,100.3615,space,100.3561,,752587,001,2024-06-14_11h17.23.288,experiment,2024.1.5,Win32,163.9344262,65bfc33d79b5cd4ab0ff8a2c,666b5f73dbba3f0cd916b177,666c6cc7f09588c5755d457b,,,,,,,,,,,,,,,,,,,,,,,,,,,,,,,,,,,,,,,,,,,,,,,,,,,,,,,,,,,,,,,,,,,,,,,,,,,,,,,,,,,,,,,,,,,,,,,,,,,,,
,,,,,752587,001,2024-06-14_11h17.23.288,experiment,2024.1.5,Win32,163.9344262,65bfc33d79b5cd4ab0ff8a2c,666b5f73dbba3f0cd916b177,666c6cc7f09588c5755d457b,yes,yes,,,,,,,,,,,,,,,,,,,,,,,,,,,,,,,,,,,,,,,,,,,,,,,,,,,,,,,,,,,,,,,,,,,,,,,,,,,,,,,,,,,,,,,,,,,,,,,,,,,
,,,,,752587,001,2024-06-14_11h17.23.288,experiment,2024.1.5,Win32,163.9344262,65bfc33d79b5cd4ab0ff8a2c,666b5f73dbba3f0cd916b177,666c6cc7f09588c5755d457b,,,127.684,127.684,,,,,,,,,,,,,,,,,,,,,,,,,,,,,,,,,,,,,,,,,,,,,,,,,,,,,,,,,,,,,,,,,,,,,,,,,,,,,,,,,,,,,,,,,,,,,,,,,
,,,,,752587,001,2024-06-14_11h17.23.288,experiment,2024.1.5,Win32,163.9344262,65bfc33d79b5cd4ab0ff8a2c,666b5f73dbba3f0cd916b177,666c6cc7f09588c5755d457b,,,,,127.6851,133.6911,space,5.9922,,133.6912,178.0682,"[-0.006481481481481481,0.003703703703703704]","[-0.425,-0.42592592592592593]","[1,1]","[0,0]","[0,0]","[13.085900000005978,42.85479999999703]","[""play_button"",""play_button""]",right,34.3595,,178.0684,188.0923,space,10.0165,,188.0925,203.743,4.016666667,15.6442,203.7432,205.5469,space,1.7967,,205.5597,212.8162,0,0,0,1,1,SoundStimuli/FlashdanceWhatAFeeling_IreneCara_Cover5S.wav,,,,,,,,,,,,,,,,,,,,,,,,,,,,,,,,,,,,,,,,,,,,,,,,,,,,,,,,,,
,,,,,752587,001,2024-06-14_11h17.23.288,experiment,2024.1.5,Win32,163.9344262,65bfc33d79b5cd4ab0ff8a2c,666b5f73dbba3f0cd916b177,666c6cc7f09588c5755d457b,,,,,,,,,,,,,,,,,,,,,,,,,,,,,,,,,,,,212.8218,219.1895,0,1,1,0,1,SoundStimuli/FlashdanceWhatAFeeling_IreneCara_Original5S.wav,,,,,,,,,,,,,,,,,,,,,,,,,,,,,,,,,,,,,,,,,,,,,,,,,,,,,,,,,,
,,,,,752587,001,2024-06-14_11h17.23.288,experiment,2024.1.5,Win32,163.9344262,65bfc33d79b5cd4ab0ff8a2c,666b5f73dbba3f0cd916b177,666c6cc7f09588c5755d457b,,,,,,,,,,,,,,,,,,,,,,,,,,,,,,,,,,,,,,,,,,,,219.1949,220.4866,6.988888889,1.2873,0,0,0,18,1,song_indices/FlashdanceWhatAFeeling_IreneCara.csv,,,,,,,,,,,,,,,,,,,,,,,,,,,,,,,,,,,,,,,,,,,,,,,,
,,,,,752587,001,2024-06-14_11h17.23.288,experiment,2024.1.5,Win32,163.9344262,65bfc33d79b5cd4ab0ff8a2c,666b5f73dbba3f0cd916b177,666c6cc7f09588c5755d457b,,,,,,,,,,,,,,,,,,,,,,,,,,,,,,,,,,,,220.4873,226.9169,0,0,0,1,1,SoundStimuli/YouLightUpMyLife_DebbyBoone_Cover5S.wav,,,,,,,,,,,,,,,,,,,,,,,,,,,,,,,,,,,,,,,,,,,,,,,,,,,,,,,,,,
,,,,,752587,001,2024-06-14_11h17.23.288,experiment,2024.1.5,Win32,163.9344262,65bfc33d79b5cd4ab0ff8a2c,666b5f73dbba3f0cd916b177,666c6cc7f09588c5755d457b,,,,,,,,,,,,,,,,,,,,,,,,,,,,,,,,,,,,226.9221,232.9737,0,1,1,0,1,SoundStimuli/YouLightUpMyLife_DebbyBoone_Original5S.wav,,,,,,,,,,,,,,,,,,,,,,,,,,,,,,,,,,,,,,,,,,,,,,,,,,,,,,,,,,
,,,,,752587,001,2024-06-14_11h17.23.288,experiment,2024.1.5,Win32,163.9344262,65bfc33d79b5cd4ab0ff8a2c,666b5f73dbba3f0cd916b177,666c6cc7f09588c5755d457b,,,,,,,,,,,,,,,,,,,,,,,,,,,,,,,,,,,,,,,,,,,,232.9739,235.178,6.977777778,2.1984,0,1,1,4,1,song_indices/YouLightUpMyLife_DebbyBoone.csv,,,,,,,,,,,,,,,,,,,,,,,,,,,,,,,,,,,,,,,,,,,,,,,,
,,,,,752587,001,2024-06-14_11h17.23.288,experiment,2024.1.5,Win32,163.9344262,65bfc33d79b5cd4ab0ff8a2c,666b5f73dbba3f0cd916b177,666c6cc7f09588c5755d457b,,,,,,,,,,,,,,,,,,,,,,,,,,,,,,,,,,,,235.1786,242.174,0,0,0,0,1,SoundStimuli/PokerFace_LadyGaga_Original5S.wav,,,,,,,,,,,,,,,,,,,,,,,,,,,,,,,,,,,,,,,,,,,,,,,,,,,,,,,,,,
,,,,,752587,001,2024-06-14_11h17.23.288,experiment,2024.1.5,Win32,163.9344262,65bfc33d79b5cd4ab0ff8a2c,666b5f73dbba3f0cd916b177,666c6cc7f09588c5755d457b,,,,,,,,,,,,,,,,,,,,,,,,,,,,,,,,,,,,242.1795,249.0022,0,1,1,1,1,SoundStimuli/PokerFace_LadyGaga_Cover5S.wav,,,,,,,,,,,,,,,,,,,,,,,,,,,,,,,,,,,,,,,,,,,,,,,,,,,,,,,,,,
,,,,,752587,001,2024-06-14_11h17.23.288,experiment,2024.1.5,Win32,163.9344262,65bfc33d79b5cd4ab0ff8a2c,666b5f73dbba3f0cd916b177,666c6cc7f09588c5755d457b,,,,,,,,,,,,,,,,,,,,,,,,,,,,,,,,,,,,,,,,,,,,249.0024,250.4205,3.688888889,1.4099,0,2,2,23,1,song_indices/PokerFace_LadyGaga.csv,,,,,,,,,,,,,,,,,,,,,,,,,,,,,,,,,,,,,,,,,,,,,,,,
,,,,,752587,001,2024-06-14_11h17.23.288,experiment,2024.1.5,Win32,163.9344262,65bfc33d79b5cd4ab0ff8a2c,666b5f73dbba3f0cd916b177,666c6cc7f09588c5755d457b,,,,,,,,,,,,,,,,,,,,,,,,,,,,,,,,,,,,250.4211,256.4085,0,0,0,1,1,SoundStimuli/TheSign_AceOfBase_Cover5S.wav,,,,,,,,,,,,,,,,,,,,,,,,,,,,,,,,,,,,,,,,,,,,,,,,,,,,,,,,,,
,,,,,752587,001,2024-06-14_11h17.23.288,experiment,2024.1.5,Win32,163.9344262,65bfc33d79b5cd4ab0ff8a2c,666b5f73dbba3f0cd916b177,666c6cc7f09588c5755d457b,,,,,,,,,,,,,,,,,,,,,,,,,,,,,,,,,,,,256.4137,262.5481,0,1,1,0,1,SoundStimuli/TheSign_AceOfBase_Original5S.wav,,,,,,,,,,,,,,,,,,,,,,,,,,,,,,,,,,,,,,,,,,,,,,,,,,,,,,,,,,
,,,,,752587,001,2024-06-14_11h17.23.288,experiment,2024.1.5,Win32,163.9344262,65bfc33d79b5cd4ab0ff8a2c,666b5f73dbba3f0cd916b177,666c6cc7f09588c5755d457b,,,,,,,,,,,,,,,,,,,,,,,,,,,,,,,,,,,,,,,,,,,,262.5482,263.554,5.772222222,1.0001,0,3,3,5,1,song_indices/TheSign_AceOfBase.csv,,,,,,,,,,,,,,,,,,,,,,,,,,,,,,,,,,,,,,,,,,,,,,,,
,,,,,752587,001,2024-06-14_11h17.23.288,experiment,2024.1.5,Win32,163.9344262,65bfc33d79b5cd4ab0ff8a2c,666b5f73dbba3f0cd916b177,666c6cc7f09588c5755d457b,,,,,,,,,,,,,,,,,,,,,,,,,,,,,,,,,,,,263.5546,269.0087,0,0,0,1,1,SoundStimuli/HowDoILive_LeAnnRimes_Cover5S.wav,,,,,,,,,,,,,,,,,,,,,,,,,,,,,,,,,,,,,,,,,,,,,,,,,,,,,,,,,,
,,,,,752587,001,2024-06-14_11h17.23.288,experiment,2024.1.5,Win32,163.9344262,65bfc33d79b5cd4ab0ff8a2c,666b5f73dbba3f0cd916b177,666c6cc7f09588c5755d457b,,,,,,,,,,,,,,,,,,,,,,,,,,,,,,,,,,,,269.0141,275.021,0,1,1,0,1,SoundStimuli/HowDoILive_LeAnnRimes_Original5S.wav,,,,,,,,,,,,,,,,,,,,,,,,,,,,,,,,,,,,,,,,,,,,,,,,,,,,,,,,,,
,,,,,752587,001,2024-06-14_11h17.23.288,experiment,2024.1.5,Win32,163.9344262,65bfc33d79b5cd4ab0ff8a2c,666b5f73dbba3f0cd916b177,666c6cc7f09588c5755d457b,,,,,,,,,,,,,,,,,,,,,,,,,,,,,,,,,,,,,,,,,,,,275.021,275.6755,4.072222222,0.6474,0,4,4,17,1,song_indices/HowDoILive_LeAnnRimes.csv,,,,,,,,,,,,,,,,,,,,,,,,,,,,,,,,,,,,,,,,,,,,,,,,
,,,,,752587,001,2024-06-14_11h17.23.288,experiment,2024.1.5,Win32,163.9344262,65bfc33d79b5cd4ab0ff8a2c,666b5f73dbba3f0cd916b177,666c6cc7f09588c5755d457b,,,,,,,,,,,,,,,,,,,,,,,,,,,,,,,,,,,,275.676,282.1605,0,0,0,0,1,SoundStimuli/Dreams_FleetwoodMac_Original5S.wav,,,,,,,,,,,,,,,,,,,,,,,,,,,,,,,,,,,,,,,,,,,,,,,,,,,,,,,,,,
,,,,,752587,001,2024-06-14_11h17.23.288,experiment,2024.1.5,Win32,163.9344262,65bfc33d79b5cd4ab0ff8a2c,666b5f73dbba3f0cd916b177,666c6cc7f09588c5755d457b,,,,,,,,,,,,,,,,,,,,,,,,,,,,,,,,,,,,282.1657,289.9742,0,1,1,1,1,SoundStimuli/Dreams_FleetwoodMac_Cover5S.wav,,,,,,,,,,,,,,,,,,,,,,,,,,,,,,,,,,,,,,,,,,,,,,,,,,,,,,,,,,
,,,,,752587,001,2024-06-14_11h17.23.288,experiment,2024.1.5,Win32,163.9344262,65bfc33d79b5cd4ab0ff8a2c,666b5f73dbba3f0cd916b177,666c6cc7f09588c5755d457b,,,,,,,,,,,,,,,,,,,,,,,,,,,,,,,,,,,,,,,,,,,,289.9744,291.9208,2.011111111,1.9407,0,5,5,1,1,song_indices/Dreams_FleetwoodMac.csv,,,,,,,,,,,,,,,,,,,,,,,,,,,,,,,,,,,,,,,,,,,,,,,,
,,,,,752587,001,2024-06-14_11h17.23.288,experiment,2024.1.5,Win32,163.9344262,65bfc33d79b5cd4ab0ff8a2c,666b5f73dbba3f0cd916b177,666c6cc7f09588c5755d457b,,,,,,,,,,,,,,,,,,,,,,,,,,,,,,,,,,,,291.9212,298.0336,0,0,0,0,1,SoundStimuli/Superstition_StevieWonder_Original5S.wav,,,,,,,,,,,,,,,,,,,,,,,,,,,,,,,,,,,,,,,,,,,,,,,,,,,,,,,,,,
,,,,,752587,001,2024-06-14_11h17.23.288,experiment,2024.1.5,Win32,163.9344262,65bfc33d79b5cd4ab0ff8a2c,666b5f73dbba3f0cd916b177,666c6cc7f09588c5755d457b,,,,,,,,,,,,,,,,,,,,,,,,,,,,,,,,,,,,298.0388,303.3125,0,1,1,1,1,SoundStimuli/Superstition_StevieWonder_Cover5S.wav,,,,,,,,,,,,,,,,,,,,,,,,,,,,,,,,,,,,,,,,,,,,,,,,,,,,,,,,,,
,,,,,752587,001,2024-06-14_11h17.23.288,experiment,2024.1.5,Win32,163.9344262,65bfc33d79b5cd4ab0ff8a2c,666b5f73dbba3f0cd916b177,666c6cc7f09588c5755d457b,,,,,,,,,,,,,,,,,,,,,,,,,,,,,,,,,,,,,,,,,,,,303.3126,306.3914,4.611111111,3.069,0,6,6,15,1,song_indices/Superstition_StevieWonder.csv,,,,,,,,,,,,,,,,,,,,,,,,,,,,,,,,,,,,,,,,,,,,,,,,
,,,,,752587,001,2024-06-14_11h17.23.288,experiment,2024.1.5,Win32,163.9344262,65bfc33d79b5cd4ab0ff8a2c,666b5f73dbba3f0cd916b177,666c6cc7f09588c5755d457b,,,,,,,,,,,,,,,,,,,,,,,,,,,,,,,,,,,,306.392,312.3793,0,0,0,0,1,SoundStimuli/Levitating_DuaLipa_Original5S.wav,,,,,,,,,,,,,,,,,,,,,,,,,,,,,,,,,,,,,,,,,,,,,,,,,,,,,,,,,,
,,,,,752587,001,2024-06-14_11h17.23.288,experiment,2024.1.5,Win32,163.9344262,65bfc33d79b5cd4ab0ff8a2c,666b5f73dbba3f0cd916b177,666c6cc7f09588c5755d457b,,,,,,,,,,,,,,,,,,,,,,,,,,,,,,,,,,,,312.3845,318.0763,0,1,1,1,1,SoundStimuli/Levitating_DuaLipa_Cover5S.wav,,,,,,,,,,,,,,,,,,,,,,,,,,,,,,,,,,,,,,,,,,,,,,,,,,,,,,,,,,
,,,,,752587,001,2024-06-14_11h17.23.288,experiment,2024.1.5,Win32,163.9344262,65bfc33d79b5cd4ab0ff8a2c,666b5f73dbba3f0cd916b177,666c6cc7f09588c5755d457b,,,,,,,,,,,,,,,,,,,,,,,,,,,,,,,,,,,,,,,,,,,,318.0764,322.4765,3.394444444,4.3918,0,7,7,10,1,song_indices/Levitating_DuaLipa.csv,,,,,,,,,,,,,,,,,,,,,,,,,,,,,,,,,,,,,,,,,,,,,,,,
,,,,,752587,001,2024-06-14_11h17.23.288,experiment,2024.1.5,Win32,163.9344262,65bfc33d79b5cd4ab0ff8a2c,666b5f73dbba3f0cd916b177,666c6cc7f09588c5755d457b,,,,,,,,,,,,,,,,,,,,,,,,,,,,,,,,,,,,322.4771,328.9311,0,0,0,1,1,SoundStimuli/Weak_SWV_Cover5S.wav,,,,,,,,,,,,,,,,,,,,,,,,,,,,,,,,,,,,,,,,,,,,,,,,,,,,,,,,,,
,,,,,752587,001,2024-06-14_11h17.23.288,experiment,2024.1.5,Win32,163.9344262,65bfc33d79b5cd4ab0ff8a2c,666b5f73dbba3f0cd916b177,666c6cc7f09588c5755d457b,,,,,,,,,,,,,,,,,,,,,,,,,,,,,,,,,,,,328.9363,334.9857,0,1,1,0,1,SoundStimuli/Weak_SWV_Original5S.wav,,,,,,,,,,,,,,,,,,,,,,,,,,,,,,,,,,,,,,,,,,,,,,,,,,,,,,,,,,
,,,,,752587,001,2024-06-14_11h17.23.288,experiment,2024.1.5,Win32,163.9344262,65bfc33d79b5cd4ab0ff8a2c,666b5f73dbba3f0cd916b177,666c6cc7f09588c5755d457b,,,,,,,,,,,,,,,,,,,,,,,,,,,,,,,,,,,,,,,,,,,,334.9858,337.3314,1.005555556,2.3382,0,8,8,6,1,song_indices/Weak_SWV.csv,,,,,,,,,,,,,,,,,,,,,,,,,,,,,,,,,,,,,,,,,,,,,,,,
,,,,,752587,001,2024-06-14_11h17.23.288,experiment,2024.1.5,Win32,163.9344262,65bfc33d79b5cd4ab0ff8a2c,666b5f73dbba3f0cd916b177,666c6cc7f09588c5755d457b,,,,,,,,,,,,,,,,,,,,,,,,,,,,,,,,,,,,337.3319,344.8405,0,0,0,1,1,SoundStimuli/TikTok_Kesha_Cover5S.wav,,,,,,,,,,,,,,,,,,,,,,,,,,,,,,,,,,,,,,,,,,,,,,,,,,,,,,,,,,
,,,,,752587,001,2024-06-14_11h17.23.288,experiment,2024.1.5,Win32,163.9344262,65bfc33d79b5cd4ab0ff8a2c,666b5f73dbba3f0cd916b177,666c6cc7f09588c5755d457b,,,,,,,,,,,,,,,,,,,,,,,,,,,,,,,,,,,,344.8461,351.0308,0,1,1,0,1,SoundStimuli/TikTok_Kesha_Original5S.wav,,,,,,,,,,,,,,,,,,,,,,,,,,,,,,,,,,,,,,,,,,,,,,,,,,,,,,,,,,
,,,,,752587,001,2024-06-14_11h17.23.288,experiment,2024.1.5,Win32,163.9344262,65bfc33d79b5cd4ab0ff8a2c,666b5f73dbba3f0cd916b177,666c6cc7f09588c5755d457b,,,,,,,,,,,,,,,,,,,,,,,,,,,,,,,,,,,,,,,,,,,,351.0308,353.9802,4.972222222,2.9413,0,9,9,3,1,song_indices/TikTok_Kesha.csv,,,,,,,,,,,,,,,,,,,,,,,,,,,,,,,,,,,,,,,,,,,,,,,,
,,,,,752587,001,2024-06-14_11h17.23.288,experiment,2024.1.5,Win32,163.9344262,65bfc33d79b5cd4ab0ff8a2c,666b5f73dbba3f0cd916b177,666c6cc7f09588c5755d457b,,,,,,,,,,,,,,,,,,,,,,,,,,,,,,,,,,,,353.9807,360.2349,0,0,0,1,1,SoundStimuli/Kiss_Prince_Cover5S.wav,,,,,,,,,,,,,,,,,,,,,,,,,,,,,,,,,,,,,,,,,,,,,,,,,,,,,,,,,,
,,,,,752587,001,2024-06-14_11h17.23.288,experiment,2024.1.5,Win32,163.9344262,65bfc33d79b5cd4ab0ff8a2c,666b5f73dbba3f0cd916b177,666c6cc7f09588c5755d457b,,,,,,,,,,,,,,,,,,,,,,,,,,,,,,,,,,,,360.2404,367.6471,0,1,1,0,1,SoundStimuli/Kiss_Prince_Original5S.wav,,,,,,,,,,,,,,,,,,,,,,,,,,,,,,,,,,,,,,,,,,,,,,,,,,,,,,,,,,
,,,,,752587,001,2024-06-14_11h17.23.288,experiment,2024.1.5,Win32,163.9344262,65bfc33d79b5cd4ab0ff8a2c,666b5f73dbba3f0cd916b177,666c6cc7f09588c5755d457b,,,,,,,,,,,,,,,,,,,,,,,,,,,,,,,,,,,,,,,,,,,,367.6472,369.8658,1.466666667,2.213,0,10,10,14,1,song_indices/Kiss_Prince.csv,,,,,,,,,,,,,,,,,,,,,,,,,,,,,,,,,,,,,,,,,,,,,,,,
,,,,,752587,001,2024-06-14_11h17.23.288,experiment,2024.1.5,Win32,163.9344262,65bfc33d79b5cd4ab0ff8a2c,666b5f73dbba3f0cd916b177,666c6cc7f09588c5755d457b,,,,,,,,,,,,,,,,,,,,,,,,,,,,,,,,,,,,369.8661,375.9079,0,0,0,1,1,SoundStimuli/Respect_ArethaFranklin_Cover5S.wav,,,,,,,,,,,,,,,,,,,,,,,,,,,,,,,,,,,,,,,,,,,,,,,,,,,,,,,,,,
,,,,,752587,001,2024-06-14_11h17.23.288,experiment,2024.1.5,Win32,163.9344262,65bfc33d79b5cd4ab0ff8a2c,666b5f73dbba3f0cd916b177,666c6cc7f09588c5755d457b,,,,,,,,,,,,,,,,,,,,,,,,,,,,,,,,,,,,375.913,381.8171,0,1,1,0,1,SoundStimuli/Respect_ArethaFranklin_Original5S.wav,,,,,,,,,,,,,,,,,,,,,,,,,,,,,,,,,,,,,,,,,,,,,,,,,,,,,,,,,,
,,,,,752587,001,2024-06-14_11h17.23.288,experiment,2024.1.5,Win32,163.9344262,65bfc33d79b5cd4ab0ff8a2c,666b5f73dbba3f0cd916b177,666c6cc7f09588c5755d457b,,,,,,,,,,,,,,,,,,,,,,,,,,,,,,,,,,,,,,,,,,,,381.8172,382.702,1.022222222,0.8754,0,11,11,0,1,song_indices/Respect_ArethaFranklin.csv,,,,,,,,,,,,,,,,,,,,,,,,,,,,,,,,,,,,,,,,,,,,,,,,
,,,,,752587,001,2024-06-14_11h17.23.288,experiment,2024.1.5,Win32,163.9344262,65bfc33d79b5cd4ab0ff8a2c,666b5f73dbba3f0cd916b177,666c6cc7f09588c5755d457b,,,,,,,,,,,,,,,,,,,,,,,,,,,,,,,,,,,,382.7027,388.9748,0,0,0,0,1,SoundStimuli/LetsGetItOn_MarvinGaye_Original5S.wav,,,,,,,,,,,,,,,,,,,,,,,,,,,,,,,,,,,,,,,,,,,,,,,,,,,,,,,,,,
,,,,,752587,001,2024-06-14_11h17.23.288,experiment,2024.1.5,Win32,163.9344262,65bfc33d79b5cd4ab0ff8a2c,666b5f73dbba3f0cd916b177,666c6cc7f09588c5755d457b,,,,,,,,,,,,,,,,,,,,,,,,,,,,,,,,,,,,388.98,395.6015,0,1,1,1,1,SoundStimuli/LetsGetItOn_MarvinGaye_Cover5S.wav,,,,,,,,,,,,,,,,,,,,,,,,,,,,,,,,,,,,,,,,,,,,,,,,,,,,,,,,,,
,,,,,752587,001,2024-06-14_11h17.23.288,experiment,2024.1.5,Win32,163.9344262,65bfc33d79b5cd4ab0ff8a2c,666b5f73dbba3f0cd916b177,666c6cc7f09588c5755d457b,,,,,,,,,,,,,,,,,,,,,,,,,,,,,,,,,,,,,,,,,,,,395.6016,396.678,3.072222222,1.0667,0,12,12,20,1,song_indices/LetsGetItOn_MarvinGaye.csv,,,,,,,,,,,,,,,,,,,,,,,,,,,,,,,,,,,,,,,,,,,,,,,,
,,,,,752587,001,2024-06-14_11h17.23.288,experiment,2024.1.5,Win32,163.9344262,65bfc33d79b5cd4ab0ff8a2c,666b5f73dbba3f0cd916b177,666c6cc7f09588c5755d457b,,,,,,,,,,,,,,,,,,,,,,,,,,,,,,,,,,,,396.6788,402.7162,0,0,0,0,1,SoundStimuli/TossinAndTurnin_BobbyLewis_Original5S.wav,,,,,,,,,,,,,,,,,,,,,,,,,,,,,,,,,,,,,,,,,,,,,,,,,,,,,,,,,,
,,,,,752587,001,2024-06-14_11h17.23.288,experiment,2024.1.5,Win32,163.9344262,65bfc33d79b5cd4ab0ff8a2c,666b5f73dbba3f0cd916b177,666c6cc7f09588c5755d457b,,,,,,,,,,,,,,,,,,,,,,,,,,,,,,,,,,,,402.7214,408.8176,0,1,1,1,1,SoundStimuli/TossinAndTurnin_BobbyLewis_Cover5S.wav,,,,,,,,,,,,,,,,,,,,,,,,,,,,,,,,,,,,,,,,,,,,,,,,,,,,,,,,,,
,,,,,752587,001,2024-06-14_11h17.23.288,experiment,2024.1.5,Win32,163.9344262,65bfc33d79b5cd4ab0ff8a2c,666b5f73dbba3f0cd916b177,666c6cc7f09588c5755d457b,,,,,,,,,,,,,,,,,,,,,,,,,,,,,,,,,,,,,,,,,,,,408.8176,410.7754,3.022222222,1.9485,0,13,13,13,1,song_indices/TossinAndTurnin_BobbyLewis.csv,,,,,,,,,,,,,,,,,,,,,,,,,,,,,,,,,,,,,,,,,,,,,,,,
,,,,,752587,001,2024-06-14_11h17.23.288,experiment,2024.1.5,Win32,163.9344262,65bfc33d79b5cd4ab0ff8a2c,666b5f73dbba3f0cd916b177,666c6cc7f09588c5755d457b,,,,,,,,,,,,,,,,,,,,,,,,,,,,,,,,,,,,410.7762,416.8564,0,0,0,0,1,SoundStimuli/UnbreakMyHeart_ToniBraxton_Original5S.wav,,,,,,,,,,,,,,,,,,,,,,,,,,,,,,,,,,,,,,,,,,,,,,,,,,,,,,,,,,
,,,,,752587,001,2024-06-14_11h17.23.288,experiment,2024.1.5,Win32,163.9344262,65bfc33d79b5cd4ab0ff8a2c,666b5f73dbba3f0cd916b177,666c6cc7f09588c5755d457b,,,,,,,,,,,,,,,,,,,,,,,,,,,,,,,,,,,,416.8616,420.824,0,1,1,1,1,SoundStimuli/UnbreakMyHeart_ToniBraxton_Cover5S.wav,,,,,,,,,,,,,,,,,,,,,,,,,,,,,,,,,,,,,,,,,,,,,,,,,,,,,,,,,,
,,,,,752587,001,2024-06-14_11h17.23.288,experiment,2024.1.5,Win32,163.9344262,65bfc33d79b5cd4ab0ff8a2c,666b5f73dbba3f0cd916b177,666c6cc7f09588c5755d457b,,,,,,,,,,,,,,,,,,,,,,,,,,,,,,,,,,,,,,,,,,,,420.824,422.4664,5.438888889,1.6361,0,14,14,16,1,song_indices/UnbreakMyHeart_ToniBraxton.csv,,,,,,,,,,,,,,,,,,,,,,,,,,,,,,,,,,,,,,,,,,,,,,,,
,,,,,752587,001,2024-06-14_11h17.23.288,experiment,2024.1.5,Win32,163.9344262,65bfc33d79b5cd4ab0ff8a2c,666b5f73dbba3f0cd916b177,666c6cc7f09588c5755d457b,,,,,,,,,,,,,,,,,,,,,,,,,,,,,,,,,,,,422.4669,428.6445,0,0,0,0,1,SoundStimuli/SaveYourTears_TheWeekndArianaGrande_Original5S.wav,,,,,,,,,,,,,,,,,,,,,,,,,,,,,,,,,,,,,,,,,,,,,,,,,,,,,,,,,,
,,,,,752587,001,2024-06-14_11h17.23.288,experiment,2024.1.5,Win32,163.9344262,65bfc33d79b5cd4ab0ff8a2c,666b5f73dbba3f0cd916b177,666c6cc7f09588c5755d457b,,,,,,,,,,,,,,,,,,,,,,,,,,,,,,,,,,,,428.6496,434.5151,0,1,1,1,1,SoundStimuli/SaveYourTears_TheWeekndArianaGrande_Cover5S.wav,,,,,,,,,,,,,,,,,,,,,,,,,,,,,,,,,,,,,,,,,,,,,,,,,,,,,,,,,,
,,,,,752587,001,2024-06-14_11h17.23.288,experiment,2024.1.5,Win32,163.9344262,65bfc33d79b5cd4ab0ff8a2c,666b5f73dbba3f0cd916b177,666c6cc7f09588c5755d457b,,,,,,,,,,,,,,,,,,,,,,,,,,,,,,,,,,,,,,,,,,,,434.5152,436.4788,4.283333333,1.9542,0,15,15,12,1,song_indices/SaveYourTears_TheWeekndArianaGrande.csv,,,,,,,,,,,,,,,,,,,,,,,,,,,,,,,,,,,,,,,,,,,,,,,,
,,,,,752587,001,2024-06-14_11h17.23.288,experiment,2024.1.5,Win32,163.9344262,65bfc33d79b5cd4ab0ff8a2c,666b5f73dbba3f0cd916b177,666c6cc7f09588c5755d457b,,,,,,,,,,,,,,,,,,,,,,,,,,,,,,,,,,,,436.4793,443.4487,0,0,0,1,1,SoundStimuli/Dilemma_NellyKellyRowland_Cover5S.wav,,,,,,,,,,,,,,,,,,,,,,,,,,,,,,,,,,,,,,,,,,,,,,,,,,,,,,,,,,
,,,,,752587,001,2024-06-14_11h17.23.288,experiment,2024.1.5,Win32,163.9344262,65bfc33d79b5cd4ab0ff8a2c,666b5f73dbba3f0cd916b177,666c6cc7f09588c5755d457b,,,,,,,,,,,,,,,,,,,,,,,,,,,,,,,,,,,,443.4539,449.6269,0,1,1,0,1,SoundStimuli/Dilemma_NellyKellyRowland_Original5S.wav,,,,,,,,,,,,,,,,,,,,,,,,,,,,,,,,,,,,,,,,,,,,,,,,,,,,,,,,,,
,,,,,752587,001,2024-06-14_11h17.23.288,experiment,2024.1.5,Win32,163.9344262,65bfc33d79b5cd4ab0ff8a2c,666b5f73dbba3f0cd916b177,666c6cc7f09588c5755d457b,,,,,,,,,,,,,,,,,,,,,,,,,,,,,,,,,,,,,,,,,,,,449.627,452.3458,3.016666667,2.713,0,16,16,2,1,song_indices/Dilemma_NellyKellyRowland.csv,,,,,,,,,,,,,,,,,,,,,,,,,,,,,,,,,,,,,,,,,,,,,,,,
,,,,,752587,001,2024-06-14_11h17.23.288,experiment,2024.1.5,Win32,163.9344262,65bfc33d79b5cd4ab0ff8a2c,666b5f73dbba3f0cd916b177,666c6cc7f09588c5755d457b,,,,,,,,,,,,,,,,,,,,,,,,,,,,,,,,,,,,452.3463,458.8125,0,0,0,0,1,SoundStimuli/BlindingLights_TheWeeknd_Original5S.wav,,,,,,,,,,,,,,,,,,,,,,,,,,,,,,,,,,,,,,,,,,,,,,,,,,,,,,,,,,
,,,,,752587,001,2024-06-14_11h17.23.288,experiment,2024.1.5,Win32,163.9344262,65bfc33d79b5cd4ab0ff8a2c,666b5f73dbba3f0cd916b177,666c6cc7f09588c5755d457b,,,,,,,,,,,,,,,,,,,,,,,,,,,,,,,,,,,,458.8177,465.5906,0,1,1,1,1,SoundStimuli/BlindingLights_TheWeeknd_Cover5S.wav,,,,,,,,,,,,,,,,,,,,,,,,,,,,,,,,,,,,,,,,,,,,,,,,,,,,,,,,,,
,,,,,752587,001,2024-06-14_11h17.23.288,experiment,2024.1.5,Win32,163.9344262,65bfc33d79b5cd4ab0ff8a2c,666b5f73dbba3f0cd916b177,666c6cc7f09588c5755d457b,,,,,,,,,,,,,,,,,,,,,,,,,,,,,,,,,,,,,,,,,,,,465.5907,467.5825,5.011111111,1.9821,0,17,17,21,1,song_indices/BlindingLights_TheWeeknd.csv,,,,,,,,,,,,,,,,,,,,,,,,,,,,,,,,,,,,,,,,,,,,,,,,
,,,,,752587,001,2024-06-14_11h17.23.288,experiment,2024.1.5,Win32,163.9344262,65bfc33d79b5cd4ab0ff8a2c,666b5f73dbba3f0cd916b177,666c6cc7f09588c5755d457b,,,,,,,,,,,,,,,,,,,,,,,,,,,,,,,,,,,,467.5831,473.6735,0,0,0,0,1,SoundStimuli/JoyToTheWorld_ThreeDogNight_Original5S.wav,,,,,,,,,,,,,,,,,,,,,,,,,,,,,,,,,,,,,,,,,,,,,,,,,,,,,,,,,,
,,,,,752587,001,2024-06-14_11h17.23.288,experiment,2024.1.5,Win32,163.9344262,65bfc33d79b5cd4ab0ff8a2c,666b5f73dbba3f0cd916b177,666c6cc7f09588c5755d457b,,,,,,,,,,,,,,,,,,,,,,,,,,,,,,,,,,,,473.6788,478.779,0,1,1,1,1,SoundStimuli/JoyToTheWorld_ThreeDogNight_Cover5S.wav,,,,,,,,,,,,,,,,,,,,,,,,,,,,,,,,,,,,,,,,,,,,,,,,,,,,,,,,,,
,,,,,752587,001,2024-06-14_11h17.23.288,experiment,2024.1.5,Win32,163.9344262,65bfc33d79b5cd4ab0ff8a2c,666b5f73dbba3f0cd916b177,666c6cc7f09588c5755d457b,,,,,,,,,,,,,,,,,,,,,,,,,,,,,,,,,,,,,,,,,,,,478.7791,479.4615,6.144444444,0.673,0,18,18,8,1,song_indices/JoyToTheWorld_ThreeDogNight.csv,,,,,,,,,,,,,,,,,,,,,,,,,,,,,,,,,,,,,,,,,,,,,,,,
,,,,,752587,001,2024-06-14_11h17.23.288,experiment,2024.1.5,Win32,163.9344262,65bfc33d79b5cd4ab0ff8a2c,666b5f73dbba3f0cd916b177,666c6cc7f09588c5755d457b,,,,,,,,,,,,,,,,,,,,,,,,,,,,,,,,,,,,479.4621,485.5426,0,0,0,0,1,SoundStimuli/ComeAndGetYourLove_Redbone_Original5S.wav,,,,,,,,,,,,,,,,,,,,,,,,,,,,,,,,,,,,,,,,,,,,,,,,,,,,,,,,,,
,,,,,752587,001,2024-06-14_11h17.23.288,experiment,2024.1.5,Win32,163.9344262,65bfc33d79b5cd4ab0ff8a2c,666b5f73dbba3f0cd916b177,666c6cc7f09588c5755d457b,,,,,,,,,,,,,,,,,,,,,,,,,,,,,,,,,,,,485.5478,492.589,0,1,1,1,1,SoundStimuli/ComeAndGetYourLove_Redbone_Cover5S.wav,,,,,,,,,,,,,,,,,,,,,,,,,,,,,,,,,,,,,,,,,,,,,,,,,,,,,,,,,,
,,,,,752587,001,2024-06-14_11h17.23.288,experiment,2024.1.5,Win32,163.9344262,65bfc33d79b5cd4ab0ff8a2c,666b5f73dbba3f0cd916b177,666c6cc7f09588c5755d457b,,,,,,,,,,,,,,,,,,,,,,,,,,,,,,,,,,,,,,,,,,,,492.5891,494.0194,5.955555556,1.4226,0,19,19,22,1,song_indices/ComeAndGetYourLove_Redbone.csv,,,,,,,,,,,,,,,,,,,,,,,,,,,,,,,,,,,,,,,,,,,,,,,,
,,,,,752587,001,2024-06-14_11h17.23.288,experiment,2024.1.5,Win32,163.9344262,65bfc33d79b5cd4ab0ff8a2c,666b5f73dbba3f0cd916b177,666c6cc7f09588c5755d457b,,,,,,,,,,,,,,,,,,,,,,,,,,,,,,,,,,,,494.02,499.5164,0,0,0,1,1,SoundStimuli/LeFreak_Chic_Cover5S.wav,,,,,,,,,,,,,,,,,,,,,,,,,,,,,,,,,,,,,,,,,,,,,,,,,,,,,,,,,,
,,,,,752587,001,2024-06-14_11h17.23.288,experiment,2024.1.5,Win32,163.9344262,65bfc33d79b5cd4ab0ff8a2c,666b5f73dbba3f0cd916b177,666c6cc7f09588c5755d457b,,,,,,,,,,,,,,,,,,,,,,,,,,,,,,,,,,,,499.5217,505.5227,0,1,1,0,1,SoundStimuli/LeFreak_Chic_Original5S.wav,,,,,,,,,,,,,,,,,,,,,,,,,,,,,,,,,,,,,,,,,,,,,,,,,,,,,,,,,,
,,,,,752587,001,2024-06-14_11h17.23.288,experiment,2024.1.5,Win32,163.9344262,65bfc33d79b5cd4ab0ff8a2c,666b5f73dbba3f0cd916b177,666c6cc7f09588c5755d457b,,,,,,,,,,,,,,,,,,,,,,,,,,,,,,,,,,,,,,,,,,,,505.5227,506.4136,4.977777778,0.8814,0,20,20,11,1,song_indices/LeFreak_Chic.csv,,,,,,,,,,,,,,,,,,,,,,,,,,,,,,,,,,,,,,,,,,,,,,,,
,,,,,752587,001,2024-06-14_11h17.23.288,experiment,2024.1.5,Win32,163.9344262,65bfc33d79b5cd4ab0ff8a2c,666b5f73dbba3f0cd916b177,666c6cc7f09588c5755d457b,,,,,,,,,,,,,,,,,,,,,,,,,,,,,,,,,,,,506.4141,512.2622,0,0,0,0,1,SoundStimuli/Irreplaceable_Beyonce_Original5S.wav,,,,,,,,,,,,,,,,,,,,,,,,,,,,,,,,,,,,,,,,,,,,,,,,,,,,,,,,,,
,,,,,752587,001,2024-06-14_11h17.23.288,experiment,2024.1.5,Win32,163.9344262,65bfc33d79b5cd4ab0ff8a2c,666b5f73dbba3f0cd916b177,666c6cc7f09588c5755d457b,,,,,,,,,,,,,,,,,,,,,,,,,,,,,,,,,,,,512.2673,518.1592,0,1,1,1,1,SoundStimuli/Irreplaceable_Beyonce_Cover5S.wav,,,,,,,,,,,,,,,,,,,,,,,,,,,,,,,,,,,,,,,,,,,,,,,,,,,,,,,,,,
,,,,,752587,001,2024-06-14_11h17.23.288,experiment,2024.1.5,Win32,163.9344262,65bfc33d79b5cd4ab0ff8a2c,666b5f73dbba3f0cd916b177,666c6cc7f09588c5755d457b,,,,,,,,,,,,,,,,,,,,,,,,,,,,,,,,,,,,,,,,,,,,518.1594,519.723,5.972222222,1.5566,0,21,21,19,1,song_indices/Irreplaceable_Beyonce.csv,,,,,,,,,,,,,,,,,,,,,,,,,,,,,,,,,,,,,,,,,,,,,,,,
,,,,,752587,001,2024-06-14_11h17.23.288,experiment,2024.1.5,Win32,163.9344262,65bfc33d79b5cd4ab0ff8a2c,666b5f73dbba3f0cd916b177,666c6cc7f09588c5755d457b,,,,,,,,,,,,,,,,,,,,,,,,,,,,,,,,,,,,519.7235,526.9352,0,0,0,0,1,SoundStimuli/SomebodyThatIUsedtoKnow_Gotye_Original5S.wav,,,,,,,,,,,,,,,,,,,,,,,,,,,,,,,,,,,,,,,,,,,,,,,,,,,,,,,,,,
,,,,,752587,001,2024-06-14_11h17.23.288,experiment,2024.1.5,Win32,163.9344262,65bfc33d79b5cd4ab0ff8a2c,666b5f73dbba3f0cd916b177,666c6cc7f09588c5755d457b,,,,,,,,,,,,,,,,,,,,,,,,,,,,,,,,,,,,526.9408,533.7173,0,1,1,1,1,SoundStimuli/SomebodyThatIUsedtoKnow_Gotye_Cover5S.wav,,,,,,,,,,,,,,,,,,,,,,,,,,,,,,,,,,,,,,,,,,,,,,,,,,,,,,,,,,
,,,,,752587,001,2024-06-14_11h17.23.288,experiment,2024.1.5,Win32,163.9344262,65bfc33d79b5cd4ab0ff8a2c,666b5f73dbba3f0cd916b177,666c6cc7f09588c5755d457b,,,,,,,,,,,,,,,,,,,,,,,,,,,,,,,,,,,,,,,,,,,,533.7174,534.3778,6.133333333,0.6545,0,22,22,7,1,song_indices/SomebodyThatIUsedtoKnow_Gotye.csv,,,,,,,,,,,,,,,,,,,,,,,,,,,,,,,,,,,,,,,,,,,,,,,,
,,,,,752587,001,2024-06-14_11h17.23.288,experiment,2024.1.5,Win32,163.9344262,65bfc33d79b5cd4ab0ff8a2c,666b5f73dbba3f0cd916b177,666c6cc7f09588c5755d457b,,,,,,,,,,,,,,,,,,,,,,,,,,,,,,,,,,,,534.3783,541.4567,0,0,0,1,1,SoundStimuli/BlurredLines_RobinThicke_Cover5S.wav,,,,,,,,,,,,,,,,,,,,,,,,,,,,,,,,,,,,,,,,,,,,,,,,,,,,,,,,,,
,,,,,752587,001,2024-06-14_11h17.23.288,experiment,2024.1.5,Win32,163.9344262,65bfc33d79b5cd4ab0ff8a2c,666b5f73dbba3f0cd916b177,666c6cc7f09588c5755d457b,,,,,,,,,,,,,,,,,,,,,,,,,,,,,,,,,,,,541.4619,548.1902,0,1,1,0,1,SoundStimuli/BlurredLines_RobinThicke_Original5S.wav,,,,,,,,,,,,,,,,,,,,,,,,,,,,,,,,,,,,,,,,,,,,,,,,,,,,,,,,,,
,,,,,752587,001,2024-06-14_11h17.23.288,experiment,2024.1.5,Win32,163.9344262,65bfc33d79b5cd4ab0ff8a2c,666b5f73dbba3f0cd916b177,666c6cc7f09588c5755d457b,,,,,,,,,,,,,,,,,,,,,,,,,,,,,,,,,,,,,,,,,,,,548.1902,548.8508,6.683333333,0.6536,0,23,23,9,1,song_indices/BlurredLines_RobinThicke.csv,,,,,,,,,,,,,,,,,,,,,,,,,,,,,,,,,,,,,,,,,,,,,,,,
,,,,,752587,001,2024-06-14_11h17.23.288,experiment,2024.1.5,Win32,163.9344262,65bfc33d79b5cd4ab0ff8a2c,666b5f73dbba3f0cd916b177,666c6cc7f09588c5755d457b,,,,,,,,,,,,,,,,,,,,,,,,,,,,,,,,,,,,,,,,,,,,,,,,,,,,,,548.8512,625.0824,space,76.2141,,0,0,0,2,1,choose_song_b3.csv,,,,,,,,,,,,,,,,,,,,,,,,,,,,,,,,,,,,,
,,,,,752587,001,2024-06-14_11h17.23.288,experiment,2024.1.5,Win32,163.9344262,65bfc33d79b5cd4ab0ff8a2c,666b5f73dbba3f0cd916b177,666c6cc7f09588c5755d457b,,,,,,,,,,,,,,,,,,,,,,,,,,,,,,,,,,,,625.0833,632.7266,0,0,0,1,1,SoundStimuli/MyGirl_TheTemptations_Cover5S.wav,,,,,,,,,,,,,,,,,,,,,,,,,,,,,,,,,,,,,,,,,,,,,,,,,,,,,,,,,,
,,,,,752587,001,2024-06-14_11h17.23.288,experiment,2024.1.5,Win32,163.9344262,65bfc33d79b5cd4ab0ff8a2c,666b5f73dbba3f0cd916b177,666c6cc7f09588c5755d457b,,,,,,,,,,,,,,,,,,,,,,,,,,,,,,,,,,,,632.7319,639.0951,0,1,1,0,1,SoundStimuli/MyGirl_TheTemptations_Original5S.wav,,,,,,,,,,,,,,,,,,,,,,,,,,,,,,,,,,,,,,,,,,,,,,,,,,,,,,,,,,
,,,,,752587,001,2024-06-14_11h17.23.288,experiment,2024.1.5,Win32,163.9344262,65bfc33d79b5cd4ab0ff8a2c,666b5f73dbba3f0cd916b177,666c6cc7f09588c5755d457b,,,,,,,,,,,,,,,,,,,,,,,,,,,,,,,,,,,,,,,,,,,,639.0952,640.7499,5.616666667,1.6447,0,0,0,15,1,song_indices/MyGirl_TheTemptations.csv,,,,,,,,,,,,,,,,,,,,,,,,,,,,,,,,,,,,,,,,,,,,,,,,
,,,,,752587,001,2024-06-14_11h17.23.288,experiment,2024.1.5,Win32,163.9344262,65bfc33d79b5cd4ab0ff8a2c,666b5f73dbba3f0cd916b177,666c6cc7f09588c5755d457b,,,,,,,,,,,,,,,,,,,,,,,,,,,,,,,,,,,,640.7505,646.3255,0,0,0,0,1,SoundStimuli/IWannaDanceWithSomebody_WhitneyHouston_Original5S.wav,,,,,,,,,,,,,,,,,,,,,,,,,,,,,,,,,,,,,,,,,,,,,,,,,,,,,,,,,,
,,,,,752587,001,2024-06-14_11h17.23.288,experiment,2024.1.5,Win32,163.9344262,65bfc33d79b5cd4ab0ff8a2c,666b5f73dbba3f0cd916b177,666c6cc7f09588c5755d457b,,,,,,,,,,,,,,,,,,,,,,,,,,,,,,,,,,,,646.3308,653.1377,0,1,1,1,1,SoundStimuli/IWannaDanceWithSomebody_WhitneyHouston_Cover5S.wav,,,,,,,,,,,,,,,,,,,,,,,,,,,,,,,,,,,,,,,,,,,,,,,,,,,,,,,,,,
,,,,,752587,001,2024-06-14_11h17.23.288,experiment,2024.1.5,Win32,163.9344262,65bfc33d79b5cd4ab0ff8a2c,666b5f73dbba3f0cd916b177,666c6cc7f09588c5755d457b,,,,,,,,,,,,,,,,,,,,,,,,,,,,,,,,,,,,,,,,,,,,653.1378,655.4348,3.994444444,2.2896,0,1,1,13,1,song_indices/IWannaDanceWithSomebody_WhitneyHouston.csv,,,,,,,,,,,,,,,,,,,,,,,,,,,,,,,,,,,,,,,,,,,,,,,,
,,,,,752587,001,2024-06-14_11h17.23.288,experiment,2024.1.5,Win32,163.9344262,65bfc33d79b5cd4ab0ff8a2c,666b5f73dbba3f0cd916b177,666c6cc7f09588c5755d457b,,,,,,,,,,,,,,,,,,,,,,,,,,,,,,,,,,,,655.4354,661.9258,0,0,0,1,1,SoundStimuli/OldTownRoad_LilNasX_Cover5S.wav,,,,,,,,,,,,,,,,,,,,,,,,,,,,,,,,,,,,,,,,,,,,,,,,,,,,,,,,,,
,,,,,752587,001,2024-06-14_11h17.23.288,experiment,2024.1.5,Win32,163.9344262,65bfc33d79b5cd4ab0ff8a2c,666b5f73dbba3f0cd916b177,666c6cc7f09588c5755d457b,,,,,,,,,,,,,,,,,,,,,,,,,,,,,,,,,,,,661.9311,669.2775,0,1,1,0,1,SoundStimuli/OldTownRoad_LilNasX_Original5S.wav,,,,,,,,,,,,,,,,,,,,,,,,,,,,,,,,,,,,,,,,,,,,,,,,,,,,,,,,,,
,,,,,752587,001,2024-06-14_11h17.23.288,experiment,2024.1.5,Win32,163.9344262,65bfc33d79b5cd4ab0ff8a2c,666b5f73dbba3f0cd916b177,666c6cc7f09588c5755d457b,,,,,,,,,,,,,,,,,,,,,,,,,,,,,,,,,,,,,,,,,,,,669.2776,670.4173,5.594444444,1.1338,0,2,2,20,1,song_indices/OldTownRoad_LilNasX.csv,,,,,,,,,,,,,,,,,,,,,,,,,,,,,,,,,,,,,,,,,,,,,,,,
,,,,,752587,001,2024-06-14_11h17.23.288,experiment,2024.1.5,Win32,163.9344262,65bfc33d79b5cd4ab0ff8a2c,666b5f73dbba3f0cd916b177,666c6cc7f09588c5755d457b,,,,,,,,,,,,,,,,,,,,,,,,,,,,,,,,,,,,670.4178,677.8981,0,0,0,1,1,SoundStimuli/BadDay_DanielPowter_Cover5S.wav,,,,,,,,,,,,,,,,,,,,,,,,,,,,,,,,,,,,,,,,,,,,,,,,,,,,,,,,,,
,,,,,752587,001,2024-06-14_11h17.23.288,experiment,2024.1.5,Win32,163.9344262,65bfc33d79b5cd4ab0ff8a2c,666b5f73dbba3f0cd916b177,666c6cc7f09588c5755d457b,,,,,,,,,,,,,,,,,,,,,,,,,,,,,,,,,,,,677.9036,684.3324,0,1,1,0,1,SoundStimuli/BadDay_DanielPowter_Original5S.wav,,,,,,,,,,,,,,,,,,,,,,,,,,,,,,,,,,,,,,,,,,,,,,,,,,,,,,,,,,
,,,,,752587,001,2024-06-14_11h17.23.288,experiment,2024.1.5,Win32,163.9344262,65bfc33d79b5cd4ab0ff8a2c,666b5f73dbba3f0cd916b177,666c6cc7f09588c5755d457b,,,,,,,,,,,,,,,,,,,,,,,,,,,,,,,,,,,,,,,,,,,,684.3324,690.684,5.966666667,6.3432,0,3,3,22,1,song_indices/BadDay_DanielPowter.csv,,,,,,,,,,,,,,,,,,,,,,,,,,,,,,,,,,,,,,,,,,,,,,,,
,,,,,752587,001,2024-06-14_11h17.23.288,experiment,2024.1.5,Win32,163.9344262,65bfc33d79b5cd4ab0ff8a2c,666b5f73dbba3f0cd916b177,666c6cc7f09588c5755d457b,,,,,,,,,,,,,,,,,,,,,,,,,,,,,,,,,,,,690.6846,697.2477,0,0,0,1,1,SoundStimuli/Despacito_LuisFonsiDaddyYankee_Cover5S.wav,,,,,,,,,,,,,,,,,,,,,,,,,,,,,,,,,,,,,,,,,,,,,,,,,,,,,,,,,,
,,,,,752587,001,2024-06-14_11h17.23.288,experiment,2024.1.5,Win32,163.9344262,65bfc33d79b5cd4ab0ff8a2c,666b5f73dbba3f0cd916b177,666c6cc7f09588c5755d457b,,,,,,,,,,,,,,,,,,,,,,,,,,,,,,,,,,,,697.2532,703.7834,0,1,1,0,1,SoundStimuli/Despacito_LuisFonsiDaddyYankee_Original5S.wav,,,,,,,,,,,,,,,,,,,,,,,,,,,,,,,,,,,,,,,,,,,,,,,,,,,,,,,,,,
,,,,,752587,001,2024-06-14_11h17.23.288,experiment,2024.1.5,Win32,163.9344262,65bfc33d79b5cd4ab0ff8a2c,666b5f73dbba3f0cd916b177,666c6cc7f09588c5755d457b,,,,,,,,,,,,,,,,,,,,,,,,,,,,,,,,,,,,,,,,,,,,703.7835,707.4541,5.038888889,3.6615,0,4,4,11,1,song_indices/Despacito_LuisFonsiDaddyYankee.csv,,,,,,,,,,,,,,,,,,,,,,,,,,,,,,,,,,,,,,,,,,,,,,,,
,,,,,752587,001,2024-06-14_11h17.23.288,experiment,2024.1.5,Win32,163.9344262,65bfc33d79b5cd4ab0ff8a2c,666b5f73dbba3f0cd916b177,666c6cc7f09588c5755d457b,,,,,,,,,,,,,,,,,,,,,,,,,,,,,,,,,,,,707.4546,711.8299,0,0,0,1,1,SoundStimuli/LikeARollingStone_BobDylan_Cover5S.wav,,,,,,,,,,,,,,,,,,,,,,,,,,,,,,,,,,,,,,,,,,,,,,,,,,,,,,,,,,
,,,,,752587,001,2024-06-14_11h17.23.288,experiment,2024.1.5,Win32,163.9344262,65bfc33d79b5cd4ab0ff8a2c,666b5f73dbba3f0cd916b177,666c6cc7f09588c5755d457b,,,,,,,,,,,,,,,,,,,,,,,,,,,,,,,,,,,,711.8351,717.9597,0,1,1,0,1,SoundStimuli/LikeARollingStone_BobDylan_Original5S.wav,,,,,,,,,,,,,,,,,,,,,,,,,,,,,,,,,,,,,,,,,,,,,,,,,,,,,,,,,,
,,,,,752587,001,2024-06-14_11h17.23.288,experiment,2024.1.5,Win32,163.9344262,65bfc33d79b5cd4ab0ff8a2c,666b5f73dbba3f0cd916b177,666c6cc7f09588c5755d457b,,,,,,,,,,,,,,,,,,,,,,,,,,,,,,,,,,,,,,,,,,,,717.9597,719.7331,5.944444444,1.7641,0,5,5,12,1,song_indices/LikeARollingStone_BobDylan.csv,,,,,,,,,,,,,,,,,,,,,,,,,,,,,,,,,,,,,,,,,,,,,,,,
,,,,,752587,001,2024-06-14_11h17.23.288,experiment,2024.1.5,Win32,163.9344262,65bfc33d79b5cd4ab0ff8a2c,666b5f73dbba3f0cd916b177,666c6cc7f09588c5755d457b,,,,,,,,,,,,,,,,,,,,,,,,,,,,,,,,,,,,719.7337,725.7456,0,0,0,1,1,SoundStimuli/IWantToHoldYourHand_TheBeatles_Cover5S.wav,,,,,,,,,,,,,,,,,,,,,,,,,,,,,,,,,,,,,,,,,,,,,,,,,,,,,,,,,,
,,,,,752587,001,2024-06-14_11h17.23.288,experiment,2024.1.5,Win32,163.9344262,65bfc33d79b5cd4ab0ff8a2c,666b5f73dbba3f0cd916b177,666c6cc7f09588c5755d457b,,,,,,,,,,,,,,,,,,,,,,,,,,,,,,,,,,,,725.7539,731.5152,0,1,1,0,1,SoundStimuli/IWantToHoldYourHand_TheBeatles_Original5S.wav,,,,,,,,,,,,,,,,,,,,,,,,,,,,,,,,,,,,,,,,,,,,,,,,,,,,,,,,,,
,,,,,752587,001,2024-06-14_11h17.23.288,experiment,2024.1.5,Win32,163.9344262,65bfc33d79b5cd4ab0ff8a2c,666b5f73dbba3f0cd916b177,666c6cc7f09588c5755d457b,,,,,,,,,,,,,,,,,,,,,,,,,,,,,,,,,,,,,,,,,,,,731.5152,732.188,3.711111111,0.6642,0,6,6,19,1,song_indices/IWantToHoldYourHand_TheBeatles.csv,,,,,,,,,,,,,,,,,,,,,,,,,,,,,,,,,,,,,,,,,,,,,,,,
,,,,,752587,001,2024-06-14_11h17.23.288,experiment,2024.1.5,Win32,163.9344262,65bfc33d79b5cd4ab0ff8a2c,666b5f73dbba3f0cd916b177,666c6cc7f09588c5755d457b,,,,,,,,,,,,,,,,,,,,,,,,,,,,,,,,,,,,732.1886,738.3892,0,0,0,0,1,SoundStimuli/Smooth_SantanaRobThomas_Original5S.wav,,,,,,,,,,,,,,,,,,,,,,,,,,,,,,,,,,,,,,,,,,,,,,,,,,,,,,,,,,
,,,,,752587,001,2024-06-14_11h17.23.288,experiment,2024.1.5,Win32,163.9344262,65bfc33d79b5cd4ab0ff8a2c,666b5f73dbba3f0cd916b177,666c6cc7f09588c5755d457b,,,,,,,,,,,,,,,,,,,,,,,,,,,,,,,,,,,,738.3944,744.5033,0,1,1,1,1,SoundStimuli/Smooth_SantanaRobThomas_Cover5S.wav,,,,,,,,,,,,,,,,,,,,,,,,,,,,,,,,,,,,,,,,,,,,,,,,,,,,,,,,,,
,,,,,752587,001,2024-06-14_11h17.23.288,experiment,2024.1.5,Win32,163.9344262,65bfc33d79b5cd4ab0ff8a2c,666b5f73dbba3f0cd916b177,666c6cc7f09588c5755d457b,,,,,,,,,,,,,,,,,,,,,,,,,,,,,,,,,,,,,,,,,,,,744.5034,745.2972,6.855555556,0.7881,0,7,7,4,1,song_indices/Smooth_SantanaRobThomas.csv,,,,,,,,,,,,,,,,,,,,,,,,,,,,,,,,,,,,,,,,,,,,,,,,
,,,,,752587,001,2024-06-14_11h17.23.288,experiment,2024.1.5,Win32,163.9344262,65bfc33d79b5cd4ab0ff8a2c,666b5f73dbba3f0cd916b177,666c6cc7f09588c5755d457b,,,,,,,,,,,,,,,,,,,,,,,,,,,,,,,,,,,,745.2978,751.5156,0,0,0,0,1,SoundStimuli/GodOnlyKnows_TheBeachBoys_Original5S.wav,,,,,,,,,,,,,,,,,,,,,,,,,,,,,,,,,,,,,,,,,,,,,,,,,,,,,,,,,,
,,,,,752587,001,2024-06-14_11h17.23.288,experiment,2024.1.5,Win32,163.9344262,65bfc33d79b5cd4ab0ff8a2c,666b5f73dbba3f0cd916b177,666c6cc7f09588c5755d457b,,,,,,,,,,,,,,,,,,,,,,,,,,,,,,,,,,,,751.5211,758.3606,0,1,1,1,1,SoundStimuli/GodOnlyKnows_TheBeachBoys_Cover5S.wav,,,,,,,,,,,,,,,,,,,,,,,,,,,,,,,,,,,,,,,,,,,,,,,,,,,,,,,,,,
,,,,,752587,001,2024-06-14_11h17.23.288,experiment,2024.1.5,Win32,163.9344262,65bfc33d79b5cd4ab0ff8a2c,666b5f73dbba3f0cd916b177,666c6cc7f09588c5755d457b,,,,,,,,,,,,,,,,,,,,,,,,,,,,,,,,,,,,,,,,,,,,758.3607,759.0612,3.955555556,0.691,0,8,8,8,1,song_indices/GodOnlyKnows_TheBeachBoys.csv,,,,,,,,,,,,,,,,,,,,,,,,,,,,,,,,,,,,,,,,,,,,,,,,
,,,,,752587,001,2024-06-14_11h17.23.288,experiment,2024.1.5,Win32,163.9344262,65bfc33d79b5cd4ab0ff8a2c,666b5f73dbba3f0cd916b177,666c6cc7f09588c5755d457b,,,,,,,,,,,,,,,,,,,,,,,,,,,,,,,,,,,,759.0618,765.3787,0,0,0,0,1,SoundStimuli/EndlessLove_DianaRossLionelRichie_Original5S.wav,,,,,,,,,,,,,,,,,,,,,,,,,,,,,,,,,,,,,,,,,,,,,,,,,,,,,,,,,,
,,,,,752587,001,2024-06-14_11h17.23.288,experiment,2024.1.5,Win32,163.9344262,65bfc33d79b5cd4ab0ff8a2c,666b5f73dbba3f0cd916b177,666c6cc7f09588c5755d457b,,,,,,,,,,,,,,,,,,,,,,,,,,,,,,,,,,,,765.3843,772.8636,0,1,1,1,1,SoundStimuli/EndlessLove_DianaRossLionelRichie_Cover5S.wav,,,,,,,,,,,,,,,,,,,,,,,,,,,,,,,,,,,,,,,,,,,,,,,,,,,,,,,,,,
,,,,,752587,001,2024-06-14_11h17.23.288,experiment,2024.1.5,Win32,163.9344262,65bfc33d79b5cd4ab0ff8a2c,666b5f73dbba3f0cd916b177,666c6cc7f09588c5755d457b,,,,,,,,,,,,,,,,,,,,,,,,,,,,,,,,,,,,,,,,,,,,772.8637,773.6676,6.3,0.7958,0,9,9,3,1,song_indices/EndlessLove_DianaRossLionelRichie.csv,,,,,,,,,,,,,,,,,,,,,,,,,,,,,,,,,,,,,,,,,,,,,,,,
,,,,,752587,001,2024-06-14_11h17.23.288,experiment,2024.1.5,Win32,163.9344262,65bfc33d79b5cd4ab0ff8a2c,666b5f73dbba3f0cd916b177,666c6cc7f09588c5755d457b,,,,,,,,,,,,,,,,,,,,,,,,,,,,,,,,,,,,773.6682,779.6798,0,0,0,0,1,SoundStimuli/AChangeIsGonnaCome_SamCooke_Original5S.wav,,,,,,,,,,,,,,,,,,,,,,,,,,,,,,,,,,,,,,,,,,,,,,,,,,,,,,,,,,
,,,,,752587,001,2024-06-14_11h17.23.288,experiment,2024.1.5,Win32,163.9344262,65bfc33d79b5cd4ab0ff8a2c,666b5f73dbba3f0cd916b177,666c6cc7f09588c5755d457b,,,,,,,,,,,,,,,,,,,,,,,,,,,,,,,,,,,,779.6851,784.3671,0,1,1,1,1,SoundStimuli/AChangeIsGonnaCome_SamCooke_Cover5S.wav,,,,,,,,,,,,,,,,,,,,,,,,,,,,,,,,,,,,,,,,,,,,,,,,,,,,,,,,,,
,,,,,752587,001,2024-06-14_11h17.23.288,experiment,2024.1.5,Win32,163.9344262,65bfc33d79b5cd4ab0ff8a2c,666b5f73dbba3f0cd916b177,666c6cc7f09588c5755d457b,,,,,,,,,,,,,,,,,,,,,,,,,,,,,,,,,,,,,,,,,,,,784.3671,784.989,5.983333333,0.6124,0,10,10,17,1,song_indices/AChangeIsGonnaCome_SamCooke.csv,,,,,,,,,,,,,,,,,,,,,,,,,,,,,,,,,,,,,,,,,,,,,,,,
,,,,,752587,001,2024-06-14_11h17.23.288,experiment,2024.1.5,Win32,163.9344262,65bfc33d79b5cd4ab0ff8a2c,666b5f73dbba3f0cd916b177,666c6cc7f09588c5755d457b,,,,,,,,,,,,,,,,,,,,,,,,,,,,,,,,,,,,784.9895,791.1783,0,0,0,1,1,SoundStimuli/LikeAPrayer_Madonna_Cover5S.wav,,,,,,,,,,,,,,,,,,,,,,,,,,,,,,,,,,,,,,,,,,,,,,,,,,,,,,,,,,
,,,,,752587,001,2024-06-14_11h17.23.288,experiment,2024.1.5,Win32,163.9344262,65bfc33d79b5cd4ab0ff8a2c,666b5f73dbba3f0cd916b177,666c6cc7f09588c5755d457b,,,,,,,,,,,,,,,,,,,,,,,,,,,,,,,,,,,,791.1836,797.3528,0,1,1,0,1,SoundStimuli/LikeAPrayer_Madonna_Original5S.wav,,,,,,,,,,,,,,,,,,,,,,,,,,,,,,,,,,,,,,,,,,,,,,,,,,,,,,,,,,
,,,,,752587,001,2024-06-14_11h17.23.288,experiment,2024.1.5,Win32,163.9344262,65bfc33d79b5cd4ab0ff8a2c,666b5f73dbba3f0cd916b177,666c6cc7f09588c5755d457b,,,,,,,,,,,,,,,,,,,,,,,,,,,,,,,,,,,,,,,,,,,,797.3529,798.2014,6.461111111,0.8423,0,11,11,7,1,song_indices/LikeAPrayer_Madonna.csv,,,,,,,,,,,,,,,,,,,,,,,,,,,,,,,,,,,,,,,,,,,,,,,,
,,,,,752587,001,2024-06-14_11h17.23.288,experiment,2024.1.5,Win32,163.9344262,65bfc33d79b5cd4ab0ff8a2c,666b5f73dbba3f0cd916b177,666c6cc7f09588c5755d457b,,,,,,,,,,,,,,,,,,,,,,,,,,,,,,,,,,,,798.202,804.3227,0,0,0,0,1,SoundStimuli/MackTheKnife_BobbyDarin_Original5S.wav,,,,,,,,,,,,,,,,,,,,,,,,,,,,,,,,,,,,,,,,,,,,,,,,,,,,,,,,,,
,,,,,752587,001,2024-06-14_11h17.23.288,experiment,2024.1.5,Win32,163.9344262,65bfc33d79b5cd4ab0ff8a2c,666b5f73dbba3f0cd916b177,666c6cc7f09588c5755d457b,,,,,,,,,,,,,,,,,,,,,,,,,,,,,,,,,,,,804.3278,810.5676,0,1,1,1,1,SoundStimuli/MackTheKnife_BobbyDarin_Cover5S.wav,,,,,,,,,,,,,,,,,,,,,,,,,,,,,,,,,,,,,,,,,,,,,,,,,,,,,,,,,,
,,,,,752587,001,2024-06-14_11h17.23.288,experiment,2024.1.5,Win32,163.9344262,65bfc33d79b5cd4ab0ff8a2c,666b5f73dbba3f0cd916b177,666c6cc7f09588c5755d457b,,,,,,,,,,,,,,,,,,,,,,,,,,,,,,,,,,,,,,,,,,,,810.5676,812.1049,2.838888889,1.5317,0,12,12,21,1,song_indices/MackTheKnife_BobbyDarin.csv,,,,,,,,,,,,,,,,,,,,,,,,,,,,,,,,,,,,,,,,,,,,,,,,
,,,,,752587,001,2024-06-14_11h17.23.288,experiment,2024.1.5,Win32,163.9344262,65bfc33d79b5cd4ab0ff8a2c,666b5f73dbba3f0cd916b177,666c6cc7f09588c5755d457b,,,,,,,,,,,,,,,,,,,,,,,,,,,,,,,,,,,,812.1053,819.1048,0,0,0,1,1,SoundStimuli/StrawberryFieldsForever_TheBeatles_Cover5S.wav,,,,,,,,,,,,,,,,,,,,,,,,,,,,,,,,,,,,,,,,,,,,,,,,,,,,,,,,,,
,,,,,752587,001,2024-06-14_11h17.23.288,experiment,2024.1.5,Win32,163.9344262,65bfc33d79b5cd4ab0ff8a2c,666b5f73dbba3f0cd916b177,666c6cc7f09588c5755d457b,,,,,,,,,,,,,,,,,,,,,,,,,,,,,,,,,,,,819.1101,825.214,0,1,1,0,1,SoundStimuli/StrawberryFieldsForever_TheBeatles_Original5S.wav,,,,,,,,,,,,,,,,,,,,,,,,,,,,,,,,,,,,,,,,,,,,,,,,,,,,,,,,,,
,,,,,752587,001,2024-06-14_11h17.23.288,experiment,2024.1.5,Win32,163.9344262,65bfc33d79b5cd4ab0ff8a2c,666b5f73dbba3f0cd916b177,666c6cc7f09588c5755d457b,,,,,,,,,,,,,,,,,,,,,,,,,,,,,,,,,,,,,,,,,,,,825.2141,826.2505,2.077777778,1.0293,0,13,13,14,1,song_indices/StrawberryFieldsForever_TheBeatles.csv,,,,,,,,,,,,,,,,,,,,,,,,,,,,,,,,,,,,,,,,,,,,,,,,
,,,,,752587,001,2024-06-14_11h17.23.288,experiment,2024.1.5,Win32,163.9344262,65bfc33d79b5cd4ab0ff8a2c,666b5f73dbba3f0cd916b177,666c6cc7f09588c5755d457b,,,,,,,,,,,,,,,,,,,,,,,,,,,,,,,,,,,,826.2511,832.3064,0,0,0,0,1,SoundStimuli/IllMakeLoveToYou_BoyzIIMen_Original5S.wav,,,,,,,,,,,,,,,,,,,,,,,,,,,,,,,,,,,,,,,,,,,,,,,,,,,,,,,,,,
,,,,,752587,001,2024-06-14_11h17.23.288,experiment,2024.1.5,Win32,163.9344262,65bfc33d79b5cd4ab0ff8a2c,666b5f73dbba3f0cd916b177,666c6cc7f09588c5755d457b,,,,,,,,,,,,,,,,,,,,,,,,,,,,,,,,,,,,832.3116,838.2324,0,1,1,1,1,SoundStimuli/IllMakeLoveToYou_BoyzIIMen_Cover5S.wav,,,,,,,,,,,,,,,,,,,,,,,,,,,,,,,,,,,,,,,,,,,,,,,,,,,,,,,,,,
,,,,,752587,001,2024-06-14_11h17.23.288,experiment,2024.1.5,Win32,163.9344262,65bfc33d79b5cd4ab0ff8a2c,666b5f73dbba3f0cd916b177,666c6cc7f09588c5755d457b,,,,,,,,,,,,,,,,,,,,,,,,,,,,,,,,,,,,,,,,,,,,838.2326,838.8021,5.161111111,0.5627,0,14,14,6,1,song_indices/IllMakeLoveToYou_BoyzIIMen.csv,,,,,,,,,,,,,,,,,,,,,,,,,,,,,,,,,,,,,,,,,,,,,,,,
,,,,,752587,001,2024-06-14_11h17.23.288,experiment,2024.1.5,Win32,163.9344262,65bfc33d79b5cd4ab0ff8a2c,666b5f73dbba3f0cd916b177,666c6cc7f09588c5755d457b,,,,,,,,,,,,,,,,,,,,,,,,,,,,,,,,,,,,838.8026,844.6145,0,0,0,1,1,SoundStimuli/StayinAlive_BeeGees_Cover5S.wav,,,,,,,,,,,,,,,,,,,,,,,,,,,,,,,,,,,,,,,,,,,,,,,,,,,,,,,,,,
,,,,,752587,001,2024-06-14_11h17.23.288,experiment,2024.1.5,Win32,163.9344262,65bfc33d79b5cd4ab0ff8a2c,666b5f73dbba3f0cd916b177,666c6cc7f09588c5755d457b,,,,,,,,,,,,,,,,,,,,,,,,,,,,,,,,,,,,844.6197,850.6145,0,1,1,0,1,SoundStimuli/StayinAlive_BeeGees_Original5S.wav,,,,,,,,,,,,,,,,,,,,,,,,,,,,,,,,,,,,,,,,,,,,,,,,,,,,,,,,,,
,,,,,752587,001,2024-06-14_11h17.23.288,experiment,2024.1.5,Win32,163.9344262,65bfc33d79b5cd4ab0ff8a2c,666b5f73dbba3f0cd916b177,666c6cc7f09588c5755d457b,,,,,,,,,,,,,,,,,,,,,,,,,,,,,,,,,,,,,,,,,,,,850.6147,852.4268,5.733333333,1.8047,0,15,15,2,1,song_indices/StayinAlive_BeeGees.csv,,,,,,,,,,,,,,,,,,,,,,,,,,,,,,,,,,,,,,,,,,,,,,,,
,,,,,752587,001,2024-06-14_11h17.23.288,experiment,2024.1.5,Win32,163.9344262,65bfc33d79b5cd4ab0ff8a2c,666b5f73dbba3f0cd916b177,666c6cc7f09588c5755d457b,,,,,,,,,,,,,,,,,,,,,,,,,,,,,,,,,,,,852.4273,858.3662,0,0,0,0,1,SoundStimuli/BohemianRhapsody_Queen_Original5S.wav,,,,,,,,,,,,,,,,,,,,,,,,,,,,,,,,,,,,,,,,,,,,,,,,,,,,,,,,,,
,,,,,752587,001,2024-06-14_11h17.23.288,experiment,2024.1.5,Win32,163.9344262,65bfc33d79b5cd4ab0ff8a2c,666b5f73dbba3f0cd916b177,666c6cc7f09588c5755d457b,,,,,,,,,,,,,,,,,,,,,,,,,,,,,,,,,,,,858.3714,862.4148,0,1,1,1,1,SoundStimuli/BohemianRhapsody_Queen_Cover5S.wav,,,,,,,,,,,,,,,,,,,,,,,,,,,,,,,,,,,,,,,,,,,,,,,,,,,,,,,,,,
,,,,,752587,001,2024-06-14_11h17.23.288,experiment,2024.1.5,Win32,163.9344262,65bfc33d79b5cd4ab0ff8a2c,666b5f73dbba3f0cd916b177,666c6cc7f09588c5755d457b,,,,,,,,,,,,,,,,,,,,,,,,,,,,,,,,,,,,,,,,,,,,862.4148,863.7785,1.116666667,1.3565,0,16,16,18,1,song_indices/BohemianRhapsody_Queen.csv,,,,,,,,,,,,,,,,,,,,,,,,,,,,,,,,,,,,,,,,,,,,,,,,
,,,,,752587,001,2024-06-14_11h17.23.288,experiment,2024.1.5,Win32,163.9344262,65bfc33d79b5cd4ab0ff8a2c,666b5f73dbba3f0cd916b177,666c6cc7f09588c5755d457b,,,,,,,,,,,,,,,,,,,,,,,,,,,,,,,,,,,,863.779,872.0454,0,0,0,1,1,SoundStimuli/Mood_24kGoldnianndior_Cover5S.wav,,,,,,,,,,,,,,,,,,,,,,,,,,,,,,,,,,,,,,,,,,,,,,,,,,,,,,,,,,
,,,,,752587,001,2024-06-14_11h17.23.288,experiment,2024.1.5,Win32,163.9344262,65bfc33d79b5cd4ab0ff8a2c,666b5f73dbba3f0cd916b177,666c6cc7f09588c5755d457b,,,,,,,,,,,,,,,,,,,,,,,,,,,,,,,,,,,,872.051,878.3206,0,1,1,0,1,SoundStimuli/Mood_24kGoldnianndior_Original5S.wav,,,,,,,,,,,,,,,,,,,,,,,,,,,,,,,,,,,,,,,,,,,,,,,,,,,,,,,,,,
,,,,,752587,001,2024-06-14_11h17.23.288,experiment,2024.1.5,Win32,163.9344262,65bfc33d79b5cd4ab0ff8a2c,666b5f73dbba3f0cd916b177,666c6cc7f09588c5755d457b,,,,,,,,,,,,,,,,,,,,,,,,,,,,,,,,,,,,,,,,,,,,878.3207,879.7485,4.016666667,1.4186,0,17,17,5,1,song_indices/Mood_24kGoldnianndior.csv,,,,,,,,,,,,,,,,,,,,,,,,,,,,,,,,,,,,,,,,,,,,,,,,
,,,,,752587,001,2024-06-14_11h17.23.288,experiment,2024.1.5,Win32,163.9344262,65bfc33d79b5cd4ab0ff8a2c,666b5f73dbba3f0cd916b177,666c6cc7f09588c5755d457b,,,,,,,,,,,,,,,,,,,,,,,,,,,,,,,,,,,,879.749,887.8516,0,0,0,1,1,SoundStimuli/AnotherOneBitesTheDust_Queen_Cover5S.wav,,,,,,,,,,,,,,,,,,,,,,,,,,,,,,,,,,,,,,,,,,,,,,,,,,,,,,,,,,
,,,,,752587,001,2024-06-14_11h17.23.288,experiment,2024.1.5,Win32,163.9344262,65bfc33d79b5cd4ab0ff8a2c,666b5f73dbba3f0cd916b177,666c6cc7f09588c5755d457b,,,,,,,,,,,,,,,,,,,,,,,,,,,,,,,,,,,,887.8572,893.8662,0,1,1,0,1,SoundStimuli/AnotherOneBitesTheDust_Queen_Original5S.wav,,,,,,,,,,,,,,,,,,,,,,,,,,,,,,,,,,,,,,,,,,,,,,,,,,,,,,,,,,
,,,,,752587,001,2024-06-14_11h17.23.288,experiment,2024.1.5,Win32,163.9344262,65bfc33d79b5cd4ab0ff8a2c,666b5f73dbba3f0cd916b177,666c6cc7f09588c5755d457b,,,,,,,,,,,,,,,,,,,,,,,,,,,,,,,,,,,,,,,,,,,,893.8662,894.5004,5.05,0.6281,0,18,18,9,1,song_indices/AnotherOneBitesTheDust_Queen.csv,,,,,,,,,,,,,,,,,,,,,,,,,,,,,,,,,,,,,,,,,,,,,,,,
,,,,,752587,001,2024-06-14_11h17.23.288,experiment,2024.1.5,Win32,163.9344262,65bfc33d79b5cd4ab0ff8a2c,666b5f73dbba3f0cd916b177,666c6cc7f09588c5755d457b,,,,,,,,,,,,,,,,,,,,,,,,,,,,,,,,,,,,894.5008,903.0762,0,0,0,1,1,SoundStimuli/HeatWaves_GlassAnimals_Cover5S.wav,,,,,,,,,,,,,,,,,,,,,,,,,,,,,,,,,,,,,,,,,,,,,,,,,,,,,,,,,,
,,,,,752587,001,2024-06-14_11h17.23.288,experiment,2024.1.5,Win32,163.9344262,65bfc33d79b5cd4ab0ff8a2c,666b5f73dbba3f0cd916b177,666c6cc7f09588c5755d457b,,,,,,,,,,,,,,,,,,,,,,,,,,,,,,,,,,,,903.0817,909.1573,0,1,1,0,1,SoundStimuli/HeatWaves_GlassAnimals_Original5S.wav,,,,,,,,,,,,,,,,,,,,,,,,,,,,,,,,,,,,,,,,,,,,,,,,,,,,,,,,,,
,,,,,752587,001,2024-06-14_11h17.23.288,experiment,2024.1.5,Win32,163.9344262,65bfc33d79b5cd4ab0ff8a2c,666b5f73dbba3f0cd916b177,666c6cc7f09588c5755d457b,,,,,,,,,,,,,,,,,,,,,,,,,,,,,,,,,,,,,,,,,,,,909.1574,910.1612,5.555555556,0.998,0,19,19,10,1,song_indices/HeatWaves_GlassAnimals.csv,,,,,,,,,,,,,,,,,,,,,,,,,,,,,,,,,,,,,,,,,,,,,,,,
,,,,,752587,001,2024-06-14_11h17.23.288,experiment,2024.1.5,Win32,163.9344262,65bfc33d79b5cd4ab0ff8a2c,666b5f73dbba3f0cd916b177,666c6cc7f09588c5755d457b,,,,,,,,,,,,,,,,,,,,,,,,,,,,,,,,,,,,910.1619,916.4544,0,0,0,0,1,SoundStimuli/BridgeOverTroubledWater_SimonAndGarfunkel_Original5S.wav,,,,,,,,,,,,,,,,,,,,,,,,,,,,,,,,,,,,,,,,,,,,,,,,,,,,,,,,,,
,,,,,752587,001,2024-06-14_11h17.23.288,experiment,2024.1.5,Win32,163.9344262,65bfc33d79b5cd4ab0ff8a2c,666b5f73dbba3f0cd916b177,666c6cc7f09588c5755d457b,,,,,,,,,,,,,,,,,,,,,,,,,,,,,,,,,,,,916.4596,923.1334,0,1,1,1,1,SoundStimuli/BridgeOverTroubledWater_SimonAndGarfunkel_Cover5S.wav,,,,,,,,,,,,,,,,,,,,,,,,,,,,,,,,,,,,,,,,,,,,,,,,,,,,,,,,,,
,,,,,752587,001,2024-06-14_11h17.23.288,experiment,2024.1.5,Win32,163.9344262,65bfc33d79b5cd4ab0ff8a2c,666b5f73dbba3f0cd916b177,666c6cc7f09588c5755d457b,,,,,,,,,,,,,,,,,,,,,,,,,,,,,,,,,,,,,,,,,,,,923.1336,924.3616,2.177777778,1.2215,0,20,20,1,1,song_indices/BridgeOverTroubledWater_SimonAndGarfunkel.csv,,,,,,,,,,,,,,,,,,,,,,,,,,,,,,,,,,,,,,,,,,,,,,,,
,,,,,752587,001,2024-06-14_11h17.23.288,experiment,2024.1.5,Win32,163.9344262,65bfc33d79b5cd4ab0ff8a2c,666b5f73dbba3f0cd916b177,666c6cc7f09588c5755d457b,,,,,,,,,,,,,,,,,,,,,,,,,,,,,,,,,,,,924.362,932.5983,0,0,0,1,1,SoundStimuli/Perfect_EdSheeran_Cover5S.wav,,,,,,,,,,,,,,,,,,,,,,,,,,,,,,,,,,,,,,,,,,,,,,,,,,,,,,,,,,
,,,,,752587,001,2024-06-14_11h17.23.288,experiment,2024.1.5,Win32,163.9344262,65bfc33d79b5cd4ab0ff8a2c,666b5f73dbba3f0cd916b177,666c6cc7f09588c5755d457b,,,,,,,,,,,,,,,,,,,,,,,,,,,,,,,,,,,,932.604,941.4285,0,1,1,0,1,SoundStimuli/Perfect_EdSheeran_Original5S.wav,,,,,,,,,,,,,,,,,,,,,,,,,,,,,,,,,,,,,,,,,,,,,,,,,,,,,,,,,,
,,,,,752587,001,2024-06-14_11h17.23.288,experiment,2024.1.5,Win32,163.9344262,65bfc33d79b5cd4ab0ff8a2c,666b5f73dbba3f0cd916b177,666c6cc7f09588c5755d457b,,,,,,,,,,,,,,,,,,,,,,,,,,,,,,,,,,,,,,,,,,,,941.4286,943.1862,5.688888889,1.75,0,21,21,0,1,song_indices/Perfect_EdSheeran.csv,,,,,,,,,,,,,,,,,,,,,,,,,,,,,,,,,,,,,,,,,,,,,,,,
,,,,,752587,001,2024-06-14_11h17.23.288,experiment,2024.1.5,Win32,163.9344262,65bfc33d79b5cd4ab0ff8a2c,666b5f73dbba3f0cd916b177,666c6cc7f09588c5755d457b,,,,,,,,,,,,,,,,,,,,,,,,,,,,,,,,,,,,943.1868,949.4105,0,0,0,0,1,SoundStimuli/LivinOnAPrayer_BonJovi_Original5S.wav,,,,,,,,,,,,,,,,,,,,,,,,,,,,,,,,,,,,,,,,,,,,,,,,,,,,,,,,,,
,,,,,752587,001,2024-06-14_11h17.23.288,experiment,2024.1.5,Win32,163.9344262,65bfc33d79b5cd4ab0ff8a2c,666b5f73dbba3f0cd916b177,666c6cc7f09588c5755d457b,,,,,,,,,,,,,,,,,,,,,,,,,,,,,,,,,,,,949.4157,957.0674,0,1,1,1,1,SoundStimuli/LivinOnAPrayer_BonJovi_Cover5S.wav,,,,,,,,,,,,,,,,,,,,,,,,,,,,,,,,,,,,,,,,,,,,,,,,,,,,,,,,,,
,,,,,752587,001,2024-06-14_11h17.23.288,experiment,2024.1.5,Win32,163.9344262,65bfc33d79b5cd4ab0ff8a2c,666b5f73dbba3f0cd916b177,666c6cc7f09588c5755d457b,,,,,,,,,,,,,,,,,,,,,,,,,,,,,,,,,,,,,,,,,,,,957.0675,958.435,2.788888889,1.3594,0,22,22,16,1,song_indices/LivinOnAPrayer_BonJovi.csv,,,,,,,,,,,,,,,,,,,,,,,,,,,,,,,,,,,,,,,,,,,,,,,,
,,,,,752587,001,2024-06-14_11h17.23.288,experiment,2024.1.5,Win32,163.9344262,65bfc33d79b5cd4ab0ff8a2c,666b5f73dbba3f0cd916b177,666c6cc7f09588c5755d457b,,,,,,,,,,,,,,,,,,,,,,,,,,,,,,,,,,,,,,,,,,,,,,,,,,,,,,958.4351,1039.2784,space,80.8261,,0,1,1,0,1,choose_song_b1.csv,,,,,,,,,,,,,,,,,,,,,,,,,,,,,,,,,,,,,
,,,,,752587,001,2024-06-14_11h17.23.288,experiment,2024.1.5,Win32,163.9344262,65bfc33d79b5cd4ab0ff8a2c,666b5f73dbba3f0cd916b177,666c6cc7f09588c5755d457b,,,,,,,,,,,,,,,,,,,,,,,,,,,,,,,,,,,,1039.2792,1045.473,0,0,0,0,1,SoundStimuli/TheBoyIsMine_BrandyMonica_Original5S.wav,,,,,,,,,,,,,,,,,,,,,,,,,,,,,,,,,,,,,,,,,,,,,,,,,,,,,,,,,,
,,,,,752587,001,2024-06-14_11h17.23.288,experiment,2024.1.5,Win32,163.9344262,65bfc33d79b5cd4ab0ff8a2c,666b5f73dbba3f0cd916b177,666c6cc7f09588c5755d457b,,,,,,,,,,,,,,,,,,,,,,,,,,,,,,,,,,,,1045.4784,1051.3968,0,1,1,1,1,SoundStimuli/TheBoyIsMine_BrandyMonica_Cover5S.wav,,,,,,,,,,,,,,,,,,,,,,,,,,,,,,,,,,,,,,,,,,,,,,,,,,,,,,,,,,
,,,,,752587,001,2024-06-14_11h17.23.288,experiment,2024.1.5,Win32,163.9344262,65bfc33d79b5cd4ab0ff8a2c,666b5f73dbba3f0cd916b177,666c6cc7f09588c5755d457b,,,,,,,,,,,,,,,,,,,,,,,,,,,,,,,,,,,,,,,,,,,,1051.3969,1052.2628,6.466666667,0.8604,0,0,0,6,1,song_indices/TheBoyIsMine_BrandyMonica.csv,,,,,,,,,,,,,,,,,,,,,,,,,,,,,,,,,,,,,,,,,,,,,,,,
,,,,,752587,001,2024-06-14_11h17.23.288,experiment,2024.1.5,Win32,163.9344262,65bfc33d79b5cd4ab0ff8a2c,666b5f73dbba3f0cd916b177,666c6cc7f09588c5755d457b,,,,,,,,,,,,,,,,,,,,,,,,,,,,,,,,,,,,1052.2634,1058.7058,0,0,0,0,1,SoundStimuli/ShapeofYou_EdSheeran_Original5S.wav,,,,,,,,,,,,,,,,,,,,,,,,,,,,,,,,,,,,,,,,,,,,,,,,,,,,,,,,,,
,,,,,752587,001,2024-06-14_11h17.23.288,experiment,2024.1.5,Win32,163.9344262,65bfc33d79b5cd4ab0ff8a2c,666b5f73dbba3f0cd916b177,666c6cc7f09588c5755d457b,,,,,,,,,,,,,,,,,,,,,,,,,,,,,,,,,,,,1058.711,1064.9947,0,1,1,1,1,SoundStimuli/ShapeofYou_EdSheeran_Cover5S.wav,,,,,,,,,,,,,,,,,,,,,,,,,,,,,,,,,,,,,,,,,,,,,,,,,,,,,,,,,,
,,,,,752587,001,2024-06-14_11h17.23.288,experiment,2024.1.5,Win32,163.9344262,65bfc33d79b5cd4ab0ff8a2c,666b5f73dbba3f0cd916b177,666c6cc7f09588c5755d457b,,,,,,,,,,,,,,,,,,,,,,,,,,,,,,,,,,,,,,,,,,,,1064.9948,1066.1284,5.311111111,1.1282,0,1,1,21,1,song_indices/ShapeofYou_EdSheeran.csv,,,,,,,,,,,,,,,,,,,,,,,,,,,,,,,,,,,,,,,,,,,,,,,,
,,,,,752587,001,2024-06-14_11h17.23.288,experiment,2024.1.5,Win32,163.9344262,65bfc33d79b5cd4ab0ff8a2c,666b5f73dbba3f0cd916b177,666c6cc7f09588c5755d457b,,,,,,,,,,,,,,,,,,,,,,,,,,,,,,,,,,,,1066.1288,1072.2797,0,0,0,0,1,SoundStimuli/Fallin_AliciaKeys_Original5S.wav,,,,,,,,,,,,,,,,,,,,,,,,,,,,,,,,,,,,,,,,,,,,,,,,,,,,,,,,,,
,,,,,752587,001,2024-06-14_11h17.23.288,experiment,2024.1.5,Win32,163.9344262,65bfc33d79b5cd4ab0ff8a2c,666b5f73dbba3f0cd916b177,666c6cc7f09588c5755d457b,,,,,,,,,,,,,,,,,,,,,,,,,,,,,,,,,,,,1072.2849,1078.6944,0,1,1,1,1,SoundStimuli/Fallin_AliciaKeys_Cover5S.wav,,,,,,,,,,,,,,,,,,,,,,,,,,,,,,,,,,,,,,,,,,,,,,,,,,,,,,,,,,
,,,,,752587,001,2024-06-14_11h17.23.288,experiment,2024.1.5,Win32,163.9344262,65bfc33d79b5cd4ab0ff8a2c,666b5f73dbba3f0cd916b177,666c6cc7f09588c5755d457b,,,,,,,,,,,,,,,,,,,,,,,,,,,,,,,,,,,,,,,,,,,,1078.6946,1080.2011,4.788888889,1.4999,0,2,2,12,1,song_indices/Fallin_AliciaKeys.csv,,,,,,,,,,,,,,,,,,,,,,,,,,,,,,,,,,,,,,,,,,,,,,,,
,,,,,752587,001,2024-06-14_11h17.23.288,experiment,2024.1.5,Win32,163.9344262,65bfc33d79b5cd4ab0ff8a2c,666b5f73dbba3f0cd916b177,666c6cc7f09588c5755d457b,,,,,,,,,,,,,,,,,,,,,,,,,,,,,,,,,,,,1080.2017,1086.7648,0,0,0,1,1,SoundStimuli/GetUrFreakOn_MissyElliot_Cover5S.wav,,,,,,,,,,,,,,,,,,,,,,,,,,,,,,,,,,,,,,,,,,,,,,,,,,,,,,,,,,
,,,,,752587,001,2024-06-14_11h17.23.288,experiment,2024.1.5,Win32,163.9344262,65bfc33d79b5cd4ab0ff8a2c,666b5f73dbba3f0cd916b177,666c6cc7f09588c5755d457b,,,,,,,,,,,,,,,,,,,,,,,,,,,,,,,,,,,,1086.7702,1092.8134,0,1,1,0,1,SoundStimuli/GetUrFreakOn_MissyElliot_Original5S.wav,,,,,,,,,,,,,,,,,,,,,,,,,,,,,,,,,,,,,,,,,,,,,,,,,,,,,,,,,,
,,,,,752587,001,2024-06-14_11h17.23.288,experiment,2024.1.5,Win32,163.9344262,65bfc33d79b5cd4ab0ff8a2c,666b5f73dbba3f0cd916b177,666c6cc7f09588c5755d457b,,,,,,,,,,,,,,,,,,,,,,,,,,,,,,,,,,,,,,,,,,,,1092.8135,1093.8983,3.983333333,1.0774,0,3,3,18,1,song_indices/GetUrFreakOn_MissyElliot.csv,,,,,,,,,,,,,,,,,,,,,,,,,,,,,,,,,,,,,,,,,,,,,,,,
,,,,,752587,001,2024-06-14_11h17.23.288,experiment,2024.1.5,Win32,163.9344262,65bfc33d79b5cd4ab0ff8a2c,666b5f73dbba3f0cd916b177,666c6cc7f09588c5755d457b,,,,,,,,,,,,,,,,,,,,,,,,,,,,,,,,,,,,1093.8988,1100.0863,0,0,0,0,1,SoundStimuli/BetteDavisEyes_KimCarnes_Original5S.wav,,,,,,,,,,,,,,,,,,,,,,,,,,,,,,,,,,,,,,,,,,,,,,,,,,,,,,,,,,
,,,,,752587,001,2024-06-14_11h17.23.288,experiment,2024.1.5,Win32,163.9344262,65bfc33d79b5cd4ab0ff8a2c,666b5f73dbba3f0cd916b177,666c6cc7f09588c5755d457b,,,,,,,,,,,,,,,,,,,,,,,,,,,,,,,,,,,,1100.0915,1105.7653,0,1,1,1,1,SoundStimuli/BetteDavisEyes_KimCarnes_Cover5S.wav,,,,,,,,,,,,,,,,,,,,,,,,,,,,,,,,,,,,,,,,,,,,,,,,,,,,,,,,,,
,,,,,752587,001,2024-06-14_11h17.23.288,experiment,2024.1.5,Win32,163.9344262,65bfc33d79b5cd4ab0ff8a2c,666b5f73dbba3f0cd916b177,666c6cc7f09588c5755d457b,,,,,,,,,,,,,,,,,,,,,,,,,,,,,,,,,,,,,,,,,,,,1105.7653,1106.6565,3.133333333,0.8857,0,4,4,5,1,song_indices/BetteDavisEyes_KimCarnes.csv,,,,,,,,,,,,,,,,,,,,,,,,,,,,,,,,,,,,,,,,,,,,,,,,
,,,,,752587,001,2024-06-14_11h17.23.288,experiment,2024.1.5,Win32,163.9344262,65bfc33d79b5cd4ab0ff8a2c,666b5f73dbba3f0cd916b177,666c6cc7f09588c5755d457b,,,,,,,,,,,,,,,,,,,,,,,,,,,,,,,,,,,,1106.657,1112.6988,0,0,0,1,1,SoundStimuli/RockWithYou_MichaelJackson_Cover5S.wav,,,,,,,,,,,,,,,,,,,,,,,,,,,,,,,,,,,,,,,,,,,,,,,,,,,,,,,,,,
,,,,,752587,001,2024-06-14_11h17.23.288,experiment,2024.1.5,Win32,163.9344262,65bfc33d79b5cd4ab0ff8a2c,666b5f73dbba3f0cd916b177,666c6cc7f09588c5755d457b,,,,,,,,,,,,,,,,,,,,,,,,,,,,,,,,,,,,1112.7041,1119.0043,0,1,1,0,1,SoundStimuli/RockWithYou_MichaelJackson_Original5S.wav,,,,,,,,,,,,,,,,,,,,,,,,,,,,,,,,,,,,,,,,,,,,,,,,,,,,,,,,,,
,,,,,752587,001,2024-06-14_11h17.23.288,experiment,2024.1.5,Win32,163.9344262,65bfc33d79b5cd4ab0ff8a2c,666b5f73dbba3f0cd916b177,666c6cc7f09588c5755d457b,,,,,,,,,,,,,,,,,,,,,,,,,,,,,,,,,,,,,,,,,,,,1119.0043,1119.8019,2.95,0.7904,0,5,5,16,1,song_indices/RockWithYou_MichaelJackson.csv,,,,,,,,,,,,,,,,,,,,,,,,,,,,,,,,,,,,,,,,,,,,,,,,
,,,,,752587,001,2024-06-14_11h17.23.288,experiment,2024.1.5,Win32,163.9344262,65bfc33d79b5cd4ab0ff8a2c,666b5f73dbba3f0cd916b177,666c6cc7f09588c5755d457b,,,,,,,,,,,,,,,,,,,,,,,,,,,,,,,,,,,,1119.8023,1126.5294,0,0,0,0,1,SoundStimuli/PartyRockAnthem_LMFAO_Original5S.wav,,,,,,,,,,,,,,,,,,,,,,,,,,,,,,,,,,,,,,,,,,,,,,,,,,,,,,,,,,
,,,,,752587,001,2024-06-14_11h17.23.288,experiment,2024.1.5,Win32,163.9344262,65bfc33d79b5cd4ab0ff8a2c,666b5f73dbba3f0cd916b177,666c6cc7f09588c5755d457b,,,,,,,,,,,,,,,,,,,,,,,,,,,,,,,,,,,,1126.5348,1133.287,0,1,1,1,1,SoundStimuli/PartyRockAnthem_LMFAO_Cover5S.wav,,,,,,,,,,,,,,,,,,,,,,,,,,,,,,,,,,,,,,,,,,,,,,,,,,,,,,,,,,
,,,,,752587,001,2024-06-14_11h17.23.288,experiment,2024.1.5,Win32,163.9344262,65bfc33d79b5cd4ab0ff8a2c,666b5f73dbba3f0cd916b177,666c6cc7f09588c5755d457b,,,,,,,,,,,,,,,,,,,,,,,,,,,,,,,,,,,,,,,,,,,,1133.287,1135.9658,2.983333333,2.6694,0,6,6,2,1,song_indices/PartyRockAnthem_LMFAO.csv,,,,,,,,,,,,,,,,,,,,,,,,,,,,,,,,,,,,,,,,,,,,,,,,
,,,,,752587,001,2024-06-14_11h17.23.288,experiment,2024.1.5,Win32,163.9344262,65bfc33d79b5cd4ab0ff8a2c,666b5f73dbba3f0cd916b177,666c6cc7f09588c5755d457b,,,,,,,,,,,,,,,,,,,,,,,,,,,,,,,,,,,,1135.9664,1141.966,0,0,0,1,1,SoundStimuli/StandByMe_BenEKing_Cover5S.wav,,,,,,,,,,,,,,,,,,,,,,,,,,,,,,,,,,,,,,,,,,,,,,,,,,,,,,,,,,
,,,,,752587,001,2024-06-14_11h17.23.288,experiment,2024.1.5,Win32,163.9344262,65bfc33d79b5cd4ab0ff8a2c,666b5f73dbba3f0cd916b177,666c6cc7f09588c5755d457b,,,,,,,,,,,,,,,,,,,,,,,,,,,,,,,,,,,,1141.9716,1147.8656,0,1,1,0,1,SoundStimuli/StandByMe_BenEKing_Original5S.wav,,,,,,,,,,,,,,,,,,,,,,,,,,,,,,,,,,,,,,,,,,,,,,,,,,,,,,,,,,
,,,,,752587,001,2024-06-14_11h17.23.288,experiment,2024.1.5,Win32,163.9344262,65bfc33d79b5cd4ab0ff8a2c,666b5f73dbba3f0cd916b177,666c6cc7f09588c5755d457b,,,,,,,,,,,,,,,,,,,,,,,,,,,,,,,,,,,,,,,,,,,,1147.8657,1148.8086,2.972222222,0.937,0,7,7,1,1,song_indices/StandByMe_BenEKing.csv,,,,,,,,,,,,,,,,,,,,,,,,,,,,,,,,,,,,,,,,,,,,,,,,
,,,,,752587,001,2024-06-14_11h17.23.288,experiment,2024.1.5,Win32,163.9344262,65bfc33d79b5cd4ab0ff8a2c,666b5f73dbba3f0cd916b177,666c6cc7f09588c5755d457b,,,,,,,,,,,,,,,,,,,,,,,,,,,,,,,,,,,,1148.8091,1154.6814,0,0,0,0,1,SoundStimuli/EyeOfTheTiger_Survivor_Original5S.wav,,,,,,,,,,,,,,,,,,,,,,,,,,,,,,,,,,,,,,,,,,,,,,,,,,,,,,,,,,
,,,,,752587,001,2024-06-14_11h17.23.288,experiment,2024.1.5,Win32,163.9344262,65bfc33d79b5cd4ab0ff8a2c,666b5f73dbba3f0cd916b177,666c6cc7f09588c5755d457b,,,,,,,,,,,,,,,,,,,,,,,,,,,,,,,,,,,,1154.6866,1160.7808,0,1,1,1,1,SoundStimuli/EyeOfTheTiger_Survivor_Cover5S.wav,,,,,,,,,,,,,,,,,,,,,,,,,,,,,,,,,,,,,,,,,,,,,,,,,,,,,,,,,,
,,,,,752587,001,2024-06-14_11h17.23.288,experiment,2024.1.5,Win32,163.9344262,65bfc33d79b5cd4ab0ff8a2c,666b5f73dbba3f0cd916b177,666c6cc7f09588c5755d457b,,,,,,,,,,,,,,,,,,,,,,,,,,,,,,,,,,,,,,,,,,,,1160.7809,1163.5179,3.994444444,2.7277,0,8,8,11,1,song_indices/EyeOfTheTiger_Survivor.csv,,,,,,,,,,,,,,,,,,,,,,,,,,,,,,,,,,,,,,,,,,,,,,,,
,,,,,752587,001,2024-06-14_11h17.23.288,experiment,2024.1.5,Win32,163.9344262,65bfc33d79b5cd4ab0ff8a2c,666b5f73dbba3f0cd916b177,666c6cc7f09588c5755d457b,,,,,,,,,,,,,,,,,,,,,,,,,,,,,,,,,,,,1163.5185,1169.8271,0,0,0,1,1,SoundStimuli/Stronger_KanyeWest_Cover5S.wav,,,,,,,,,,,,,,,,,,,,,,,,,,,,,,,,,,,,,,,,,,,,,,,,,,,,,,,,,,
,,,,,752587,001,2024-06-14_11h17.23.288,experiment,2024.1.5,Win32,163.9344262,65bfc33d79b5cd4ab0ff8a2c,666b5f73dbba3f0cd916b177,666c6cc7f09588c5755d457b,,,,,,,,,,,,,,,,,,,,,,,,,,,,,,,,,,,,1169.8323,1175.8661,0,1,1,0,1,SoundStimuli/Stronger_KanyeWest_Original5S.wav,,,,,,,,,,,,,,,,,,,,,,,,,,,,,,,,,,,,,,,,,,,,,,,,,,,,,,,,,,
,,,,,752587,001,2024-06-14_11h17.23.288,experiment,2024.1.5,Win32,163.9344262,65bfc33d79b5cd4ab0ff8a2c,666b5f73dbba3f0cd916b177,666c6cc7f09588c5755d457b,,,,,,,,,,,,,,,,,,,,,,,,,,,,,,,,,,,,,,,,,,,,1175.8661,1178.7002,3.033333333,2.8246,0,9,9,9,1,song_indices/Stronger_KanyeWest.csv,,,,,,,,,,,,,,,,,,,,,,,,,,,,,,,,,,,,,,,,,,,,,,,,
,,,,,752587,001,2024-06-14_11h17.23.288,experiment,2024.1.5,Win32,163.9344262,65bfc33d79b5cd4ab0ff8a2c,666b5f73dbba3f0cd916b177,666c6cc7f09588c5755d457b,,,,,,,,,,,,,,,,,,,,,,,,,,,,,,,,,,,,1178.7007,1185.0638,0,0,0,0,1,SoundStimuli/IWillAlwaysLoveYou_WhitneyHouston_Original5S.wav,,,,,,,,,,,,,,,,,,,,,,,,,,,,,,,,,,,,,,,,,,,,,,,,,,,,,,,,,,
,,,,,752587,001,2024-06-14_11h17.23.288,experiment,2024.1.5,Win32,163.9344262,65bfc33d79b5cd4ab0ff8a2c,666b5f73dbba3f0cd916b177,666c6cc7f09588c5755d457b,,,,,,,,,,,,,,,,,,,,,,,,,,,,,,,,,,,,1185.069,1190.8949,0,1,1,1,1,SoundStimuli/IWillAlwaysLoveYou_WhitneyHouston_Cover5S.wav,,,,,,,,,,,,,,,,,,,,,,,,,,,,,,,,,,,,,,,,,,,,,,,,,,,,,,,,,,
,,,,,752587,001,2024-06-14_11h17.23.288,experiment,2024.1.5,Win32,163.9344262,65bfc33d79b5cd4ab0ff8a2c,666b5f73dbba3f0cd916b177,666c6cc7f09588c5755d457b,,,,,,,,,,,,,,,,,,,,,,,,,,,,,,,,,,,,,,,,,,,,1190.895,1191.5852,6.6,0.6835,0,10,10,10,1,song_indices/IWillAlwaysLoveYou_WhitneyHouston.csv,,,,,,,,,,,,,,,,,,,,,,,,,,,,,,,,,,,,,,,,,,,,,,,,
,,,,,752587,001,2024-06-14_11h17.23.288,experiment,2024.1.5,Win32,163.9344262,65bfc33d79b5cd4ab0ff8a2c,666b5f73dbba3f0cd916b177,666c6cc7f09588c5755d457b,,,,,,,,,,,,,,,,,,,,,,,,,,,,,,,,,,,,1191.5858,1197.5489,0,0,0,0,1,SoundStimuli/IWalkTheLine_JohnnyCash_Original5S.wav,,,,,,,,,,,,,,,,,,,,,,,,,,,,,,,,,,,,,,,,,,,,,,,,,,,,,,,,,,
,,,,,752587,001,2024-06-14_11h17.23.288,experiment,2024.1.5,Win32,163.9344262,65bfc33d79b5cd4ab0ff8a2c,666b5f73dbba3f0cd916b177,666c6cc7f09588c5755d457b,,,,,,,,,,,,,,,,,,,,,,,,,,,,,,,,,,,,1197.5541,1204.6727,0,1,1,1,1,SoundStimuli/IWalkTheLine_JohnnyCash_Cover5S.wav,,,,,,,,,,,,,,,,,,,,,,,,,,,,,,,,,,,,,,,,,,,,,,,,,,,,,,,,,,
,,,,,752587,001,2024-06-14_11h17.23.288,experiment,2024.1.5,Win32,163.9344262,65bfc33d79b5cd4ab0ff8a2c,666b5f73dbba3f0cd916b177,666c6cc7f09588c5755d457b,,,,,,,,,,,,,,,,,,,,,,,,,,,,,,,,,,,,,,,,,,,,1204.6728,1206.1552,2.777777778,1.474,0,11,11,17,1,song_indices/IWalkTheLine_JohnnyCash.csv,,,,,,,,,,,,,,,,,,,,,,,,,,,,,,,,,,,,,,,,,,,,,,,,
,,,,,752587,001,2024-06-14_11h17.23.288,experiment,2024.1.5,Win32,163.9344262,65bfc33d79b5cd4ab0ff8a2c,666b5f73dbba3f0cd916b177,666c6cc7f09588c5755d457b,,,,,,,,,,,,,,,,,,,,,,,,,,,,,,,,,,,,1206.1559,1211.9008,0,0,0,1,1,SoundStimuli/SmellsLikeTeenSpirit_Nirvana_Cover5S.wav,,,,,,,,,,,,,,,,,,,,,,,,,,,,,,,,,,,,,,,,,,,,,,,,,,,,,,,,,,
,,,,,752587,001,2024-06-14_11h17.23.288,experiment,2024.1.5,Win32,163.9344262,65bfc33d79b5cd4ab0ff8a2c,666b5f73dbba3f0cd916b177,666c6cc7f09588c5755d457b,,,,,,,,,,,,,,,,,,,,,,,,,,,,,,,,,,,,1211.9059,1218.0849,0,1,1,0,1,SoundStimuli/SmellsLikeTeenSpirit_Nirvana_Original5S.wav,,,,,,,,,,,,,,,,,,,,,,,,,,,,,,,,,,,,,,,,,,,,,,,,,,,,,,,,,,
,,,,,752587,001,2024-06-14_11h17.23.288,experiment,2024.1.5,Win32,163.9344262,65bfc33d79b5cd4ab0ff8a2c,666b5f73dbba3f0cd916b177,666c6cc7f09588c5755d457b,,,,,,,,,,,,,,,,,,,,,,,,,,,,,,,,,,,,,,,,,,,,1218.0851,1220.0064,6.983333333,1.9159,0,12,12,8,1,song_indices/SmellsLikeTeenSpirit_Nirvana.csv,,,,,,,,,,,,,,,,,,,,,,,,,,,,,,,,,,,,,,,,,,,,,,,,
,,,,,752587,001,2024-06-14_11h17.23.288,experiment,2024.1.5,Win32,163.9344262,65bfc33d79b5cd4ab0ff8a2c,666b5f73dbba3f0cd916b177,666c6cc7f09588c5755d457b,,,,,,,,,,,,,,,,,,,,,,,,,,,,,,,,,,,,1220.0067,1227.0041,0,0,0,1,1,SoundStimuli/UptownFunk_MarkRonson_Cover5S.wav,,,,,,,,,,,,,,,,,,,,,,,,,,,,,,,,,,,,,,,,,,,,,,,,,,,,,,,,,,
,,,,,752587,001,2024-06-14_11h17.23.288,experiment,2024.1.5,Win32,163.9344262,65bfc33d79b5cd4ab0ff8a2c,666b5f73dbba3f0cd916b177,666c6cc7f09588c5755d457b,,,,,,,,,,,,,,,,,,,,,,,,,,,,,,,,,,,,1227.0094,1234.2103,0,1,1,0,1,SoundStimuli/UptownFunk_MarkRonson_Original5S.wav,,,,,,,,,,,,,,,,,,,,,,,,,,,,,,,,,,,,,,,,,,,,,,,,,,,,,,,,,,
,,,,,752587,001,2024-06-14_11h17.23.288,experiment,2024.1.5,Win32,163.9344262,65bfc33d79b5cd4ab0ff8a2c,666b5f73dbba3f0cd916b177,666c6cc7f09588c5755d457b,,,,,,,,,,,,,,,,,,,,,,,,,,,,,,,,,,,,,,,,,,,,1234.2103,1235.7619,6.005555556,1.5441,0,13,13,15,1,song_indices/UptownFunk_MarkRonson.csv,,,,,,,,,,,,,,,,,,,,,,,,,,,,,,,,,,,,,,,,,,,,,,,,
,,,,,752587,001,2024-06-14_11h17.23.288,experiment,2024.1.5,Win32,163.9344262,65bfc33d79b5cd4ab0ff8a2c,666b5f73dbba3f0cd916b177,666c6cc7f09588c5755d457b,,,,,,,,,,,,,,,,,,,,,,,,,,,,,,,,,,,,1235.7625,1243.0954,0,0,0,0,1,SoundStimuli/Happy_PharellWilliams_Original5S.wav,,,,,,,,,,,,,,,,,,,,,,,,,,,,,,,,,,,,,,,,,,,,,,,,,,,,,,,,,,
,,,,,752587,001,2024-06-14_11h17.23.288,experiment,2024.1.5,Win32,163.9344262,65bfc33d79b5cd4ab0ff8a2c,666b5f73dbba3f0cd916b177,666c6cc7f09588c5755d457b,,,,,,,,,,,,,,,,,,,,,,,,,,,,,,,,,,,,1243.1006,1250.4287,0,1,1,1,1,SoundStimuli/Happy_PharellWilliams_Cover5S.wav,,,,,,,,,,,,,,,,,,,,,,,,,,,,,,,,,,,,,,,,,,,,,,,,,,,,,,,,,,
,,,,,752587,001,2024-06-14_11h17.23.288,experiment,2024.1.5,Win32,163.9344262,65bfc33d79b5cd4ab0ff8a2c,666b5f73dbba3f0cd916b177,666c6cc7f09588c5755d457b,,,,,,,,,,,,,,,,,,,,,,,,,,,,,,,,,,,,,,,,,,,,1250.4289,1251.9682,5.511111111,1.5335,0,14,14,7,1,song_indices/Happy_PharellWilliams.csv,,,,,,,,,,,,,,,,,,,,,,,,,,,,,,,,,,,,,,,,,,,,,,,,
,,,,,752587,001,2024-06-14_11h17.23.288,experiment,2024.1.5,Win32,163.9344262,65bfc33d79b5cd4ab0ff8a2c,666b5f73dbba3f0cd916b177,666c6cc7f09588c5755d457b,,,,,,,,,,,,,,,,,,,,,,,,,,,,,,,,,,,,1251.9688,1259.932,0,0,0,1,1,SoundStimuli/TheBattleOfNewOrleans_JohnnyHorton_Cover5S.wav,,,,,,,,,,,,,,,,,,,,,,,,,,,,,,,,,,,,,,,,,,,,,,,,,,,,,,,,,,
,,,,,752587,001,2024-06-14_11h17.23.288,experiment,2024.1.5,Win32,163.9344262,65bfc33d79b5cd4ab0ff8a2c,666b5f73dbba3f0cd916b177,666c6cc7f09588c5755d457b,,,,,,,,,,,,,,,,,,,,,,,,,,,,,,,,,,,,1259.9376,1266.1213,0,1,1,0,1,SoundStimuli/TheBattleOfNewOrleans_JohnnyHorton_Original5S.wav,,,,,,,,,,,,,,,,,,,,,,,,,,,,,,,,,,,,,,,,,,,,,,,,,,,,,,,,,,
,,,,,752587,001,2024-06-14_11h17.23.288,experiment,2024.1.5,Win32,163.9344262,65bfc33d79b5cd4ab0ff8a2c,666b5f73dbba3f0cd916b177,666c6cc7f09588c5755d457b,,,,,,,,,,,,,,,,,,,,,,,,,,,,,,,,,,,,,,,,,,,,1266.1214,1268.8778,4.105555556,2.747,0,15,15,4,1,song_indices/TheBattleOfNewOrleans_JohnnyHorton.csv,,,,,,,,,,,,,,,,,,,,,,,,,,,,,,,,,,,,,,,,,,,,,,,,
,,,,,752587,001,2024-06-14_11h17.23.288,experiment,2024.1.5,Win32,163.9344262,65bfc33d79b5cd4ab0ff8a2c,666b5f73dbba3f0cd916b177,666c6cc7f09588c5755d457b,,,,,,,,,,,,,,,,,,,,,,,,,,,,,,,,,,,,1268.8783,1275.0498,0,0,0,0,1,SoundStimuli/NoScrubs_TLC_Original5S.wav,,,,,,,,,,,,,,,,,,,,,,,,,,,,,,,,,,,,,,,,,,,,,,,,,,,,,,,,,,
,,,,,752587,001,2024-06-14_11h17.23.288,experiment,2024.1.5,Win32,163.9344262,65bfc33d79b5cd4ab0ff8a2c,666b5f73dbba3f0cd916b177,666c6cc7f09588c5755d457b,,,,,,,,,,,,,,,,,,,,,,,,,,,,,,,,,,,,1275.0552,1281.1628,0,1,1,1,1,SoundStimuli/NoScrubs_TLC_Cover5S.wav,,,,,,,,,,,,,,,,,,,,,,,,,,,,,,,,,,,,,,,,,,,,,,,,,,,,,,,,,,
,,,,,752587,001,2024-06-14_11h17.23.288,experiment,2024.1.5,Win32,163.9344262,65bfc33d79b5cd4ab0ff8a2c,666b5f73dbba3f0cd916b177,666c6cc7f09588c5755d457b,,,,,,,,,,,,,,,,,,,,,,,,,,,,,,,,,,,,,,,,,,,,1281.1628,1284.2174,5.966666667,3.0478,0,16,16,14,1,song_indices/NoScrubs_TLC.csv,,,,,,,,,,,,,,,,,,,,,,,,,,,,,,,,,,,,,,,,,,,,,,,,
,,,,,752587,001,2024-06-14_11h17.23.288,experiment,2024.1.5,Win32,163.9344262,65bfc33d79b5cd4ab0ff8a2c,666b5f73dbba3f0cd916b177,666c6cc7f09588c5755d457b,,,,,,,,,,,,,,,,,,,,,,,,,,,,,,,,,,,,1284.2179,1290.256,0,0,0,0,1,SoundStimuli/GoodGollyMissMolly_LittleRichard_Original5S.wav,,,,,,,,,,,,,,,,,,,,,,,,,,,,,,,,,,,,,,,,,,,,,,,,,,,,,,,,,,
,,,,,752587,001,2024-06-14_11h17.23.288,experiment,2024.1.5,Win32,163.9344262,65bfc33d79b5cd4ab0ff8a2c,666b5f73dbba3f0cd916b177,666c6cc7f09588c5755d457b,,,,,,,,,,,,,,,,,,,,,,,,,,,,,,,,,,,,1290.2613,1296.5934,0,1,1,1,1,SoundStimuli/GoodGollyMissMolly_LittleRichard_Cover5S.wav,,,,,,,,,,,,,,,,,,,,,,,,,,,,,,,,,,,,,,,,,,,,,,,,,,,,,,,,,,
,,,,,752587,001,2024-06-14_11h17.23.288,experiment,2024.1.5,Win32,163.9344262,65bfc33d79b5cd4ab0ff8a2c,666b5f73dbba3f0cd916b177,666c6cc7f09588c5755d457b,,,,,,,,,,,,,,,,,,,,,,,,,,,,,,,,,,,,,,,,,,,,1296.5934,1299.1875,3.972222222,2.5851,0,17,17,0,1,song_indices/GoodGollyMissMolly_LittleRichard.csv,,,,,,,,,,,,,,,,,,,,,,,,,,,,,,,,,,,,,,,,,,,,,,,,
,,,,,752587,001,2024-06-14_11h17.23.288,experiment,2024.1.5,Win32,163.9344262,65bfc33d79b5cd4ab0ff8a2c,666b5f73dbba3f0cd916b177,666c6cc7f09588c5755d457b,,,,,,,,,,,,,,,,,,,,,,,,,,,,,,,,,,,,1299.1881,1305.3875,0,0,0,1,1,SoundStimuli/NoOne_AliciaKeys_Cover5S.wav,,,,,,,,,,,,,,,,,,,,,,,,,,,,,,,,,,,,,,,,,,,,,,,,,,,,,,,,,,
,,,,,752587,001,2024-06-14_11h17.23.288,experiment,2024.1.5,Win32,163.9344262,65bfc33d79b5cd4ab0ff8a2c,666b5f73dbba3f0cd916b177,666c6cc7f09588c5755d457b,,,,,,,,,,,,,,,,,,,,,,,,,,,,,,,,,,,,1305.3927,1313.0907,0,1,1,0,1,SoundStimuli/NoOne_AliciaKeys_Original5S.wav,,,,,,,,,,,,,,,,,,,,,,,,,,,,,,,,,,,,,,,,,,,,,,,,,,,,,,,,,,
,,,,,752587,001,2024-06-14_11h17.23.288,experiment,2024.1.5,Win32,163.9344262,65bfc33d79b5cd4ab0ff8a2c,666b5f73dbba3f0cd916b177,666c6cc7f09588c5755d457b,,,,,,,,,,,,,,,,,,,,,,,,,,,,,,,,,,,,,,,,,,,,1313.0908,1314.3876,4.994444444,1.2875,0,18,18,19,1,song_indices/NoOne_AliciaKeys.csv,,,,,,,,,,,,,,,,,,,,,,,,,,,,,,,,,,,,,,,,,,,,,,,,
,,,,,752587,001,2024-06-14_11h17.23.288,experiment,2024.1.5,Win32,163.9344262,65bfc33d79b5cd4ab0ff8a2c,666b5f73dbba3f0cd916b177,666c6cc7f09588c5755d457b,,,,,,,,,,,,,,,,,,,,,,,,,,,,,,,,,,,,1314.3883,1323.2848,0,0,0,1,1,SoundStimuli/HeyYa_Outkast_Cover5S.wav,,,,,,,,,,,,,,,,,,,,,,,,,,,,,,,,,,,,,,,,,,,,,,,,,,,,,,,,,,
,,,,,752587,001,2024-06-14_11h17.23.288,experiment,2024.1.5,Win32,163.9344262,65bfc33d79b5cd4ab0ff8a2c,666b5f73dbba3f0cd916b177,666c6cc7f09588c5755d457b,,,,,,,,,,,,,,,,,,,,,,,,,,,,,,,,,,,,1323.2903,1329.5542,0,1,1,0,1,SoundStimuli/HeyYa_Outkast_Original5S.wav,,,,,,,,,,,,,,,,,,,,,,,,,,,,,,,,,,,,,,,,,,,,,,,,,,,,,,,,,,
,,,,,752587,001,2024-06-14_11h17.23.288,experiment,2024.1.5,Win32,163.9344262,65bfc33d79b5cd4ab0ff8a2c,666b5f73dbba3f0cd916b177,666c6cc7f09588c5755d457b,,,,,,,,,,,,,,,,,,,,,,,,,,,,,,,,,,,,,,,,,,,,1329.5543,1332.9214,2.033333333,3.3598,0,19,19,22,1,song_indices/HeyYa_Outkast.csv,,,,,,,,,,,,,,,,,,,,,,,,,,,,,,,,,,,,,,,,,,,,,,,,
,,,,,752587,001,2024-06-14_11h17.23.288,experiment,2024.1.5,Win32,163.9344262,65bfc33d79b5cd4ab0ff8a2c,666b5f73dbba3f0cd916b177,666c6cc7f09588c5755d457b,,,,,,,,,,,,,,,,,,,,,,,,,,,,,,,,,,,,1332.922,1339.4389,0,0,0,0,1,SoundStimuli/CrazyInLove_BeyonceFtJayZ_Original5S.wav,,,,,,,,,,,,,,,,,,,,,,,,,,,,,,,,,,,,,,,,,,,,,,,,,,,,,,,,,,
,,,,,752587,001,2024-06-14_11h17.23.288,experiment,2024.1.5,Win32,163.9344262,65bfc33d79b5cd4ab0ff8a2c,666b5f73dbba3f0cd916b177,666c6cc7f09588c5755d457b,,,,,,,,,,,,,,,,,,,,,,,,,,,,,,,,,,,,1339.444,1349.6696,0,1,1,1,1,SoundStimuli/CrazyInLove_BeyonceFtJayZ_Cover5S.wav,,,,,,,,,,,,,,,,,,,,,,,,,,,,,,,,,,,,,,,,,,,,,,,,,,,,,,,,,,
,,,,,752587,001,2024-06-14_11h17.23.288,experiment,2024.1.5,Win32,163.9344262,65bfc33d79b5cd4ab0ff8a2c,666b5f73dbba3f0cd916b177,666c6cc7f09588c5755d457b,,,,,,,,,,,,,,,,,,,,,,,,,,,,,,,,,,,,,,,,,,,,1349.6697,1350.4854,2.061111111,0.8058,0,20,20,3,1,song_indices/CrazyInLove_BeyonceFtJayZ.csv,,,,,,,,,,,,,,,,,,,,,,,,,,,,,,,,,,,,,,,,,,,,,,,,
,,,,,752587,001,2024-06-14_11h17.23.288,experiment,2024.1.5,Win32,163.9344262,65bfc33d79b5cd4ab0ff8a2c,666b5f73dbba3f0cd916b177,666c6cc7f09588c5755d457b,,,,,,,,,,,,,,,,,,,,,,,,,,,,,,,,,,,,1350.4859,1356.5604,0,0,0,0,1,SoundStimuli/GimmeShelter_RollingStones_Original5S.wav,,,,,,,,,,,,,,,,,,,,,,,,,,,,,,,,,,,,,,,,,,,,,,,,,,,,,,,,,,
,,,,,752587,001,2024-06-14_11h17.23.288,experiment,2024.1.5,Win32,163.9344262,65bfc33d79b5cd4ab0ff8a2c,666b5f73dbba3f0cd916b177,666c6cc7f09588c5755d457b,,,,,,,,,,,,,,,,,,,,,,,,,,,,,,,,,,,,1356.5658,1362.7606,0,1,1,1,1,SoundStimuli/GimmeShelter_RollingStones_Cover5S.wav,,,,,,,,,,,,,,,,,,,,,,,,,,,,,,,,,,,,,,,,,,,,,,,,,,,,,,,,,,
,,,,,752587,001,2024-06-14_11h17.23.288,experiment,2024.1.5,Win32,163.9344262,65bfc33d79b5cd4ab0ff8a2c,666b5f73dbba3f0cd916b177,666c6cc7f09588c5755d457b,,,,,,,,,,,,,,,,,,,,,,,,,,,,,,,,,,,,,,,,,,,,1362.7606,1364.9887,3,2.2188,0,21,21,20,1,song_indices/GimmeShelter_RollingStones.csv,,,,,,,,,,,,,,,,,,,,,,,,,,,,,,,,,,,,,,,,,,,,,,,,
,,,,,752587,001,2024-06-14_11h17.23.288,experiment,2024.1.5,Win32,163.9344262,65bfc33d79b5cd4ab0ff8a2c,666b5f73dbba3f0cd916b177,666c6cc7f09588c5755d457b,,,,,,,,,,,,,,,,,,,,,,,,,,,,,,,,,,,,1364.9892,1371.2335,0,0,0,0,1,SoundStimuli/ItsAllInTheGame_TommyEdwards_Original5S.wav,,,,,,,,,,,,,,,,,,,,,,,,,,,,,,,,,,,,,,,,,,,,,,,,,,,,,,,,,,
,,,,,752587,001,2024-06-14_11h17.23.288,experiment,2024.1.5,Win32,163.9344262,65bfc33d79b5cd4ab0ff8a2c,666b5f73dbba3f0cd916b177,666c6cc7f09588c5755d457b,,,,,,,,,,,,,,,,,,,,,,,,,,,,,,,,,,,,1371.2386,1377.4496,0,1,1,1,1,SoundStimuli/ItsAllInTheGame_TommyEdwards_Cover5S.wav,,,,,,,,,,,,,,,,,,,,,,,,,,,,,,,,,,,,,,,,,,,,,,,,,,,,,,,,,,
,,,,,752587,001,2024-06-14_11h17.23.288,experiment,2024.1.5,Win32,163.9344262,65bfc33d79b5cd4ab0ff8a2c,666b5f73dbba3f0cd916b177,666c6cc7f09588c5755d457b,,,,,,,,,,,,,,,,,,,,,,,,,,,,,,,,,,,,,,,,,,,,1377.4496,1379.4558,5.611111111,2.0006,0,22,22,13,1,song_indices/ItsAllInTheGame_TommyEdwards.csv,,,,,,,,,,,,,,,,,,,,,,,,,,,,,,,,,,,,,,,,,,,,,,,,
,,,,,752587,001,2024-06-14_11h17.23.288,experiment,2024.1.5,Win32,163.9344262,65bfc33d79b5cd4ab0ff8a2c,666b5f73dbba3f0cd916b177,666c6cc7f09588c5755d457b,,,,,,,,,,,,,,,,,,,,,,,,,,,,,,,,,,,,,,,,,,,,,,,,,,,,,,1379.4559,1379.456,,,,0,2,2,1,1,choose_song_b2.csv,,,,,,,,,,,,,,,,,,,,,,,,,,,,,,,,,,,,,
,,,,,752587,001,2024-06-14_11h17.23.288,experiment,2024.1.5,Win32,163.9344262,65bfc33d79b5cd4ab0ff8a2c,666b5f73dbba3f0cd916b177,666c6cc7f09588c5755d457b,,,,,,,,,,,,,,,,,,,,,,,,,,,,,,,,,,,,,,,,,,,,,,,,,,,,,,,,,,,,,,,,,30,Item 4,"I have been playing music since I was 11 years old. I performed in concert, symphonic, jazz, and marching band. From age 11 to 17, I learned and played clarinet, trumpet, and filled in for percussion. I've played the national anthem at Miller Park a few times. At age 16, I bought my first acoustic guitar and self-taught from then on. It is now my main instrument. I also bought a keyboard around the same time, which I was able to learn, but never got serious about. I still use, though, to teach my kids notes and melodies. Recently, I purchased an electric guitar and have been playing that as well. Music is and always will be a huge part of my life.",Item 6,"Spotify, YouTube",3,6,"I listen to music almost everywhere I can. This includes driving, working out, doing chores, hanging out with my family/friends, while gardening, walking.",Rarely,Never,Rarely,Sometimes,Sometimes,Often,Sometimes,Rarely,Always,Often,Always,Sometimes,Often,Sometimes,Sometimes,Sometimes,"Punk, Punk/Rock, 80s Rock",Folk/Indie,Hip Hop,Electronic,I remember a time when I used to be embarrassed to play the music I liked over speakers. Being judged by my music preferences is not something I ever think about now. I listen to all sorts of genres back to back.,"I have a tendency to stick to one album for a few days if I like it. This only happens if I like the entire album, though, or if the songs go in some sort of story sequence. I like to decipher that for myself, too, which is why I sometimes repeat these albums. Once I am over an album, I go back to DJ stations, where there's a mix of what I've liked over time and new songs from artists I like or are similar to songs I've liked. ",0,0,0,0,1,,
,,,,,752587,001,2024-06-14_11h17.23.288,experiment,2024.1.5,Win32,163.9344262,65bfc33d79b5cd4ab0ff8a2c,666b5f73dbba3f0cd916b177,666c6cc7f09588c5755d457b,,,,,,,,,,,,,,,,,,,,,,,,,,,,,,,,,,,,,,,,,,,,,,,,,,,,,,,,,,,,,,,,,,,,,,,,,,,,,,,,,,,,,,,,,,,,,,,,,,,,2004.3563,2006.8262
