welcome.started,welcome.stopped,space_to_continue.keys,space_to_continue.rt,space_to_continue.duration,participant,session,date,expName,psychopyVersion,OS,frameRate,PROLIFIC_PID,STUDY_ID,SESSION_ID,consent.consent,consent.consent_recontact,consent_check.started,consent_check.stopped,calibration_ready.started,calibration_ready.stopped,cal_ready.keys,cal_ready.rt,cal_ready.duration,calibration.started,calibration.stopped,mouse.x,mouse.y,mouse.leftButton,mouse.midButton,mouse.rightButton,mouse.time,mouse.clicked_name,move_on.keys,move_on.rt,move_on.duration,instructions.started,instructions.stopped,next.keys,next.rt,next.duration,practice_trial.started,practice_trial.stopped,practice_slider.response,practice_slider.rt,ready.started,ready.stopped,key_resp.keys,key_resp.rt,key_resp.duration,play_sound.started,play_sound.stopped,trials.thisRepN,trials.thisTrialN,trials.thisN,trials.thisIndex,trials.ran,orig_or_cover,rating.started,rating.stopped,slider.response,slider.rt,songs.thisRepN,songs.thisTrialN,songs.thisN,songs.thisIndex,songs.ran,song_id,short_break.started,short_break.stopped,space_to_move_on.keys,space_to_move_on.rt,space_to_move_on.duration,blocks.thisRepN,blocks.thisTrialN,blocks.thisN,blocks.thisIndex,blocks.ran,block,survey.age,survey.musician,survey.music_making,survey.listen_time,survey.medium,survey.music_seeking,survey.music_choice,survey.activities,survey.question1.Metal,survey.question1.Classical,survey.question1.Jazz,survey.question1.A cappella,survey.question1.Hip hop,survey.question1.Disco,survey.question1.Folk/indie,survey.question1.Reggae,survey.question1.Latin,survey.question1.Alternative rock,survey.question1.R&B,survey.question1.Ambient,survey.question1.Classic rock,survey.question1.Electronic (EDM),survey.question1.Country,survey.question1.Pop,survey.other_genres,survey.genres_ranked.text1,survey.genres_ranked.text2,survey.genres_ranked.text3,survey.habit_change,survey.habits,experiment.thisRepN,experiment.thisTrialN,experiment.thisN,experiment.thisIndex,experiment.ran,goodbye.started,goodbye.stopped
1E-04,3.397,space,3.389,,767355,001,2024-06-17_10h39.07.060,experiment,2024.1.5,MacIntel,59.88023952,5680253fc5767f00121cc5e2,667045947eb812cbdacbf325,6670498016d44c7364b51ebb,,,,,,,,,,,,,,,,,,,,,,,,,,,,,,,,,,,,,,,,,,,,,,,,,,,,,,,,,,,,,,,,,,,,,,,,,,,,,,,,,,,,,,,,,,,,,,,,,,,,,
,,,,,767355,001,2024-06-17_10h39.07.060,experiment,2024.1.5,MacIntel,59.88023952,5680253fc5767f00121cc5e2,667045947eb812cbdacbf325,6670498016d44c7364b51ebb,yes,yes,,,,,,,,,,,,,,,,,,,,,,,,,,,,,,,,,,,,,,,,,,,,,,,,,,,,,,,,,,,,,,,,,,,,,,,,,,,,,,,,,,,,,,,,,,,,,,,,,,,
,,,,,767355,001,2024-06-17_10h39.07.060,experiment,2024.1.5,MacIntel,59.88023952,5680253fc5767f00121cc5e2,667045947eb812cbdacbf325,6670498016d44c7364b51ebb,,,18.4535,18.4537,,,,,,,,,,,,,,,,,,,,,,,,,,,,,,,,,,,,,,,,,,,,,,,,,,,,,,,,,,,,,,,,,,,,,,,,,,,,,,,,,,,,,,,,,,,,,,,,,
,,,,,767355,001,2024-06-17_10h39.07.060,experiment,2024.1.5,MacIntel,59.88023952,5680253fc5767f00121cc5e2,667045947eb812cbdacbf325,6670498016d44c7364b51ebb,,,,,18.4562,23.3305,space,4.8479,,23.3309,239.7783,"[-0.011137058423913044,0.001554008152173913,-0.0034859035326086957,0.3625382133152174,-0.05727326766304348]","[-0.42563688858695653,-0.42042289402173916,-0.4215098505434783,-0.2938688858695652,-0.43301205842391305]","[1,1,1,1,1]","[0,0,0,0,0]","[0,0,0,0,0]","[11.52110000000149,91.51029999999702,93.07689999999849,214.241700000003,214.79079999999703]","[""play_button"",""play_button"",""play_button""]",right,206.4268,,239.7788,250.0109,space,10.2024,,250.0111,268.9431,3.988001019,18.9177,268.9434,270.3434,space,1.3749,,270.3675,277.2094,0,0,0,1,1,SoundStimuli/PokerFace_LadyGaga_Cover5S.wav,,,,,,,,,,,,,,,,,,,,,,,,,,,,,,,,,,,,,,,,,,,,,,,,,,,,,,,,,,
,,,,,767355,001,2024-06-17_10h39.07.060,experiment,2024.1.5,MacIntel,59.88023952,5680253fc5767f00121cc5e2,667045947eb812cbdacbf325,6670498016d44c7364b51ebb,,,,,,,,,,,,,,,,,,,,,,,,,,,,,,,,,,,,277.2104,284.2249,0,1,1,0,1,SoundStimuli/PokerFace_LadyGaga_Original5S.wav,,,,,,,,,,,,,,,,,,,,,,,,,,,,,,,,,,,,,,,,,,,,,,,,,,,,,,,,,,
,,,,,767355,001,2024-06-17_10h39.07.060,experiment,2024.1.5,MacIntel,59.88023952,5680253fc5767f00121cc5e2,667045947eb812cbdacbf325,6670498016d44c7364b51ebb,,,,,,,,,,,,,,,,,,,,,,,,,,,,,,,,,,,,,,,,,,,,284.2357,286.3925,4.164037024,2.1549,0,0,0,23,1,song_indices/PokerFace_LadyGaga.csv,,,,,,,,,,,,,,,,,,,,,,,,,,,,,,,,,,,,,,,,,,,,,,,,
,,,,,767355,001,2024-06-17_10h39.07.060,experiment,2024.1.5,MacIntel,59.88023952,5680253fc5767f00121cc5e2,667045947eb812cbdacbf325,6670498016d44c7364b51ebb,,,,,,,,,,,,,,,,,,,,,,,,,,,,,,,,,,,,286.3941,291.5248,0,0,0,1,1,SoundStimuli/JoyToTheWorld_ThreeDogNight_Cover5S.wav,,,,,,,,,,,,,,,,,,,,,,,,,,,,,,,,,,,,,,,,,,,,,,,,,,,,,,,,,,
,,,,,767355,001,2024-06-17_10h39.07.060,experiment,2024.1.5,MacIntel,59.88023952,5680253fc5767f00121cc5e2,667045947eb812cbdacbf325,6670498016d44c7364b51ebb,,,,,,,,,,,,,,,,,,,,,,,,,,,,,,,,,,,,291.5348,297.6422,0,1,1,0,1,SoundStimuli/JoyToTheWorld_ThreeDogNight_Original5S.wav,,,,,,,,,,,,,,,,,,,,,,,,,,,,,,,,,,,,,,,,,,,,,,,,,,,,,,,,,,
,,,,,767355,001,2024-06-17_10h39.07.060,experiment,2024.1.5,MacIntel,59.88023952,5680253fc5767f00121cc5e2,667045947eb812cbdacbf325,6670498016d44c7364b51ebb,,,,,,,,,,,,,,,,,,,,,,,,,,,,,,,,,,,,,,,,,,,,297.6425,300.6577,6.006148098,3.0031,0,1,1,8,1,song_indices/JoyToTheWorld_ThreeDogNight.csv,,,,,,,,,,,,,,,,,,,,,,,,,,,,,,,,,,,,,,,,,,,,,,,,
,,,,,767355,001,2024-06-17_10h39.07.060,experiment,2024.1.5,MacIntel,59.88023952,5680253fc5767f00121cc5e2,667045947eb812cbdacbf325,6670498016d44c7364b51ebb,,,,,,,,,,,,,,,,,,,,,,,,,,,,,,,,,,,,300.659,306.7587,0,0,0,0,1,SoundStimuli/ComeAndGetYourLove_Redbone_Original5S.wav,,,,,,,,,,,,,,,,,,,,,,,,,,,,,,,,,,,,,,,,,,,,,,,,,,,,,,,,,,
,,,,,767355,001,2024-06-17_10h39.07.060,experiment,2024.1.5,MacIntel,59.88023952,5680253fc5767f00121cc5e2,667045947eb812cbdacbf325,6670498016d44c7364b51ebb,,,,,,,,,,,,,,,,,,,,,,,,,,,,,,,,,,,,306.7686,313.8253,0,1,1,1,1,SoundStimuli/ComeAndGetYourLove_Redbone_Cover5S.wav,,,,,,,,,,,,,,,,,,,,,,,,,,,,,,,,,,,,,,,,,,,,,,,,,,,,,,,,,,
,,,,,767355,001,2024-06-17_10h39.07.060,experiment,2024.1.5,MacIntel,59.88023952,5680253fc5767f00121cc5e2,667045947eb812cbdacbf325,6670498016d44c7364b51ebb,,,,,,,,,,,,,,,,,,,,,,,,,,,,,,,,,,,,,,,,,,,,313.8257,315.3246,4.007999321,1.4882,0,2,2,22,1,song_indices/ComeAndGetYourLove_Redbone.csv,,,,,,,,,,,,,,,,,,,,,,,,,,,,,,,,,,,,,,,,,,,,,,,,
,,,,,767355,001,2024-06-17_10h39.07.060,experiment,2024.1.5,MacIntel,59.88023952,5680253fc5767f00121cc5e2,667045947eb812cbdacbf325,6670498016d44c7364b51ebb,,,,,,,,,,,,,,,,,,,,,,,,,,,,,,,,,,,,315.326,322.4243,0,0,0,1,1,SoundStimuli/BlurredLines_RobinThicke_Cover5S.wav,,,,,,,,,,,,,,,,,,,,,,,,,,,,,,,,,,,,,,,,,,,,,,,,,,,,,,,,,,
,,,,,767355,001,2024-06-17_10h39.07.060,experiment,2024.1.5,MacIntel,59.88023952,5680253fc5767f00121cc5e2,667045947eb812cbdacbf325,6670498016d44c7364b51ebb,,,,,,,,,,,,,,,,,,,,,,,,,,,,,,,,,,,,322.4362,329.1919,0,1,1,0,1,SoundStimuli/BlurredLines_RobinThicke_Original5S.wav,,,,,,,,,,,,,,,,,,,,,,,,,,,,,,,,,,,,,,,,,,,,,,,,,,,,,,,,,,
,,,,,767355,001,2024-06-17_10h39.07.060,experiment,2024.1.5,MacIntel,59.88023952,5680253fc5767f00121cc5e2,667045947eb812cbdacbf325,6670498016d44c7364b51ebb,,,,,,,,,,,,,,,,,,,,,,,,,,,,,,,,,,,,,,,,,,,,329.1921,330.9907,5.985895041,1.7765,0,3,3,9,1,song_indices/BlurredLines_RobinThicke.csv,,,,,,,,,,,,,,,,,,,,,,,,,,,,,,,,,,,,,,,,,,,,,,,,
,,,,,767355,001,2024-06-17_10h39.07.060,experiment,2024.1.5,MacIntel,59.88023952,5680253fc5767f00121cc5e2,667045947eb812cbdacbf325,6670498016d44c7364b51ebb,,,,,,,,,,,,,,,,,,,,,,,,,,,,,,,,,,,,330.9921,337.0251,0,0,0,0,1,SoundStimuli/HowDoILive_LeAnnRimes_Original5S.wav,,,,,,,,,,,,,,,,,,,,,,,,,,,,,,,,,,,,,,,,,,,,,,,,,,,,,,,,,,
,,,,,767355,001,2024-06-17_10h39.07.060,experiment,2024.1.5,MacIntel,59.88023952,5680253fc5767f00121cc5e2,667045947eb812cbdacbf325,6670498016d44c7364b51ebb,,,,,,,,,,,,,,,,,,,,,,,,,,,,,,,,,,,,337.0352,342.5085,0,1,1,1,1,SoundStimuli/HowDoILive_LeAnnRimes_Cover5S.wav,,,,,,,,,,,,,,,,,,,,,,,,,,,,,,,,,,,,,,,,,,,,,,,,,,,,,,,,,,
,,,,,767355,001,2024-06-17_10h39.07.060,experiment,2024.1.5,MacIntel,59.88023952,5680253fc5767f00121cc5e2,667045947eb812cbdacbf325,6670498016d44c7364b51ebb,,,,,,,,,,,,,,,,,,,,,,,,,,,,,,,,,,,,,,,,,,,,342.5088,343.258,6.027190897,0.7388,0,4,4,17,1,song_indices/HowDoILive_LeAnnRimes.csv,,,,,,,,,,,,,,,,,,,,,,,,,,,,,,,,,,,,,,,,,,,,,,,,
,,,,,767355,001,2024-06-17_10h39.07.060,experiment,2024.1.5,MacIntel,59.88023952,5680253fc5767f00121cc5e2,667045947eb812cbdacbf325,6670498016d44c7364b51ebb,,,,,,,,,,,,,,,,,,,,,,,,,,,,,,,,,,,,343.2592,349.7415,0,0,0,1,1,SoundStimuli/Weak_SWV_Cover5S.wav,,,,,,,,,,,,,,,,,,,,,,,,,,,,,,,,,,,,,,,,,,,,,,,,,,,,,,,,,,
,,,,,767355,001,2024-06-17_10h39.07.060,experiment,2024.1.5,MacIntel,59.88023952,5680253fc5767f00121cc5e2,667045947eb812cbdacbf325,6670498016d44c7364b51ebb,,,,,,,,,,,,,,,,,,,,,,,,,,,,,,,,,,,,349.7513,355.8248,0,1,1,0,1,SoundStimuli/Weak_SWV_Original5S.wav,,,,,,,,,,,,,,,,,,,,,,,,,,,,,,,,,,,,,,,,,,,,,,,,,,,,,,,,,,
,,,,,767355,001,2024-06-17_10h39.07.060,experiment,2024.1.5,MacIntel,59.88023952,5680253fc5767f00121cc5e2,667045947eb812cbdacbf325,6670498016d44c7364b51ebb,,,,,,,,,,,,,,,,,,,,,,,,,,,,,,,,,,,,,,,,,,,,355.8249,372.1578,3.673913043,16.3113,0,5,5,6,1,song_indices/Weak_SWV.csv,,,,,,,,,,,,,,,,,,,,,,,,,,,,,,,,,,,,,,,,,,,,,,,,
,,,,,767355,001,2024-06-17_10h39.07.060,experiment,2024.1.5,MacIntel,59.88023952,5680253fc5767f00121cc5e2,667045947eb812cbdacbf325,6670498016d44c7364b51ebb,,,,,,,,,,,,,,,,,,,,,,,,,,,,,,,,,,,,372.1594,379.1578,0,0,0,1,1,SoundStimuli/Dilemma_NellyKellyRowland_Cover5S.wav,,,,,,,,,,,,,,,,,,,,,,,,,,,,,,,,,,,,,,,,,,,,,,,,,,,,,,,,,,
,,,,,767355,001,2024-06-17_10h39.07.060,experiment,2024.1.5,MacIntel,59.88023952,5680253fc5767f00121cc5e2,667045947eb812cbdacbf325,6670498016d44c7364b51ebb,,,,,,,,,,,,,,,,,,,,,,,,,,,,,,,,,,,,379.1685,385.3572,0,1,1,0,1,SoundStimuli/Dilemma_NellyKellyRowland_Original5S.wav,,,,,,,,,,,,,,,,,,,,,,,,,,,,,,,,,,,,,,,,,,,,,,,,,,,,,,,,,,
,,,,,767355,001,2024-06-17_10h39.07.060,experiment,2024.1.5,MacIntel,59.88023952,5680253fc5767f00121cc5e2,667045947eb812cbdacbf325,6670498016d44c7364b51ebb,,,,,,,,,,,,,,,,,,,,,,,,,,,,,,,,,,,,,,,,,,,,385.3576,389.1074,5.985640285,3.7361,0,6,6,2,1,song_indices/Dilemma_NellyKellyRowland.csv,,,,,,,,,,,,,,,,,,,,,,,,,,,,,,,,,,,,,,,,,,,,,,,,
,,,,,767355,001,2024-06-17_10h39.07.060,experiment,2024.1.5,MacIntel,59.88023952,5680253fc5767f00121cc5e2,667045947eb812cbdacbf325,6670498016d44c7364b51ebb,,,,,,,,,,,,,,,,,,,,,,,,,,,,,,,,,,,,389.1089,395.2741,0,0,0,0,1,SoundStimuli/TheSign_AceOfBase_Original5S.wav,,,,,,,,,,,,,,,,,,,,,,,,,,,,,,,,,,,,,,,,,,,,,,,,,,,,,,,,,,
,,,,,767355,001,2024-06-17_10h39.07.060,experiment,2024.1.5,MacIntel,59.88023952,5680253fc5767f00121cc5e2,667045947eb812cbdacbf325,6670498016d44c7364b51ebb,,,,,,,,,,,,,,,,,,,,,,,,,,,,,,,,,,,,395.2841,401.2908,0,1,1,1,1,SoundStimuli/TheSign_AceOfBase_Cover5S.wav,,,,,,,,,,,,,,,,,,,,,,,,,,,,,,,,,,,,,,,,,,,,,,,,,,,,,,,,,,
,,,,,767355,001,2024-06-17_10h39.07.060,experiment,2024.1.5,MacIntel,59.88023952,5680253fc5767f00121cc5e2,667045947eb812cbdacbf325,6670498016d44c7364b51ebb,,,,,,,,,,,,,,,,,,,,,,,,,,,,,,,,,,,,,,,,,,,,401.2911,402.0574,4.988170856,0.7457,0,7,7,5,1,song_indices/TheSign_AceOfBase.csv,,,,,,,,,,,,,,,,,,,,,,,,,,,,,,,,,,,,,,,,,,,,,,,,
,,,,,767355,001,2024-06-17_10h39.07.060,experiment,2024.1.5,MacIntel,59.88023952,5680253fc5767f00121cc5e2,667045947eb812cbdacbf325,6670498016d44c7364b51ebb,,,,,,,,,,,,,,,,,,,,,,,,,,,,,,,,,,,,402.059,409.5905,0,0,0,1,1,SoundStimuli/TikTok_Kesha_Cover5S.wav,,,,,,,,,,,,,,,,,,,,,,,,,,,,,,,,,,,,,,,,,,,,,,,,,,,,,,,,,,
,,,,,767355,001,2024-06-17_10h39.07.060,experiment,2024.1.5,MacIntel,59.88023952,5680253fc5767f00121cc5e2,667045947eb812cbdacbf325,6670498016d44c7364b51ebb,,,,,,,,,,,,,,,,,,,,,,,,,,,,,,,,,,,,409.6011,415.8071,0,1,1,0,1,SoundStimuli/TikTok_Kesha_Original5S.wav,,,,,,,,,,,,,,,,,,,,,,,,,,,,,,,,,,,,,,,,,,,,,,,,,,,,,,,,,,
,,,,,767355,001,2024-06-17_10h39.07.060,experiment,2024.1.5,MacIntel,59.88023952,5680253fc5767f00121cc5e2,667045947eb812cbdacbf325,6670498016d44c7364b51ebb,,,,,,,,,,,,,,,,,,,,,,,,,,,,,,,,,,,,,,,,,,,,415.8073,417.3728,4.976757813,1.5451,0,8,8,3,1,song_indices/TikTok_Kesha.csv,,,,,,,,,,,,,,,,,,,,,,,,,,,,,,,,,,,,,,,,,,,,,,,,
,,,,,767355,001,2024-06-17_10h39.07.060,experiment,2024.1.5,MacIntel,59.88023952,5680253fc5767f00121cc5e2,667045947eb812cbdacbf325,6670498016d44c7364b51ebb,,,,,,,,,,,,,,,,,,,,,,,,,,,,,,,,,,,,417.3746,423.8904,0,0,0,0,1,SoundStimuli/Dreams_FleetwoodMac_Original5S.wav,,,,,,,,,,,,,,,,,,,,,,,,,,,,,,,,,,,,,,,,,,,,,,,,,,,,,,,,,,
,,,,,767355,001,2024-06-17_10h39.07.060,experiment,2024.1.5,MacIntel,59.88023952,5680253fc5767f00121cc5e2,667045947eb812cbdacbf325,6670498016d44c7364b51ebb,,,,,,,,,,,,,,,,,,,,,,,,,,,,,,,,,,,,423.9006,431.7236,0,1,1,1,1,SoundStimuli/Dreams_FleetwoodMac_Cover5S.wav,,,,,,,,,,,,,,,,,,,,,,,,,,,,,,,,,,,,,,,,,,,,,,,,,,,,,,,,,,
,,,,,767355,001,2024-06-17_10h39.07.060,experiment,2024.1.5,MacIntel,59.88023952,5680253fc5767f00121cc5e2,667045947eb812cbdacbf325,6670498016d44c7364b51ebb,,,,,,,,,,,,,,,,,,,,,,,,,,,,,,,,,,,,,,,,,,,,431.7239,432.7891,4.0375,1.0417,0,9,9,1,1,song_indices/Dreams_FleetwoodMac.csv,,,,,,,,,,,,,,,,,,,,,,,,,,,,,,,,,,,,,,,,,,,,,,,,
,,,,,767355,001,2024-06-17_10h39.07.060,experiment,2024.1.5,MacIntel,59.88023952,5680253fc5767f00121cc5e2,667045947eb812cbdacbf325,6670498016d44c7364b51ebb,,,,,,,,,,,,,,,,,,,,,,,,,,,,,,,,,,,,432.79,438.79,0,0,0,0,1,SoundStimuli/Levitating_DuaLipa_Original5S.wav,,,,,,,,,,,,,,,,,,,,,,,,,,,,,,,,,,,,,,,,,,,,,,,,,,,,,,,,,,
,,,,,767355,001,2024-06-17_10h39.07.060,experiment,2024.1.5,MacIntel,59.88023952,5680253fc5767f00121cc5e2,667045947eb812cbdacbf325,6670498016d44c7364b51ebb,,,,,,,,,,,,,,,,,,,,,,,,,,,,,,,,,,,,438.7986,444.5066,0,1,1,1,1,SoundStimuli/Levitating_DuaLipa_Cover5S.wav,,,,,,,,,,,,,,,,,,,,,,,,,,,,,,,,,,,,,,,,,,,,,,,,,,,,,,,,,,
,,,,,767355,001,2024-06-17_10h39.07.060,experiment,2024.1.5,MacIntel,59.88023952,5680253fc5767f00121cc5e2,667045947eb812cbdacbf325,6670498016d44c7364b51ebb,,,,,,,,,,,,,,,,,,,,,,,,,,,,,,,,,,,,,,,,,,,,444.5069,445.7233,3.992077106,1.1937,0,10,10,10,1,song_indices/Levitating_DuaLipa.csv,,,,,,,,,,,,,,,,,,,,,,,,,,,,,,,,,,,,,,,,,,,,,,,,
,,,,,767355,001,2024-06-17_10h39.07.060,experiment,2024.1.5,MacIntel,59.88023952,5680253fc5767f00121cc5e2,667045947eb812cbdacbf325,6670498016d44c7364b51ebb,,,,,,,,,,,,,,,,,,,,,,,,,,,,,,,,,,,,445.7251,452.3734,0,0,0,1,1,SoundStimuli/LetsGetItOn_MarvinGaye_Cover5S.wav,,,,,,,,,,,,,,,,,,,,,,,,,,,,,,,,,,,,,,,,,,,,,,,,,,,,,,,,,,
,,,,,767355,001,2024-06-17_10h39.07.060,experiment,2024.1.5,MacIntel,59.88023952,5680253fc5767f00121cc5e2,667045947eb812cbdacbf325,6670498016d44c7364b51ebb,,,,,,,,,,,,,,,,,,,,,,,,,,,,,,,,,,,,452.3829,458.6732,0,1,1,0,1,SoundStimuli/LetsGetItOn_MarvinGaye_Original5S.wav,,,,,,,,,,,,,,,,,,,,,,,,,,,,,,,,,,,,,,,,,,,,,,,,,,,,,,,,,,
,,,,,767355,001,2024-06-17_10h39.07.060,experiment,2024.1.5,MacIntel,59.88023952,5680253fc5767f00121cc5e2,667045947eb812cbdacbf325,6670498016d44c7364b51ebb,,,,,,,,,,,,,,,,,,,,,,,,,,,,,,,,,,,,,,,,,,,,458.6734,459.9229,3.021255095,1.2387,0,11,11,20,1,song_indices/LetsGetItOn_MarvinGaye.csv,,,,,,,,,,,,,,,,,,,,,,,,,,,,,,,,,,,,,,,,,,,,,,,,
,,,,,767355,001,2024-06-17_10h39.07.060,experiment,2024.1.5,MacIntel,59.88023952,5680253fc5767f00121cc5e2,667045947eb812cbdacbf325,6670498016d44c7364b51ebb,,,,,,,,,,,,,,,,,,,,,,,,,,,,,,,,,,,,459.9241,465.9897,0,0,0,0,1,SoundStimuli/TossinAndTurnin_BobbyLewis_Original5S.wav,,,,,,,,,,,,,,,,,,,,,,,,,,,,,,,,,,,,,,,,,,,,,,,,,,,,,,,,,,
,,,,,767355,001,2024-06-17_10h39.07.060,experiment,2024.1.5,MacIntel,59.88023952,5680253fc5767f00121cc5e2,667045947eb812cbdacbf325,6670498016d44c7364b51ebb,,,,,,,,,,,,,,,,,,,,,,,,,,,,,,,,,,,,466.002,472.1065,0,1,1,1,1,SoundStimuli/TossinAndTurnin_BobbyLewis_Cover5S.wav,,,,,,,,,,,,,,,,,,,,,,,,,,,,,,,,,,,,,,,,,,,,,,,,,,,,,,,,,,
,,,,,767355,001,2024-06-17_10h39.07.060,experiment,2024.1.5,MacIntel,59.88023952,5680253fc5767f00121cc5e2,667045947eb812cbdacbf325,6670498016d44c7364b51ebb,,,,,,,,,,,,,,,,,,,,,,,,,,,,,,,,,,,,,,,,,,,,472.1068,472.8561,3.471815557,0.7386,0,12,12,13,1,song_indices/TossinAndTurnin_BobbyLewis.csv,,,,,,,,,,,,,,,,,,,,,,,,,,,,,,,,,,,,,,,,,,,,,,,,
,,,,,767355,001,2024-06-17_10h39.07.060,experiment,2024.1.5,MacIntel,59.88023952,5680253fc5767f00121cc5e2,667045947eb812cbdacbf325,6670498016d44c7364b51ebb,,,,,,,,,,,,,,,,,,,,,,,,,,,,,,,,,,,,472.8578,478.7394,0,0,0,0,1,SoundStimuli/Irreplaceable_Beyonce_Original5S.wav,,,,,,,,,,,,,,,,,,,,,,,,,,,,,,,,,,,,,,,,,,,,,,,,,,,,,,,,,,
,,,,,767355,001,2024-06-17_10h39.07.060,experiment,2024.1.5,MacIntel,59.88023952,5680253fc5767f00121cc5e2,667045947eb812cbdacbf325,6670498016d44c7364b51ebb,,,,,,,,,,,,,,,,,,,,,,,,,,,,,,,,,,,,478.7483,484.6562,0,1,1,1,1,SoundStimuli/Irreplaceable_Beyonce_Cover5S.wav,,,,,,,,,,,,,,,,,,,,,,,,,,,,,,,,,,,,,,,,,,,,,,,,,,,,,,,,,,
,,,,,767355,001,2024-06-17_10h39.07.060,experiment,2024.1.5,MacIntel,59.88023952,5680253fc5767f00121cc5e2,667045947eb812cbdacbf325,6670498016d44c7364b51ebb,,,,,,,,,,,,,,,,,,,,,,,,,,,,,,,,,,,,,,,,,,,,484.6564,486.5224,5.00638587,1.854,0,13,13,19,1,song_indices/Irreplaceable_Beyonce.csv,,,,,,,,,,,,,,,,,,,,,,,,,,,,,,,,,,,,,,,,,,,,,,,,
,,,,,767355,001,2024-06-17_10h39.07.060,experiment,2024.1.5,MacIntel,59.88023952,5680253fc5767f00121cc5e2,667045947eb812cbdacbf325,6670498016d44c7364b51ebb,,,,,,,,,,,,,,,,,,,,,,,,,,,,,,,,,,,,486.5236,492.8059,0,0,0,1,1,SoundStimuli/Kiss_Prince_Cover5S.wav,,,,,,,,,,,,,,,,,,,,,,,,,,,,,,,,,,,,,,,,,,,,,,,,,,,,,,,,,,
,,,,,767355,001,2024-06-17_10h39.07.060,experiment,2024.1.5,MacIntel,59.88023952,5680253fc5767f00121cc5e2,667045947eb812cbdacbf325,6670498016d44c7364b51ebb,,,,,,,,,,,,,,,,,,,,,,,,,,,,,,,,,,,,492.8164,500.2385,0,1,1,0,1,SoundStimuli/Kiss_Prince_Original5S.wav,,,,,,,,,,,,,,,,,,,,,,,,,,,,,,,,,,,,,,,,,,,,,,,,,,,,,,,,,,
,,,,,767355,001,2024-06-17_10h39.07.060,experiment,2024.1.5,MacIntel,59.88023952,5680253fc5767f00121cc5e2,667045947eb812cbdacbf325,6670498016d44c7364b51ebb,,,,,,,,,,,,,,,,,,,,,,,,,,,,,,,,,,,,,,,,,,,,500.2387,500.989,3.078396739,0.7293,0,14,14,14,1,song_indices/Kiss_Prince.csv,,,,,,,,,,,,,,,,,,,,,,,,,,,,,,,,,,,,,,,,,,,,,,,,
,,,,,767355,001,2024-06-17_10h39.07.060,experiment,2024.1.5,MacIntel,59.88023952,5680253fc5767f00121cc5e2,667045947eb812cbdacbf325,6670498016d44c7364b51ebb,,,,,,,,,,,,,,,,,,,,,,,,,,,,,,,,,,,,500.9909,507.7888,0,0,0,1,1,SoundStimuli/SomebodyThatIUsedtoKnow_Gotye_Cover5S.wav,,,,,,,,,,,,,,,,,,,,,,,,,,,,,,,,,,,,,,,,,,,,,,,,,,,,,,,,,,
,,,,,767355,001,2024-06-17_10h39.07.060,experiment,2024.1.5,MacIntel,59.88023952,5680253fc5767f00121cc5e2,667045947eb812cbdacbf325,6670498016d44c7364b51ebb,,,,,,,,,,,,,,,,,,,,,,,,,,,,,,,,,,,,507.7991,515.0226,0,1,1,0,1,SoundStimuli/SomebodyThatIUsedtoKnow_Gotye_Original5S.wav,,,,,,,,,,,,,,,,,,,,,,,,,,,,,,,,,,,,,,,,,,,,,,,,,,,,,,,,,,
,,,,,767355,001,2024-06-17_10h39.07.060,experiment,2024.1.5,MacIntel,59.88023952,5680253fc5767f00121cc5e2,667045947eb812cbdacbf325,6670498016d44c7364b51ebb,,,,,,,,,,,,,,,,,,,,,,,,,,,,,,,,,,,,,,,,,,,,515.0228,515.6889,5.943325408,0.6453,0,15,15,7,1,song_indices/SomebodyThatIUsedtoKnow_Gotye.csv,,,,,,,,,,,,,,,,,,,,,,,,,,,,,,,,,,,,,,,,,,,,,,,,
,,,,,767355,001,2024-06-17_10h39.07.060,experiment,2024.1.5,MacIntel,59.88023952,5680253fc5767f00121cc5e2,667045947eb812cbdacbf325,6670498016d44c7364b51ebb,,,,,,,,,,,,,,,,,,,,,,,,,,,,,,,,,,,,515.6902,522.1389,0,0,0,1,1,SoundStimuli/YouLightUpMyLife_DebbyBoone_Cover5S.wav,,,,,,,,,,,,,,,,,,,,,,,,,,,,,,,,,,,,,,,,,,,,,,,,,,,,,,,,,,
,,,,,767355,001,2024-06-17_10h39.07.060,experiment,2024.1.5,MacIntel,59.88023952,5680253fc5767f00121cc5e2,667045947eb812cbdacbf325,6670498016d44c7364b51ebb,,,,,,,,,,,,,,,,,,,,,,,,,,,,,,,,,,,,522.1498,528.2221,0,1,1,0,1,SoundStimuli/YouLightUpMyLife_DebbyBoone_Original5S.wav,,,,,,,,,,,,,,,,,,,,,,,,,,,,,,,,,,,,,,,,,,,,,,,,,,,,,,,,,,
,,,,,767355,001,2024-06-17_10h39.07.060,experiment,2024.1.5,MacIntel,59.88023952,5680253fc5767f00121cc5e2,667045947eb812cbdacbf325,6670498016d44c7364b51ebb,,,,,,,,,,,,,,,,,,,,,,,,,,,,,,,,,,,,,,,,,,,,528.2223,529.3224,6.525033967,1.0894,0,16,16,4,1,song_indices/YouLightUpMyLife_DebbyBoone.csv,,,,,,,,,,,,,,,,,,,,,,,,,,,,,,,,,,,,,,,,,,,,,,,,
,,,,,767355,001,2024-06-17_10h39.07.060,experiment,2024.1.5,MacIntel,59.88023952,5680253fc5767f00121cc5e2,667045947eb812cbdacbf325,6670498016d44c7364b51ebb,,,,,,,,,,,,,,,,,,,,,,,,,,,,,,,,,,,,529.3238,534.8387,0,0,0,1,1,SoundStimuli/LeFreak_Chic_Cover5S.wav,,,,,,,,,,,,,,,,,,,,,,,,,,,,,,,,,,,,,,,,,,,,,,,,,,,,,,,,,,
,,,,,767355,001,2024-06-17_10h39.07.060,experiment,2024.1.5,MacIntel,59.88023952,5680253fc5767f00121cc5e2,667045947eb812cbdacbf325,6670498016d44c7364b51ebb,,,,,,,,,,,,,,,,,,,,,,,,,,,,,,,,,,,,534.8504,540.872,0,1,1,0,1,SoundStimuli/LeFreak_Chic_Original5S.wav,,,,,,,,,,,,,,,,,,,,,,,,,,,,,,,,,,,,,,,,,,,,,,,,,,,,,,,,,,
,,,,,767355,001,2024-06-17_10h39.07.060,experiment,2024.1.5,MacIntel,59.88023952,5680253fc5767f00121cc5e2,667045947eb812cbdacbf325,6670498016d44c7364b51ebb,,,,,,,,,,,,,,,,,,,,,,,,,,,,,,,,,,,,,,,,,,,,540.8722,542.5717,4.699329144,1.688,0,17,17,11,1,song_indices/LeFreak_Chic.csv,,,,,,,,,,,,,,,,,,,,,,,,,,,,,,,,,,,,,,,,,,,,,,,,
,,,,,767355,001,2024-06-17_10h39.07.060,experiment,2024.1.5,MacIntel,59.88023952,5680253fc5767f00121cc5e2,667045947eb812cbdacbf325,6670498016d44c7364b51ebb,,,,,,,,,,,,,,,,,,,,,,,,,,,,,,,,,,,,542.5729,546.5549,0,0,0,1,1,SoundStimuli/UnbreakMyHeart_ToniBraxton_Cover5S.wav,,,,,,,,,,,,,,,,,,,,,,,,,,,,,,,,,,,,,,,,,,,,,,,,,,,,,,,,,,
,,,,,767355,001,2024-06-17_10h39.07.060,experiment,2024.1.5,MacIntel,59.88023952,5680253fc5767f00121cc5e2,667045947eb812cbdacbf325,6670498016d44c7364b51ebb,,,,,,,,,,,,,,,,,,,,,,,,,,,,,,,,,,,,546.5645,552.6717,0,1,1,0,1,SoundStimuli/UnbreakMyHeart_ToniBraxton_Original5S.wav,,,,,,,,,,,,,,,,,,,,,,,,,,,,,,,,,,,,,,,,,,,,,,,,,,,,,,,,,,
,,,,,767355,001,2024-06-17_10h39.07.060,experiment,2024.1.5,MacIntel,59.88023952,5680253fc5767f00121cc5e2,667045947eb812cbdacbf325,6670498016d44c7364b51ebb,,,,,,,,,,,,,,,,,,,,,,,,,,,,,,,,,,,,,,,,,,,,552.672,553.505,4.477258832,0.8119,0,18,18,16,1,song_indices/UnbreakMyHeart_ToniBraxton.csv,,,,,,,,,,,,,,,,,,,,,,,,,,,,,,,,,,,,,,,,,,,,,,,,
,,,,,767355,001,2024-06-17_10h39.07.060,experiment,2024.1.5,MacIntel,59.88023952,5680253fc5767f00121cc5e2,667045947eb812cbdacbf325,6670498016d44c7364b51ebb,,,,,,,,,,,,,,,,,,,,,,,,,,,,,,,,,,,,553.5067,559.4049,0,0,0,1,1,SoundStimuli/SaveYourTears_TheWeekndArianaGrande_Cover5S.wav,,,,,,,,,,,,,,,,,,,,,,,,,,,,,,,,,,,,,,,,,,,,,,,,,,,,,,,,,,
,,,,,767355,001,2024-06-17_10h39.07.060,experiment,2024.1.5,MacIntel,59.88023952,5680253fc5767f00121cc5e2,667045947eb812cbdacbf325,6670498016d44c7364b51ebb,,,,,,,,,,,,,,,,,,,,,,,,,,,,,,,,,,,,559.4151,565.6047,0,1,1,0,1,SoundStimuli/SaveYourTears_TheWeekndArianaGrande_Original5S.wav,,,,,,,,,,,,,,,,,,,,,,,,,,,,,,,,,,,,,,,,,,,,,,,,,,,,,,,,,,
,,,,,767355,001,2024-06-17_10h39.07.060,experiment,2024.1.5,MacIntel,59.88023952,5680253fc5767f00121cc5e2,667045947eb812cbdacbf325,6670498016d44c7364b51ebb,,,,,,,,,,,,,,,,,,,,,,,,,,,,,,,,,,,,,,,,,,,,565.6049,570.0704,4.968783967,4.4418,0,19,19,12,1,song_indices/SaveYourTears_TheWeekndArianaGrande.csv,,,,,,,,,,,,,,,,,,,,,,,,,,,,,,,,,,,,,,,,,,,,,,,,
,,,,,767355,001,2024-06-17_10h39.07.060,experiment,2024.1.5,MacIntel,59.88023952,5680253fc5767f00121cc5e2,667045947eb812cbdacbf325,6670498016d44c7364b51ebb,,,,,,,,,,,,,,,,,,,,,,,,,,,,,,,,,,,,570.0718,577.3548,0,0,0,1,1,SoundStimuli/FlashdanceWhatAFeeling_IreneCara_Cover5S.wav,,,,,,,,,,,,,,,,,,,,,,,,,,,,,,,,,,,,,,,,,,,,,,,,,,,,,,,,,,
,,,,,767355,001,2024-06-17_10h39.07.060,experiment,2024.1.5,MacIntel,59.88023952,5680253fc5767f00121cc5e2,667045947eb812cbdacbf325,6670498016d44c7364b51ebb,,,,,,,,,,,,,,,,,,,,,,,,,,,,,,,,,,,,577.3656,583.7545,0,1,1,0,1,SoundStimuli/FlashdanceWhatAFeeling_IreneCara_Original5S.wav,,,,,,,,,,,,,,,,,,,,,,,,,,,,,,,,,,,,,,,,,,,,,,,,,,,,,,,,,,
,,,,,767355,001,2024-06-17_10h39.07.060,experiment,2024.1.5,MacIntel,59.88023952,5680253fc5767f00121cc5e2,667045947eb812cbdacbf325,6670498016d44c7364b51ebb,,,,,,,,,,,,,,,,,,,,,,,,,,,,,,,,,,,,,,,,,,,,583.7547,585.7036,6.019268003,1.9382,0,20,20,18,1,song_indices/FlashdanceWhatAFeeling_IreneCara.csv,,,,,,,,,,,,,,,,,,,,,,,,,,,,,,,,,,,,,,,,,,,,,,,,
,,,,,767355,001,2024-06-17_10h39.07.060,experiment,2024.1.5,MacIntel,59.88023952,5680253fc5767f00121cc5e2,667045947eb812cbdacbf325,6670498016d44c7364b51ebb,,,,,,,,,,,,,,,,,,,,,,,,,,,,,,,,,,,,585.705,591.8535,0,0,0,0,1,SoundStimuli/Superstition_StevieWonder_Original5S.wav,,,,,,,,,,,,,,,,,,,,,,,,,,,,,,,,,,,,,,,,,,,,,,,,,,,,,,,,,,
,,,,,767355,001,2024-06-17_10h39.07.060,experiment,2024.1.5,MacIntel,59.88023952,5680253fc5767f00121cc5e2,667045947eb812cbdacbf325,6670498016d44c7364b51ebb,,,,,,,,,,,,,,,,,,,,,,,,,,,,,,,,,,,,591.8619,597.1709,0,1,1,1,1,SoundStimuli/Superstition_StevieWonder_Cover5S.wav,,,,,,,,,,,,,,,,,,,,,,,,,,,,,,,,,,,,,,,,,,,,,,,,,,,,,,,,,,
,,,,,767355,001,2024-06-17_10h39.07.060,experiment,2024.1.5,MacIntel,59.88023952,5680253fc5767f00121cc5e2,667045947eb812cbdacbf325,6670498016d44c7364b51ebb,,,,,,,,,,,,,,,,,,,,,,,,,,,,,,,,,,,,,,,,,,,,597.1712,604.5207,4.219089674,7.3367,0,21,21,15,1,song_indices/Superstition_StevieWonder.csv,,,,,,,,,,,,,,,,,,,,,,,,,,,,,,,,,,,,,,,,,,,,,,,,
,,,,,767355,001,2024-06-17_10h39.07.060,experiment,2024.1.5,MacIntel,59.88023952,5680253fc5767f00121cc5e2,667045947eb812cbdacbf325,6670498016d44c7364b51ebb,,,,,,,,,,,,,,,,,,,,,,,,,,,,,,,,,,,,604.5217,610.4532,0,0,0,0,1,SoundStimuli/Respect_ArethaFranklin_Original5S.wav,,,,,,,,,,,,,,,,,,,,,,,,,,,,,,,,,,,,,,,,,,,,,,,,,,,,,,,,,,
,,,,,767355,001,2024-06-17_10h39.07.060,experiment,2024.1.5,MacIntel,59.88023952,5680253fc5767f00121cc5e2,667045947eb812cbdacbf325,6670498016d44c7364b51ebb,,,,,,,,,,,,,,,,,,,,,,,,,,,,,,,,,,,,610.4634,616.5207,0,1,1,1,1,SoundStimuli/Respect_ArethaFranklin_Cover5S.wav,,,,,,,,,,,,,,,,,,,,,,,,,,,,,,,,,,,,,,,,,,,,,,,,,,,,,,,,,,
,,,,,767355,001,2024-06-17_10h39.07.060,experiment,2024.1.5,MacIntel,59.88023952,5680253fc5767f00121cc5e2,667045947eb812cbdacbf325,6670498016d44c7364b51ebb,,,,,,,,,,,,,,,,,,,,,,,,,,,,,,,,,,,,,,,,,,,,616.5209,617.3195,3.154670516,0.7847,0,22,22,0,1,song_indices/Respect_ArethaFranklin.csv,,,,,,,,,,,,,,,,,,,,,,,,,,,,,,,,,,,,,,,,,,,,,,,,
,,,,,767355,001,2024-06-17_10h39.07.060,experiment,2024.1.5,MacIntel,59.88023952,5680253fc5767f00121cc5e2,667045947eb812cbdacbf325,6670498016d44c7364b51ebb,,,,,,,,,,,,,,,,,,,,,,,,,,,,,,,,,,,,617.3206,623.8042,0,0,0,0,1,SoundStimuli/BlindingLights_TheWeeknd_Original5S.wav,,,,,,,,,,,,,,,,,,,,,,,,,,,,,,,,,,,,,,,,,,,,,,,,,,,,,,,,,,
,,,,,767355,001,2024-06-17_10h39.07.060,experiment,2024.1.5,MacIntel,59.88023952,5680253fc5767f00121cc5e2,667045947eb812cbdacbf325,6670498016d44c7364b51ebb,,,,,,,,,,,,,,,,,,,,,,,,,,,,,,,,,,,,623.813,630.6041,0,1,1,1,1,SoundStimuli/BlindingLights_TheWeeknd_Cover5S.wav,,,,,,,,,,,,,,,,,,,,,,,,,,,,,,,,,,,,,,,,,,,,,,,,,,,,,,,,,,
,,,,,767355,001,2024-06-17_10h39.07.060,experiment,2024.1.5,MacIntel,59.88023952,5680253fc5767f00121cc5e2,667045947eb812cbdacbf325,6670498016d44c7364b51ebb,,,,,,,,,,,,,,,,,,,,,,,,,,,,,,,,,,,,,,,,,,,,630.6043,631.4537,3.965709918,0.8276,0,23,23,21,1,song_indices/BlindingLights_TheWeeknd.csv,,,,,,,,,,,,,,,,,,,,,,,,,,,,,,,,,,,,,,,,,,,,,,,,
,,,,,767355,001,2024-06-17_10h39.07.060,experiment,2024.1.5,MacIntel,59.88023952,5680253fc5767f00121cc5e2,667045947eb812cbdacbf325,6670498016d44c7364b51ebb,,,,,,,,,,,,,,,,,,,,,,,,,,,,,,,,,,,,,,,,,,,,,,,,,,,,,,631.4544,633.6877,space,2.2128,0.0128,0,0,0,2,1,choose_song_b3.csv,,,,,,,,,,,,,,,,,,,,,,,,,,,,,,,,,,,,,
,,,,,767355,001,2024-06-17_10h39.07.060,experiment,2024.1.5,MacIntel,59.88023952,5680253fc5767f00121cc5e2,667045947eb812cbdacbf325,6670498016d44c7364b51ebb,,,,,,,,,,,,,,,,,,,,,,,,,,,,,,,,,,,,633.6903,639.4872,0,0,0,0,1,SoundStimuli/IWantToHoldYourHand_TheBeatles_Original5S.wav,,,,,,,,,,,,,,,,,,,,,,,,,,,,,,,,,,,,,,,,,,,,,,,,,,,,,,,,,,
,,,,,767355,001,2024-06-17_10h39.07.060,experiment,2024.1.5,MacIntel,59.88023952,5680253fc5767f00121cc5e2,667045947eb812cbdacbf325,6670498016d44c7364b51ebb,,,,,,,,,,,,,,,,,,,,,,,,,,,,,,,,,,,,639.4957,645.5205,0,1,1,1,1,SoundStimuli/IWantToHoldYourHand_TheBeatles_Cover5S.wav,,,,,,,,,,,,,,,,,,,,,,,,,,,,,,,,,,,,,,,,,,,,,,,,,,,,,,,,,,
,,,,,767355,001,2024-06-17_10h39.07.060,experiment,2024.1.5,MacIntel,59.88023952,5680253fc5767f00121cc5e2,667045947eb812cbdacbf325,6670498016d44c7364b51ebb,,,,,,,,,,,,,,,,,,,,,,,,,,,,,,,,,,,,,,,,,,,,645.5207,646.2369,3.158542799,0.7062,0,0,0,19,1,song_indices/IWantToHoldYourHand_TheBeatles.csv,,,,,,,,,,,,,,,,,,,,,,,,,,,,,,,,,,,,,,,,,,,,,,,,
,,,,,767355,001,2024-06-17_10h39.07.060,experiment,2024.1.5,MacIntel,59.88023952,5680253fc5767f00121cc5e2,667045947eb812cbdacbf325,6670498016d44c7364b51ebb,,,,,,,,,,,,,,,,,,,,,,,,,,,,,,,,,,,,646.2381,652.4535,0,0,0,0,1,SoundStimuli/Smooth_SantanaRobThomas_Original5S.wav,,,,,,,,,,,,,,,,,,,,,,,,,,,,,,,,,,,,,,,,,,,,,,,,,,,,,,,,,,
,,,,,767355,001,2024-06-17_10h39.07.060,experiment,2024.1.5,MacIntel,59.88023952,5680253fc5767f00121cc5e2,667045947eb812cbdacbf325,6670498016d44c7364b51ebb,,,,,,,,,,,,,,,,,,,,,,,,,,,,,,,,,,,,652.4631,658.5868,0,1,1,1,1,SoundStimuli/Smooth_SantanaRobThomas_Cover5S.wav,,,,,,,,,,,,,,,,,,,,,,,,,,,,,,,,,,,,,,,,,,,,,,,,,,,,,,,,,,
,,,,,767355,001,2024-06-17_10h39.07.060,experiment,2024.1.5,MacIntel,59.88023952,5680253fc5767f00121cc5e2,667045947eb812cbdacbf325,6670498016d44c7364b51ebb,,,,,,,,,,,,,,,,,,,,,,,,,,,,,,,,,,,,,,,,,,,,658.5871,659.5524,5.514801291,0.9471,0,1,1,4,1,song_indices/Smooth_SantanaRobThomas.csv,,,,,,,,,,,,,,,,,,,,,,,,,,,,,,,,,,,,,,,,,,,,,,,,
,,,,,767355,001,2024-06-17_10h39.07.060,experiment,2024.1.5,MacIntel,59.88023952,5680253fc5767f00121cc5e2,667045947eb812cbdacbf325,6670498016d44c7364b51ebb,,,,,,,,,,,,,,,,,,,,,,,,,,,,,,,,,,,,659.5538,666.3867,0,0,0,1,1,SoundStimuli/IWannaDanceWithSomebody_WhitneyHouston_Cover5S.wav,,,,,,,,,,,,,,,,,,,,,,,,,,,,,,,,,,,,,,,,,,,,,,,,,,,,,,,,,,
,,,,,767355,001,2024-06-17_10h39.07.060,experiment,2024.1.5,MacIntel,59.88023952,5680253fc5767f00121cc5e2,667045947eb812cbdacbf325,6670498016d44c7364b51ebb,,,,,,,,,,,,,,,,,,,,,,,,,,,,,,,,,,,,666.3969,671.9866,0,1,1,0,1,SoundStimuli/IWannaDanceWithSomebody_WhitneyHouston_Original5S.wav,,,,,,,,,,,,,,,,,,,,,,,,,,,,,,,,,,,,,,,,,,,,,,,,,,,,,,,,,,
,,,,,767355,001,2024-06-17_10h39.07.060,experiment,2024.1.5,MacIntel,59.88023952,5680253fc5767f00121cc5e2,667045947eb812cbdacbf325,6670498016d44c7364b51ebb,,,,,,,,,,,,,,,,,,,,,,,,,,,,,,,,,,,,,,,,,,,,671.9868,673.0192,4.000636889,1.022,0,2,2,13,1,song_indices/IWannaDanceWithSomebody_WhitneyHouston.csv,,,,,,,,,,,,,,,,,,,,,,,,,,,,,,,,,,,,,,,,,,,,,,,,
,,,,,767355,001,2024-06-17_10h39.07.060,experiment,2024.1.5,MacIntel,59.88023952,5680253fc5767f00121cc5e2,667045947eb812cbdacbf325,6670498016d44c7364b51ebb,,,,,,,,,,,,,,,,,,,,,,,,,,,,,,,,,,,,673.0202,679.0698,0,0,0,0,1,SoundStimuli/AnotherOneBitesTheDust_Queen_Original5S.wav,,,,,,,,,,,,,,,,,,,,,,,,,,,,,,,,,,,,,,,,,,,,,,,,,,,,,,,,,,
,,,,,767355,001,2024-06-17_10h39.07.060,experiment,2024.1.5,MacIntel,59.88023952,5680253fc5767f00121cc5e2,667045947eb812cbdacbf325,6670498016d44c7364b51ebb,,,,,,,,,,,,,,,,,,,,,,,,,,,,,,,,,,,,679.0811,687.2019,0,1,1,1,1,SoundStimuli/AnotherOneBitesTheDust_Queen_Cover5S.wav,,,,,,,,,,,,,,,,,,,,,,,,,,,,,,,,,,,,,,,,,,,,,,,,,,,,,,,,,,
,,,,,767355,001,2024-06-17_10h39.07.060,experiment,2024.1.5,MacIntel,59.88023952,5680253fc5767f00121cc5e2,667045947eb812cbdacbf325,6670498016d44c7364b51ebb,,,,,,,,,,,,,,,,,,,,,,,,,,,,,,,,,,,,,,,,,,,,687.2021,688.0692,3.575246264,0.8547,0,3,3,9,1,song_indices/AnotherOneBitesTheDust_Queen.csv,,,,,,,,,,,,,,,,,,,,,,,,,,,,,,,,,,,,,,,,,,,,,,,,
,,,,,767355,001,2024-06-17_10h39.07.060,experiment,2024.1.5,MacIntel,59.88023952,5680253fc5767f00121cc5e2,667045947eb812cbdacbf325,6670498016d44c7364b51ebb,,,,,,,,,,,,,,,,,,,,,,,,,,,,,,,,,,,,688.0706,694.3196,0,0,0,0,1,SoundStimuli/GodOnlyKnows_TheBeachBoys_Original5S.wav,,,,,,,,,,,,,,,,,,,,,,,,,,,,,,,,,,,,,,,,,,,,,,,,,,,,,,,,,,
,,,,,767355,001,2024-06-17_10h39.07.060,experiment,2024.1.5,MacIntel,59.88023952,5680253fc5767f00121cc5e2,667045947eb812cbdacbf325,6670498016d44c7364b51ebb,,,,,,,,,,,,,,,,,,,,,,,,,,,,,,,,,,,,694.3311,701.1861,0,1,1,1,1,SoundStimuli/GodOnlyKnows_TheBeachBoys_Cover5S.wav,,,,,,,,,,,,,,,,,,,,,,,,,,,,,,,,,,,,,,,,,,,,,,,,,,,,,,,,,,
,,,,,767355,001,2024-06-17_10h39.07.060,experiment,2024.1.5,MacIntel,59.88023952,5680253fc5767f00121cc5e2,667045947eb812cbdacbf325,6670498016d44c7364b51ebb,,,,,,,,,,,,,,,,,,,,,,,,,,,,,,,,,,,,,,,,,,,,701.1864,702.9185,3.227606997,1.7202,0,4,4,8,1,song_indices/GodOnlyKnows_TheBeachBoys.csv,,,,,,,,,,,,,,,,,,,,,,,,,,,,,,,,,,,,,,,,,,,,,,,,
,,,,,767355,001,2024-06-17_10h39.07.060,experiment,2024.1.5,MacIntel,59.88023952,5680253fc5767f00121cc5e2,667045947eb812cbdacbf325,6670498016d44c7364b51ebb,,,,,,,,,,,,,,,,,,,,,,,,,,,,,,,,,,,,702.9195,708.8694,0,0,0,1,1,SoundStimuli/IllMakeLoveToYou_BoyzIIMen_Cover5S.wav,,,,,,,,,,,,,,,,,,,,,,,,,,,,,,,,,,,,,,,,,,,,,,,,,,,,,,,,,,
,,,,,767355,001,2024-06-17_10h39.07.060,experiment,2024.1.5,MacIntel,59.88023952,5680253fc5767f00121cc5e2,667045947eb812cbdacbf325,6670498016d44c7364b51ebb,,,,,,,,,,,,,,,,,,,,,,,,,,,,,,,,,,,,708.8794,714.9527,0,1,1,0,1,SoundStimuli/IllMakeLoveToYou_BoyzIIMen_Original5S.wav,,,,,,,,,,,,,,,,,,,,,,,,,,,,,,,,,,,,,,,,,,,,,,,,,,,,,,,,,,
,,,,,767355,001,2024-06-17_10h39.07.060,experiment,2024.1.5,MacIntel,59.88023952,5680253fc5767f00121cc5e2,667045947eb812cbdacbf325,6670498016d44c7364b51ebb,,,,,,,,,,,,,,,,,,,,,,,,,,,,,,,,,,,,,,,,,,,,714.9529,718.3359,5.962151834,3.3607,0,5,5,6,1,song_indices/IllMakeLoveToYou_BoyzIIMen.csv,,,,,,,,,,,,,,,,,,,,,,,,,,,,,,,,,,,,,,,,,,,,,,,,
,,,,,767355,001,2024-06-17_10h39.07.060,experiment,2024.1.5,MacIntel,59.88023952,5680253fc5767f00121cc5e2,667045947eb812cbdacbf325,6670498016d44c7364b51ebb,,,,,,,,,,,,,,,,,,,,,,,,,,,,,,,,,,,,718.3376,726.6357,0,0,0,1,1,SoundStimuli/Mood_24kGoldnianndior_Cover5S.wav,,,,,,,,,,,,,,,,,,,,,,,,,,,,,,,,,,,,,,,,,,,,,,,,,,,,,,,,,,
,,,,,767355,001,2024-06-17_10h39.07.060,experiment,2024.1.5,MacIntel,59.88023952,5680253fc5767f00121cc5e2,667045947eb812cbdacbf325,6670498016d44c7364b51ebb,,,,,,,,,,,,,,,,,,,,,,,,,,,,,,,,,,,,726.6454,732.9353,0,1,1,0,1,SoundStimuli/Mood_24kGoldnianndior_Original5S.wav,,,,,,,,,,,,,,,,,,,,,,,,,,,,,,,,,,,,,,,,,,,,,,,,,,,,,,,,,,
,,,,,767355,001,2024-06-17_10h39.07.060,experiment,2024.1.5,MacIntel,59.88023952,5680253fc5767f00121cc5e2,667045947eb812cbdacbf325,6670498016d44c7364b51ebb,,,,,,,,,,,,,,,,,,,,,,,,,,,,,,,,,,,,,,,,,,,,732.9356,734.3522,4.022724185,1.3986,0,6,6,5,1,song_indices/Mood_24kGoldnianndior.csv,,,,,,,,,,,,,,,,,,,,,,,,,,,,,,,,,,,,,,,,,,,,,,,,
,,,,,767355,001,2024-06-17_10h39.07.060,experiment,2024.1.5,MacIntel,59.88023952,5680253fc5767f00121cc5e2,667045947eb812cbdacbf325,6670498016d44c7364b51ebb,,,,,,,,,,,,,,,,,,,,,,,,,,,,,,,,,,,,734.3536,740.5022,0,0,0,0,1,SoundStimuli/LikeARollingStone_BobDylan_Original5S.wav,,,,,,,,,,,,,,,,,,,,,,,,,,,,,,,,,,,,,,,,,,,,,,,,,,,,,,,,,,
,,,,,767355,001,2024-06-17_10h39.07.060,experiment,2024.1.5,MacIntel,59.88023952,5680253fc5767f00121cc5e2,667045947eb812cbdacbf325,6670498016d44c7364b51ebb,,,,,,,,,,,,,,,,,,,,,,,,,,,,,,,,,,,,740.5143,744.9023,0,1,1,1,1,SoundStimuli/LikeARollingStone_BobDylan_Cover5S.wav,,,,,,,,,,,,,,,,,,,,,,,,,,,,,,,,,,,,,,,,,,,,,,,,,,,,,,,,,,
,,,,,767355,001,2024-06-17_10h39.07.060,experiment,2024.1.5,MacIntel,59.88023952,5680253fc5767f00121cc5e2,667045947eb812cbdacbf325,6670498016d44c7364b51ebb,,,,,,,,,,,,,,,,,,,,,,,,,,,,,,,,,,,,,,,,,,,,744.9026,746.1854,6.055621603,1.263,0,7,7,12,1,song_indices/LikeARollingStone_BobDylan.csv,,,,,,,,,,,,,,,,,,,,,,,,,,,,,,,,,,,,,,,,,,,,,,,,
,,,,,767355,001,2024-06-17_10h39.07.060,experiment,2024.1.5,MacIntel,59.88023952,5680253fc5767f00121cc5e2,667045947eb812cbdacbf325,6670498016d44c7364b51ebb,,,,,,,,,,,,,,,,,,,,,,,,,,,,,,,,,,,,746.1868,753.702,0,0,0,1,1,SoundStimuli/BadDay_DanielPowter_Cover5S.wav,,,,,,,,,,,,,,,,,,,,,,,,,,,,,,,,,,,,,,,,,,,,,,,,,,,,,,,,,,
,,,,,767355,001,2024-06-17_10h39.07.060,experiment,2024.1.5,MacIntel,59.88023952,5680253fc5767f00121cc5e2,667045947eb812cbdacbf325,6670498016d44c7364b51ebb,,,,,,,,,,,,,,,,,,,,,,,,,,,,,,,,,,,,753.7123,760.151,0,1,1,0,1,SoundStimuli/BadDay_DanielPowter_Original5S.wav,,,,,,,,,,,,,,,,,,,,,,,,,,,,,,,,,,,,,,,,,,,,,,,,,,,,,,,,,,
,,,,,767355,001,2024-06-17_10h39.07.060,experiment,2024.1.5,MacIntel,59.88023952,5680253fc5767f00121cc5e2,667045947eb812cbdacbf325,6670498016d44c7364b51ebb,,,,,,,,,,,,,,,,,,,,,,,,,,,,,,,,,,,,,,,,,,,,760.1512,761.0519,5.021543818,0.8782,0,8,8,22,1,song_indices/BadDay_DanielPowter.csv,,,,,,,,,,,,,,,,,,,,,,,,,,,,,,,,,,,,,,,,,,,,,,,,
,,,,,767355,001,2024-06-17_10h39.07.060,experiment,2024.1.5,MacIntel,59.88023952,5680253fc5767f00121cc5e2,667045947eb812cbdacbf325,6670498016d44c7364b51ebb,,,,,,,,,,,,,,,,,,,,,,,,,,,,,,,,,,,,761.0539,767.6184,0,0,0,0,1,SoundStimuli/Despacito_LuisFonsiDaddyYankee_Original5S.wav,,,,,,,,,,,,,,,,,,,,,,,,,,,,,,,,,,,,,,,,,,,,,,,,,,,,,,,,,,
,,,,,767355,001,2024-06-17_10h39.07.060,experiment,2024.1.5,MacIntel,59.88023952,5680253fc5767f00121cc5e2,667045947eb812cbdacbf325,6670498016d44c7364b51ebb,,,,,,,,,,,,,,,,,,,,,,,,,,,,,,,,,,,,767.6284,774.2007,0,1,1,1,1,SoundStimuli/Despacito_LuisFonsiDaddyYankee_Cover5S.wav,,,,,,,,,,,,,,,,,,,,,,,,,,,,,,,,,,,,,,,,,,,,,,,,,,,,,,,,,,
,,,,,767355,001,2024-06-17_10h39.07.060,experiment,2024.1.5,MacIntel,59.88023952,5680253fc5767f00121cc5e2,667045947eb812cbdacbf325,6670498016d44c7364b51ebb,,,,,,,,,,,,,,,,,,,,,,,,,,,,,,,,,,,,,,,,,,,,774.201,774.8845,5.038001019,0.6718,0,9,9,11,1,song_indices/Despacito_LuisFonsiDaddyYankee.csv,,,,,,,,,,,,,,,,,,,,,,,,,,,,,,,,,,,,,,,,,,,,,,,,
,,,,,767355,001,2024-06-17_10h39.07.060,experiment,2024.1.5,MacIntel,59.88023952,5680253fc5767f00121cc5e2,667045947eb812cbdacbf325,6670498016d44c7364b51ebb,,,,,,,,,,,,,,,,,,,,,,,,,,,,,,,,,,,,774.8857,781.135,0,0,0,0,1,SoundStimuli/LivinOnAPrayer_BonJovi_Original5S.wav,,,,,,,,,,,,,,,,,,,,,,,,,,,,,,,,,,,,,,,,,,,,,,,,,,,,,,,,,,
,,,,,767355,001,2024-06-17_10h39.07.060,experiment,2024.1.5,MacIntel,59.88023952,5680253fc5767f00121cc5e2,667045947eb812cbdacbf325,6670498016d44c7364b51ebb,,,,,,,,,,,,,,,,,,,,,,,,,,,,,,,,,,,,781.1442,788.8173,0,1,1,1,1,SoundStimuli/LivinOnAPrayer_BonJovi_Cover5S.wav,,,,,,,,,,,,,,,,,,,,,,,,,,,,,,,,,,,,,,,,,,,,,,,,,,,,,,,,,,
,,,,,767355,001,2024-06-17_10h39.07.060,experiment,2024.1.5,MacIntel,59.88023952,5680253fc5767f00121cc5e2,667045947eb812cbdacbf325,6670498016d44c7364b51ebb,,,,,,,,,,,,,,,,,,,,,,,,,,,,,,,,,,,,,,,,,,,,788.8175,790.0348,4.019463315,1.1939,0,10,10,16,1,song_indices/LivinOnAPrayer_BonJovi.csv,,,,,,,,,,,,,,,,,,,,,,,,,,,,,,,,,,,,,,,,,,,,,,,,
,,,,,767355,001,2024-06-17_10h39.07.060,experiment,2024.1.5,MacIntel,59.88023952,5680253fc5767f00121cc5e2,667045947eb812cbdacbf325,6670498016d44c7364b51ebb,,,,,,,,,,,,,,,,,,,,,,,,,,,,,,,,,,,,790.037,798.9003,0,0,0,0,1,SoundStimuli/Perfect_EdSheeran_Original5S.wav,,,,,,,,,,,,,,,,,,,,,,,,,,,,,,,,,,,,,,,,,,,,,,,,,,,,,,,,,,
,,,,,767355,001,2024-06-17_10h39.07.060,experiment,2024.1.5,MacIntel,59.88023952,5680253fc5767f00121cc5e2,667045947eb812cbdacbf325,6670498016d44c7364b51ebb,,,,,,,,,,,,,,,,,,,,,,,,,,,,,,,,,,,,798.9113,807.1668,0,1,1,1,1,SoundStimuli/Perfect_EdSheeran_Cover5S.wav,,,,,,,,,,,,,,,,,,,,,,,,,,,,,,,,,,,,,,,,,,,,,,,,,,,,,,,,,,
,,,,,767355,001,2024-06-17_10h39.07.060,experiment,2024.1.5,MacIntel,59.88023952,5680253fc5767f00121cc5e2,667045947eb812cbdacbf325,6670498016d44c7364b51ebb,,,,,,,,,,,,,,,,,,,,,,,,,,,,,,,,,,,,,,,,,,,,807.1671,808.1179,5.998607337,0.9294,0,11,11,0,1,song_indices/Perfect_EdSheeran.csv,,,,,,,,,,,,,,,,,,,,,,,,,,,,,,,,,,,,,,,,,,,,,,,,
,,,,,767355,001,2024-06-17_10h39.07.060,experiment,2024.1.5,MacIntel,59.88023952,5680253fc5767f00121cc5e2,667045947eb812cbdacbf325,6670498016d44c7364b51ebb,,,,,,,,,,,,,,,,,,,,,,,,,,,,,,,,,,,,808.1196,815.7836,0,0,0,1,1,SoundStimuli/MyGirl_TheTemptations_Cover5S.wav,,,,,,,,,,,,,,,,,,,,,,,,,,,,,,,,,,,,,,,,,,,,,,,,,,,,,,,,,,
,,,,,767355,001,2024-06-17_10h39.07.060,experiment,2024.1.5,MacIntel,59.88023952,5680253fc5767f00121cc5e2,667045947eb812cbdacbf325,6670498016d44c7364b51ebb,,,,,,,,,,,,,,,,,,,,,,,,,,,,,,,,,,,,815.7936,822.1843,0,1,1,0,1,SoundStimuli/MyGirl_TheTemptations_Original5S.wav,,,,,,,,,,,,,,,,,,,,,,,,,,,,,,,,,,,,,,,,,,,,,,,,,,,,,,,,,,
,,,,,767355,001,2024-06-17_10h39.07.060,experiment,2024.1.5,MacIntel,59.88023952,5680253fc5767f00121cc5e2,667045947eb812cbdacbf325,6670498016d44c7364b51ebb,,,,,,,,,,,,,,,,,,,,,,,,,,,,,,,,,,,,,,,,,,,,822.1844,823.0341,2.093639606,0.8387,0,12,12,15,1,song_indices/MyGirl_TheTemptations.csv,,,,,,,,,,,,,,,,,,,,,,,,,,,,,,,,,,,,,,,,,,,,,,,,
,,,,,767355,001,2024-06-17_10h39.07.060,experiment,2024.1.5,MacIntel,59.88023952,5680253fc5767f00121cc5e2,667045947eb812cbdacbf325,6670498016d44c7364b51ebb,,,,,,,,,,,,,,,,,,,,,,,,,,,,,,,,,,,,823.0351,829,0,0,0,0,1,SoundStimuli/BohemianRhapsody_Queen_Original5S.wav,,,,,,,,,,,,,,,,,,,,,,,,,,,,,,,,,,,,,,,,,,,,,,,,,,,,,,,,,,
,,,,,767355,001,2024-06-17_10h39.07.060,experiment,2024.1.5,MacIntel,59.88023952,5680253fc5767f00121cc5e2,667045947eb812cbdacbf325,6670498016d44c7364b51ebb,,,,,,,,,,,,,,,,,,,,,,,,,,,,,,,,,,,,829.0101,833.0843,0,1,1,1,1,SoundStimuli/BohemianRhapsody_Queen_Cover5S.wav,,,,,,,,,,,,,,,,,,,,,,,,,,,,,,,,,,,,,,,,,,,,,,,,,,,,,,,,,,
,,,,,767355,001,2024-06-17_10h39.07.060,experiment,2024.1.5,MacIntel,59.88023952,5680253fc5767f00121cc5e2,667045947eb812cbdacbf325,6670498016d44c7364b51ebb,,,,,,,,,,,,,,,,,,,,,,,,,,,,,,,,,,,,,,,,,,,,833.0845,833.95,2.39990659,0.8556,0,13,13,18,1,song_indices/BohemianRhapsody_Queen.csv,,,,,,,,,,,,,,,,,,,,,,,,,,,,,,,,,,,,,,,,,,,,,,,,
,,,,,767355,001,2024-06-17_10h39.07.060,experiment,2024.1.5,MacIntel,59.88023952,5680253fc5767f00121cc5e2,667045947eb812cbdacbf325,6670498016d44c7364b51ebb,,,,,,,,,,,,,,,,,,,,,,,,,,,,,,,,,,,,833.9516,839.984,0,0,0,0,1,SoundStimuli/StayinAlive_BeeGees_Original5S.wav,,,,,,,,,,,,,,,,,,,,,,,,,,,,,,,,,,,,,,,,,,,,,,,,,,,,,,,,,,
,,,,,767355,001,2024-06-17_10h39.07.060,experiment,2024.1.5,MacIntel,59.88023952,5680253fc5767f00121cc5e2,667045947eb812cbdacbf325,6670498016d44c7364b51ebb,,,,,,,,,,,,,,,,,,,,,,,,,,,,,,,,,,,,839.9938,845.8173,0,1,1,1,1,SoundStimuli/StayinAlive_BeeGees_Cover5S.wav,,,,,,,,,,,,,,,,,,,,,,,,,,,,,,,,,,,,,,,,,,,,,,,,,,,,,,,,,,
,,,,,767355,001,2024-06-17_10h39.07.060,experiment,2024.1.5,MacIntel,59.88023952,5680253fc5767f00121cc5e2,667045947eb812cbdacbf325,6670498016d44c7364b51ebb,,,,,,,,,,,,,,,,,,,,,,,,,,,,,,,,,,,,,,,,,,,,845.8177,847.2673,5.17821841,1.4281,0,14,14,2,1,song_indices/StayinAlive_BeeGees.csv,,,,,,,,,,,,,,,,,,,,,,,,,,,,,,,,,,,,,,,,,,,,,,,,
,,,,,767355,001,2024-06-17_10h39.07.060,experiment,2024.1.5,MacIntel,59.88023952,5680253fc5767f00121cc5e2,667045947eb812cbdacbf325,6670498016d44c7364b51ebb,,,,,,,,,,,,,,,,,,,,,,,,,,,,,,,,,,,,847.2688,853.4162,0,0,0,0,1,SoundStimuli/MackTheKnife_BobbyDarin_Original5S.wav,,,,,,,,,,,,,,,,,,,,,,,,,,,,,,,,,,,,,,,,,,,,,,,,,,,,,,,,,,
,,,,,767355,001,2024-06-17_10h39.07.060,experiment,2024.1.5,MacIntel,59.88023952,5680253fc5767f00121cc5e2,667045947eb812cbdacbf325,6670498016d44c7364b51ebb,,,,,,,,,,,,,,,,,,,,,,,,,,,,,,,,,,,,853.4276,859.6837,0,1,1,1,1,SoundStimuli/MackTheKnife_BobbyDarin_Cover5S.wav,,,,,,,,,,,,,,,,,,,,,,,,,,,,,,,,,,,,,,,,,,,,,,,,,,,,,,,,,,
,,,,,767355,001,2024-06-17_10h39.07.060,experiment,2024.1.5,MacIntel,59.88023952,5680253fc5767f00121cc5e2,667045947eb812cbdacbf325,6670498016d44c7364b51ebb,,,,,,,,,,,,,,,,,,,,,,,,,,,,,,,,,,,,,,,,,,,,859.6838,862.3834,2.95280231,2.6888,0,15,15,21,1,song_indices/MackTheKnife_BobbyDarin.csv,,,,,,,,,,,,,,,,,,,,,,,,,,,,,,,,,,,,,,,,,,,,,,,,
,,,,,767355,001,2024-06-17_10h39.07.060,experiment,2024.1.5,MacIntel,59.88023952,5680253fc5767f00121cc5e2,667045947eb812cbdacbf325,6670498016d44c7364b51ebb,,,,,,,,,,,,,,,,,,,,,,,,,,,,,,,,,,,,862.3845,868.517,0,0,0,0,1,SoundStimuli/StrawberryFieldsForever_TheBeatles_Original5S.wav,,,,,,,,,,,,,,,,,,,,,,,,,,,,,,,,,,,,,,,,,,,,,,,,,,,,,,,,,,
,,,,,767355,001,2024-06-17_10h39.07.060,experiment,2024.1.5,MacIntel,59.88023952,5680253fc5767f00121cc5e2,667045947eb812cbdacbf325,6670498016d44c7364b51ebb,,,,,,,,,,,,,,,,,,,,,,,,,,,,,,,,,,,,868.5265,875.5503,0,1,1,1,1,SoundStimuli/StrawberryFieldsForever_TheBeatles_Cover5S.wav,,,,,,,,,,,,,,,,,,,,,,,,,,,,,,,,,,,,,,,,,,,,,,,,,,,,,,,,,,
,,,,,767355,001,2024-06-17_10h39.07.060,experiment,2024.1.5,MacIntel,59.88023952,5680253fc5767f00121cc5e2,667045947eb812cbdacbf325,6670498016d44c7364b51ebb,,,,,,,,,,,,,,,,,,,,,,,,,,,,,,,,,,,,,,,,,,,,875.5505,876.35,2.515336277,0.7878,0,16,16,14,1,song_indices/StrawberryFieldsForever_TheBeatles.csv,,,,,,,,,,,,,,,,,,,,,,,,,,,,,,,,,,,,,,,,,,,,,,,,
,,,,,767355,001,2024-06-17_10h39.07.060,experiment,2024.1.5,MacIntel,59.88023952,5680253fc5767f00121cc5e2,667045947eb812cbdacbf325,6670498016d44c7364b51ebb,,,,,,,,,,,,,,,,,,,,,,,,,,,,,,,,,,,,876.351,883.0501,0,0,0,1,1,SoundStimuli/BridgeOverTroubledWater_SimonAndGarfunkel_Cover5S.wav,,,,,,,,,,,,,,,,,,,,,,,,,,,,,,,,,,,,,,,,,,,,,,,,,,,,,,,,,,
,,,,,767355,001,2024-06-17_10h39.07.060,experiment,2024.1.5,MacIntel,59.88023952,5680253fc5767f00121cc5e2,667045947eb812cbdacbf325,6670498016d44c7364b51ebb,,,,,,,,,,,,,,,,,,,,,,,,,,,,,,,,,,,,883.0602,889.3668,0,1,1,0,1,SoundStimuli/BridgeOverTroubledWater_SimonAndGarfunkel_Original5S.wav,,,,,,,,,,,,,,,,,,,,,,,,,,,,,,,,,,,,,,,,,,,,,,,,,,,,,,,,,,
,,,,,767355,001,2024-06-17_10h39.07.060,experiment,2024.1.5,MacIntel,59.88023952,5680253fc5767f00121cc5e2,667045947eb812cbdacbf325,6670498016d44c7364b51ebb,,,,,,,,,,,,,,,,,,,,,,,,,,,,,,,,,,,,,,,,,,,,889.3669,891.1489,3.570788043,1.7642,0,17,17,1,1,song_indices/BridgeOverTroubledWater_SimonAndGarfunkel.csv,,,,,,,,,,,,,,,,,,,,,,,,,,,,,,,,,,,,,,,,,,,,,,,,
,,,,,767355,001,2024-06-17_10h39.07.060,experiment,2024.1.5,MacIntel,59.88023952,5680253fc5767f00121cc5e2,667045947eb812cbdacbf325,6670498016d44c7364b51ebb,,,,,,,,,,,,,,,,,,,,,,,,,,,,,,,,,,,,891.1506,897.4999,0,0,0,0,1,SoundStimuli/EndlessLove_DianaRossLionelRichie_Original5S.wav,,,,,,,,,,,,,,,,,,,,,,,,,,,,,,,,,,,,,,,,,,,,,,,,,,,,,,,,,,
,,,,,767355,001,2024-06-17_10h39.07.060,experiment,2024.1.5,MacIntel,59.88023952,5680253fc5767f00121cc5e2,667045947eb812cbdacbf325,6670498016d44c7364b51ebb,,,,,,,,,,,,,,,,,,,,,,,,,,,,,,,,,,,,897.5097,905.0157,0,1,1,1,1,SoundStimuli/EndlessLove_DianaRossLionelRichie_Cover5S.wav,,,,,,,,,,,,,,,,,,,,,,,,,,,,,,,,,,,,,,,,,,,,,,,,,,,,,,,,,,
,,,,,767355,001,2024-06-17_10h39.07.060,experiment,2024.1.5,MacIntel,59.88023952,5680253fc5767f00121cc5e2,667045947eb812cbdacbf325,6670498016d44c7364b51ebb,,,,,,,,,,,,,,,,,,,,,,,,,,,,,,,,,,,,,,,,,,,,905.0159,906.2333,6.138901155,1.1966,0,18,18,3,1,song_indices/EndlessLove_DianaRossLionelRichie.csv,,,,,,,,,,,,,,,,,,,,,,,,,,,,,,,,,,,,,,,,,,,,,,,,
,,,,,767355,001,2024-06-17_10h39.07.060,experiment,2024.1.5,MacIntel,59.88023952,5680253fc5767f00121cc5e2,667045947eb812cbdacbf325,6670498016d44c7364b51ebb,,,,,,,,,,,,,,,,,,,,,,,,,,,,,,,,,,,,906.2355,910.9489,0,0,0,1,1,SoundStimuli/AChangeIsGonnaCome_SamCooke_Cover5S.wav,,,,,,,,,,,,,,,,,,,,,,,,,,,,,,,,,,,,,,,,,,,,,,,,,,,,,,,,,,
,,,,,767355,001,2024-06-17_10h39.07.060,experiment,2024.1.5,MacIntel,59.88023952,5680253fc5767f00121cc5e2,667045947eb812cbdacbf325,6670498016d44c7364b51ebb,,,,,,,,,,,,,,,,,,,,,,,,,,,,,,,,,,,,910.9579,916.9996,0,1,1,0,1,SoundStimuli/AChangeIsGonnaCome_SamCooke_Original5S.wav,,,,,,,,,,,,,,,,,,,,,,,,,,,,,,,,,,,,,,,,,,,,,,,,,,,,,,,,,,
,,,,,767355,001,2024-06-17_10h39.07.060,experiment,2024.1.5,MacIntel,59.88023952,5680253fc5767f00121cc5e2,667045947eb812cbdacbf325,6670498016d44c7364b51ebb,,,,,,,,,,,,,,,,,,,,,,,,,,,,,,,,,,,,,,,,,,,,916.9998,917.6153,4.735045856,0.594,0,19,19,17,1,song_indices/AChangeIsGonnaCome_SamCooke.csv,,,,,,,,,,,,,,,,,,,,,,,,,,,,,,,,,,,,,,,,,,,,,,,,
,,,,,767355,001,2024-06-17_10h39.07.060,experiment,2024.1.5,MacIntel,59.88023952,5680253fc5767f00121cc5e2,667045947eb812cbdacbf325,6670498016d44c7364b51ebb,,,,,,,,,,,,,,,,,,,,,,,,,,,,,,,,,,,,917.6169,923.8326,0,0,0,1,1,SoundStimuli/LikeAPrayer_Madonna_Cover5S.wav,,,,,,,,,,,,,,,,,,,,,,,,,,,,,,,,,,,,,,,,,,,,,,,,,,,,,,,,,,
,,,,,767355,001,2024-06-17_10h39.07.060,experiment,2024.1.5,MacIntel,59.88023952,5680253fc5767f00121cc5e2,667045947eb812cbdacbf325,6670498016d44c7364b51ebb,,,,,,,,,,,,,,,,,,,,,,,,,,,,,,,,,,,,923.8428,930.0323,0,1,1,0,1,SoundStimuli/LikeAPrayer_Madonna_Original5S.wav,,,,,,,,,,,,,,,,,,,,,,,,,,,,,,,,,,,,,,,,,,,,,,,,,,,,,,,,,,
,,,,,767355,001,2024-06-17_10h39.07.060,experiment,2024.1.5,MacIntel,59.88023952,5680253fc5767f00121cc5e2,667045947eb812cbdacbf325,6670498016d44c7364b51ebb,,,,,,,,,,,,,,,,,,,,,,,,,,,,,,,,,,,,,,,,,,,,930.0324,930.9324,4.970872962,0.8939,0,20,20,7,1,song_indices/LikeAPrayer_Madonna.csv,,,,,,,,,,,,,,,,,,,,,,,,,,,,,,,,,,,,,,,,,,,,,,,,
,,,,,767355,001,2024-06-17_10h39.07.060,experiment,2024.1.5,MacIntel,59.88023952,5680253fc5767f00121cc5e2,667045947eb812cbdacbf325,6670498016d44c7364b51ebb,,,,,,,,,,,,,,,,,,,,,,,,,,,,,,,,,,,,930.934,937.0316,0,0,0,0,1,SoundStimuli/HeatWaves_GlassAnimals_Original5S.wav,,,,,,,,,,,,,,,,,,,,,,,,,,,,,,,,,,,,,,,,,,,,,,,,,,,,,,,,,,
,,,,,767355,001,2024-06-17_10h39.07.060,experiment,2024.1.5,MacIntel,59.88023952,5680253fc5767f00121cc5e2,667045947eb812cbdacbf325,6670498016d44c7364b51ebb,,,,,,,,,,,,,,,,,,,,,,,,,,,,,,,,,,,,937.0435,945.6324,0,1,1,1,1,SoundStimuli/HeatWaves_GlassAnimals_Cover5S.wav,,,,,,,,,,,,,,,,,,,,,,,,,,,,,,,,,,,,,,,,,,,,,,,,,,,,,,,,,,
,,,,,767355,001,2024-06-17_10h39.07.060,experiment,2024.1.5,MacIntel,59.88023952,5680253fc5767f00121cc5e2,667045947eb812cbdacbf325,6670498016d44c7364b51ebb,,,,,,,,,,,,,,,,,,,,,,,,,,,,,,,,,,,,,,,,,,,,945.6326,946.4824,4.005477242,0.8279,0,21,21,10,1,song_indices/HeatWaves_GlassAnimals.csv,,,,,,,,,,,,,,,,,,,,,,,,,,,,,,,,,,,,,,,,,,,,,,,,
,,,,,767355,001,2024-06-17_10h39.07.060,experiment,2024.1.5,MacIntel,59.88023952,5680253fc5767f00121cc5e2,667045947eb812cbdacbf325,6670498016d44c7364b51ebb,,,,,,,,,,,,,,,,,,,,,,,,,,,,,,,,,,,,946.484,953.8657,0,0,0,0,1,SoundStimuli/OldTownRoad_LilNasX_Original5S.wav,,,,,,,,,,,,,,,,,,,,,,,,,,,,,,,,,,,,,,,,,,,,,,,,,,,,,,,,,,
,,,,,767355,001,2024-06-17_10h39.07.060,experiment,2024.1.5,MacIntel,59.88023952,5680253fc5767f00121cc5e2,667045947eb812cbdacbf325,6670498016d44c7364b51ebb,,,,,,,,,,,,,,,,,,,,,,,,,,,,,,,,,,,,953.8761,960.3824,0,1,1,1,1,SoundStimuli/OldTownRoad_LilNasX_Cover5S.wav,,,,,,,,,,,,,,,,,,,,,,,,,,,,,,,,,,,,,,,,,,,,,,,,,,,,,,,,,,
,,,,,767355,001,2024-06-17_10h39.07.060,experiment,2024.1.5,MacIntel,59.88023952,5680253fc5767f00121cc5e2,667045947eb812cbdacbf325,6670498016d44c7364b51ebb,,,,,,,,,,,,,,,,,,,,,,,,,,,,,,,,,,,,,,,,,,,,960.3825,961.182,5.497681726,0.785,0,22,22,20,1,song_indices/OldTownRoad_LilNasX.csv,,,,,,,,,,,,,,,,,,,,,,,,,,,,,,,,,,,,,,,,,,,,,,,,
,,,,,767355,001,2024-06-17_10h39.07.060,experiment,2024.1.5,MacIntel,59.88023952,5680253fc5767f00121cc5e2,667045947eb812cbdacbf325,6670498016d44c7364b51ebb,,,,,,,,,,,,,,,,,,,,,,,,,,,,,,,,,,,,,,,,,,,,,,,,,,,,,,961.1822,962.948,space,1.7522,,0,1,1,0,1,choose_song_b1.csv,,,,,,,,,,,,,,,,,,,,,,,,,,,,,,,,,,,,,
,,,,,767355,001,2024-06-17_10h39.07.060,experiment,2024.1.5,MacIntel,59.88023952,5680253fc5767f00121cc5e2,667045947eb812cbdacbf325,6670498016d44c7364b51ebb,,,,,,,,,,,,,,,,,,,,,,,,,,,,,,,,,,,,962.9505,970.682,0,0,0,0,1,SoundStimuli/NoOne_AliciaKeys_Original5S.wav,,,,,,,,,,,,,,,,,,,,,,,,,,,,,,,,,,,,,,,,,,,,,,,,,,,,,,,,,,
,,,,,767355,001,2024-06-17_10h39.07.060,experiment,2024.1.5,MacIntel,59.88023952,5680253fc5767f00121cc5e2,667045947eb812cbdacbf325,6670498016d44c7364b51ebb,,,,,,,,,,,,,,,,,,,,,,,,,,,,,,,,,,,,970.6929,976.8987,0,1,1,1,1,SoundStimuli/NoOne_AliciaKeys_Cover5S.wav,,,,,,,,,,,,,,,,,,,,,,,,,,,,,,,,,,,,,,,,,,,,,,,,,,,,,,,,,,
,,,,,767355,001,2024-06-17_10h39.07.060,experiment,2024.1.5,MacIntel,59.88023952,5680253fc5767f00121cc5e2,667045947eb812cbdacbf325,6670498016d44c7364b51ebb,,,,,,,,,,,,,,,,,,,,,,,,,,,,,,,,,,,,,,,,,,,,976.8989,977.548,4.567289402,0.6359,0,0,0,19,1,song_indices/NoOne_AliciaKeys.csv,,,,,,,,,,,,,,,,,,,,,,,,,,,,,,,,,,,,,,,,,,,,,,,,
,,,,,767355,001,2024-06-17_10h39.07.060,experiment,2024.1.5,MacIntel,59.88023952,5680253fc5767f00121cc5e2,667045947eb812cbdacbf325,6670498016d44c7364b51ebb,,,,,,,,,,,,,,,,,,,,,,,,,,,,,,,,,,,,977.5491,983.8642,0,0,0,1,1,SoundStimuli/ShapeofYou_EdSheeran_Cover5S.wav,,,,,,,,,,,,,,,,,,,,,,,,,,,,,,,,,,,,,,,,,,,,,,,,,,,,,,,,,,
,,,,,767355,001,2024-06-17_10h39.07.060,experiment,2024.1.5,MacIntel,59.88023952,5680253fc5767f00121cc5e2,667045947eb812cbdacbf325,6670498016d44c7364b51ebb,,,,,,,,,,,,,,,,,,,,,,,,,,,,,,,,,,,,983.8741,990.3308,0,1,1,0,1,SoundStimuli/ShapeofYou_EdSheeran_Original5S.wav,,,,,,,,,,,,,,,,,,,,,,,,,,,,,,,,,,,,,,,,,,,,,,,,,,,,,,,,,,
,,,,,767355,001,2024-06-17_10h39.07.060,experiment,2024.1.5,MacIntel,59.88023952,5680253fc5767f00121cc5e2,667045947eb812cbdacbf325,6670498016d44c7364b51ebb,,,,,,,,,,,,,,,,,,,,,,,,,,,,,,,,,,,,,,,,,,,,990.3311,990.965,5.434553329,0.6128,0,1,1,21,1,song_indices/ShapeofYou_EdSheeran.csv,,,,,,,,,,,,,,,,,,,,,,,,,,,,,,,,,,,,,,,,,,,,,,,,
,,,,,767355,001,2024-06-17_10h39.07.060,experiment,2024.1.5,MacIntel,59.88023952,5680253fc5767f00121cc5e2,667045947eb812cbdacbf325,6670498016d44c7364b51ebb,,,,,,,,,,,,,,,,,,,,,,,,,,,,,,,,,,,,990.9666,997.3482,0,0,0,0,1,SoundStimuli/IWillAlwaysLoveYou_WhitneyHouston_Original5S.wav,,,,,,,,,,,,,,,,,,,,,,,,,,,,,,,,,,,,,,,,,,,,,,,,,,,,,,,,,,
,,,,,767355,001,2024-06-17_10h39.07.060,experiment,2024.1.5,MacIntel,59.88023952,5680253fc5767f00121cc5e2,667045947eb812cbdacbf325,6670498016d44c7364b51ebb,,,,,,,,,,,,,,,,,,,,,,,,,,,,,,,,,,,,997.3589,1003.1984,0,1,1,1,1,SoundStimuli/IWillAlwaysLoveYou_WhitneyHouston_Cover5S.wav,,,,,,,,,,,,,,,,,,,,,,,,,,,,,,,,,,,,,,,,,,,,,,,,,,,,,,,,,,
,,,,,767355,001,2024-06-17_10h39.07.060,experiment,2024.1.5,MacIntel,59.88023952,5680253fc5767f00121cc5e2,667045947eb812cbdacbf325,6670498016d44c7364b51ebb,,,,,,,,,,,,,,,,,,,,,,,,,,,,,,,,,,,,,,,,,,,,1003.1987,1004.1306,6.984408967,0.9215,0,2,2,10,1,song_indices/IWillAlwaysLoveYou_WhitneyHouston.csv,,,,,,,,,,,,,,,,,,,,,,,,,,,,,,,,,,,,,,,,,,,,,,,,
,,,,,767355,001,2024-06-17_10h39.07.060,experiment,2024.1.5,MacIntel,59.88023952,5680253fc5767f00121cc5e2,667045947eb812cbdacbf325,6670498016d44c7364b51ebb,,,,,,,,,,,,,,,,,,,,,,,,,,,,,,,,,,,,1004.1319,1010.1981,0,0,0,0,1,SoundStimuli/GoodGollyMissMolly_LittleRichard_Original5S.wav,,,,,,,,,,,,,,,,,,,,,,,,,,,,,,,,,,,,,,,,,,,,,,,,,,,,,,,,,,
,,,,,767355,001,2024-06-17_10h39.07.060,experiment,2024.1.5,MacIntel,59.88023952,5680253fc5767f00121cc5e2,667045947eb812cbdacbf325,6670498016d44c7364b51ebb,,,,,,,,,,,,,,,,,,,,,,,,,,,,,,,,,,,,1010.208,1016.5647,0,1,1,1,1,SoundStimuli/GoodGollyMissMolly_LittleRichard_Cover5S.wav,,,,,,,,,,,,,,,,,,,,,,,,,,,,,,,,,,,,,,,,,,,,,,,,,,,,,,,,,,
,,,,,767355,001,2024-06-17_10h39.07.060,experiment,2024.1.5,MacIntel,59.88023952,5680253fc5767f00121cc5e2,667045947eb812cbdacbf325,6670498016d44c7364b51ebb,,,,,,,,,,,,,,,,,,,,,,,,,,,,,,,,,,,,,,,,,,,,1016.5649,1017.597,4.834451427,1.0213,0,3,3,0,1,song_indices/GoodGollyMissMolly_LittleRichard.csv,,,,,,,,,,,,,,,,,,,,,,,,,,,,,,,,,,,,,,,,,,,,,,,,
,,,,,767355,001,2024-06-17_10h39.07.060,experiment,2024.1.5,MacIntel,59.88023952,5680253fc5767f00121cc5e2,667045947eb812cbdacbf325,6670498016d44c7364b51ebb,,,,,,,,,,,,,,,,,,,,,,,,,,,,,,,,,,,,1017.5978,1024.6136,0,0,0,1,1,SoundStimuli/UptownFunk_MarkRonson_Cover5S.wav,,,,,,,,,,,,,,,,,,,,,,,,,,,,,,,,,,,,,,,,,,,,,,,,,,,,,,,,,,
,,,,,767355,001,2024-06-17_10h39.07.060,experiment,2024.1.5,MacIntel,59.88023952,5680253fc5767f00121cc5e2,667045947eb812cbdacbf325,6670498016d44c7364b51ebb,,,,,,,,,,,,,,,,,,,,,,,,,,,,,,,,,,,,1024.6244,1031.8479,0,1,1,0,1,SoundStimuli/UptownFunk_MarkRonson_Original5S.wav,,,,,,,,,,,,,,,,,,,,,,,,,,,,,,,,,,,,,,,,,,,,,,,,,,,,,,,,,,
,,,,,767355,001,2024-06-17_10h39.07.060,experiment,2024.1.5,MacIntel,59.88023952,5680253fc5767f00121cc5e2,667045947eb812cbdacbf325,6670498016d44c7364b51ebb,,,,,,,,,,,,,,,,,,,,,,,,,,,,,,,,,,,,,,,,,,,,1031.8481,1032.5969,6.697579823,0.7275,0,4,4,15,1,song_indices/UptownFunk_MarkRonson.csv,,,,,,,,,,,,,,,,,,,,,,,,,,,,,,,,,,,,,,,,,,,,,,,,
,,,,,767355,001,2024-06-17_10h39.07.060,experiment,2024.1.5,MacIntel,59.88023952,5680253fc5767f00121cc5e2,667045947eb812cbdacbf325,6670498016d44c7364b51ebb,,,,,,,,,,,,,,,,,,,,,,,,,,,,,,,,,,,,1032.5982,1038.8144,0,0,0,1,1,SoundStimuli/GimmeShelter_RollingStones_Cover5S.wav,,,,,,,,,,,,,,,,,,,,,,,,,,,,,,,,,,,,,,,,,,,,,,,,,,,,,,,,,,
,,,,,767355,001,2024-06-17_10h39.07.060,experiment,2024.1.5,MacIntel,59.88023952,5680253fc5767f00121cc5e2,667045947eb812cbdacbf325,6670498016d44c7364b51ebb,,,,,,,,,,,,,,,,,,,,,,,,,,,,,,,,,,,,1038.8263,1044.9144,0,1,1,0,1,SoundStimuli/GimmeShelter_RollingStones_Original5S.wav,,,,,,,,,,,,,,,,,,,,,,,,,,,,,,,,,,,,,,,,,,,,,,,,,,,,,,,,,,
,,,,,767355,001,2024-06-17_10h39.07.060,experiment,2024.1.5,MacIntel,59.88023952,5680253fc5767f00121cc5e2,667045947eb812cbdacbf325,6670498016d44c7364b51ebb,,,,,,,,,,,,,,,,,,,,,,,,,,,,,,,,,,,,,,,,,,,,1044.9146,1045.5642,4.55638587,0.6333,0,5,5,20,1,song_indices/GimmeShelter_RollingStones.csv,,,,,,,,,,,,,,,,,,,,,,,,,,,,,,,,,,,,,,,,,,,,,,,,
,,,,,767355,001,2024-06-17_10h39.07.060,experiment,2024.1.5,MacIntel,59.88023952,5680253fc5767f00121cc5e2,667045947eb812cbdacbf325,6670498016d44c7364b51ebb,,,,,,,,,,,,,,,,,,,,,,,,,,,,,,,,,,,,1045.5658,1051.4642,0,0,0,0,1,SoundStimuli/EyeOfTheTiger_Survivor_Original5S.wav,,,,,,,,,,,,,,,,,,,,,,,,,,,,,,,,,,,,,,,,,,,,,,,,,,,,,,,,,,
,,,,,767355,001,2024-06-17_10h39.07.060,experiment,2024.1.5,MacIntel,59.88023952,5680253fc5767f00121cc5e2,667045947eb812cbdacbf325,6670498016d44c7364b51ebb,,,,,,,,,,,,,,,,,,,,,,,,,,,,,,,,,,,,1051.4752,1057.5974,0,1,1,1,1,SoundStimuli/EyeOfTheTiger_Survivor_Cover5S.wav,,,,,,,,,,,,,,,,,,,,,,,,,,,,,,,,,,,,,,,,,,,,,,,,,,,,,,,,,,
,,,,,767355,001,2024-06-17_10h39.07.060,experiment,2024.1.5,MacIntel,59.88023952,5680253fc5767f00121cc5e2,667045947eb812cbdacbf325,6670498016d44c7364b51ebb,,,,,,,,,,,,,,,,,,,,,,,,,,,,,,,,,,,,,,,,,,,,1057.5977,1058.2307,5.200738791,0.6085,0,6,6,11,1,song_indices/EyeOfTheTiger_Survivor.csv,,,,,,,,,,,,,,,,,,,,,,,,,,,,,,,,,,,,,,,,,,,,,,,,
,,,,,767355,001,2024-06-17_10h39.07.060,experiment,2024.1.5,MacIntel,59.88023952,5680253fc5767f00121cc5e2,667045947eb812cbdacbf325,6670498016d44c7364b51ebb,,,,,,,,,,,,,,,,,,,,,,,,,,,,,,,,,,,,1058.2325,1065.014,0,0,0,1,1,SoundStimuli/PartyRockAnthem_LMFAO_Cover5S.wav,,,,,,,,,,,,,,,,,,,,,,,,,,,,,,,,,,,,,,,,,,,,,,,,,,,,,,,,,,
,,,,,767355,001,2024-06-17_10h39.07.060,experiment,2024.1.5,MacIntel,59.88023952,5680253fc5767f00121cc5e2,667045947eb812cbdacbf325,6670498016d44c7364b51ebb,,,,,,,,,,,,,,,,,,,,,,,,,,,,,,,,,,,,1065.0238,1071.763,0,1,1,0,1,SoundStimuli/PartyRockAnthem_LMFAO_Original5S.wav,,,,,,,,,,,,,,,,,,,,,,,,,,,,,,,,,,,,,,,,,,,,,,,,,,,,,,,,,,
,,,,,767355,001,2024-06-17_10h39.07.060,experiment,2024.1.5,MacIntel,59.88023952,5680253fc5767f00121cc5e2,667045947eb812cbdacbf325,6670498016d44c7364b51ebb,,,,,,,,,,,,,,,,,,,,,,,,,,,,,,,,,,,,,,,,,,,,1071.7633,1072.5471,4.962109375,0.7624,0,7,7,2,1,song_indices/PartyRockAnthem_LMFAO.csv,,,,,,,,,,,,,,,,,,,,,,,,,,,,,,,,,,,,,,,,,,,,,,,,
,,,,,767355,001,2024-06-17_10h39.07.060,experiment,2024.1.5,MacIntel,59.88023952,5680253fc5767f00121cc5e2,667045947eb812cbdacbf325,6670498016d44c7364b51ebb,,,,,,,,,,,,,,,,,,,,,,,,,,,,,,,,,,,,1072.5487,1078.497,0,0,0,1,1,SoundStimuli/TheBoyIsMine_BrandyMonica_Cover5S.wav,,,,,,,,,,,,,,,,,,,,,,,,,,,,,,,,,,,,,,,,,,,,,,,,,,,,,,,,,,
,,,,,767355,001,2024-06-17_10h39.07.060,experiment,2024.1.5,MacIntel,59.88023952,5680253fc5767f00121cc5e2,667045947eb812cbdacbf325,6670498016d44c7364b51ebb,,,,,,,,,,,,,,,,,,,,,,,,,,,,,,,,,,,,1078.509,1084.713,0,1,1,0,1,SoundStimuli/TheBoyIsMine_BrandyMonica_Original5S.wav,,,,,,,,,,,,,,,,,,,,,,,,,,,,,,,,,,,,,,,,,,,,,,,,,,,,,,,,,,
,,,,,767355,001,2024-06-17_10h39.07.060,experiment,2024.1.5,MacIntel,59.88023952,5680253fc5767f00121cc5e2,667045947eb812cbdacbf325,6670498016d44c7364b51ebb,,,,,,,,,,,,,,,,,,,,,,,,,,,,,,,,,,,,,,,,,,,,1084.7133,1085.7795,6.009612772,1.0443,0,8,8,6,1,song_indices/TheBoyIsMine_BrandyMonica.csv,,,,,,,,,,,,,,,,,,,,,,,,,,,,,,,,,,,,,,,,,,,,,,,,
,,,,,767355,001,2024-06-17_10h39.07.060,experiment,2024.1.5,MacIntel,59.88023952,5680253fc5767f00121cc5e2,667045947eb812cbdacbf325,6670498016d44c7364b51ebb,,,,,,,,,,,,,,,,,,,,,,,,,,,,,,,,,,,,1085.781,1091.9969,0,0,0,0,1,SoundStimuli/SmellsLikeTeenSpirit_Nirvana_Original5S.wav,,,,,,,,,,,,,,,,,,,,,,,,,,,,,,,,,,,,,,,,,,,,,,,,,,,,,,,,,,
,,,,,767355,001,2024-06-17_10h39.07.060,experiment,2024.1.5,MacIntel,59.88023952,5680253fc5767f00121cc5e2,667045947eb812cbdacbf325,6670498016d44c7364b51ebb,,,,,,,,,,,,,,,,,,,,,,,,,,,,,,,,,,,,1092.0067,1097.7794,0,1,1,1,1,SoundStimuli/SmellsLikeTeenSpirit_Nirvana_Cover5S.wav,,,,,,,,,,,,,,,,,,,,,,,,,,,,,,,,,,,,,,,,,,,,,,,,,,,,,,,,,,
,,,,,767355,001,2024-06-17_10h39.07.060,experiment,2024.1.5,MacIntel,59.88023952,5680253fc5767f00121cc5e2,667045947eb812cbdacbf325,6670498016d44c7364b51ebb,,,,,,,,,,,,,,,,,,,,,,,,,,,,,,,,,,,,,,,,,,,,1097.7797,1098.963,6.013688859,1.1727,0,9,9,8,1,song_indices/SmellsLikeTeenSpirit_Nirvana.csv,,,,,,,,,,,,,,,,,,,,,,,,,,,,,,,,,,,,,,,,,,,,,,,,
,,,,,767355,001,2024-06-17_10h39.07.060,experiment,2024.1.5,MacIntel,59.88023952,5680253fc5767f00121cc5e2,667045947eb812cbdacbf325,6670498016d44c7364b51ebb,,,,,,,,,,,,,,,,,,,,,,,,,,,,,,,,,,,,1098.9643,1105.0458,0,0,0,0,1,SoundStimuli/GetUrFreakOn_MissyElliot_Original5S.wav,,,,,,,,,,,,,,,,,,,,,,,,,,,,,,,,,,,,,,,,,,,,,,,,,,,,,,,,,,
,,,,,767355,001,2024-06-17_10h39.07.060,experiment,2024.1.5,MacIntel,59.88023952,5680253fc5767f00121cc5e2,667045947eb812cbdacbf325,6670498016d44c7364b51ebb,,,,,,,,,,,,,,,,,,,,,,,,,,,,,,,,,,,,1105.0566,1111.6301,0,1,1,1,1,SoundStimuli/GetUrFreakOn_MissyElliot_Cover5S.wav,,,,,,,,,,,,,,,,,,,,,,,,,,,,,,,,,,,,,,,,,,,,,,,,,,,,,,,,,,
,,,,,767355,001,2024-06-17_10h39.07.060,experiment,2024.1.5,MacIntel,59.88023952,5680253fc5767f00121cc5e2,667045947eb812cbdacbf325,6670498016d44c7364b51ebb,,,,,,,,,,,,,,,,,,,,,,,,,,,,,,,,,,,,,,,,,,,,1111.6303,1112.5466,5.017722486,0.8949,0,10,10,18,1,song_indices/GetUrFreakOn_MissyElliot.csv,,,,,,,,,,,,,,,,,,,,,,,,,,,,,,,,,,,,,,,,,,,,,,,,
,,,,,767355,001,2024-06-17_10h39.07.060,experiment,2024.1.5,MacIntel,59.88023952,5680253fc5767f00121cc5e2,667045947eb812cbdacbf325,6670498016d44c7364b51ebb,,,,,,,,,,,,,,,,,,,,,,,,,,,,,,,,,,,,1112.5482,1121.4623,0,0,0,1,1,SoundStimuli/HeyYa_Outkast_Cover5S.wav,,,,,,,,,,,,,,,,,,,,,,,,,,,,,,,,,,,,,,,,,,,,,,,,,,,,,,,,,,
,,,,,767355,001,2024-06-17_10h39.07.060,experiment,2024.1.5,MacIntel,59.88023952,5680253fc5767f00121cc5e2,667045947eb812cbdacbf325,6670498016d44c7364b51ebb,,,,,,,,,,,,,,,,,,,,,,,,,,,,,,,,,,,,1121.473,1127.7622,0,1,1,0,1,SoundStimuli/HeyYa_Outkast_Original5S.wav,,,,,,,,,,,,,,,,,,,,,,,,,,,,,,,,,,,,,,,,,,,,,,,,,,,,,,,,,,
,,,,,767355,001,2024-06-17_10h39.07.060,experiment,2024.1.5,MacIntel,59.88023952,5680253fc5767f00121cc5e2,667045947eb812cbdacbf325,6670498016d44c7364b51ebb,,,,,,,,,,,,,,,,,,,,,,,,,,,,,,,,,,,,,,,,,,,,1127.7626,1128.9788,3.082396399,1.1931,0,11,11,22,1,song_indices/HeyYa_Outkast.csv,,,,,,,,,,,,,,,,,,,,,,,,,,,,,,,,,,,,,,,,,,,,,,,,
,,,,,767355,001,2024-06-17_10h39.07.060,experiment,2024.1.5,MacIntel,59.88023952,5680253fc5767f00121cc5e2,667045947eb812cbdacbf325,6670498016d44c7364b51ebb,,,,,,,,,,,,,,,,,,,,,,,,,,,,,,,,,,,,1128.9805,1135.3129,0,0,0,0,1,SoundStimuli/RockWithYou_MichaelJackson_Original5S.wav,,,,,,,,,,,,,,,,,,,,,,,,,,,,,,,,,,,,,,,,,,,,,,,,,,,,,,,,,,
,,,,,767355,001,2024-06-17_10h39.07.060,experiment,2024.1.5,MacIntel,59.88023952,5680253fc5767f00121cc5e2,667045947eb812cbdacbf325,6670498016d44c7364b51ebb,,,,,,,,,,,,,,,,,,,,,,,,,,,,,,,,,,,,1135.3227,1141.3795,0,1,1,1,1,SoundStimuli/RockWithYou_MichaelJackson_Cover5S.wav,,,,,,,,,,,,,,,,,,,,,,,,,,,,,,,,,,,,,,,,,,,,,,,,,,,,,,,,,,
,,,,,767355,001,2024-06-17_10h39.07.060,experiment,2024.1.5,MacIntel,59.88023952,5680253fc5767f00121cc5e2,667045947eb812cbdacbf325,6670498016d44c7364b51ebb,,,,,,,,,,,,,,,,,,,,,,,,,,,,,,,,,,,,,,,,,,,,1141.3797,1142.5461,4.03681216,1.1438,0,12,12,16,1,song_indices/RockWithYou_MichaelJackson.csv,,,,,,,,,,,,,,,,,,,,,,,,,,,,,,,,,,,,,,,,,,,,,,,,
,,,,,767355,001,2024-06-17_10h39.07.060,experiment,2024.1.5,MacIntel,59.88023952,5680253fc5767f00121cc5e2,667045947eb812cbdacbf325,6670498016d44c7364b51ebb,,,,,,,,,,,,,,,,,,,,,,,,,,,,,,,,,,,,1142.5479,1149.9118,0,0,0,1,1,SoundStimuli/Happy_PharellWilliams_Cover5S.wav,,,,,,,,,,,,,,,,,,,,,,,,,,,,,,,,,,,,,,,,,,,,,,,,,,,,,,,,,,
,,,,,767355,001,2024-06-17_10h39.07.060,experiment,2024.1.5,MacIntel,59.88023952,5680253fc5767f00121cc5e2,667045947eb812cbdacbf325,6670498016d44c7364b51ebb,,,,,,,,,,,,,,,,,,,,,,,,,,,,,,,,,,,,1149.9219,1157.2784,0,1,1,0,1,SoundStimuli/Happy_PharellWilliams_Original5S.wav,,,,,,,,,,,,,,,,,,,,,,,,,,,,,,,,,,,,,,,,,,,,,,,,,,,,,,,,,,
,,,,,767355,001,2024-06-17_10h39.07.060,experiment,2024.1.5,MacIntel,59.88023952,5680253fc5767f00121cc5e2,667045947eb812cbdacbf325,6670498016d44c7364b51ebb,,,,,,,,,,,,,,,,,,,,,,,,,,,,,,,,,,,,,,,,,,,,1157.2785,1157.7793,4.934264606,0.4804,0,13,13,7,1,song_indices/Happy_PharellWilliams.csv,,,,,,,,,,,,,,,,,,,,,,,,,,,,,,,,,,,,,,,,,,,,,,,,
,,,,,767355,001,2024-06-17_10h39.07.060,experiment,2024.1.5,MacIntel,59.88023952,5680253fc5767f00121cc5e2,667045947eb812cbdacbf325,6670498016d44c7364b51ebb,,,,,,,,,,,,,,,,,,,,,,,,,,,,,,,,,,,,1157.781,1163.9125,0,0,0,1,1,SoundStimuli/NoScrubs_TLC_Cover5S.wav,,,,,,,,,,,,,,,,,,,,,,,,,,,,,,,,,,,,,,,,,,,,,,,,,,,,,,,,,,
,,,,,767355,001,2024-06-17_10h39.07.060,experiment,2024.1.5,MacIntel,59.88023952,5680253fc5767f00121cc5e2,667045947eb812cbdacbf325,6670498016d44c7364b51ebb,,,,,,,,,,,,,,,,,,,,,,,,,,,,,,,,,,,,1163.9251,1170.1118,0,1,1,0,1,SoundStimuli/NoScrubs_TLC_Original5S.wav,,,,,,,,,,,,,,,,,,,,,,,,,,,,,,,,,,,,,,,,,,,,,,,,,,,,,,,,,,
,,,,,767355,001,2024-06-17_10h39.07.060,experiment,2024.1.5,MacIntel,59.88023952,5680253fc5767f00121cc5e2,667045947eb812cbdacbf325,6670498016d44c7364b51ebb,,,,,,,,,,,,,,,,,,,,,,,,,,,,,,,,,,,,,,,,,,,,1170.1121,1171.6112,5.917238451,1.4874,0,14,14,14,1,song_indices/NoScrubs_TLC.csv,,,,,,,,,,,,,,,,,,,,,,,,,,,,,,,,,,,,,,,,,,,,,,,,
,,,,,767355,001,2024-06-17_10h39.07.060,experiment,2024.1.5,MacIntel,59.88023952,5680253fc5767f00121cc5e2,667045947eb812cbdacbf325,6670498016d44c7364b51ebb,,,,,,,,,,,,,,,,,,,,,,,,,,,,,,,,,,,,1171.6124,1177.8457,0,0,0,1,1,SoundStimuli/ItsAllInTheGame_TommyEdwards_Cover5S.wav,,,,,,,,,,,,,,,,,,,,,,,,,,,,,,,,,,,,,,,,,,,,,,,,,,,,,,,,,,
,,,,,767355,001,2024-06-17_10h39.07.060,experiment,2024.1.5,MacIntel,59.88023952,5680253fc5767f00121cc5e2,667045947eb812cbdacbf325,6670498016d44c7364b51ebb,,,,,,,,,,,,,,,,,,,,,,,,,,,,,,,,,,,,1177.857,1184.1118,0,1,1,0,1,SoundStimuli/ItsAllInTheGame_TommyEdwards_Original5S.wav,,,,,,,,,,,,,,,,,,,,,,,,,,,,,,,,,,,,,,,,,,,,,,,,,,,,,,,,,,
,,,,,767355,001,2024-06-17_10h39.07.060,experiment,2024.1.5,MacIntel,59.88023952,5680253fc5767f00121cc5e2,667045947eb812cbdacbf325,6670498016d44c7364b51ebb,,,,,,,,,,,,,,,,,,,,,,,,,,,,,,,,,,,,,,,,,,,,1184.112,1185.262,5.965438179,1.14,0,15,15,13,1,song_indices/ItsAllInTheGame_TommyEdwards.csv,,,,,,,,,,,,,,,,,,,,,,,,,,,,,,,,,,,,,,,,,,,,,,,,
,,,,,767355,001,2024-06-17_10h39.07.060,experiment,2024.1.5,MacIntel,59.88023952,5680253fc5767f00121cc5e2,667045947eb812cbdacbf325,6670498016d44c7364b51ebb,,,,,,,,,,,,,,,,,,,,,,,,,,,,,,,,,,,,1185.263,1192.412,0,0,0,1,1,SoundStimuli/IWalkTheLine_JohnnyCash_Cover5S.wav,,,,,,,,,,,,,,,,,,,,,,,,,,,,,,,,,,,,,,,,,,,,,,,,,,,,,,,,,,
,,,,,767355,001,2024-06-17_10h39.07.060,experiment,2024.1.5,MacIntel,59.88023952,5680253fc5767f00121cc5e2,667045947eb812cbdacbf325,6670498016d44c7364b51ebb,,,,,,,,,,,,,,,,,,,,,,,,,,,,,,,,,,,,1192.4237,1198.3953,0,1,1,0,1,SoundStimuli/IWalkTheLine_JohnnyCash_Original5S.wav,,,,,,,,,,,,,,,,,,,,,,,,,,,,,,,,,,,,,,,,,,,,,,,,,,,,,,,,,,
,,,,,767355,001,2024-06-17_10h39.07.060,experiment,2024.1.5,MacIntel,59.88023952,5680253fc5767f00121cc5e2,667045947eb812cbdacbf325,6670498016d44c7364b51ebb,,,,,,,,,,,,,,,,,,,,,,,,,,,,,,,,,,,,,,,,,,,,1198.3955,1199.2452,4.020584239,0.8271,0,16,16,17,1,song_indices/IWalkTheLine_JohnnyCash.csv,,,,,,,,,,,,,,,,,,,,,,,,,,,,,,,,,,,,,,,,,,,,,,,,
,,,,,767355,001,2024-06-17_10h39.07.060,experiment,2024.1.5,MacIntel,59.88023952,5680253fc5767f00121cc5e2,667045947eb812cbdacbf325,6670498016d44c7364b51ebb,,,,,,,,,,,,,,,,,,,,,,,,,,,,,,,,,,,,1199.2467,1209.4947,0,0,0,1,1,SoundStimuli/CrazyInLove_BeyonceFtJayZ_Cover5S.wav,,,,,,,,,,,,,,,,,,,,,,,,,,,,,,,,,,,,,,,,,,,,,,,,,,,,,,,,,,
,,,,,767355,001,2024-06-17_10h39.07.060,experiment,2024.1.5,MacIntel,59.88023952,5680253fc5767f00121cc5e2,667045947eb812cbdacbf325,6670498016d44c7364b51ebb,,,,,,,,,,,,,,,,,,,,,,,,,,,,,,,,,,,,1209.5041,1216.0448,0,1,1,0,1,SoundStimuli/CrazyInLove_BeyonceFtJayZ_Original5S.wav,,,,,,,,,,,,,,,,,,,,,,,,,,,,,,,,,,,,,,,,,,,,,,,,,,,,,,,,,,
,,,,,767355,001,2024-06-17_10h39.07.060,experiment,2024.1.5,MacIntel,59.88023952,5680253fc5767f00121cc5e2,667045947eb812cbdacbf325,6670498016d44c7364b51ebb,,,,,,,,,,,,,,,,,,,,,,,,,,,,,,,,,,,,,,,,,,,,1216.0448,1216.6615,3.490234375,0.6046,0,17,17,3,1,song_indices/CrazyInLove_BeyonceFtJayZ.csv,,,,,,,,,,,,,,,,,,,,,,,,,,,,,,,,,,,,,,,,,,,,,,,,
,,,,,767355,001,2024-06-17_10h39.07.060,experiment,2024.1.5,MacIntel,59.88023952,5680253fc5767f00121cc5e2,667045947eb812cbdacbf325,6670498016d44c7364b51ebb,,,,,,,,,,,,,,,,,,,,,,,,,,,,,,,,,,,,1216.6627,1224.6449,0,0,0,1,1,SoundStimuli/TheBattleOfNewOrleans_JohnnyHorton_Cover5S.wav,,,,,,,,,,,,,,,,,,,,,,,,,,,,,,,,,,,,,,,,,,,,,,,,,,,,,,,,,,
,,,,,767355,001,2024-06-17_10h39.07.060,experiment,2024.1.5,MacIntel,59.88023952,5680253fc5767f00121cc5e2,667045947eb812cbdacbf325,6670498016d44c7364b51ebb,,,,,,,,,,,,,,,,,,,,,,,,,,,,,,,,,,,,1224.6552,1230.8618,0,1,1,0,1,SoundStimuli/TheBattleOfNewOrleans_JohnnyHorton_Original5S.wav,,,,,,,,,,,,,,,,,,,,,,,,,,,,,,,,,,,,,,,,,,,,,,,,,,,,,,,,,,
,,,,,767355,001,2024-06-17_10h39.07.060,experiment,2024.1.5,MacIntel,59.88023952,5680253fc5767f00121cc5e2,667045947eb812cbdacbf325,6670498016d44c7364b51ebb,,,,,,,,,,,,,,,,,,,,,,,,,,,,,,,,,,,,,,,,,,,,1230.862,1231.5282,3.984765625,0.6465,0,18,18,4,1,song_indices/TheBattleOfNewOrleans_JohnnyHorton.csv,,,,,,,,,,,,,,,,,,,,,,,,,,,,,,,,,,,,,,,,,,,,,,,,
,,,,,767355,001,2024-06-17_10h39.07.060,experiment,2024.1.5,MacIntel,59.88023952,5680253fc5767f00121cc5e2,667045947eb812cbdacbf325,6670498016d44c7364b51ebb,,,,,,,,,,,,,,,,,,,,,,,,,,,,,,,,,,,,1231.5297,1237.7113,0,0,0,0,1,SoundStimuli/Fallin_AliciaKeys_Original5S.wav,,,,,,,,,,,,,,,,,,,,,,,,,,,,,,,,,,,,,,,,,,,,,,,,,,,,,,,,,,
,,,,,767355,001,2024-06-17_10h39.07.060,experiment,2024.1.5,MacIntel,59.88023952,5680253fc5767f00121cc5e2,667045947eb812cbdacbf325,6670498016d44c7364b51ebb,,,,,,,,,,,,,,,,,,,,,,,,,,,,,,,,,,,,1237.7216,1244.1436,0,1,1,1,1,SoundStimuli/Fallin_AliciaKeys_Cover5S.wav,,,,,,,,,,,,,,,,,,,,,,,,,,,,,,,,,,,,,,,,,,,,,,,,,,,,,,,,,,
,,,,,767355,001,2024-06-17_10h39.07.060,experiment,2024.1.5,MacIntel,59.88023952,5680253fc5767f00121cc5e2,667045947eb812cbdacbf325,6670498016d44c7364b51ebb,,,,,,,,,,,,,,,,,,,,,,,,,,,,,,,,,,,,,,,,,,,,1244.1439,1244.7938,5.038688859,0.6381,0,19,19,12,1,song_indices/Fallin_AliciaKeys.csv,,,,,,,,,,,,,,,,,,,,,,,,,,,,,,,,,,,,,,,,,,,,,,,,
,,,,,767355,001,2024-06-17_10h39.07.060,experiment,2024.1.5,MacIntel,59.88023952,5680253fc5767f00121cc5e2,667045947eb812cbdacbf325,6670498016d44c7364b51ebb,,,,,,,,,,,,,,,,,,,,,,,,,,,,,,,,,,,,1244.7951,1250.7278,0,0,0,0,1,SoundStimuli/StandByMe_BenEKing_Original5S.wav,,,,,,,,,,,,,,,,,,,,,,,,,,,,,,,,,,,,,,,,,,,,,,,,,,,,,,,,,,
,,,,,767355,001,2024-06-17_10h39.07.060,experiment,2024.1.5,MacIntel,59.88023952,5680253fc5767f00121cc5e2,667045947eb812cbdacbf325,6670498016d44c7364b51ebb,,,,,,,,,,,,,,,,,,,,,,,,,,,,,,,,,,,,1250.738,1256.7608,0,1,1,1,1,SoundStimuli/StandByMe_BenEKing_Cover5S.wav,,,,,,,,,,,,,,,,,,,,,,,,,,,,,,,,,,,,,,,,,,,,,,,,,,,,,,,,,,
,,,,,767355,001,2024-06-17_10h39.07.060,experiment,2024.1.5,MacIntel,59.88023952,5680253fc5767f00121cc5e2,667045947eb812cbdacbf325,6670498016d44c7364b51ebb,,,,,,,,,,,,,,,,,,,,,,,,,,,,,,,,,,,,,,,,,,,,1256.761,1257.6269,3.998879076,0.8524,0,20,20,1,1,song_indices/StandByMe_BenEKing.csv,,,,,,,,,,,,,,,,,,,,,,,,,,,,,,,,,,,,,,,,,,,,,,,,
,,,,,767355,001,2024-06-17_10h39.07.060,experiment,2024.1.5,MacIntel,59.88023952,5680253fc5767f00121cc5e2,667045947eb812cbdacbf325,6670498016d44c7364b51ebb,,,,,,,,,,,,,,,,,,,,,,,,,,,,,,,,,,,,1257.6279,1263.6943,0,0,0,0,1,SoundStimuli/Stronger_KanyeWest_Original5S.wav,,,,,,,,,,,,,,,,,,,,,,,,,,,,,,,,,,,,,,,,,,,,,,,,,,,,,,,,,,
,,,,,767355,001,2024-06-17_10h39.07.060,experiment,2024.1.5,MacIntel,59.88023952,5680253fc5767f00121cc5e2,667045947eb812cbdacbf325,6670498016d44c7364b51ebb,,,,,,,,,,,,,,,,,,,,,,,,,,,,,,,,,,,,1263.7058,1270.0266,0,1,1,1,1,SoundStimuli/Stronger_KanyeWest_Cover5S.wav,,,,,,,,,,,,,,,,,,,,,,,,,,,,,,,,,,,,,,,,,,,,,,,,,,,,,,,,,,
,,,,,767355,001,2024-06-17_10h39.07.060,experiment,2024.1.5,MacIntel,59.88023952,5680253fc5767f00121cc5e2,667045947eb812cbdacbf325,6670498016d44c7364b51ebb,,,,,,,,,,,,,,,,,,,,,,,,,,,,,,,,,,,,,,,,,,,,1270.0268,1270.744,3.881615149,0.7049,0,21,21,9,1,song_indices/Stronger_KanyeWest.csv,,,,,,,,,,,,,,,,,,,,,,,,,,,,,,,,,,,,,,,,,,,,,,,,
,,,,,767355,001,2024-06-17_10h39.07.060,experiment,2024.1.5,MacIntel,59.88023952,5680253fc5767f00121cc5e2,667045947eb812cbdacbf325,6670498016d44c7364b51ebb,,,,,,,,,,,,,,,,,,,,,,,,,,,,,,,,,,,,1270.7454,1276.9608,0,0,0,0,1,SoundStimuli/BetteDavisEyes_KimCarnes_Original5S.wav,,,,,,,,,,,,,,,,,,,,,,,,,,,,,,,,,,,,,,,,,,,,,,,,,,,,,,,,,,
,,,,,767355,001,2024-06-17_10h39.07.060,experiment,2024.1.5,MacIntel,59.88023952,5680253fc5767f00121cc5e2,667045947eb812cbdacbf325,6670498016d44c7364b51ebb,,,,,,,,,,,,,,,,,,,,,,,,,,,,,,,,,,,,1276.9707,1282.6606,0,1,1,1,1,SoundStimuli/BetteDavisEyes_KimCarnes_Cover5S.wav,,,,,,,,,,,,,,,,,,,,,,,,,,,,,,,,,,,,,,,,,,,,,,,,,,,,,,,,,,
,,,,,767355,001,2024-06-17_10h39.07.060,experiment,2024.1.5,MacIntel,59.88023952,5680253fc5767f00121cc5e2,667045947eb812cbdacbf325,6670498016d44c7364b51ebb,,,,,,,,,,,,,,,,,,,,,,,,,,,,,,,,,,,,,,,,,,,,1282.6608,1283.2272,4.94007303,0.5547,0,22,22,5,1,song_indices/BetteDavisEyes_KimCarnes.csv,,,,,,,,,,,,,,,,,,,,,,,,,,,,,,,,,,,,,,,,,,,,,,,,
,,,,,767355,001,2024-06-17_10h39.07.060,experiment,2024.1.5,MacIntel,59.88023952,5680253fc5767f00121cc5e2,667045947eb812cbdacbf325,6670498016d44c7364b51ebb,,,,,,,,,,,,,,,,,,,,,,,,,,,,,,,,,,,,,,,,,,,,,,,,,,,,,,1283.2273,1283.2275,,,,0,2,2,1,1,choose_song_b2.csv,,,,,,,,,,,,,,,,,,,,,,,,,,,,,,,,,,,,,
,,,,,767355,001,2024-06-17_10h39.07.060,experiment,2024.1.5,MacIntel,59.88023952,5680253fc5767f00121cc5e2,667045947eb812cbdacbf325,6670498016d44c7364b51ebb,,,,,,,,,,,,,,,,,,,,,,,,,,,,,,,,,,,,,,,,,,,,,,,,,,,,,,,,,,,,,,,,,48,Item 2,not a musician,Item 3,"YouTube Music (sub), Apple Music library.",4,6,"driving, chores around the home, workout.",Rarely,Often,Rarely,Sometimes,Sometimes,Often,Sometimes,Rarely,Rarely,Often,Rarely,Sometimes,Often,Sometimes,Sometimes,Often,Movie soundtracks & scores. Broadway.,Classical,Alternative,Classic Rock,Haven't changed much in regards to the type of music i like.,N/A,0,0,0,0,1,,
,,,,,767355,001,2024-06-17_10h39.07.060,experiment,2024.1.5,MacIntel,59.88023952,5680253fc5767f00121cc5e2,667045947eb812cbdacbf325,6670498016d44c7364b51ebb,,,,,,,,,,,,,,,,,,,,,,,,,,,,,,,,,,,,,,,,,,,,,,,,,,,,,,,,,,,,,,,,,,,,,,,,,,,,,,,,,,,,,,,,,,,,,,,,,,,,1543.8279,1546.0404
