welcome.started,welcome.stopped,space_to_continue.keys,space_to_continue.rt,space_to_continue.duration,participant,session,date,expName,psychopyVersion,OS,frameRate,PROLIFIC_PID,STUDY_ID,SESSION_ID,consent.consent,consent.consent_recontact,consent_check.started,consent_check.stopped,calibration_ready.started,calibration_ready.stopped,cal_ready.keys,cal_ready.rt,cal_ready.duration,calibration.started,calibration.stopped,mouse.x,mouse.y,mouse.leftButton,mouse.midButton,mouse.rightButton,mouse.time,mouse.clicked_name,move_on.keys,move_on.rt,move_on.duration,instructions.started,instructions.stopped,next.keys,next.rt,next.duration,practice_trial.started,practice_trial.stopped,practice_slider.response,practice_slider.rt,ready.started,ready.stopped,key_resp.keys,key_resp.rt,key_resp.duration,play_sound.started,play_sound.stopped,trials.thisRepN,trials.thisTrialN,trials.thisN,trials.thisIndex,trials.ran,orig_or_cover,rating.started,rating.stopped,slider.response,slider.rt,songs.thisRepN,songs.thisTrialN,songs.thisN,songs.thisIndex,songs.ran,song_id,short_break.started,short_break.stopped,space_to_move_on.keys,space_to_move_on.rt,space_to_move_on.duration,blocks.thisRepN,blocks.thisTrialN,blocks.thisN,blocks.thisIndex,blocks.ran,block,survey.age,survey.musician,survey.music_making,survey.listen_time,survey.medium,survey.music_seeking,survey.music_choice,survey.activities,survey.question1.R&B,survey.question1.Disco,survey.question1.Reggae,survey.question1.Classical,survey.question1.Pop,survey.question1.Alternative rock,survey.question1.Latin,survey.question1.Electronic (EDM),survey.question1.Ambient,survey.question1.Jazz,survey.question1.Metal,survey.question1.Hip hop,survey.question1.Country,survey.question1.A cappella,survey.question1.Folk/indie,survey.question1.Classic rock,survey.other_genres,survey.genres_ranked.text1,survey.genres_ranked.text2,survey.genres_ranked.text3,survey.habit_change,survey.habits,experiment.thisRepN,experiment.thisTrialN,experiment.thisN,experiment.thisIndex,experiment.ran,goodbye.started,goodbye.stopped
0.0007,1.4574,space,1.4438,,806156,001,2024-06-17_11h00.51.690,experiment,2024.1.5,Win32,59.17159763,56780a5a89319e0011644cb4,667045947eb812cbdacbf325,66704f10306633c432245734,,,,,,,,,,,,,,,,,,,,,,,,,,,,,,,,,,,,,,,,,,,,,,,,,,,,,,,,,,,,,,,,,,,,,,,,,,,,,,,,,,,,,,,,,,,,,,,,,,,,,
,,,,,806156,001,2024-06-17_11h00.51.690,experiment,2024.1.5,Win32,59.17159763,56780a5a89319e0011644cb4,667045947eb812cbdacbf325,66704f10306633c432245734,yes,yes,,,,,,,,,,,,,,,,,,,,,,,,,,,,,,,,,,,,,,,,,,,,,,,,,,,,,,,,,,,,,,,,,,,,,,,,,,,,,,,,,,,,,,,,,,,,,,,,,,,
,,,,,806156,001,2024-06-17_11h00.51.690,experiment,2024.1.5,Win32,59.17159763,56780a5a89319e0011644cb4,667045947eb812cbdacbf325,66704f10306633c432245734,,,12.5176,12.5178,,,,,,,,,,,,,,,,,,,,,,,,,,,,,,,,,,,,,,,,,,,,,,,,,,,,,,,,,,,,,,,,,,,,,,,,,,,,,,,,,,,,,,,,,,,,,,,,,
,,,,,806156,001,2024-06-17_11h00.51.690,experiment,2024.1.5,Win32,59.17159763,56780a5a89319e0011644cb4,667045947eb812cbdacbf325,66704f10306633c432245734,,,,,12.519,16.2157,space,3.6684,,16.2159,30.0971,[-0.032407407407407406],[-0.4009259541829427],[1],[0],[0],[11.860799999998882],[],right,3.8499,,30.0975,40.1523,space,10.028,,40.1524,55.928,5,15.7643,55.9291,57.6156,space,1.6677,,57.6407,63.8425,0,0,0,0,1,SoundStimuli/TheBoyIsMine_BrandyMonica_Original5S.wav,,,,,,,,,,,,,,,,,,,,,,,,,,,,,,,,,,,,,,,,,,,,,,,,,,,,,,,,,,
,,,,,806156,001,2024-06-17_11h00.51.690,experiment,2024.1.5,Win32,59.17159763,56780a5a89319e0011644cb4,667045947eb812cbdacbf325,66704f10306633c432245734,,,,,,,,,,,,,,,,,,,,,,,,,,,,,,,,,,,,63.8431,69.7916,0,1,1,1,1,SoundStimuli/TheBoyIsMine_BrandyMonica_Cover5S.wav,,,,,,,,,,,,,,,,,,,,,,,,,,,,,,,,,,,,,,,,,,,,,,,,,,,,,,,,,,
,,,,,806156,001,2024-06-17_11h00.51.690,experiment,2024.1.5,Win32,59.17159763,56780a5a89319e0011644cb4,667045947eb812cbdacbf325,66704f10306633c432245734,,,,,,,,,,,,,,,,,,,,,,,,,,,,,,,,,,,,,,,,,,,,69.7988,71.0417,3.983333588,1.23,0,0,0,6,1,song_indices/TheBoyIsMine_BrandyMonica.csv,,,,,,,,,,,,,,,,,,,,,,,,,,,,,,,,,,,,,,,,,,,,,,,,
,,,,,806156,001,2024-06-17_11h00.51.690,experiment,2024.1.5,Win32,59.17159763,56780a5a89319e0011644cb4,667045947eb812cbdacbf325,66704f10306633c432245734,,,,,,,,,,,,,,,,,,,,,,,,,,,,,,,,,,,,71.0432,81.2902,0,0,0,1,1,SoundStimuli/CrazyInLove_BeyonceFtJayZ_Cover5S.wav,,,,,,,,,,,,,,,,,,,,,,,,,,,,,,,,,,,,,,,,,,,,,,,,,,,,,,,,,,
,,,,,806156,001,2024-06-17_11h00.51.690,experiment,2024.1.5,Win32,59.17159763,56780a5a89319e0011644cb4,667045947eb812cbdacbf325,66704f10306633c432245734,,,,,,,,,,,,,,,,,,,,,,,,,,,,,,,,,,,,81.298,87.8392,0,1,1,0,1,SoundStimuli/CrazyInLove_BeyonceFtJayZ_Original5S.wav,,,,,,,,,,,,,,,,,,,,,,,,,,,,,,,,,,,,,,,,,,,,,,,,,,,,,,,,,,
,,,,,806156,001,2024-06-17_11h00.51.690,experiment,2024.1.5,Win32,59.17159763,56780a5a89319e0011644cb4,667045947eb812cbdacbf325,66704f10306633c432245734,,,,,,,,,,,,,,,,,,,,,,,,,,,,,,,,,,,,,,,,,,,,87.8394,88.9724,1.088889016,1.1169,0,1,1,3,1,song_indices/CrazyInLove_BeyonceFtJayZ.csv,,,,,,,,,,,,,,,,,,,,,,,,,,,,,,,,,,,,,,,,,,,,,,,,
,,,,,806156,001,2024-06-17_11h00.51.690,experiment,2024.1.5,Win32,59.17159763,56780a5a89319e0011644cb4,667045947eb812cbdacbf325,66704f10306633c432245734,,,,,,,,,,,,,,,,,,,,,,,,,,,,,,,,,,,,88.9739,95.305,0,0,0,0,1,SoundStimuli/RockWithYou_MichaelJackson_Original5S.wav,,,,,,,,,,,,,,,,,,,,,,,,,,,,,,,,,,,,,,,,,,,,,,,,,,,,,,,,,,
,,,,,806156,001,2024-06-17_11h00.51.690,experiment,2024.1.5,Win32,59.17159763,56780a5a89319e0011644cb4,667045947eb812cbdacbf325,66704f10306633c432245734,,,,,,,,,,,,,,,,,,,,,,,,,,,,,,,,,,,,95.3122,101.3709,0,1,1,1,1,SoundStimuli/RockWithYou_MichaelJackson_Cover5S.wav,,,,,,,,,,,,,,,,,,,,,,,,,,,,,,,,,,,,,,,,,,,,,,,,,,,,,,,,,,
,,,,,806156,001,2024-06-17_11h00.51.690,experiment,2024.1.5,Win32,59.17159763,56780a5a89319e0011644cb4,667045947eb812cbdacbf325,66704f10306633c432245734,,,,,,,,,,,,,,,,,,,,,,,,,,,,,,,,,,,,,,,,,,,,101.371,103.0373,5.844444275,1.6493,0,2,2,16,1,song_indices/RockWithYou_MichaelJackson.csv,,,,,,,,,,,,,,,,,,,,,,,,,,,,,,,,,,,,,,,,,,,,,,,,
,,,,,806156,001,2024-06-17_11h00.51.690,experiment,2024.1.5,Win32,59.17159763,56780a5a89319e0011644cb4,667045947eb812cbdacbf325,66704f10306633c432245734,,,,,,,,,,,,,,,,,,,,,,,,,,,,,,,,,,,,103.0397,109.3033,0,0,0,0,1,SoundStimuli/ItsAllInTheGame_TommyEdwards_Original5S.wav,,,,,,,,,,,,,,,,,,,,,,,,,,,,,,,,,,,,,,,,,,,,,,,,,,,,,,,,,,
,,,,,806156,001,2024-06-17_11h00.51.690,experiment,2024.1.5,Win32,59.17159763,56780a5a89319e0011644cb4,667045947eb812cbdacbf325,66704f10306633c432245734,,,,,,,,,,,,,,,,,,,,,,,,,,,,,,,,,,,,109.311,115.5523,0,1,1,1,1,SoundStimuli/ItsAllInTheGame_TommyEdwards_Cover5S.wav,,,,,,,,,,,,,,,,,,,,,,,,,,,,,,,,,,,,,,,,,,,,,,,,,,,,,,,,,,
,,,,,806156,001,2024-06-17_11h00.51.690,experiment,2024.1.5,Win32,59.17159763,56780a5a89319e0011644cb4,667045947eb812cbdacbf325,66704f10306633c432245734,,,,,,,,,,,,,,,,,,,,,,,,,,,,,,,,,,,,,,,,,,,,115.5524,118.7687,1.094444487,3.2017,0,3,3,13,1,song_indices/ItsAllInTheGame_TommyEdwards.csv,,,,,,,,,,,,,,,,,,,,,,,,,,,,,,,,,,,,,,,,,,,,,,,,
,,,,,806156,001,2024-06-17_11h00.51.690,experiment,2024.1.5,Win32,59.17159763,56780a5a89319e0011644cb4,667045947eb812cbdacbf325,66704f10306633c432245734,,,,,,,,,,,,,,,,,,,,,,,,,,,,,,,,,,,,118.7699,125.9176,0,0,0,1,1,SoundStimuli/IWalkTheLine_JohnnyCash_Cover5S.wav,,,,,,,,,,,,,,,,,,,,,,,,,,,,,,,,,,,,,,,,,,,,,,,,,,,,,,,,,,
,,,,,806156,001,2024-06-17_11h00.51.690,experiment,2024.1.5,Win32,59.17159763,56780a5a89319e0011644cb4,667045947eb812cbdacbf325,66704f10306633c432245734,,,,,,,,,,,,,,,,,,,,,,,,,,,,,,,,,,,,125.9249,131.9003,0,1,1,0,1,SoundStimuli/IWalkTheLine_JohnnyCash_Original5S.wav,,,,,,,,,,,,,,,,,,,,,,,,,,,,,,,,,,,,,,,,,,,,,,,,,,,,,,,,,,
,,,,,806156,001,2024-06-17_11h00.51.690,experiment,2024.1.5,Win32,59.17159763,56780a5a89319e0011644cb4,667045947eb812cbdacbf325,66704f10306633c432245734,,,,,,,,,,,,,,,,,,,,,,,,,,,,,,,,,,,,,,,,,,,,131.9004,133.9332,2.711111281,2.0239,0,4,4,17,1,song_indices/IWalkTheLine_JohnnyCash.csv,,,,,,,,,,,,,,,,,,,,,,,,,,,,,,,,,,,,,,,,,,,,,,,,
,,,,,806156,001,2024-06-17_11h00.51.690,experiment,2024.1.5,Win32,59.17159763,56780a5a89319e0011644cb4,667045947eb812cbdacbf325,66704f10306633c432245734,,,,,,,,,,,,,,,,,,,,,,,,,,,,,,,,,,,,133.9343,140.1493,0,0,0,0,1,SoundStimuli/SmellsLikeTeenSpirit_Nirvana_Original5S.wav,,,,,,,,,,,,,,,,,,,,,,,,,,,,,,,,,,,,,,,,,,,,,,,,,,,,,,,,,,
,,,,,806156,001,2024-06-17_11h00.51.690,experiment,2024.1.5,Win32,59.17159763,56780a5a89319e0011644cb4,667045947eb812cbdacbf325,66704f10306633c432245734,,,,,,,,,,,,,,,,,,,,,,,,,,,,,,,,,,,,140.1566,145.9316,0,1,1,1,1,SoundStimuli/SmellsLikeTeenSpirit_Nirvana_Cover5S.wav,,,,,,,,,,,,,,,,,,,,,,,,,,,,,,,,,,,,,,,,,,,,,,,,,,,,,,,,,,
,,,,,806156,001,2024-06-17_11h00.51.690,experiment,2024.1.5,Win32,59.17159763,56780a5a89319e0011644cb4,667045947eb812cbdacbf325,66704f10306633c432245734,,,,,,,,,,,,,,,,,,,,,,,,,,,,,,,,,,,,,,,,,,,,145.9317,147.8316,6.85000017,1.8781,0,5,5,8,1,song_indices/SmellsLikeTeenSpirit_Nirvana.csv,,,,,,,,,,,,,,,,,,,,,,,,,,,,,,,,,,,,,,,,,,,,,,,,
,,,,,806156,001,2024-06-17_11h00.51.690,experiment,2024.1.5,Win32,59.17159763,56780a5a89319e0011644cb4,667045947eb812cbdacbf325,66704f10306633c432245734,,,,,,,,,,,,,,,,,,,,,,,,,,,,,,,,,,,,147.8328,154.2307,0,0,0,0,1,SoundStimuli/IWillAlwaysLoveYou_WhitneyHouston_Original5S.wav,,,,,,,,,,,,,,,,,,,,,,,,,,,,,,,,,,,,,,,,,,,,,,,,,,,,,,,,,,
,,,,,806156,001,2024-06-17_11h00.51.690,experiment,2024.1.5,Win32,59.17159763,56780a5a89319e0011644cb4,667045947eb812cbdacbf325,66704f10306633c432245734,,,,,,,,,,,,,,,,,,,,,,,,,,,,,,,,,,,,154.2379,160.08,0,1,1,1,1,SoundStimuli/IWillAlwaysLoveYou_WhitneyHouston_Cover5S.wav,,,,,,,,,,,,,,,,,,,,,,,,,,,,,,,,,,,,,,,,,,,,,,,,,,,,,,,,,,
,,,,,806156,001,2024-06-17_11h00.51.690,experiment,2024.1.5,Win32,59.17159763,56780a5a89319e0011644cb4,667045947eb812cbdacbf325,66704f10306633c432245734,,,,,,,,,,,,,,,,,,,,,,,,,,,,,,,,,,,,,,,,,,,,160.0802,162.0798,6.955555386,1.9818,0,6,6,10,1,song_indices/IWillAlwaysLoveYou_WhitneyHouston.csv,,,,,,,,,,,,,,,,,,,,,,,,,,,,,,,,,,,,,,,,,,,,,,,,
,,,,,806156,001,2024-06-17_11h00.51.690,experiment,2024.1.5,Win32,59.17159763,56780a5a89319e0011644cb4,667045947eb812cbdacbf325,66704f10306633c432245734,,,,,,,,,,,,,,,,,,,,,,,,,,,,,,,,,,,,162.0807,169.4459,0,0,0,1,1,SoundStimuli/Happy_PharellWilliams_Cover5S.wav,,,,,,,,,,,,,,,,,,,,,,,,,,,,,,,,,,,,,,,,,,,,,,,,,,,,,,,,,,
,,,,,806156,001,2024-06-17_11h00.51.690,experiment,2024.1.5,Win32,59.17159763,56780a5a89319e0011644cb4,667045947eb812cbdacbf325,66704f10306633c432245734,,,,,,,,,,,,,,,,,,,,,,,,,,,,,,,,,,,,169.4547,176.8113,0,1,1,0,1,SoundStimuli/Happy_PharellWilliams_Original5S.wav,,,,,,,,,,,,,,,,,,,,,,,,,,,,,,,,,,,,,,,,,,,,,,,,,,,,,,,,,,
,,,,,806156,001,2024-06-17_11h00.51.690,experiment,2024.1.5,Win32,59.17159763,56780a5a89319e0011644cb4,667045947eb812cbdacbf325,66704f10306633c432245734,,,,,,,,,,,,,,,,,,,,,,,,,,,,,,,,,,,,,,,,,,,,176.8115,178.6942,6.088889228,1.8627,0,7,7,7,1,song_indices/Happy_PharellWilliams.csv,,,,,,,,,,,,,,,,,,,,,,,,,,,,,,,,,,,,,,,,,,,,,,,,
,,,,,806156,001,2024-06-17_11h00.51.690,experiment,2024.1.5,Win32,59.17159763,56780a5a89319e0011644cb4,667045947eb812cbdacbf325,66704f10306633c432245734,,,,,,,,,,,,,,,,,,,,,,,,,,,,,,,,,,,,178.6952,185.4768,0,0,0,1,1,SoundStimuli/PartyRockAnthem_LMFAO_Cover5S.wav,,,,,,,,,,,,,,,,,,,,,,,,,,,,,,,,,,,,,,,,,,,,,,,,,,,,,,,,,,
,,,,,806156,001,2024-06-17_11h00.51.690,experiment,2024.1.5,Win32,59.17159763,56780a5a89319e0011644cb4,667045947eb812cbdacbf325,66704f10306633c432245734,,,,,,,,,,,,,,,,,,,,,,,,,,,,,,,,,,,,185.4853,192.2259,0,1,1,0,1,SoundStimuli/PartyRockAnthem_LMFAO_Original5S.wav,,,,,,,,,,,,,,,,,,,,,,,,,,,,,,,,,,,,,,,,,,,,,,,,,,,,,,,,,,
,,,,,806156,001,2024-06-17_11h00.51.690,experiment,2024.1.5,Win32,59.17159763,56780a5a89319e0011644cb4,667045947eb812cbdacbf325,66704f10306633c432245734,,,,,,,,,,,,,,,,,,,,,,,,,,,,,,,,,,,,,,,,,,,,192.2261,194.1591,6.211111281,1.9198,0,8,8,2,1,song_indices/PartyRockAnthem_LMFAO.csv,,,,,,,,,,,,,,,,,,,,,,,,,,,,,,,,,,,,,,,,,,,,,,,,
,,,,,806156,001,2024-06-17_11h00.51.690,experiment,2024.1.5,Win32,59.17159763,56780a5a89319e0011644cb4,667045947eb812cbdacbf325,66704f10306633c432245734,,,,,,,,,,,,,,,,,,,,,,,,,,,,,,,,,,,,194.1607,203.0744,0,0,0,1,1,SoundStimuli/HeyYa_Outkast_Cover5S.wav,,,,,,,,,,,,,,,,,,,,,,,,,,,,,,,,,,,,,,,,,,,,,,,,,,,,,,,,,,
,,,,,806156,001,2024-06-17_11h00.51.690,experiment,2024.1.5,Win32,59.17159763,56780a5a89319e0011644cb4,667045947eb812cbdacbf325,66704f10306633c432245734,,,,,,,,,,,,,,,,,,,,,,,,,,,,,,,,,,,,203.082,209.3735,0,1,1,0,1,SoundStimuli/HeyYa_Outkast_Original5S.wav,,,,,,,,,,,,,,,,,,,,,,,,,,,,,,,,,,,,,,,,,,,,,,,,,,,,,,,,,,
,,,,,806156,001,2024-06-17_11h00.51.690,experiment,2024.1.5,Win32,59.17159763,56780a5a89319e0011644cb4,667045947eb812cbdacbf325,66704f10306633c432245734,,,,,,,,,,,,,,,,,,,,,,,,,,,,,,,,,,,,,,,,,,,,209.3738,211.6901,1.833333333,2.2967,0,9,9,22,1,song_indices/HeyYa_Outkast.csv,,,,,,,,,,,,,,,,,,,,,,,,,,,,,,,,,,,,,,,,,,,,,,,,
,,,,,806156,001,2024-06-17_11h00.51.690,experiment,2024.1.5,Win32,59.17159763,56780a5a89319e0011644cb4,667045947eb812cbdacbf325,66704f10306633c432245734,,,,,,,,,,,,,,,,,,,,,,,,,,,,,,,,,,,,211.691,217.7558,0,0,0,0,1,SoundStimuli/GoodGollyMissMolly_LittleRichard_Original5S.wav,,,,,,,,,,,,,,,,,,,,,,,,,,,,,,,,,,,,,,,,,,,,,,,,,,,,,,,,,,
,,,,,806156,001,2024-06-17_11h00.51.690,experiment,2024.1.5,Win32,59.17159763,56780a5a89319e0011644cb4,667045947eb812cbdacbf325,66704f10306633c432245734,,,,,,,,,,,,,,,,,,,,,,,,,,,,,,,,,,,,217.7631,224.1216,0,1,1,1,1,SoundStimuli/GoodGollyMissMolly_LittleRichard_Cover5S.wav,,,,,,,,,,,,,,,,,,,,,,,,,,,,,,,,,,,,,,,,,,,,,,,,,,,,,,,,,,
,,,,,806156,001,2024-06-17_11h00.51.690,experiment,2024.1.5,Win32,59.17159763,56780a5a89319e0011644cb4,667045947eb812cbdacbf325,66704f10306633c432245734,,,,,,,,,,,,,,,,,,,,,,,,,,,,,,,,,,,,,,,,,,,,224.1218,227.3881,2.911111196,3.2489,0,10,10,0,1,song_indices/GoodGollyMissMolly_LittleRichard.csv,,,,,,,,,,,,,,,,,,,,,,,,,,,,,,,,,,,,,,,,,,,,,,,,
,,,,,806156,001,2024-06-17_11h00.51.690,experiment,2024.1.5,Win32,59.17159763,56780a5a89319e0011644cb4,667045947eb812cbdacbf325,66704f10306633c432245734,,,,,,,,,,,,,,,,,,,,,,,,,,,,,,,,,,,,227.389,235.3871,0,0,0,1,1,SoundStimuli/TheBattleOfNewOrleans_JohnnyHorton_Cover5S.wav,,,,,,,,,,,,,,,,,,,,,,,,,,,,,,,,,,,,,,,,,,,,,,,,,,,,,,,,,,
,,,,,806156,001,2024-06-17_11h00.51.690,experiment,2024.1.5,Win32,59.17159763,56780a5a89319e0011644cb4,667045947eb812cbdacbf325,66704f10306633c432245734,,,,,,,,,,,,,,,,,,,,,,,,,,,,,,,,,,,,235.3946,241.6028,0,1,1,0,1,SoundStimuli/TheBattleOfNewOrleans_JohnnyHorton_Original5S.wav,,,,,,,,,,,,,,,,,,,,,,,,,,,,,,,,,,,,,,,,,,,,,,,,,,,,,,,,,,
,,,,,806156,001,2024-06-17_11h00.51.690,experiment,2024.1.5,Win32,59.17159763,56780a5a89319e0011644cb4,667045947eb812cbdacbf325,66704f10306633c432245734,,,,,,,,,,,,,,,,,,,,,,,,,,,,,,,,,,,,,,,,,,,,241.603,247.3688,1.050000085,5.7495,0,11,11,4,1,song_indices/TheBattleOfNewOrleans_JohnnyHorton.csv,,,,,,,,,,,,,,,,,,,,,,,,,,,,,,,,,,,,,,,,,,,,,,,,
,,,,,806156,001,2024-06-17_11h00.51.690,experiment,2024.1.5,Win32,59.17159763,56780a5a89319e0011644cb4,667045947eb812cbdacbf325,66704f10306633c432245734,,,,,,,,,,,,,,,,,,,,,,,,,,,,,,,,,,,,247.3696,253.5014,0,0,0,1,1,SoundStimuli/EyeOfTheTiger_Survivor_Cover5S.wav,,,,,,,,,,,,,,,,,,,,,,,,,,,,,,,,,,,,,,,,,,,,,,,,,,,,,,,,,,
,,,,,806156,001,2024-06-17_11h00.51.690,experiment,2024.1.5,Win32,59.17159763,56780a5a89319e0011644cb4,667045947eb812cbdacbf325,66704f10306633c432245734,,,,,,,,,,,,,,,,,,,,,,,,,,,,,,,,,,,,253.5086,259.4006,0,1,1,0,1,SoundStimuli/EyeOfTheTiger_Survivor_Original5S.wav,,,,,,,,,,,,,,,,,,,,,,,,,,,,,,,,,,,,,,,,,,,,,,,,,,,,,,,,,,
,,,,,806156,001,2024-06-17_11h00.51.690,experiment,2024.1.5,Win32,59.17159763,56780a5a89319e0011644cb4,667045947eb812cbdacbf325,66704f10306633c432245734,,,,,,,,,,,,,,,,,,,,,,,,,,,,,,,,,,,,,,,,,,,,259.4007,261.9668,4.794444614,2.5582,0,12,12,11,1,song_indices/EyeOfTheTiger_Survivor.csv,,,,,,,,,,,,,,,,,,,,,,,,,,,,,,,,,,,,,,,,,,,,,,,,
,,,,,806156,001,2024-06-17_11h00.51.690,experiment,2024.1.5,Win32,59.17159763,56780a5a89319e0011644cb4,667045947eb812cbdacbf325,66704f10306633c432245734,,,,,,,,,,,,,,,,,,,,,,,,,,,,,,,,,,,,261.9678,269.1993,0,0,0,0,1,SoundStimuli/UptownFunk_MarkRonson_Original5S.wav,,,,,,,,,,,,,,,,,,,,,,,,,,,,,,,,,,,,,,,,,,,,,,,,,,,,,,,,,,
,,,,,806156,001,2024-06-17_11h00.51.690,experiment,2024.1.5,Win32,59.17159763,56780a5a89319e0011644cb4,667045947eb812cbdacbf325,66704f10306633c432245734,,,,,,,,,,,,,,,,,,,,,,,,,,,,,,,,,,,,269.2071,276.2315,0,1,1,1,1,SoundStimuli/UptownFunk_MarkRonson_Cover5S.wav,,,,,,,,,,,,,,,,,,,,,,,,,,,,,,,,,,,,,,,,,,,,,,,,,,,,,,,,,,
,,,,,806156,001,2024-06-17_11h00.51.690,experiment,2024.1.5,Win32,59.17159763,56780a5a89319e0011644cb4,667045947eb812cbdacbf325,66704f10306633c432245734,,,,,,,,,,,,,,,,,,,,,,,,,,,,,,,,,,,,,,,,,,,,276.2317,277.6315,5.39444436,1.3799,0,13,13,15,1,song_indices/UptownFunk_MarkRonson.csv,,,,,,,,,,,,,,,,,,,,,,,,,,,,,,,,,,,,,,,,,,,,,,,,
,,,,,806156,001,2024-06-17_11h00.51.690,experiment,2024.1.5,Win32,59.17159763,56780a5a89319e0011644cb4,667045947eb812cbdacbf325,66704f10306633c432245734,,,,,,,,,,,,,,,,,,,,,,,,,,,,,,,,,,,,277.6326,284.0974,0,0,0,0,1,SoundStimuli/ShapeofYou_EdSheeran_Original5S.wav,,,,,,,,,,,,,,,,,,,,,,,,,,,,,,,,,,,,,,,,,,,,,,,,,,,,,,,,,,
,,,,,806156,001,2024-06-17_11h00.51.690,experiment,2024.1.5,Win32,59.17159763,56780a5a89319e0011644cb4,667045947eb812cbdacbf325,66704f10306633c432245734,,,,,,,,,,,,,,,,,,,,,,,,,,,,,,,,,,,,284.1044,290.4131,0,1,1,1,1,SoundStimuli/ShapeofYou_EdSheeran_Cover5S.wav,,,,,,,,,,,,,,,,,,,,,,,,,,,,,,,,,,,,,,,,,,,,,,,,,,,,,,,,,,
,,,,,806156,001,2024-06-17_11h00.51.690,experiment,2024.1.5,Win32,59.17159763,56780a5a89319e0011644cb4,667045947eb812cbdacbf325,66704f10306633c432245734,,,,,,,,,,,,,,,,,,,,,,,,,,,,,,,,,,,,,,,,,,,,290.4133,295.5624,3.122222477,5.1406,0,14,14,21,1,song_indices/ShapeofYou_EdSheeran.csv,,,,,,,,,,,,,,,,,,,,,,,,,,,,,,,,,,,,,,,,,,,,,,,,
,,,,,806156,001,2024-06-17_11h00.51.690,experiment,2024.1.5,Win32,59.17159763,56780a5a89319e0011644cb4,667045947eb812cbdacbf325,66704f10306633c432245734,,,,,,,,,,,,,,,,,,,,,,,,,,,,,,,,,,,,295.5632,301.4951,0,0,0,0,1,SoundStimuli/StandByMe_BenEKing_Original5S.wav,,,,,,,,,,,,,,,,,,,,,,,,,,,,,,,,,,,,,,,,,,,,,,,,,,,,,,,,,,
,,,,,806156,001,2024-06-17_11h00.51.690,experiment,2024.1.5,Win32,59.17159763,56780a5a89319e0011644cb4,667045947eb812cbdacbf325,66704f10306633c432245734,,,,,,,,,,,,,,,,,,,,,,,,,,,,,,,,,,,,301.5024,307.5276,0,1,1,1,1,SoundStimuli/StandByMe_BenEKing_Cover5S.wav,,,,,,,,,,,,,,,,,,,,,,,,,,,,,,,,,,,,,,,,,,,,,,,,,,,,,,,,,,
,,,,,806156,001,2024-06-17_11h00.51.690,experiment,2024.1.5,Win32,59.17159763,56780a5a89319e0011644cb4,667045947eb812cbdacbf325,66704f10306633c432245734,,,,,,,,,,,,,,,,,,,,,,,,,,,,,,,,,,,,,,,,,,,,307.5277,317.743,2.60000017,10.203,0,15,15,1,1,song_indices/StandByMe_BenEKing.csv,,,,,,,,,,,,,,,,,,,,,,,,,,,,,,,,,,,,,,,,,,,,,,,,
,,,,,806156,001,2024-06-17_11h00.51.690,experiment,2024.1.5,Win32,59.17159763,56780a5a89319e0011644cb4,667045947eb812cbdacbf325,66704f10306633c432245734,,,,,,,,,,,,,,,,,,,,,,,,,,,,,,,,,,,,317.7439,323.9257,0,0,0,0,1,SoundStimuli/Fallin_AliciaKeys_Original5S.wav,,,,,,,,,,,,,,,,,,,,,,,,,,,,,,,,,,,,,,,,,,,,,,,,,,,,,,,,,,
,,,,,806156,001,2024-06-17_11h00.51.690,experiment,2024.1.5,Win32,59.17159763,56780a5a89319e0011644cb4,667045947eb812cbdacbf325,66704f10306633c432245734,,,,,,,,,,,,,,,,,,,,,,,,,,,,,,,,,,,,323.9328,330.358,0,1,1,1,1,SoundStimuli/Fallin_AliciaKeys_Cover5S.wav,,,,,,,,,,,,,,,,,,,,,,,,,,,,,,,,,,,,,,,,,,,,,,,,,,,,,,,,,,
,,,,,806156,001,2024-06-17_11h00.51.690,experiment,2024.1.5,Win32,59.17159763,56780a5a89319e0011644cb4,667045947eb812cbdacbf325,66704f10306633c432245734,,,,,,,,,,,,,,,,,,,,,,,,,,,,,,,,,,,,,,,,,,,,330.3581,332.3578,3.45555581,1.9884,0,16,16,12,1,song_indices/Fallin_AliciaKeys.csv,,,,,,,,,,,,,,,,,,,,,,,,,,,,,,,,,,,,,,,,,,,,,,,,
,,,,,806156,001,2024-06-17_11h00.51.690,experiment,2024.1.5,Win32,59.17159763,56780a5a89319e0011644cb4,667045947eb812cbdacbf325,66704f10306633c432245734,,,,,,,,,,,,,,,,,,,,,,,,,,,,,,,,,,,,332.3588,338.5736,0,0,0,1,1,SoundStimuli/GimmeShelter_RollingStones_Cover5S.wav,,,,,,,,,,,,,,,,,,,,,,,,,,,,,,,,,,,,,,,,,,,,,,,,,,,,,,,,,,
,,,,,806156,001,2024-06-17_11h00.51.690,experiment,2024.1.5,Win32,59.17159763,56780a5a89319e0011644cb4,667045947eb812cbdacbf325,66704f10306633c432245734,,,,,,,,,,,,,,,,,,,,,,,,,,,,,,,,,,,,338.581,344.6728,0,1,1,0,1,SoundStimuli/GimmeShelter_RollingStones_Original5S.wav,,,,,,,,,,,,,,,,,,,,,,,,,,,,,,,,,,,,,,,,,,,,,,,,,,,,,,,,,,
,,,,,806156,001,2024-06-17_11h00.51.690,experiment,2024.1.5,Win32,59.17159763,56780a5a89319e0011644cb4,667045947eb812cbdacbf325,66704f10306633c432245734,,,,,,,,,,,,,,,,,,,,,,,,,,,,,,,,,,,,,,,,,,,,344.673,345.7726,4.70555581,1.089,0,17,17,20,1,song_indices/GimmeShelter_RollingStones.csv,,,,,,,,,,,,,,,,,,,,,,,,,,,,,,,,,,,,,,,,,,,,,,,,
,,,,,806156,001,2024-06-17_11h00.51.690,experiment,2024.1.5,Win32,59.17159763,56780a5a89319e0011644cb4,667045947eb812cbdacbf325,66704f10306633c432245734,,,,,,,,,,,,,,,,,,,,,,,,,,,,,,,,,,,,345.7736,351.9718,0,0,0,0,1,SoundStimuli/NoScrubs_TLC_Original5S.wav,,,,,,,,,,,,,,,,,,,,,,,,,,,,,,,,,,,,,,,,,,,,,,,,,,,,,,,,,,
,,,,,806156,001,2024-06-17_11h00.51.690,experiment,2024.1.5,Win32,59.17159763,56780a5a89319e0011644cb4,667045947eb812cbdacbf325,66704f10306633c432245734,,,,,,,,,,,,,,,,,,,,,,,,,,,,,,,,,,,,351.979,358.1045,0,1,1,1,1,SoundStimuli/NoScrubs_TLC_Cover5S.wav,,,,,,,,,,,,,,,,,,,,,,,,,,,,,,,,,,,,,,,,,,,,,,,,,,,,,,,,,,
,,,,,806156,001,2024-06-17_11h00.51.690,experiment,2024.1.5,Win32,59.17159763,56780a5a89319e0011644cb4,667045947eb812cbdacbf325,66704f10306633c432245734,,,,,,,,,,,,,,,,,,,,,,,,,,,,,,,,,,,,,,,,,,,,358.1046,363.2872,5.922222561,5.1661,0,18,18,14,1,song_indices/NoScrubs_TLC.csv,,,,,,,,,,,,,,,,,,,,,,,,,,,,,,,,,,,,,,,,,,,,,,,,
,,,,,806156,001,2024-06-17_11h00.51.690,experiment,2024.1.5,Win32,59.17159763,56780a5a89319e0011644cb4,667045947eb812cbdacbf325,66704f10306633c432245734,,,,,,,,,,,,,,,,,,,,,,,,,,,,,,,,,,,,363.288,369.353,0,0,0,0,1,SoundStimuli/Stronger_KanyeWest_Original5S.wav,,,,,,,,,,,,,,,,,,,,,,,,,,,,,,,,,,,,,,,,,,,,,,,,,,,,,,,,,,
,,,,,806156,001,2024-06-17_11h00.51.690,experiment,2024.1.5,Win32,59.17159763,56780a5a89319e0011644cb4,667045947eb812cbdacbf325,66704f10306633c432245734,,,,,,,,,,,,,,,,,,,,,,,,,,,,,,,,,,,,369.3603,375.6856,0,1,1,1,1,SoundStimuli/Stronger_KanyeWest_Cover5S.wav,,,,,,,,,,,,,,,,,,,,,,,,,,,,,,,,,,,,,,,,,,,,,,,,,,,,,,,,,,
,,,,,806156,001,2024-06-17_11h00.51.690,experiment,2024.1.5,Win32,59.17159763,56780a5a89319e0011644cb4,667045947eb812cbdacbf325,66704f10306633c432245734,,,,,,,,,,,,,,,,,,,,,,,,,,,,,,,,,,,,,,,,,,,,375.6857,377.4519,2.333333333,1.7491,0,19,19,9,1,song_indices/Stronger_KanyeWest.csv,,,,,,,,,,,,,,,,,,,,,,,,,,,,,,,,,,,,,,,,,,,,,,,,
,,,,,806156,001,2024-06-17_11h00.51.690,experiment,2024.1.5,Win32,59.17159763,56780a5a89319e0011644cb4,667045947eb812cbdacbf325,66704f10306633c432245734,,,,,,,,,,,,,,,,,,,,,,,,,,,,,,,,,,,,377.453,384.0345,0,0,0,1,1,SoundStimuli/GetUrFreakOn_MissyElliot_Cover5S.wav,,,,,,,,,,,,,,,,,,,,,,,,,,,,,,,,,,,,,,,,,,,,,,,,,,,,,,,,,,
,,,,,806156,001,2024-06-17_11h00.51.690,experiment,2024.1.5,Win32,59.17159763,56780a5a89319e0011644cb4,667045947eb812cbdacbf325,66704f10306633c432245734,,,,,,,,,,,,,,,,,,,,,,,,,,,,,,,,,,,,384.0419,390.117,0,1,1,0,1,SoundStimuli/GetUrFreakOn_MissyElliot_Original5S.wav,,,,,,,,,,,,,,,,,,,,,,,,,,,,,,,,,,,,,,,,,,,,,,,,,,,,,,,,,,
,,,,,806156,001,2024-06-17_11h00.51.690,experiment,2024.1.5,Win32,59.17159763,56780a5a89319e0011644cb4,667045947eb812cbdacbf325,66704f10306633c432245734,,,,,,,,,,,,,,,,,,,,,,,,,,,,,,,,,,,,,,,,,,,,390.1171,392.7834,3.244444529,2.6458,0,20,20,18,1,song_indices/GetUrFreakOn_MissyElliot.csv,,,,,,,,,,,,,,,,,,,,,,,,,,,,,,,,,,,,,,,,,,,,,,,,
,,,,,806156,001,2024-06-17_11h00.51.690,experiment,2024.1.5,Win32,59.17159763,56780a5a89319e0011644cb4,667045947eb812cbdacbf325,66704f10306633c432245734,,,,,,,,,,,,,,,,,,,,,,,,,,,,,,,,,,,,392.7842,398.4827,0,0,0,1,1,SoundStimuli/BetteDavisEyes_KimCarnes_Cover5S.wav,,,,,,,,,,,,,,,,,,,,,,,,,,,,,,,,,,,,,,,,,,,,,,,,,,,,,,,,,,
,,,,,806156,001,2024-06-17_11h00.51.690,experiment,2024.1.5,Win32,59.17159763,56780a5a89319e0011644cb4,667045947eb812cbdacbf325,66704f10306633c432245734,,,,,,,,,,,,,,,,,,,,,,,,,,,,,,,,,,,,398.4898,404.6983,0,1,1,0,1,SoundStimuli/BetteDavisEyes_KimCarnes_Original5S.wav,,,,,,,,,,,,,,,,,,,,,,,,,,,,,,,,,,,,,,,,,,,,,,,,,,,,,,,,,,
,,,,,806156,001,2024-06-17_11h00.51.690,experiment,2024.1.5,Win32,59.17159763,56780a5a89319e0011644cb4,667045947eb812cbdacbf325,66704f10306633c432245734,,,,,,,,,,,,,,,,,,,,,,,,,,,,,,,,,,,,,,,,,,,,404.6985,406.6982,5.255555471,1.9863,0,21,21,5,1,song_indices/BetteDavisEyes_KimCarnes.csv,,,,,,,,,,,,,,,,,,,,,,,,,,,,,,,,,,,,,,,,,,,,,,,,
,,,,,806156,001,2024-06-17_11h00.51.690,experiment,2024.1.5,Win32,59.17159763,56780a5a89319e0011644cb4,667045947eb812cbdacbf325,66704f10306633c432245734,,,,,,,,,,,,,,,,,,,,,,,,,,,,,,,,,,,,406.699,412.9308,0,0,0,1,1,SoundStimuli/NoOne_AliciaKeys_Cover5S.wav,,,,,,,,,,,,,,,,,,,,,,,,,,,,,,,,,,,,,,,,,,,,,,,,,,,,,,,,,,
,,,,,806156,001,2024-06-17_11h00.51.690,experiment,2024.1.5,Win32,59.17159763,56780a5a89319e0011644cb4,667045947eb812cbdacbf325,66704f10306633c432245734,,,,,,,,,,,,,,,,,,,,,,,,,,,,,,,,,,,,412.938,420.6631,0,1,1,0,1,SoundStimuli/NoOne_AliciaKeys_Original5S.wav,,,,,,,,,,,,,,,,,,,,,,,,,,,,,,,,,,,,,,,,,,,,,,,,,,,,,,,,,,
,,,,,806156,001,2024-06-17_11h00.51.690,experiment,2024.1.5,Win32,59.17159763,56780a5a89319e0011644cb4,667045947eb812cbdacbf325,66704f10306633c432245734,,,,,,,,,,,,,,,,,,,,,,,,,,,,,,,,,,,,,,,,,,,,420.6633,422.3294,5.255555471,1.6575,0,22,22,19,1,song_indices/NoOne_AliciaKeys.csv,,,,,,,,,,,,,,,,,,,,,,,,,,,,,,,,,,,,,,,,,,,,,,,,
,,,,,806156,001,2024-06-17_11h00.51.690,experiment,2024.1.5,Win32,59.17159763,56780a5a89319e0011644cb4,667045947eb812cbdacbf325,66704f10306633c432245734,,,,,,,,,,,,,,,,,,,,,,,,,,,,,,,,,,,,,,,,,,,,,,,,,,,,,,422.33,424.2129,space,1.873,,0,0,0,1,1,choose_song_b2.csv,,,,,,,,,,,,,,,,,,,,,,,,,,,,,,,,,,,,,
,,,,,806156,001,2024-06-17_11h00.51.690,experiment,2024.1.5,Win32,59.17159763,56780a5a89319e0011644cb4,667045947eb812cbdacbf325,66704f10306633c432245734,,,,,,,,,,,,,,,,,,,,,,,,,,,,,,,,,,,,424.2155,430.4118,0,0,0,0,1,SoundStimuli/SaveYourTears_TheWeekndArianaGrande_Original5S.wav,,,,,,,,,,,,,,,,,,,,,,,,,,,,,,,,,,,,,,,,,,,,,,,,,,,,,,,,,,
,,,,,806156,001,2024-06-17_11h00.51.690,experiment,2024.1.5,Win32,59.17159763,56780a5a89319e0011644cb4,667045947eb812cbdacbf325,66704f10306633c432245734,,,,,,,,,,,,,,,,,,,,,,,,,,,,,,,,,,,,430.4189,436.3111,0,1,1,1,1,SoundStimuli/SaveYourTears_TheWeekndArianaGrande_Cover5S.wav,,,,,,,,,,,,,,,,,,,,,,,,,,,,,,,,,,,,,,,,,,,,,,,,,,,,,,,,,,
,,,,,806156,001,2024-06-17_11h00.51.690,experiment,2024.1.5,Win32,59.17159763,56780a5a89319e0011644cb4,667045947eb812cbdacbf325,66704f10306633c432245734,,,,,,,,,,,,,,,,,,,,,,,,,,,,,,,,,,,,,,,,,,,,436.3112,439.5446,3.366666582,3.2259,0,0,0,12,1,song_indices/SaveYourTears_TheWeekndArianaGrande.csv,,,,,,,,,,,,,,,,,,,,,,,,,,,,,,,,,,,,,,,,,,,,,,,,
,,,,,806156,001,2024-06-17_11h00.51.690,experiment,2024.1.5,Win32,59.17159763,56780a5a89319e0011644cb4,667045947eb812cbdacbf325,66704f10306633c432245734,,,,,,,,,,,,,,,,,,,,,,,,,,,,,,,,,,,,439.546,445.26,0,0,0,1,1,SoundStimuli/Levitating_DuaLipa_Cover5S.wav,,,,,,,,,,,,,,,,,,,,,,,,,,,,,,,,,,,,,,,,,,,,,,,,,,,,,,,,,,
,,,,,806156,001,2024-06-17_11h00.51.690,experiment,2024.1.5,Win32,59.17159763,56780a5a89319e0011644cb4,667045947eb812cbdacbf325,66704f10306633c432245734,,,,,,,,,,,,,,,,,,,,,,,,,,,,,,,,,,,,445.2673,451.2761,0,1,1,0,1,SoundStimuli/Levitating_DuaLipa_Original5S.wav,,,,,,,,,,,,,,,,,,,,,,,,,,,,,,,,,,,,,,,,,,,,,,,,,,,,,,,,,,
,,,,,806156,001,2024-06-17_11h00.51.690,experiment,2024.1.5,Win32,59.17159763,56780a5a89319e0011644cb4,667045947eb812cbdacbf325,66704f10306633c432245734,,,,,,,,,,,,,,,,,,,,,,,,,,,,,,,,,,,,,,,,,,,,451.2761,452.0923,2.522222307,0.8004,0,1,1,10,1,song_indices/Levitating_DuaLipa.csv,,,,,,,,,,,,,,,,,,,,,,,,,,,,,,,,,,,,,,,,,,,,,,,,
,,,,,806156,001,2024-06-17_11h00.51.690,experiment,2024.1.5,Win32,59.17159763,56780a5a89319e0011644cb4,667045947eb812cbdacbf325,66704f10306633c432245734,,,,,,,,,,,,,,,,,,,,,,,,,,,,,,,,,,,,452.0933,458.5416,0,0,0,1,1,SoundStimuli/YouLightUpMyLife_DebbyBoone_Cover5S.wav,,,,,,,,,,,,,,,,,,,,,,,,,,,,,,,,,,,,,,,,,,,,,,,,,,,,,,,,,,
,,,,,806156,001,2024-06-17_11h00.51.690,experiment,2024.1.5,Win32,59.17159763,56780a5a89319e0011644cb4,667045947eb812cbdacbf325,66704f10306633c432245734,,,,,,,,,,,,,,,,,,,,,,,,,,,,,,,,,,,,458.5486,464.624,0,1,1,0,1,SoundStimuli/YouLightUpMyLife_DebbyBoone_Original5S.wav,,,,,,,,,,,,,,,,,,,,,,,,,,,,,,,,,,,,,,,,,,,,,,,,,,,,,,,,,,
,,,,,806156,001,2024-06-17_11h00.51.690,experiment,2024.1.5,Win32,59.17159763,56780a5a89319e0011644cb4,667045947eb812cbdacbf325,66704f10306633c432245734,,,,,,,,,,,,,,,,,,,,,,,,,,,,,,,,,,,,,,,,,,,,464.6242,468.0404,6.844444275,3.3969,0,2,2,4,1,song_indices/YouLightUpMyLife_DebbyBoone.csv,,,,,,,,,,,,,,,,,,,,,,,,,,,,,,,,,,,,,,,,,,,,,,,,
,,,,,806156,001,2024-06-17_11h00.51.690,experiment,2024.1.5,Win32,59.17159763,56780a5a89319e0011644cb4,667045947eb812cbdacbf325,66704f10306633c432245734,,,,,,,,,,,,,,,,,,,,,,,,,,,,,,,,,,,,468.0413,474.5228,0,0,0,0,1,SoundStimuli/BlindingLights_TheWeeknd_Original5S.wav,,,,,,,,,,,,,,,,,,,,,,,,,,,,,,,,,,,,,,,,,,,,,,,,,,,,,,,,,,
,,,,,806156,001,2024-06-17_11h00.51.690,experiment,2024.1.5,Win32,59.17159763,56780a5a89319e0011644cb4,667045947eb812cbdacbf325,66704f10306633c432245734,,,,,,,,,,,,,,,,,,,,,,,,,,,,,,,,,,,,474.53,481.3219,0,1,1,1,1,SoundStimuli/BlindingLights_TheWeeknd_Cover5S.wav,,,,,,,,,,,,,,,,,,,,,,,,,,,,,,,,,,,,,,,,,,,,,,,,,,,,,,,,,,
,,,,,806156,001,2024-06-17_11h00.51.690,experiment,2024.1.5,Win32,59.17159763,56780a5a89319e0011644cb4,667045947eb812cbdacbf325,66704f10306633c432245734,,,,,,,,,,,,,,,,,,,,,,,,,,,,,,,,,,,,,,,,,,,,481.322,484.1884,6.127777947,2.8438,0,3,3,21,1,song_indices/BlindingLights_TheWeeknd.csv,,,,,,,,,,,,,,,,,,,,,,,,,,,,,,,,,,,,,,,,,,,,,,,,
,,,,,806156,001,2024-06-17_11h00.51.690,experiment,2024.1.5,Win32,59.17159763,56780a5a89319e0011644cb4,667045947eb812cbdacbf325,66704f10306633c432245734,,,,,,,,,,,,,,,,,,,,,,,,,,,,,,,,,,,,484.1897,490.2209,0,0,0,0,1,SoundStimuli/LeFreak_Chic_Original5S.wav,,,,,,,,,,,,,,,,,,,,,,,,,,,,,,,,,,,,,,,,,,,,,,,,,,,,,,,,,,
,,,,,806156,001,2024-06-17_11h00.51.690,experiment,2024.1.5,Win32,59.17159763,56780a5a89319e0011644cb4,667045947eb812cbdacbf325,66704f10306633c432245734,,,,,,,,,,,,,,,,,,,,,,,,,,,,,,,,,,,,490.2279,495.7368,0,1,1,1,1,SoundStimuli/LeFreak_Chic_Cover5S.wav,,,,,,,,,,,,,,,,,,,,,,,,,,,,,,,,,,,,,,,,,,,,,,,,,,,,,,,,,,
,,,,,806156,001,2024-06-17_11h00.51.690,experiment,2024.1.5,Win32,59.17159763,56780a5a89319e0011644cb4,667045947eb812cbdacbf325,66704f10306633c432245734,,,,,,,,,,,,,,,,,,,,,,,,,,,,,,,,,,,,,,,,,,,,495.7369,497.3699,1.022222307,1.6168,0,4,4,11,1,song_indices/LeFreak_Chic.csv,,,,,,,,,,,,,,,,,,,,,,,,,,,,,,,,,,,,,,,,,,,,,,,,
,,,,,806156,001,2024-06-17_11h00.51.690,experiment,2024.1.5,Win32,59.17159763,56780a5a89319e0011644cb4,667045947eb812cbdacbf325,66704f10306633c432245734,,,,,,,,,,,,,,,,,,,,,,,,,,,,,,,,,,,,497.3708,503.3023,0,0,0,0,1,SoundStimuli/Respect_ArethaFranklin_Original5S.wav,,,,,,,,,,,,,,,,,,,,,,,,,,,,,,,,,,,,,,,,,,,,,,,,,,,,,,,,,,
,,,,,806156,001,2024-06-17_11h00.51.690,experiment,2024.1.5,Win32,59.17159763,56780a5a89319e0011644cb4,667045947eb812cbdacbf325,66704f10306633c432245734,,,,,,,,,,,,,,,,,,,,,,,,,,,,,,,,,,,,503.3097,509.3683,0,1,1,1,1,SoundStimuli/Respect_ArethaFranklin_Cover5S.wav,,,,,,,,,,,,,,,,,,,,,,,,,,,,,,,,,,,,,,,,,,,,,,,,,,,,,,,,,,
,,,,,806156,001,2024-06-17_11h00.51.690,experiment,2024.1.5,Win32,59.17159763,56780a5a89319e0011644cb4,667045947eb812cbdacbf325,66704f10306633c432245734,,,,,,,,,,,,,,,,,,,,,,,,,,,,,,,,,,,,,,,,,,,,509.3684,511.0847,1.044444402,1.7013,0,5,5,0,1,song_indices/Respect_ArethaFranklin.csv,,,,,,,,,,,,,,,,,,,,,,,,,,,,,,,,,,,,,,,,,,,,,,,,
,,,,,806156,001,2024-06-17_11h00.51.690,experiment,2024.1.5,Win32,59.17159763,56780a5a89319e0011644cb4,667045947eb812cbdacbf325,66704f10306633c432245734,,,,,,,,,,,,,,,,,,,,,,,,,,,,,,,,,,,,511.0857,518.0838,0,0,0,1,1,SoundStimuli/Dilemma_NellyKellyRowland_Cover5S.wav,,,,,,,,,,,,,,,,,,,,,,,,,,,,,,,,,,,,,,,,,,,,,,,,,,,,,,,,,,
,,,,,806156,001,2024-06-17_11h00.51.690,experiment,2024.1.5,Win32,59.17159763,56780a5a89319e0011644cb4,667045947eb812cbdacbf325,66704f10306633c432245734,,,,,,,,,,,,,,,,,,,,,,,,,,,,,,,,,,,,518.0914,524.283,0,1,1,0,1,SoundStimuli/Dilemma_NellyKellyRowland_Original5S.wav,,,,,,,,,,,,,,,,,,,,,,,,,,,,,,,,,,,,,,,,,,,,,,,,,,,,,,,,,,
,,,,,806156,001,2024-06-17_11h00.51.690,experiment,2024.1.5,Win32,59.17159763,56780a5a89319e0011644cb4,667045947eb812cbdacbf325,66704f10306633c432245734,,,,,,,,,,,,,,,,,,,,,,,,,,,,,,,,,,,,,,,,,,,,524.2832,526.7659,1.900000042,2.4746,0,6,6,2,1,song_indices/Dilemma_NellyKellyRowland.csv,,,,,,,,,,,,,,,,,,,,,,,,,,,,,,,,,,,,,,,,,,,,,,,,
,,,,,806156,001,2024-06-17_11h00.51.690,experiment,2024.1.5,Win32,59.17159763,56780a5a89319e0011644cb4,667045947eb812cbdacbf325,66704f10306633c432245734,,,,,,,,,,,,,,,,,,,,,,,,,,,,,,,,,,,,526.7665,532.6818,0,0,0,1,1,SoundStimuli/Irreplaceable_Beyonce_Cover5S.wav,,,,,,,,,,,,,,,,,,,,,,,,,,,,,,,,,,,,,,,,,,,,,,,,,,,,,,,,,,
,,,,,806156,001,2024-06-17_11h00.51.690,experiment,2024.1.5,Win32,59.17159763,56780a5a89319e0011644cb4,667045947eb812cbdacbf325,66704f10306633c432245734,,,,,,,,,,,,,,,,,,,,,,,,,,,,,,,,,,,,532.6892,538.5648,0,1,1,0,1,SoundStimuli/Irreplaceable_Beyonce_Original5S.wav,,,,,,,,,,,,,,,,,,,,,,,,,,,,,,,,,,,,,,,,,,,,,,,,,,,,,,,,,,
,,,,,806156,001,2024-06-17_11h00.51.690,experiment,2024.1.5,Win32,59.17159763,56780a5a89319e0011644cb4,667045947eb812cbdacbf325,66704f10306633c432245734,,,,,,,,,,,,,,,,,,,,,,,,,,,,,,,,,,,,,,,,,,,,538.565,539.5645,1.727777905,0.9816,0,7,7,19,1,song_indices/Irreplaceable_Beyonce.csv,,,,,,,,,,,,,,,,,,,,,,,,,,,,,,,,,,,,,,,,,,,,,,,,
,,,,,806156,001,2024-06-17_11h00.51.690,experiment,2024.1.5,Win32,59.17159763,56780a5a89319e0011644cb4,667045947eb812cbdacbf325,66704f10306633c432245734,,,,,,,,,,,,,,,,,,,,,,,,,,,,,,,,,,,,539.5652,546.5802,0,0,0,0,1,SoundStimuli/PokerFace_LadyGaga_Original5S.wav,,,,,,,,,,,,,,,,,,,,,,,,,,,,,,,,,,,,,,,,,,,,,,,,,,,,,,,,,,
,,,,,806156,001,2024-06-17_11h00.51.690,experiment,2024.1.5,Win32,59.17159763,56780a5a89319e0011644cb4,667045947eb812cbdacbf325,66704f10306633c432245734,,,,,,,,,,,,,,,,,,,,,,,,,,,,,,,,,,,,546.5875,553.4296,0,1,1,1,1,SoundStimuli/PokerFace_LadyGaga_Cover5S.wav,,,,,,,,,,,,,,,,,,,,,,,,,,,,,,,,,,,,,,,,,,,,,,,,,,,,,,,,,,
,,,,,806156,001,2024-06-17_11h00.51.690,experiment,2024.1.5,Win32,59.17159763,56780a5a89319e0011644cb4,667045947eb812cbdacbf325,66704f10306633c432245734,,,,,,,,,,,,,,,,,,,,,,,,,,,,,,,,,,,,,,,,,,,,553.4297,554.4293,3.888888889,0.9848,0,8,8,23,1,song_indices/PokerFace_LadyGaga.csv,,,,,,,,,,,,,,,,,,,,,,,,,,,,,,,,,,,,,,,,,,,,,,,,
,,,,,806156,001,2024-06-17_11h00.51.690,experiment,2024.1.5,Win32,59.17159763,56780a5a89319e0011644cb4,667045947eb812cbdacbf325,66704f10306633c432245734,,,,,,,,,,,,,,,,,,,,,,,,,,,,,,,,,,,,554.4303,561.8614,0,0,0,0,1,SoundStimuli/Kiss_Prince_Original5S.wav,,,,,,,,,,,,,,,,,,,,,,,,,,,,,,,,,,,,,,,,,,,,,,,,,,,,,,,,,,
,,,,,806156,001,2024-06-17_11h00.51.690,experiment,2024.1.5,Win32,59.17159763,56780a5a89319e0011644cb4,667045947eb812cbdacbf325,66704f10306633c432245734,,,,,,,,,,,,,,,,,,,,,,,,,,,,,,,,,,,,561.8687,568.1441,0,1,1,1,1,SoundStimuli/Kiss_Prince_Cover5S.wav,,,,,,,,,,,,,,,,,,,,,,,,,,,,,,,,,,,,,,,,,,,,,,,,,,,,,,,,,,
,,,,,806156,001,2024-06-17_11h00.51.690,experiment,2024.1.5,Win32,59.17159763,56780a5a89319e0011644cb4,667045947eb812cbdacbf325,66704f10306633c432245734,,,,,,,,,,,,,,,,,,,,,,,,,,,,,,,,,,,,,,,,,,,,568.1443,569.4439,1.10555564,1.288,0,9,9,14,1,song_indices/Kiss_Prince.csv,,,,,,,,,,,,,,,,,,,,,,,,,,,,,,,,,,,,,,,,,,,,,,,,
,,,,,806156,001,2024-06-17_11h00.51.690,experiment,2024.1.5,Win32,59.17159763,56780a5a89319e0011644cb4,667045947eb812cbdacbf325,66704f10306633c432245734,,,,,,,,,,,,,,,,,,,,,,,,,,,,,,,,,,,,569.4449,576.6774,0,0,0,0,1,SoundStimuli/SomebodyThatIUsedtoKnow_Gotye_Original5S.wav,,,,,,,,,,,,,,,,,,,,,,,,,,,,,,,,,,,,,,,,,,,,,,,,,,,,,,,,,,
,,,,,806156,001,2024-06-17_11h00.51.690,experiment,2024.1.5,Win32,59.17159763,56780a5a89319e0011644cb4,667045947eb812cbdacbf325,66704f10306633c432245734,,,,,,,,,,,,,,,,,,,,,,,,,,,,,,,,,,,,576.6844,583.4756,0,1,1,1,1,SoundStimuli/SomebodyThatIUsedtoKnow_Gotye_Cover5S.wav,,,,,,,,,,,,,,,,,,,,,,,,,,,,,,,,,,,,,,,,,,,,,,,,,,,,,,,,,,
,,,,,806156,001,2024-06-17_11h00.51.690,experiment,2024.1.5,Win32,59.17159763,56780a5a89319e0011644cb4,667045947eb812cbdacbf325,66704f10306633c432245734,,,,,,,,,,,,,,,,,,,,,,,,,,,,,,,,,,,,,,,,,,,,583.4758,585.1919,5.938889398,1.6949,0,10,10,7,1,song_indices/SomebodyThatIUsedtoKnow_Gotye.csv,,,,,,,,,,,,,,,,,,,,,,,,,,,,,,,,,,,,,,,,,,,,,,,,
,,,,,806156,001,2024-06-17_11h00.51.690,experiment,2024.1.5,Win32,59.17159763,56780a5a89319e0011644cb4,667045947eb812cbdacbf325,66704f10306633c432245734,,,,,,,,,,,,,,,,,,,,,,,,,,,,,,,,,,,,585.1926,590.3246,0,0,0,1,1,SoundStimuli/JoyToTheWorld_ThreeDogNight_Cover5S.wav,,,,,,,,,,,,,,,,,,,,,,,,,,,,,,,,,,,,,,,,,,,,,,,,,,,,,,,,,,
,,,,,806156,001,2024-06-17_11h00.51.690,experiment,2024.1.5,Win32,59.17159763,56780a5a89319e0011644cb4,667045947eb812cbdacbf325,66704f10306633c432245734,,,,,,,,,,,,,,,,,,,,,,,,,,,,,,,,,,,,590.3319,596.4406,0,1,1,0,1,SoundStimuli/JoyToTheWorld_ThreeDogNight_Original5S.wav,,,,,,,,,,,,,,,,,,,,,,,,,,,,,,,,,,,,,,,,,,,,,,,,,,,,,,,,,,
,,,,,806156,001,2024-06-17_11h00.51.690,experiment,2024.1.5,Win32,59.17159763,56780a5a89319e0011644cb4,667045947eb812cbdacbf325,66704f10306633c432245734,,,,,,,,,,,,,,,,,,,,,,,,,,,,,,,,,,,,,,,,,,,,596.4406,598.1901,4.861111111,1.7325,0,11,11,8,1,song_indices/JoyToTheWorld_ThreeDogNight.csv,,,,,,,,,,,,,,,,,,,,,,,,,,,,,,,,,,,,,,,,,,,,,,,,
,,,,,806156,001,2024-06-17_11h00.51.690,experiment,2024.1.5,Win32,59.17159763,56780a5a89319e0011644cb4,667045947eb812cbdacbf325,66704f10306633c432245734,,,,,,,,,,,,,,,,,,,,,,,,,,,,,,,,,,,,598.1911,604.3059,0,0,0,0,1,SoundStimuli/ComeAndGetYourLove_Redbone_Original5S.wav,,,,,,,,,,,,,,,,,,,,,,,,,,,,,,,,,,,,,,,,,,,,,,,,,,,,,,,,,,
,,,,,806156,001,2024-06-17_11h00.51.690,experiment,2024.1.5,Win32,59.17159763,56780a5a89319e0011644cb4,667045947eb812cbdacbf325,66704f10306633c432245734,,,,,,,,,,,,,,,,,,,,,,,,,,,,,,,,,,,,604.3189,611.3719,0,1,1,1,1,SoundStimuli/ComeAndGetYourLove_Redbone_Cover5S.wav,,,,,,,,,,,,,,,,,,,,,,,,,,,,,,,,,,,,,,,,,,,,,,,,,,,,,,,,,,
,,,,,806156,001,2024-06-17_11h00.51.690,experiment,2024.1.5,Win32,59.17159763,56780a5a89319e0011644cb4,667045947eb812cbdacbf325,66704f10306633c432245734,,,,,,,,,,,,,,,,,,,,,,,,,,,,,,,,,,,,,,,,,,,,611.372,613.0384,4.033333249,1.6515,0,12,12,22,1,song_indices/ComeAndGetYourLove_Redbone.csv,,,,,,,,,,,,,,,,,,,,,,,,,,,,,,,,,,,,,,,,,,,,,,,,
,,,,,806156,001,2024-06-17_11h00.51.690,experiment,2024.1.5,Win32,59.17159763,56780a5a89319e0011644cb4,667045947eb812cbdacbf325,66704f10306633c432245734,,,,,,,,,,,,,,,,,,,,,,,,,,,,,,,,,,,,613.0394,619.0541,0,0,0,1,1,SoundStimuli/TheSign_AceOfBase_Cover5S.wav,,,,,,,,,,,,,,,,,,,,,,,,,,,,,,,,,,,,,,,,,,,,,,,,,,,,,,,,,,
,,,,,806156,001,2024-06-17_11h00.51.690,experiment,2024.1.5,Win32,59.17159763,56780a5a89319e0011644cb4,667045947eb812cbdacbf325,66704f10306633c432245734,,,,,,,,,,,,,,,,,,,,,,,,,,,,,,,,,,,,619.0611,625.2202,0,1,1,0,1,SoundStimuli/TheSign_AceOfBase_Original5S.wav,,,,,,,,,,,,,,,,,,,,,,,,,,,,,,,,,,,,,,,,,,,,,,,,,,,,,,,,,,
,,,,,806156,001,2024-06-17_11h00.51.690,experiment,2024.1.5,Win32,59.17159763,56780a5a89319e0011644cb4,667045947eb812cbdacbf325,66704f10306633c432245734,,,,,,,,,,,,,,,,,,,,,,,,,,,,,,,,,,,,,,,,,,,,625.2203,627.6032,4.033333249,2.3631,0,13,13,5,1,song_indices/TheSign_AceOfBase.csv,,,,,,,,,,,,,,,,,,,,,,,,,,,,,,,,,,,,,,,,,,,,,,,,
,,,,,806156,001,2024-06-17_11h00.51.690,experiment,2024.1.5,Win32,59.17159763,56780a5a89319e0011644cb4,667045947eb812cbdacbf325,66704f10306633c432245734,,,,,,,,,,,,,,,,,,,,,,,,,,,,,,,,,,,,627.6039,634.3689,0,0,0,0,1,SoundStimuli/BlurredLines_RobinThicke_Original5S.wav,,,,,,,,,,,,,,,,,,,,,,,,,,,,,,,,,,,,,,,,,,,,,,,,,,,,,,,,,,
,,,,,806156,001,2024-06-17_11h00.51.690,experiment,2024.1.5,Win32,59.17159763,56780a5a89319e0011644cb4,667045947eb812cbdacbf325,66704f10306633c432245734,,,,,,,,,,,,,,,,,,,,,,,,,,,,,,,,,,,,634.3763,641.468,0,1,1,1,1,SoundStimuli/BlurredLines_RobinThicke_Cover5S.wav,,,,,,,,,,,,,,,,,,,,,,,,,,,,,,,,,,,,,,,,,,,,,,,,,,,,,,,,,,
,,,,,806156,001,2024-06-17_11h00.51.690,experiment,2024.1.5,Win32,59.17159763,56780a5a89319e0011644cb4,667045947eb812cbdacbf325,66704f10306633c432245734,,,,,,,,,,,,,,,,,,,,,,,,,,,,,,,,,,,,,,,,,,,,641.4681,643.0344,4.527777778,1.5498,0,14,14,9,1,song_indices/BlurredLines_RobinThicke.csv,,,,,,,,,,,,,,,,,,,,,,,,,,,,,,,,,,,,,,,,,,,,,,,,
,,,,,806156,001,2024-06-17_11h00.51.690,experiment,2024.1.5,Win32,59.17159763,56780a5a89319e0011644cb4,667045947eb812cbdacbf325,66704f10306633c432245734,,,,,,,,,,,,,,,,,,,,,,,,,,,,,,,,,,,,643.0352,649.1838,0,0,0,0,1,SoundStimuli/Superstition_StevieWonder_Original5S.wav,,,,,,,,,,,,,,,,,,,,,,,,,,,,,,,,,,,,,,,,,,,,,,,,,,,,,,,,,,
,,,,,806156,001,2024-06-17_11h00.51.690,experiment,2024.1.5,Win32,59.17159763,56780a5a89319e0011644cb4,667045947eb812cbdacbf325,66704f10306633c432245734,,,,,,,,,,,,,,,,,,,,,,,,,,,,,,,,,,,,649.1911,654.4998,0,1,1,1,1,SoundStimuli/Superstition_StevieWonder_Cover5S.wav,,,,,,,,,,,,,,,,,,,,,,,,,,,,,,,,,,,,,,,,,,,,,,,,,,,,,,,,,,
,,,,,806156,001,2024-06-17_11h00.51.690,experiment,2024.1.5,Win32,59.17159763,56780a5a89319e0011644cb4,667045947eb812cbdacbf325,66704f10306633c432245734,,,,,,,,,,,,,,,,,,,,,,,,,,,,,,,,,,,,,,,,,,,,654.5,655.5496,2.916666667,1.0312,0,15,15,15,1,song_indices/Superstition_StevieWonder.csv,,,,,,,,,,,,,,,,,,,,,,,,,,,,,,,,,,,,,,,,,,,,,,,,
,,,,,806156,001,2024-06-17_11h00.51.690,experiment,2024.1.5,Win32,59.17159763,56780a5a89319e0011644cb4,667045947eb812cbdacbf325,66704f10306633c432245734,,,,,,,,,,,,,,,,,,,,,,,,,,,,,,,,,,,,655.5504,661.6154,0,0,0,0,1,SoundStimuli/TossinAndTurnin_BobbyLewis_Original5S.wav,,,,,,,,,,,,,,,,,,,,,,,,,,,,,,,,,,,,,,,,,,,,,,,,,,,,,,,,,,
,,,,,806156,001,2024-06-17_11h00.51.690,experiment,2024.1.5,Win32,59.17159763,56780a5a89319e0011644cb4,667045947eb812cbdacbf325,66704f10306633c432245734,,,,,,,,,,,,,,,,,,,,,,,,,,,,,,,,,,,,661.6226,667.7313,0,1,1,1,1,SoundStimuli/TossinAndTurnin_BobbyLewis_Cover5S.wav,,,,,,,,,,,,,,,,,,,,,,,,,,,,,,,,,,,,,,,,,,,,,,,,,,,,,,,,,,
,,,,,806156,001,2024-06-17_11h00.51.690,experiment,2024.1.5,Win32,59.17159763,56780a5a89319e0011644cb4,667045947eb812cbdacbf325,66704f10306633c432245734,,,,,,,,,,,,,,,,,,,,,,,,,,,,,,,,,,,,,,,,,,,,667.7314,669.481,4.650000254,1.7345,0,16,16,13,1,song_indices/TossinAndTurnin_BobbyLewis.csv,,,,,,,,,,,,,,,,,,,,,,,,,,,,,,,,,,,,,,,,,,,,,,,,
,,,,,806156,001,2024-06-17_11h00.51.690,experiment,2024.1.5,Win32,59.17159763,56780a5a89319e0011644cb4,667045947eb812cbdacbf325,66704f10306633c432245734,,,,,,,,,,,,,,,,,,,,,,,,,,,,,,,,,,,,669.4819,676.1303,0,0,0,1,1,SoundStimuli/LetsGetItOn_MarvinGaye_Cover5S.wav,,,,,,,,,,,,,,,,,,,,,,,,,,,,,,,,,,,,,,,,,,,,,,,,,,,,,,,,,,
,,,,,806156,001,2024-06-17_11h00.51.690,experiment,2024.1.5,Win32,59.17159763,56780a5a89319e0011644cb4,667045947eb812cbdacbf325,66704f10306633c432245734,,,,,,,,,,,,,,,,,,,,,,,,,,,,,,,,,,,,676.1379,682.4294,0,1,1,0,1,SoundStimuli/LetsGetItOn_MarvinGaye_Original5S.wav,,,,,,,,,,,,,,,,,,,,,,,,,,,,,,,,,,,,,,,,,,,,,,,,,,,,,,,,,,
,,,,,806156,001,2024-06-17_11h00.51.690,experiment,2024.1.5,Win32,59.17159763,56780a5a89319e0011644cb4,667045947eb812cbdacbf325,66704f10306633c432245734,,,,,,,,,,,,,,,,,,,,,,,,,,,,,,,,,,,,,,,,,,,,682.4296,684.3291,2.466666751,1.8825,0,17,17,20,1,song_indices/LetsGetItOn_MarvinGaye.csv,,,,,,,,,,,,,,,,,,,,,,,,,,,,,,,,,,,,,,,,,,,,,,,,
,,,,,806156,001,2024-06-17_11h00.51.690,experiment,2024.1.5,Win32,59.17159763,56780a5a89319e0011644cb4,667045947eb812cbdacbf325,66704f10306633c432245734,,,,,,,,,,,,,,,,,,,,,,,,,,,,,,,,,,,,684.33,688.312,0,0,0,1,1,SoundStimuli/UnbreakMyHeart_ToniBraxton_Cover5S.wav,,,,,,,,,,,,,,,,,,,,,,,,,,,,,,,,,,,,,,,,,,,,,,,,,,,,,,,,,,
,,,,,806156,001,2024-06-17_11h00.51.690,experiment,2024.1.5,Win32,59.17159763,56780a5a89319e0011644cb4,667045947eb812cbdacbf325,66704f10306633c432245734,,,,,,,,,,,,,,,,,,,,,,,,,,,,,,,,,,,,688.3194,694.4112,0,1,1,0,1,SoundStimuli/UnbreakMyHeart_ToniBraxton_Original5S.wav,,,,,,,,,,,,,,,,,,,,,,,,,,,,,,,,,,,,,,,,,,,,,,,,,,,,,,,,,,
,,,,,806156,001,2024-06-17_11h00.51.690,experiment,2024.1.5,Win32,59.17159763,56780a5a89319e0011644cb4,667045947eb812cbdacbf325,66704f10306633c432245734,,,,,,,,,,,,,,,,,,,,,,,,,,,,,,,,,,,,,,,,,,,,694.4114,695.4278,1.288888931,0.9985,0,18,18,16,1,song_indices/UnbreakMyHeart_ToniBraxton.csv,,,,,,,,,,,,,,,,,,,,,,,,,,,,,,,,,,,,,,,,,,,,,,,,
,,,,,806156,001,2024-06-17_11h00.51.690,experiment,2024.1.5,Win32,59.17159763,56780a5a89319e0011644cb4,667045947eb812cbdacbf325,66704f10306633c432245734,,,,,,,,,,,,,,,,,,,,,,,,,,,,,,,,,,,,695.4286,702.9602,0,0,0,1,1,SoundStimuli/TikTok_Kesha_Cover5S.wav,,,,,,,,,,,,,,,,,,,,,,,,,,,,,,,,,,,,,,,,,,,,,,,,,,,,,,,,,,
,,,,,806156,001,2024-06-17_11h00.51.690,experiment,2024.1.5,Win32,59.17159763,56780a5a89319e0011644cb4,667045947eb812cbdacbf325,66704f10306633c432245734,,,,,,,,,,,,,,,,,,,,,,,,,,,,,,,,,,,,702.9675,709.1759,0,1,1,0,1,SoundStimuli/TikTok_Kesha_Original5S.wav,,,,,,,,,,,,,,,,,,,,,,,,,,,,,,,,,,,,,,,,,,,,,,,,,,,,,,,,,,
,,,,,806156,001,2024-06-17_11h00.51.690,experiment,2024.1.5,Win32,59.17159763,56780a5a89319e0011644cb4,667045947eb812cbdacbf325,66704f10306633c432245734,,,,,,,,,,,,,,,,,,,,,,,,,,,,,,,,,,,,,,,,,,,,709.1761,710.9093,3.461111281,1.7149,0,19,19,3,1,song_indices/TikTok_Kesha.csv,,,,,,,,,,,,,,,,,,,,,,,,,,,,,,,,,,,,,,,,,,,,,,,,
,,,,,806156,001,2024-06-17_11h00.51.690,experiment,2024.1.5,Win32,59.17159763,56780a5a89319e0011644cb4,667045947eb812cbdacbf325,66704f10306633c432245734,,,,,,,,,,,,,,,,,,,,,,,,,,,,,,,,,,,,710.91,717.3083,0,0,0,0,1,SoundStimuli/FlashdanceWhatAFeeling_IreneCara_Original5S.wav,,,,,,,,,,,,,,,,,,,,,,,,,,,,,,,,,,,,,,,,,,,,,,,,,,,,,,,,,,
,,,,,806156,001,2024-06-17_11h00.51.690,experiment,2024.1.5,Win32,59.17159763,56780a5a89319e0011644cb4,667045947eb812cbdacbf325,66704f10306633c432245734,,,,,,,,,,,,,,,,,,,,,,,,,,,,,,,,,,,,717.3158,724.5906,0,1,1,1,1,SoundStimuli/FlashdanceWhatAFeeling_IreneCara_Cover5S.wav,,,,,,,,,,,,,,,,,,,,,,,,,,,,,,,,,,,,,,,,,,,,,,,,,,,,,,,,,,
,,,,,806156,001,2024-06-17_11h00.51.690,experiment,2024.1.5,Win32,59.17159763,56780a5a89319e0011644cb4,667045947eb812cbdacbf325,66704f10306633c432245734,,,,,,,,,,,,,,,,,,,,,,,,,,,,,,,,,,,,,,,,,,,,724.5908,728.3569,5.544444614,3.7464,0,20,20,18,1,song_indices/FlashdanceWhatAFeeling_IreneCara.csv,,,,,,,,,,,,,,,,,,,,,,,,,,,,,,,,,,,,,,,,,,,,,,,,
,,,,,806156,001,2024-06-17_11h00.51.690,experiment,2024.1.5,Win32,59.17159763,56780a5a89319e0011644cb4,667045947eb812cbdacbf325,66704f10306633c432245734,,,,,,,,,,,,,,,,,,,,,,,,,,,,,,,,,,,,728.3576,734.8727,0,0,0,0,1,SoundStimuli/Dreams_FleetwoodMac_Original5S.wav,,,,,,,,,,,,,,,,,,,,,,,,,,,,,,,,,,,,,,,,,,,,,,,,,,,,,,,,,,
,,,,,806156,001,2024-06-17_11h00.51.690,experiment,2024.1.5,Win32,59.17159763,56780a5a89319e0011644cb4,667045947eb812cbdacbf325,66704f10306633c432245734,,,,,,,,,,,,,,,,,,,,,,,,,,,,,,,,,,,,734.8799,742.7049,0,1,1,1,1,SoundStimuli/Dreams_FleetwoodMac_Cover5S.wav,,,,,,,,,,,,,,,,,,,,,,,,,,,,,,,,,,,,,,,,,,,,,,,,,,,,,,,,,,
,,,,,806156,001,2024-06-17_11h00.51.690,experiment,2024.1.5,Win32,59.17159763,56780a5a89319e0011644cb4,667045947eb812cbdacbf325,66704f10306633c432245734,,,,,,,,,,,,,,,,,,,,,,,,,,,,,,,,,,,,,,,,,,,,742.7051,744.2048,1.35555564,1.4824,0,21,21,1,1,song_indices/Dreams_FleetwoodMac.csv,,,,,,,,,,,,,,,,,,,,,,,,,,,,,,,,,,,,,,,,,,,,,,,,
,,,,,806156,001,2024-06-17_11h00.51.690,experiment,2024.1.5,Win32,59.17159763,56780a5a89319e0011644cb4,667045947eb812cbdacbf325,66704f10306633c432245734,,,,,,,,,,,,,,,,,,,,,,,,,,,,,,,,,,,,744.2055,750.2374,0,0,0,0,1,SoundStimuli/HowDoILive_LeAnnRimes_Original5S.wav,,,,,,,,,,,,,,,,,,,,,,,,,,,,,,,,,,,,,,,,,,,,,,,,,,,,,,,,,,
,,,,,806156,001,2024-06-17_11h00.51.690,experiment,2024.1.5,Win32,59.17159763,56780a5a89319e0011644cb4,667045947eb812cbdacbf325,66704f10306633c432245734,,,,,,,,,,,,,,,,,,,,,,,,,,,,,,,,,,,,750.2446,755.7202,0,1,1,1,1,SoundStimuli/HowDoILive_LeAnnRimes_Cover5S.wav,,,,,,,,,,,,,,,,,,,,,,,,,,,,,,,,,,,,,,,,,,,,,,,,,,,,,,,,,,
,,,,,806156,001,2024-06-17_11h00.51.690,experiment,2024.1.5,Win32,59.17159763,56780a5a89319e0011644cb4,667045947eb812cbdacbf325,66704f10306633c432245734,,,,,,,,,,,,,,,,,,,,,,,,,,,,,,,,,,,,,,,,,,,,755.7203,760.236,3.233333588,4.4997,0,22,22,17,1,song_indices/HowDoILive_LeAnnRimes.csv,,,,,,,,,,,,,,,,,,,,,,,,,,,,,,,,,,,,,,,,,,,,,,,,
,,,,,806156,001,2024-06-17_11h00.51.690,experiment,2024.1.5,Win32,59.17159763,56780a5a89319e0011644cb4,667045947eb812cbdacbf325,66704f10306633c432245734,,,,,,,,,,,,,,,,,,,,,,,,,,,,,,,,,,,,760.237,766.3187,0,0,0,0,1,SoundStimuli/Weak_SWV_Original5S.wav,,,,,,,,,,,,,,,,,,,,,,,,,,,,,,,,,,,,,,,,,,,,,,,,,,,,,,,,,,
,,,,,806156,001,2024-06-17_11h00.51.690,experiment,2024.1.5,Win32,59.17159763,56780a5a89319e0011644cb4,667045947eb812cbdacbf325,66704f10306633c432245734,,,,,,,,,,,,,,,,,,,,,,,,,,,,,,,,,,,,766.3265,772.801,0,1,1,1,1,SoundStimuli/Weak_SWV_Cover5S.wav,,,,,,,,,,,,,,,,,,,,,,,,,,,,,,,,,,,,,,,,,,,,,,,,,,,,,,,,,,
,,,,,806156,001,2024-06-17_11h00.51.690,experiment,2024.1.5,Win32,59.17159763,56780a5a89319e0011644cb4,667045947eb812cbdacbf325,66704f10306633c432245734,,,,,,,,,,,,,,,,,,,,,,,,,,,,,,,,,,,,,,,,,,,,772.8012,775.0841,5.322222392,2.2659,0,23,23,6,1,song_indices/Weak_SWV.csv,,,,,,,,,,,,,,,,,,,,,,,,,,,,,,,,,,,,,,,,,,,,,,,,
,,,,,806156,001,2024-06-17_11h00.51.690,experiment,2024.1.5,Win32,59.17159763,56780a5a89319e0011644cb4,667045947eb812cbdacbf325,66704f10306633c432245734,,,,,,,,,,,,,,,,,,,,,,,,,,,,,,,,,,,,,,,,,,,,,,,,,,,,,,775.0843,781.3742,space,6.2735,,0,1,1,2,1,choose_song_b3.csv,,,,,,,,,,,,,,,,,,,,,,,,,,,,,,,,,,,,,
,,,,,806156,001,2024-06-17_11h00.51.690,experiment,2024.1.5,Win32,59.17159763,56780a5a89319e0011644cb4,667045947eb812cbdacbf325,66704f10306633c432245734,,,,,,,,,,,,,,,,,,,,,,,,,,,,,,,,,,,,781.3755,787.216,0,0,0,1,1,SoundStimuli/StayinAlive_BeeGees_Cover5S.wav,,,,,,,,,,,,,,,,,,,,,,,,,,,,,,,,,,,,,,,,,,,,,,,,,,,,,,,,,,
,,,,,806156,001,2024-06-17_11h00.51.690,experiment,2024.1.5,Win32,59.17159763,56780a5a89319e0011644cb4,667045947eb812cbdacbf325,66704f10306633c432245734,,,,,,,,,,,,,,,,,,,,,,,,,,,,,,,,,,,,787.223,793.2484,0,1,1,0,1,SoundStimuli/StayinAlive_BeeGees_Original5S.wav,,,,,,,,,,,,,,,,,,,,,,,,,,,,,,,,,,,,,,,,,,,,,,,,,,,,,,,,,,
,,,,,806156,001,2024-06-17_11h00.51.690,experiment,2024.1.5,Win32,59.17159763,56780a5a89319e0011644cb4,667045947eb812cbdacbf325,66704f10306633c432245734,,,,,,,,,,,,,,,,,,,,,,,,,,,,,,,,,,,,,,,,,,,,793.2486,794.8649,6.300000509,1.5948,0,0,0,2,1,song_indices/StayinAlive_BeeGees.csv,,,,,,,,,,,,,,,,,,,,,,,,,,,,,,,,,,,,,,,,,,,,,,,,
,,,,,806156,001,2024-06-17_11h00.51.690,experiment,2024.1.5,Win32,59.17159763,56780a5a89319e0011644cb4,667045947eb812cbdacbf325,66704f10306633c432245734,,,,,,,,,,,,,,,,,,,,,,,,,,,,,,,,,,,,794.8658,803.4639,0,0,0,1,1,SoundStimuli/HeatWaves_GlassAnimals_Cover5S.wav,,,,,,,,,,,,,,,,,,,,,,,,,,,,,,,,,,,,,,,,,,,,,,,,,,,,,,,,,,
,,,,,806156,001,2024-06-17_11h00.51.690,experiment,2024.1.5,Win32,59.17159763,56780a5a89319e0011644cb4,667045947eb812cbdacbf325,66704f10306633c432245734,,,,,,,,,,,,,,,,,,,,,,,,,,,,,,,,,,,,803.4711,809.563,0,1,1,0,1,SoundStimuli/HeatWaves_GlassAnimals_Original5S.wav,,,,,,,,,,,,,,,,,,,,,,,,,,,,,,,,,,,,,,,,,,,,,,,,,,,,,,,,,,
,,,,,806156,001,2024-06-17_11h00.51.690,experiment,2024.1.5,Win32,59.17159763,56780a5a89319e0011644cb4,667045947eb812cbdacbf325,66704f10306633c432245734,,,,,,,,,,,,,,,,,,,,,,,,,,,,,,,,,,,,,,,,,,,,809.5632,811.4128,5.14444436,1.8329,0,1,1,10,1,song_indices/HeatWaves_GlassAnimals.csv,,,,,,,,,,,,,,,,,,,,,,,,,,,,,,,,,,,,,,,,,,,,,,,,
,,,,,806156,001,2024-06-17_11h00.51.690,experiment,2024.1.5,Win32,59.17159763,56780a5a89319e0011644cb4,667045947eb812cbdacbf325,66704f10306633c432245734,,,,,,,,,,,,,,,,,,,,,,,,,,,,,,,,,,,,811.4136,817.9787,0,0,0,0,1,SoundStimuli/Despacito_LuisFonsiDaddyYankee_Original5S.wav,,,,,,,,,,,,,,,,,,,,,,,,,,,,,,,,,,,,,,,,,,,,,,,,,,,,,,,,,,
,,,,,806156,001,2024-06-17_11h00.51.690,experiment,2024.1.5,Win32,59.17159763,56780a5a89319e0011644cb4,667045947eb812cbdacbf325,66704f10306633c432245734,,,,,,,,,,,,,,,,,,,,,,,,,,,,,,,,,,,,817.986,824.5611,0,1,1,1,1,SoundStimuli/Despacito_LuisFonsiDaddyYankee_Cover5S.wav,,,,,,,,,,,,,,,,,,,,,,,,,,,,,,,,,,,,,,,,,,,,,,,,,,,,,,,,,,
,,,,,806156,001,2024-06-17_11h00.51.690,experiment,2024.1.5,Win32,59.17159763,56780a5a89319e0011644cb4,667045947eb812cbdacbf325,66704f10306633c432245734,,,,,,,,,,,,,,,,,,,,,,,,,,,,,,,,,,,,,,,,,,,,824.5612,826.0276,6.638888889,1.447,0,2,2,11,1,song_indices/Despacito_LuisFonsiDaddyYankee.csv,,,,,,,,,,,,,,,,,,,,,,,,,,,,,,,,,,,,,,,,,,,,,,,,
,,,,,806156,001,2024-06-17_11h00.51.690,experiment,2024.1.5,Win32,59.17159763,56780a5a89319e0011644cb4,667045947eb812cbdacbf325,66704f10306633c432245734,,,,,,,,,,,,,,,,,,,,,,,,,,,,,,,,,,,,826.0285,832.1768,0,0,0,0,1,SoundStimuli/LikeARollingStone_BobDylan_Original5S.wav,,,,,,,,,,,,,,,,,,,,,,,,,,,,,,,,,,,,,,,,,,,,,,,,,,,,,,,,,,
,,,,,806156,001,2024-06-17_11h00.51.690,experiment,2024.1.5,Win32,59.17159763,56780a5a89319e0011644cb4,667045947eb812cbdacbf325,66704f10306633c432245734,,,,,,,,,,,,,,,,,,,,,,,,,,,,,,,,,,,,832.1845,836.5763,0,1,1,1,1,SoundStimuli/LikeARollingStone_BobDylan_Cover5S.wav,,,,,,,,,,,,,,,,,,,,,,,,,,,,,,,,,,,,,,,,,,,,,,,,,,,,,,,,,,
,,,,,806156,001,2024-06-17_11h00.51.690,experiment,2024.1.5,Win32,59.17159763,56780a5a89319e0011644cb4,667045947eb812cbdacbf325,66704f10306633c432245734,,,,,,,,,,,,,,,,,,,,,,,,,,,,,,,,,,,,,,,,,,,,836.5765,839.0262,2.594444699,2.4422,0,3,3,12,1,song_indices/LikeARollingStone_BobDylan.csv,,,,,,,,,,,,,,,,,,,,,,,,,,,,,,,,,,,,,,,,,,,,,,,,
,,,,,806156,001,2024-06-17_11h00.51.690,experiment,2024.1.5,Win32,59.17159763,56780a5a89319e0011644cb4,667045947eb812cbdacbf325,66704f10306633c432245734,,,,,,,,,,,,,,,,,,,,,,,,,,,,,,,,,,,,839.0269,845.4251,0,0,0,0,1,SoundStimuli/MyGirl_TheTemptations_Original5S.wav,,,,,,,,,,,,,,,,,,,,,,,,,,,,,,,,,,,,,,,,,,,,,,,,,,,,,,,,,,
,,,,,806156,001,2024-06-17_11h00.51.690,experiment,2024.1.5,Win32,59.17159763,56780a5a89319e0011644cb4,667045947eb812cbdacbf325,66704f10306633c432245734,,,,,,,,,,,,,,,,,,,,,,,,,,,,,,,,,,,,845.4323,853.0907,0,1,1,1,1,SoundStimuli/MyGirl_TheTemptations_Cover5S.wav,,,,,,,,,,,,,,,,,,,,,,,,,,,,,,,,,,,,,,,,,,,,,,,,,,,,,,,,,,
,,,,,806156,001,2024-06-17_11h00.51.690,experiment,2024.1.5,Win32,59.17159763,56780a5a89319e0011644cb4,667045947eb812cbdacbf325,66704f10306633c432245734,,,,,,,,,,,,,,,,,,,,,,,,,,,,,,,,,,,,,,,,,,,,853.0908,855.4238,1.422222349,2.3159,0,4,4,15,1,song_indices/MyGirl_TheTemptations.csv,,,,,,,,,,,,,,,,,,,,,,,,,,,,,,,,,,,,,,,,,,,,,,,,
,,,,,806156,001,2024-06-17_11h00.51.690,experiment,2024.1.5,Win32,59.17159763,56780a5a89319e0011644cb4,667045947eb812cbdacbf325,66704f10306633c432245734,,,,,,,,,,,,,,,,,,,,,,,,,,,,,,,,,,,,855.4247,861.5564,0,0,0,0,1,SoundStimuli/StrawberryFieldsForever_TheBeatles_Original5S.wav,,,,,,,,,,,,,,,,,,,,,,,,,,,,,,,,,,,,,,,,,,,,,,,,,,,,,,,,,,
,,,,,806156,001,2024-06-17_11h00.51.690,experiment,2024.1.5,Win32,59.17159763,56780a5a89319e0011644cb4,667045947eb812cbdacbf325,66704f10306633c432245734,,,,,,,,,,,,,,,,,,,,,,,,,,,,,,,,,,,,861.5636,868.5887,0,1,1,1,1,SoundStimuli/StrawberryFieldsForever_TheBeatles_Cover5S.wav,,,,,,,,,,,,,,,,,,,,,,,,,,,,,,,,,,,,,,,,,,,,,,,,,,,,,,,,,,
,,,,,806156,001,2024-06-17_11h00.51.690,experiment,2024.1.5,Win32,59.17159763,56780a5a89319e0011644cb4,667045947eb812cbdacbf325,66704f10306633c432245734,,,,,,,,,,,,,,,,,,,,,,,,,,,,,,,,,,,,,,,,,,,,868.5888,869.9385,3.900000254,1.3288,0,5,5,14,1,song_indices/StrawberryFieldsForever_TheBeatles.csv,,,,,,,,,,,,,,,,,,,,,,,,,,,,,,,,,,,,,,,,,,,,,,,,
,,,,,806156,001,2024-06-17_11h00.51.690,experiment,2024.1.5,Win32,59.17159763,56780a5a89319e0011644cb4,667045947eb812cbdacbf325,66704f10306633c432245734,,,,,,,,,,,,,,,,,,,,,,,,,,,,,,,,,,,,869.9396,876.2878,0,0,0,0,1,SoundStimuli/EndlessLove_DianaRossLionelRichie_Original5S.wav,,,,,,,,,,,,,,,,,,,,,,,,,,,,,,,,,,,,,,,,,,,,,,,,,,,,,,,,,,
,,,,,806156,001,2024-06-17_11h00.51.690,experiment,2024.1.5,Win32,59.17159763,56780a5a89319e0011644cb4,667045947eb812cbdacbf325,66704f10306633c432245734,,,,,,,,,,,,,,,,,,,,,,,,,,,,,,,,,,,,876.2949,883.8035,0,1,1,1,1,SoundStimuli/EndlessLove_DianaRossLionelRichie_Cover5S.wav,,,,,,,,,,,,,,,,,,,,,,,,,,,,,,,,,,,,,,,,,,,,,,,,,,,,,,,,,,
,,,,,806156,001,2024-06-17_11h00.51.690,experiment,2024.1.5,Win32,59.17159763,56780a5a89319e0011644cb4,667045947eb812cbdacbf325,66704f10306633c432245734,,,,,,,,,,,,,,,,,,,,,,,,,,,,,,,,,,,,,,,,,,,,883.8036,885.1199,6.694444444,1.3086,0,6,6,3,1,song_indices/EndlessLove_DianaRossLionelRichie.csv,,,,,,,,,,,,,,,,,,,,,,,,,,,,,,,,,,,,,,,,,,,,,,,,
,,,,,806156,001,2024-06-17_11h00.51.690,experiment,2024.1.5,Win32,59.17159763,56780a5a89319e0011644cb4,667045947eb812cbdacbf325,66704f10306633c432245734,,,,,,,,,,,,,,,,,,,,,,,,,,,,,,,,,,,,885.1207,891.1692,0,0,0,1,1,SoundStimuli/IWantToHoldYourHand_TheBeatles_Cover5S.wav,,,,,,,,,,,,,,,,,,,,,,,,,,,,,,,,,,,,,,,,,,,,,,,,,,,,,,,,,,
,,,,,806156,001,2024-06-17_11h00.51.690,experiment,2024.1.5,Win32,59.17159763,56780a5a89319e0011644cb4,667045947eb812cbdacbf325,66704f10306633c432245734,,,,,,,,,,,,,,,,,,,,,,,,,,,,,,,,,,,,891.1766,896.9686,0,1,1,0,1,SoundStimuli/IWantToHoldYourHand_TheBeatles_Original5S.wav,,,,,,,,,,,,,,,,,,,,,,,,,,,,,,,,,,,,,,,,,,,,,,,,,,,,,,,,,,
,,,,,806156,001,2024-06-17_11h00.51.690,experiment,2024.1.5,Win32,59.17159763,56780a5a89319e0011644cb4,667045947eb812cbdacbf325,66704f10306633c432245734,,,,,,,,,,,,,,,,,,,,,,,,,,,,,,,,,,,,,,,,,,,,896.9686,899.3013,2.888888889,2.322,0,7,7,19,1,song_indices/IWantToHoldYourHand_TheBeatles.csv,,,,,,,,,,,,,,,,,,,,,,,,,,,,,,,,,,,,,,,,,,,,,,,,
,,,,,806156,001,2024-06-17_11h00.51.690,experiment,2024.1.5,Win32,59.17159763,56780a5a89319e0011644cb4,667045947eb812cbdacbf325,66704f10306633c432245734,,,,,,,,,,,,,,,,,,,,,,,,,,,,,,,,,,,,899.3023,905.6006,0,0,0,0,1,SoundStimuli/Mood_24kGoldnianndior_Original5S.wav,,,,,,,,,,,,,,,,,,,,,,,,,,,,,,,,,,,,,,,,,,,,,,,,,,,,,,,,,,
,,,,,806156,001,2024-06-17_11h00.51.690,experiment,2024.1.5,Win32,59.17159763,56780a5a89319e0011644cb4,667045947eb812cbdacbf325,66704f10306633c432245734,,,,,,,,,,,,,,,,,,,,,,,,,,,,,,,,,,,,905.6079,913.8997,0,1,1,1,1,SoundStimuli/Mood_24kGoldnianndior_Cover5S.wav,,,,,,,,,,,,,,,,,,,,,,,,,,,,,,,,,,,,,,,,,,,,,,,,,,,,,,,,,,
,,,,,806156,001,2024-06-17_11h00.51.690,experiment,2024.1.5,Win32,59.17159763,56780a5a89319e0011644cb4,667045947eb812cbdacbf325,66704f10306633c432245734,,,,,,,,,,,,,,,,,,,,,,,,,,,,,,,,,,,,,,,,,,,,913.8999,914.8165,3.366666582,0.9085,0,8,8,5,1,song_indices/Mood_24kGoldnianndior.csv,,,,,,,,,,,,,,,,,,,,,,,,,,,,,,,,,,,,,,,,,,,,,,,,
,,,,,806156,001,2024-06-17_11h00.51.690,experiment,2024.1.5,Win32,59.17159763,56780a5a89319e0011644cb4,667045947eb812cbdacbf325,66704f10306633c432245734,,,,,,,,,,,,,,,,,,,,,,,,,,,,,,,,,,,,914.8174,920.7819,0,0,0,0,1,SoundStimuli/BohemianRhapsody_Queen_Original5S.wav,,,,,,,,,,,,,,,,,,,,,,,,,,,,,,,,,,,,,,,,,,,,,,,,,,,,,,,,,,
,,,,,806156,001,2024-06-17_11h00.51.690,experiment,2024.1.5,Win32,59.17159763,56780a5a89319e0011644cb4,667045947eb812cbdacbf325,66704f10306633c432245734,,,,,,,,,,,,,,,,,,,,,,,,,,,,,,,,,,,,920.7891,924.8648,0,1,1,1,1,SoundStimuli/BohemianRhapsody_Queen_Cover5S.wav,,,,,,,,,,,,,,,,,,,,,,,,,,,,,,,,,,,,,,,,,,,,,,,,,,,,,,,,,,
,,,,,806156,001,2024-06-17_11h00.51.690,experiment,2024.1.5,Win32,59.17159763,56780a5a89319e0011644cb4,667045947eb812cbdacbf325,66704f10306633c432245734,,,,,,,,,,,,,,,,,,,,,,,,,,,,,,,,,,,,,,,,,,,,924.865,928.0145,2.70555581,3.1296,0,9,9,18,1,song_indices/BohemianRhapsody_Queen.csv,,,,,,,,,,,,,,,,,,,,,,,,,,,,,,,,,,,,,,,,,,,,,,,,
,,,,,806156,001,2024-06-17_11h00.51.690,experiment,2024.1.5,Win32,59.17159763,56780a5a89319e0011644cb4,667045947eb812cbdacbf325,66704f10306633c432245734,,,,,,,,,,,,,,,,,,,,,,,,,,,,,,,,,,,,928.0152,934.247,0,0,0,0,1,SoundStimuli/Smooth_SantanaRobThomas_Original5S.wav,,,,,,,,,,,,,,,,,,,,,,,,,,,,,,,,,,,,,,,,,,,,,,,,,,,,,,,,,,
,,,,,806156,001,2024-06-17_11h00.51.690,experiment,2024.1.5,Win32,59.17159763,56780a5a89319e0011644cb4,667045947eb812cbdacbf325,66704f10306633c432245734,,,,,,,,,,,,,,,,,,,,,,,,,,,,,,,,,,,,934.2541,940.3797,0,1,1,1,1,SoundStimuli/Smooth_SantanaRobThomas_Cover5S.wav,,,,,,,,,,,,,,,,,,,,,,,,,,,,,,,,,,,,,,,,,,,,,,,,,,,,,,,,,,
,,,,,806156,001,2024-06-17_11h00.51.690,experiment,2024.1.5,Win32,59.17159763,56780a5a89319e0011644cb4,667045947eb812cbdacbf325,66704f10306633c432245734,,,,,,,,,,,,,,,,,,,,,,,,,,,,,,,,,,,,,,,,,,,,940.3798,941.2961,5.955555386,0.8977,0,10,10,4,1,song_indices/Smooth_SantanaRobThomas.csv,,,,,,,,,,,,,,,,,,,,,,,,,,,,,,,,,,,,,,,,,,,,,,,,
,,,,,806156,001,2024-06-17_11h00.51.690,experiment,2024.1.5,Win32,59.17159763,56780a5a89319e0011644cb4,667045947eb812cbdacbf325,66704f10306633c432245734,,,,,,,,,,,,,,,,,,,,,,,,,,,,,,,,,,,,941.2971,948.1452,0,0,0,1,1,SoundStimuli/IWannaDanceWithSomebody_WhitneyHouston_Cover5S.wav,,,,,,,,,,,,,,,,,,,,,,,,,,,,,,,,,,,,,,,,,,,,,,,,,,,,,,,,,,
,,,,,806156,001,2024-06-17_11h00.51.690,experiment,2024.1.5,Win32,59.17159763,56780a5a89319e0011644cb4,667045947eb812cbdacbf325,66704f10306633c432245734,,,,,,,,,,,,,,,,,,,,,,,,,,,,,,,,,,,,948.153,953.7448,0,1,1,0,1,SoundStimuli/IWannaDanceWithSomebody_WhitneyHouston_Original5S.wav,,,,,,,,,,,,,,,,,,,,,,,,,,,,,,,,,,,,,,,,,,,,,,,,,,,,,,,,,,
,,,,,806156,001,2024-06-17_11h00.51.690,experiment,2024.1.5,Win32,59.17159763,56780a5a89319e0011644cb4,667045947eb812cbdacbf325,66704f10306633c432245734,,,,,,,,,,,,,,,,,,,,,,,,,,,,,,,,,,,,,,,,,,,,953.7452,957.1439,3.816666921,3.3884,0,11,11,13,1,song_indices/IWannaDanceWithSomebody_WhitneyHouston.csv,,,,,,,,,,,,,,,,,,,,,,,,,,,,,,,,,,,,,,,,,,,,,,,,
,,,,,806156,001,2024-06-17_11h00.51.690,experiment,2024.1.5,Win32,59.17159763,56780a5a89319e0011644cb4,667045947eb812cbdacbf325,66704f10306633c432245734,,,,,,,,,,,,,,,,,,,,,,,,,,,,,,,,,,,,957.1455,963.1933,0,0,0,0,1,SoundStimuli/AChangeIsGonnaCome_SamCooke_Original5S.wav,,,,,,,,,,,,,,,,,,,,,,,,,,,,,,,,,,,,,,,,,,,,,,,,,,,,,,,,,,
,,,,,806156,001,2024-06-17_11h00.51.690,experiment,2024.1.5,Win32,59.17159763,56780a5a89319e0011644cb4,667045947eb812cbdacbf325,66704f10306633c432245734,,,,,,,,,,,,,,,,,,,,,,,,,,,,,,,,,,,,963.2006,967.9093,0,1,1,1,1,SoundStimuli/AChangeIsGonnaCome_SamCooke_Cover5S.wav,,,,,,,,,,,,,,,,,,,,,,,,,,,,,,,,,,,,,,,,,,,,,,,,,,,,,,,,,,
,,,,,806156,001,2024-06-17_11h00.51.690,experiment,2024.1.5,Win32,59.17159763,56780a5a89319e0011644cb4,667045947eb812cbdacbf325,66704f10306633c432245734,,,,,,,,,,,,,,,,,,,,,,,,,,,,,,,,,,,,,,,,,,,,967.9094,969.3925,5.477777693,1.4703,0,12,12,17,1,song_indices/AChangeIsGonnaCome_SamCooke.csv,,,,,,,,,,,,,,,,,,,,,,,,,,,,,,,,,,,,,,,,,,,,,,,,
,,,,,806156,001,2024-06-17_11h00.51.690,experiment,2024.1.5,Win32,59.17159763,56780a5a89319e0011644cb4,667045947eb812cbdacbf325,66704f10306633c432245734,,,,,,,,,,,,,,,,,,,,,,,,,,,,,,,,,,,,969.3935,978.258,0,0,0,0,1,SoundStimuli/Perfect_EdSheeran_Original5S.wav,,,,,,,,,,,,,,,,,,,,,,,,,,,,,,,,,,,,,,,,,,,,,,,,,,,,,,,,,,
,,,,,806156,001,2024-06-17_11h00.51.690,experiment,2024.1.5,Win32,59.17159763,56780a5a89319e0011644cb4,667045947eb812cbdacbf325,66704f10306633c432245734,,,,,,,,,,,,,,,,,,,,,,,,,,,,,,,,,,,,978.2653,986.5236,0,1,1,1,1,SoundStimuli/Perfect_EdSheeran_Cover5S.wav,,,,,,,,,,,,,,,,,,,,,,,,,,,,,,,,,,,,,,,,,,,,,,,,,,,,,,,,,,
,,,,,806156,001,2024-06-17_11h00.51.690,experiment,2024.1.5,Win32,59.17159763,56780a5a89319e0011644cb4,667045947eb812cbdacbf325,66704f10306633c432245734,,,,,,,,,,,,,,,,,,,,,,,,,,,,,,,,,,,,,,,,,,,,986.5238,988.19,5.777777778,1.6467,0,13,13,0,1,song_indices/Perfect_EdSheeran.csv,,,,,,,,,,,,,,,,,,,,,,,,,,,,,,,,,,,,,,,,,,,,,,,,
,,,,,806156,001,2024-06-17_11h00.51.690,experiment,2024.1.5,Win32,59.17159763,56780a5a89319e0011644cb4,667045947eb812cbdacbf325,66704f10306633c432245734,,,,,,,,,,,,,,,,,,,,,,,,,,,,,,,,,,,,988.1913,994.2726,0,0,0,0,1,SoundStimuli/IllMakeLoveToYou_BoyzIIMen_Original5S.wav,,,,,,,,,,,,,,,,,,,,,,,,,,,,,,,,,,,,,,,,,,,,,,,,,,,,,,,,,,
,,,,,806156,001,2024-06-17_11h00.51.690,experiment,2024.1.5,Win32,59.17159763,56780a5a89319e0011644cb4,667045947eb812cbdacbf325,66704f10306633c432245734,,,,,,,,,,,,,,,,,,,,,,,,,,,,,,,,,,,,994.28,1000.2217,0,1,1,1,1,SoundStimuli/IllMakeLoveToYou_BoyzIIMen_Cover5S.wav,,,,,,,,,,,,,,,,,,,,,,,,,,,,,,,,,,,,,,,,,,,,,,,,,,,,,,,,,,
,,,,,806156,001,2024-06-17_11h00.51.690,experiment,2024.1.5,Win32,59.17159763,56780a5a89319e0011644cb4,667045947eb812cbdacbf325,66704f10306633c432245734,,,,,,,,,,,,,,,,,,,,,,,,,,,,,,,,,,,,,,,,,,,,1000.2218,1003.3048,5.222222222,3.063,0,14,14,6,1,song_indices/IllMakeLoveToYou_BoyzIIMen.csv,,,,,,,,,,,,,,,,,,,,,,,,,,,,,,,,,,,,,,,,,,,,,,,,
,,,,,806156,001,2024-06-17_11h00.51.690,experiment,2024.1.5,Win32,59.17159763,56780a5a89319e0011644cb4,667045947eb812cbdacbf325,66704f10306633c432245734,,,,,,,,,,,,,,,,,,,,,,,,,,,,,,,,,,,,1003.3054,1009.7539,0,0,0,0,1,SoundStimuli/BadDay_DanielPowter_Original5S.wav,,,,,,,,,,,,,,,,,,,,,,,,,,,,,,,,,,,,,,,,,,,,,,,,,,,,,,,,,,
,,,,,806156,001,2024-06-17_11h00.51.690,experiment,2024.1.5,Win32,59.17159763,56780a5a89319e0011644cb4,667045947eb812cbdacbf325,66704f10306633c432245734,,,,,,,,,,,,,,,,,,,,,,,,,,,,,,,,,,,,1009.7611,1017.253,0,1,1,1,1,SoundStimuli/BadDay_DanielPowter_Cover5S.wav,,,,,,,,,,,,,,,,,,,,,,,,,,,,,,,,,,,,,,,,,,,,,,,,,,,,,,,,,,
,,,,,806156,001,2024-06-17_11h00.51.690,experiment,2024.1.5,Win32,59.17159763,56780a5a89319e0011644cb4,667045947eb812cbdacbf325,66704f10306633c432245734,,,,,,,,,,,,,,,,,,,,,,,,,,,,,,,,,,,,,,,,,,,,1017.2531,1019.4026,4.550000085,2.1348,0,15,15,22,1,song_indices/BadDay_DanielPowter.csv,,,,,,,,,,,,,,,,,,,,,,,,,,,,,,,,,,,,,,,,,,,,,,,,
,,,,,806156,001,2024-06-17_11h00.51.690,experiment,2024.1.5,Win32,59.17159763,56780a5a89319e0011644cb4,667045947eb812cbdacbf325,66704f10306633c432245734,,,,,,,,,,,,,,,,,,,,,,,,,,,,,,,,,,,,1019.4035,1025.6686,0,0,0,1,1,SoundStimuli/MackTheKnife_BobbyDarin_Cover5S.wav,,,,,,,,,,,,,,,,,,,,,,,,,,,,,,,,,,,,,,,,,,,,,,,,,,,,,,,,,,
,,,,,806156,001,2024-06-17_11h00.51.690,experiment,2024.1.5,Win32,59.17159763,56780a5a89319e0011644cb4,667045947eb812cbdacbf325,66704f10306633c432245734,,,,,,,,,,,,,,,,,,,,,,,,,,,,,,,,,,,,1025.6758,1031.8176,0,1,1,0,1,SoundStimuli/MackTheKnife_BobbyDarin_Original5S.wav,,,,,,,,,,,,,,,,,,,,,,,,,,,,,,,,,,,,,,,,,,,,,,,,,,,,,,,,,,
,,,,,806156,001,2024-06-17_11h00.51.690,experiment,2024.1.5,Win32,59.17159763,56780a5a89319e0011644cb4,667045947eb812cbdacbf325,66704f10306633c432245734,,,,,,,,,,,,,,,,,,,,,,,,,,,,,,,,,,,,,,,,,,,,1031.8178,1035.6507,1.588889016,3.8129,0,16,16,21,1,song_indices/MackTheKnife_BobbyDarin.csv,,,,,,,,,,,,,,,,,,,,,,,,,,,,,,,,,,,,,,,,,,,,,,,,
,,,,,806156,001,2024-06-17_11h00.51.690,experiment,2024.1.5,Win32,59.17159763,56780a5a89319e0011644cb4,667045947eb812cbdacbf325,66704f10306633c432245734,,,,,,,,,,,,,,,,,,,,,,,,,,,,,,,,,,,,1035.6515,1043.0329,0,0,0,0,1,SoundStimuli/OldTownRoad_LilNasX_Original5S.wav,,,,,,,,,,,,,,,,,,,,,,,,,,,,,,,,,,,,,,,,,,,,,,,,,,,,,,,,,,
,,,,,806156,001,2024-06-17_11h00.51.690,experiment,2024.1.5,Win32,59.17159763,56780a5a89319e0011644cb4,667045947eb812cbdacbf325,66704f10306633c432245734,,,,,,,,,,,,,,,,,,,,,,,,,,,,,,,,,,,,1043.0403,1049.5487,0,1,1,1,1,SoundStimuli/OldTownRoad_LilNasX_Cover5S.wav,,,,,,,,,,,,,,,,,,,,,,,,,,,,,,,,,,,,,,,,,,,,,,,,,,,,,,,,,,
,,,,,806156,001,2024-06-17_11h00.51.690,experiment,2024.1.5,Win32,59.17159763,56780a5a89319e0011644cb4,667045947eb812cbdacbf325,66704f10306633c432245734,,,,,,,,,,,,,,,,,,,,,,,,,,,,,,,,,,,,,,,,,,,,1049.5488,1053.015,5.055555556,3.4515,0,17,17,20,1,song_indices/OldTownRoad_LilNasX.csv,,,,,,,,,,,,,,,,,,,,,,,,,,,,,,,,,,,,,,,,,,,,,,,,
,,,,,806156,001,2024-06-17_11h00.51.690,experiment,2024.1.5,Win32,59.17159763,56780a5a89319e0011644cb4,667045947eb812cbdacbf325,66704f10306633c432245734,,,,,,,,,,,,,,,,,,,,,,,,,,,,,,,,,,,,1053.0158,1061.1473,0,0,0,1,1,SoundStimuli/AnotherOneBitesTheDust_Queen_Cover5S.wav,,,,,,,,,,,,,,,,,,,,,,,,,,,,,,,,,,,,,,,,,,,,,,,,,,,,,,,,,,
,,,,,806156,001,2024-06-17_11h00.51.690,experiment,2024.1.5,Win32,59.17159763,56780a5a89319e0011644cb4,667045947eb812cbdacbf325,66704f10306633c432245734,,,,,,,,,,,,,,,,,,,,,,,,,,,,,,,,,,,,1061.1548,1067.1965,0,1,1,0,1,SoundStimuli/AnotherOneBitesTheDust_Queen_Original5S.wav,,,,,,,,,,,,,,,,,,,,,,,,,,,,,,,,,,,,,,,,,,,,,,,,,,,,,,,,,,
,,,,,806156,001,2024-06-17_11h00.51.690,experiment,2024.1.5,Win32,59.17159763,56780a5a89319e0011644cb4,667045947eb812cbdacbf325,66704f10306633c432245734,,,,,,,,,,,,,,,,,,,,,,,,,,,,,,,,,,,,,,,,,,,,1067.1967,1068.113,5.055555556,0.8992,0,18,18,9,1,song_indices/AnotherOneBitesTheDust_Queen.csv,,,,,,,,,,,,,,,,,,,,,,,,,,,,,,,,,,,,,,,,,,,,,,,,
,,,,,806156,001,2024-06-17_11h00.51.690,experiment,2024.1.5,Win32,59.17159763,56780a5a89319e0011644cb4,667045947eb812cbdacbf325,66704f10306633c432245734,,,,,,,,,,,,,,,,,,,,,,,,,,,,,,,,,,,,1068.1139,1074.9788,0,0,0,1,1,SoundStimuli/GodOnlyKnows_TheBeachBoys_Cover5S.wav,,,,,,,,,,,,,,,,,,,,,,,,,,,,,,,,,,,,,,,,,,,,,,,,,,,,,,,,,,
,,,,,806156,001,2024-06-17_11h00.51.690,experiment,2024.1.5,Win32,59.17159763,56780a5a89319e0011644cb4,667045947eb812cbdacbf325,66704f10306633c432245734,,,,,,,,,,,,,,,,,,,,,,,,,,,,,,,,,,,,1074.9861,1081.228,0,1,1,0,1,SoundStimuli/GodOnlyKnows_TheBeachBoys_Original5S.wav,,,,,,,,,,,,,,,,,,,,,,,,,,,,,,,,,,,,,,,,,,,,,,,,,,,,,,,,,,
,,,,,806156,001,2024-06-17_11h00.51.690,experiment,2024.1.5,Win32,59.17159763,56780a5a89319e0011644cb4,667045947eb812cbdacbf325,66704f10306633c432245734,,,,,,,,,,,,,,,,,,,,,,,,,,,,,,,,,,,,,,,,,,,,1081.2281,1083.6945,2.205555598,2.4462,0,19,19,8,1,song_indices/GodOnlyKnows_TheBeachBoys.csv,,,,,,,,,,,,,,,,,,,,,,,,,,,,,,,,,,,,,,,,,,,,,,,,
,,,,,806156,001,2024-06-17_11h00.51.690,experiment,2024.1.5,Win32,59.17159763,56780a5a89319e0011644cb4,667045947eb812cbdacbf325,66704f10306633c432245734,,,,,,,,,,,,,,,,,,,,,,,,,,,,,,,,,,,,1083.6954,1089.9103,0,0,0,1,1,SoundStimuli/LikeAPrayer_Madonna_Cover5S.wav,,,,,,,,,,,,,,,,,,,,,,,,,,,,,,,,,,,,,,,,,,,,,,,,,,,,,,,,,,
,,,,,806156,001,2024-06-17_11h00.51.690,experiment,2024.1.5,Win32,59.17159763,56780a5a89319e0011644cb4,667045947eb812cbdacbf325,66704f10306633c432245734,,,,,,,,,,,,,,,,,,,,,,,,,,,,,,,,,,,,1089.9175,1096.1097,0,1,1,0,1,SoundStimuli/LikeAPrayer_Madonna_Original5S.wav,,,,,,,,,,,,,,,,,,,,,,,,,,,,,,,,,,,,,,,,,,,,,,,,,,,,,,,,,,
,,,,,806156,001,2024-06-17_11h00.51.690,experiment,2024.1.5,Win32,59.17159763,56780a5a89319e0011644cb4,667045947eb812cbdacbf325,66704f10306633c432245734,,,,,,,,,,,,,,,,,,,,,,,,,,,,,,,,,,,,,,,,,,,,1096.1099,1097.2926,5.083333333,1.1657,0,20,20,7,1,song_indices/LikeAPrayer_Madonna.csv,,,,,,,,,,,,,,,,,,,,,,,,,,,,,,,,,,,,,,,,,,,,,,,,
,,,,,806156,001,2024-06-17_11h00.51.690,experiment,2024.1.5,Win32,59.17159763,56780a5a89319e0011644cb4,667045947eb812cbdacbf325,66704f10306633c432245734,,,,,,,,,,,,,,,,,,,,,,,,,,,,,,,,,,,,1097.2934,1104.9749,0,0,0,1,1,SoundStimuli/LivinOnAPrayer_BonJovi_Cover5S.wav,,,,,,,,,,,,,,,,,,,,,,,,,,,,,,,,,,,,,,,,,,,,,,,,,,,,,,,,,,
,,,,,806156,001,2024-06-17_11h00.51.690,experiment,2024.1.5,Win32,59.17159763,56780a5a89319e0011644cb4,667045947eb812cbdacbf325,66704f10306633c432245734,,,,,,,,,,,,,,,,,,,,,,,,,,,,,,,,,,,,1104.9823,1111.2241,0,1,1,0,1,SoundStimuli/LivinOnAPrayer_BonJovi_Original5S.wav,,,,,,,,,,,,,,,,,,,,,,,,,,,,,,,,,,,,,,,,,,,,,,,,,,,,,,,,,,
,,,,,806156,001,2024-06-17_11h00.51.690,experiment,2024.1.5,Win32,59.17159763,56780a5a89319e0011644cb4,667045947eb812cbdacbf325,66704f10306633c432245734,,,,,,,,,,,,,,,,,,,,,,,,,,,,,,,,,,,,,,,,,,,,1111.2242,1113.5906,3.927778032,2.3543,0,21,21,16,1,song_indices/LivinOnAPrayer_BonJovi.csv,,,,,,,,,,,,,,,,,,,,,,,,,,,,,,,,,,,,,,,,,,,,,,,,
,,,,,806156,001,2024-06-17_11h00.51.690,experiment,2024.1.5,Win32,59.17159763,56780a5a89319e0011644cb4,667045947eb812cbdacbf325,66704f10306633c432245734,,,,,,,,,,,,,,,,,,,,,,,,,,,,,,,,,,,,1113.5914,1119.9064,0,0,0,0,1,SoundStimuli/BridgeOverTroubledWater_SimonAndGarfunkel_Original5S.wav,,,,,,,,,,,,,,,,,,,,,,,,,,,,,,,,,,,,,,,,,,,,,,,,,,,,,,,,,,
,,,,,806156,001,2024-06-17_11h00.51.690,experiment,2024.1.5,Win32,59.17159763,56780a5a89319e0011644cb4,667045947eb812cbdacbf325,66704f10306633c432245734,,,,,,,,,,,,,,,,,,,,,,,,,,,,,,,,,,,,1119.9136,1126.6055,0,1,1,1,1,SoundStimuli/BridgeOverTroubledWater_SimonAndGarfunkel_Cover5S.wav,,,,,,,,,,,,,,,,,,,,,,,,,,,,,,,,,,,,,,,,,,,,,,,,,,,,,,,,,,
,,,,,806156,001,2024-06-17_11h00.51.690,experiment,2024.1.5,Win32,59.17159763,56780a5a89319e0011644cb4,667045947eb812cbdacbf325,66704f10306633c432245734,,,,,,,,,,,,,,,,,,,,,,,,,,,,,,,,,,,,,,,,,,,,1126.6057,1128.3886,4.972222222,1.7637,0,22,22,1,1,song_indices/BridgeOverTroubledWater_SimonAndGarfunkel.csv,,,,,,,,,,,,,,,,,,,,,,,,,,,,,,,,,,,,,,,,,,,,,,,,
,,,,,806156,001,2024-06-17_11h00.51.690,experiment,2024.1.5,Win32,59.17159763,56780a5a89319e0011644cb4,667045947eb812cbdacbf325,66704f10306633c432245734,,,,,,,,,,,,,,,,,,,,,,,,,,,,,,,,,,,,,,,,,,,,,,,,,,,,,,1128.3887,1128.3888,,,,0,2,2,0,1,choose_song_b1.csv,,,,,,,,,,,,,,,,,,,,,,,,,,,,,,,,,,,,,
,,,,,806156,001,2024-06-17_11h00.51.690,experiment,2024.1.5,Win32,59.17159763,56780a5a89319e0011644cb4,667045947eb812cbdacbf325,66704f10306633c432245734,,,,,,,,,,,,,,,,,,,,,,,,,,,,,,,,,,,,,,,,,,,,,,,,,,,,,,,,,,,,,,,,,48,Item 2,I have never been part of a musical performance myself but have taken my daughter top do them,Item 5,"youtube, amazon music, radio",6,5,"work, cleaning when im bored",Often,Rarely,Often,Often,Always,Always,Sometimes,Sometimes,Sometimes,Sometimes,Always,Often,Rarely,Rarely,Often,Often,"Alternative, grunge",Grunge,Alternative,Rock,I am open to more styles,they are captured,0,0,0,0,1,,
,,,,,806156,001,2024-06-17_11h00.51.690,experiment,2024.1.5,Win32,59.17159763,56780a5a89319e0011644cb4,667045947eb812cbdacbf325,66704f10306633c432245734,,,,,,,,,,,,,,,,,,,,,,,,,,,,,,,,,,,,,,,,,,,,,,,,,,,,,,,,,,,,,,,,,,,,,,,,,,,,,,,,,,,,,,,,,,,,,,,,,,,,1312.501,1314.3313
