welcome.started,welcome.stopped,space_to_continue.keys,space_to_continue.rt,space_to_continue.duration,participant,session,date,expName,psychopyVersion,OS,frameRate,PROLIFIC_PID,STUDY_ID,SESSION_ID,consent.consent,consent.consent_recontact,consent_check.started,consent_check.stopped,calibration_ready.started,calibration_ready.stopped,cal_ready.keys,cal_ready.rt,cal_ready.duration,calibration.started,calibration.stopped,mouse.x,mouse.y,mouse.leftButton,mouse.midButton,mouse.rightButton,mouse.time,mouse.clicked_name,move_on.keys,move_on.rt,move_on.duration,instructions.started,instructions.stopped,next.keys,next.rt,next.duration,practice_trial.started,practice_trial.stopped,practice_slider.response,practice_slider.rt,ready.started,ready.stopped,key_resp.keys,key_resp.rt,key_resp.duration,play_sound.started,play_sound.stopped,trials.thisRepN,trials.thisTrialN,trials.thisN,trials.thisIndex,trials.ran,orig_or_cover,rating.started,rating.stopped,slider.response,slider.rt,songs.thisRepN,songs.thisTrialN,songs.thisN,songs.thisIndex,songs.ran,song_id,short_break.started,short_break.stopped,space_to_move_on.keys,space_to_move_on.rt,space_to_move_on.duration,blocks.thisRepN,blocks.thisTrialN,blocks.thisN,blocks.thisIndex,blocks.ran,block,survey.age,survey.musician,survey.music_making,survey.listen_time,survey.medium,survey.music_seeking,survey.music_choice,survey.activities,survey.question1.Jazz,survey.question1.Hip hop,survey.question1.Classical,survey.question1.Folk/indie,survey.question1.Classic rock,survey.question1.Electronic (EDM),survey.question1.Country,survey.question1.Pop,survey.question1.Latin,survey.question1.A cappella,survey.question1.Alternative rock,survey.question1.Metal,survey.question1.Disco,survey.question1.R&B,survey.question1.Ambient,survey.question1.Reggae,survey.other_genres,survey.genres_ranked.text1,survey.genres_ranked.text2,survey.genres_ranked.text3,survey.habit_change,survey.habits,experiment.thisRepN,experiment.thisTrialN,experiment.thisN,experiment.thisIndex,experiment.ran,goodbye.started,goodbye.stopped
0.0006,2.8338,space,2.8042,,879786,001,2024-06-17_09h33.44.890,experiment,2024.1.5,Win32,60.24096386,5b666901f7798c000182c01c,667045947eb812cbdacbf325,66704908ae1bf672117acb9a,,,,,,,,,,,,,,,,,,,,,,,,,,,,,,,,,,,,,,,,,,,,,,,,,,,,,,,,,,,,,,,,,,,,,,,,,,,,,,,,,,,,,,,,,,,,,,,,,,,,,
,,,,,879786,001,2024-06-17_09h33.44.890,experiment,2024.1.5,Win32,60.24096386,5b666901f7798c000182c01c,667045947eb812cbdacbf325,66704908ae1bf672117acb9a,yes,yes,,,,,,,,,,,,,,,,,,,,,,,,,,,,,,,,,,,,,,,,,,,,,,,,,,,,,,,,,,,,,,,,,,,,,,,,,,,,,,,,,,,,,,,,,,,,,,,,,,,
,,,,,879786,001,2024-06-17_09h33.44.890,experiment,2024.1.5,Win32,60.24096386,5b666901f7798c000182c01c,667045947eb812cbdacbf325,66704908ae1bf672117acb9a,,,27.2386,27.2393,,,,,,,,,,,,,,,,,,,,,,,,,,,,,,,,,,,,,,,,,,,,,,,,,,,,,,,,,,,,,,,,,,,,,,,,,,,,,,,,,,,,,,,,,,,,,,,,,
,,,,,879786,001,2024-06-17_09h33.44.890,experiment,2024.1.5,Win32,60.24096386,5b666901f7798c000182c01c,667045947eb812cbdacbf325,66704908ae1bf672117acb9a,,,,,27.242,33.5618,space,6.2835,,33.562,69.9522,"[0.016666666666666666,-0.001851851851851852]","[-0.4148148148148148,-0.43425925925925923]","[1,1]","[0,0]","[0,0]","[6.221300000004483,7.413899999998513]","[""play_button""]",right,26.3643,,69.9524,77.1115,space,7.1297,,77.1118,92.201,4.972222222,15.073,92.2013,97.336,space,5.1174,,97.368,103.5712,0,0,0,0,1,SoundStimuli/Dilemma_NellyKellyRowland_Original5S.wav,,,,,,,,,,,,,,,,,,,,,,,,,,,,,,,,,,,,,,,,,,,,,,,,,,,,,,,,,,
,,,,,879786,001,2024-06-17_09h33.44.890,experiment,2024.1.5,Win32,60.24096386,5b666901f7798c000182c01c,667045947eb812cbdacbf325,66704908ae1bf672117acb9a,,,,,,,,,,,,,,,,,,,,,,,,,,,,,,,,,,,,103.572,110.5567,0,1,1,1,1,SoundStimuli/Dilemma_NellyKellyRowland_Cover5S.wav,,,,,,,,,,,,,,,,,,,,,,,,,,,,,,,,,,,,,,,,,,,,,,,,,,,,,,,,,,
,,,,,879786,001,2024-06-17_09h33.44.890,experiment,2024.1.5,Win32,60.24096386,5b666901f7798c000182c01c,667045947eb812cbdacbf325,66704908ae1bf672117acb9a,,,,,,,,,,,,,,,,,,,,,,,,,,,,,,,,,,,,,,,,,,,,110.5669,111.7749,3.961111111,1.205,0,0,0,2,1,song_indices/Dilemma_NellyKellyRowland.csv,,,,,,,,,,,,,,,,,,,,,,,,,,,,,,,,,,,,,,,,,,,,,,,,
,,,,,879786,001,2024-06-17_09h33.44.890,experiment,2024.1.5,Win32,60.24096386,5b666901f7798c000182c01c,667045947eb812cbdacbf325,66704908ae1bf672117acb9a,,,,,,,,,,,,,,,,,,,,,,,,,,,,,,,,,,,,111.7762,117.7928,0,0,0,0,1,SoundStimuli/Levitating_DuaLipa_Original5S.wav,,,,,,,,,,,,,,,,,,,,,,,,,,,,,,,,,,,,,,,,,,,,,,,,,,,,,,,,,,
,,,,,879786,001,2024-06-17_09h33.44.890,experiment,2024.1.5,Win32,60.24096386,5b666901f7798c000182c01c,667045947eb812cbdacbf325,66704908ae1bf672117acb9a,,,,,,,,,,,,,,,,,,,,,,,,,,,,,,,,,,,,117.8027,123.5118,0,1,1,1,1,SoundStimuli/Levitating_DuaLipa_Cover5S.wav,,,,,,,,,,,,,,,,,,,,,,,,,,,,,,,,,,,,,,,,,,,,,,,,,,,,,,,,,,
,,,,,879786,001,2024-06-17_09h33.44.890,experiment,2024.1.5,Win32,60.24096386,5b666901f7798c000182c01c,667045947eb812cbdacbf325,66704908ae1bf672117acb9a,,,,,,,,,,,,,,,,,,,,,,,,,,,,,,,,,,,,,,,,,,,,123.512,125.179,3.033333333,1.6558,0,1,1,10,1,song_indices/Levitating_DuaLipa.csv,,,,,,,,,,,,,,,,,,,,,,,,,,,,,,,,,,,,,,,,,,,,,,,,
,,,,,879786,001,2024-06-17_09h33.44.890,experiment,2024.1.5,Win32,60.24096386,5b666901f7798c000182c01c,667045947eb812cbdacbf325,66704908ae1bf672117acb9a,,,,,,,,,,,,,,,,,,,,,,,,,,,,,,,,,,,,125.1811,131.5812,0,0,0,0,1,SoundStimuli/FlashdanceWhatAFeeling_IreneCara_Original5S.wav,,,,,,,,,,,,,,,,,,,,,,,,,,,,,,,,,,,,,,,,,,,,,,,,,,,,,,,,,,
,,,,,879786,001,2024-06-17_09h33.44.890,experiment,2024.1.5,Win32,60.24096386,5b666901f7798c000182c01c,667045947eb812cbdacbf325,66704908ae1bf672117acb9a,,,,,,,,,,,,,,,,,,,,,,,,,,,,,,,,,,,,131.5902,138.8678,0,1,1,1,1,SoundStimuli/FlashdanceWhatAFeeling_IreneCara_Cover5S.wav,,,,,,,,,,,,,,,,,,,,,,,,,,,,,,,,,,,,,,,,,,,,,,,,,,,,,,,,,,
,,,,,879786,001,2024-06-17_09h33.44.890,experiment,2024.1.5,Win32,60.24096386,5b666901f7798c000182c01c,667045947eb812cbdacbf325,66704908ae1bf672117acb9a,,,,,,,,,,,,,,,,,,,,,,,,,,,,,,,,,,,,,,,,,,,,138.8681,140.8349,6.983333333,1.9536,0,2,2,18,1,song_indices/FlashdanceWhatAFeeling_IreneCara.csv,,,,,,,,,,,,,,,,,,,,,,,,,,,,,,,,,,,,,,,,,,,,,,,,
,,,,,879786,001,2024-06-17_09h33.44.890,experiment,2024.1.5,Win32,60.24096386,5b666901f7798c000182c01c,667045947eb812cbdacbf325,66704908ae1bf672117acb9a,,,,,,,,,,,,,,,,,,,,,,,,,,,,,,,,,,,,140.8367,146.137,0,0,0,1,1,SoundStimuli/Superstition_StevieWonder_Cover5S.wav,,,,,,,,,,,,,,,,,,,,,,,,,,,,,,,,,,,,,,,,,,,,,,,,,,,,,,,,,,
,,,,,879786,001,2024-06-17_09h33.44.890,experiment,2024.1.5,Win32,60.24096386,5b666901f7798c000182c01c,667045947eb812cbdacbf325,66704908ae1bf672117acb9a,,,,,,,,,,,,,,,,,,,,,,,,,,,,,,,,,,,,146.1464,152.289,0,1,1,0,1,SoundStimuli/Superstition_StevieWonder_Original5S.wav,,,,,,,,,,,,,,,,,,,,,,,,,,,,,,,,,,,,,,,,,,,,,,,,,,,,,,,,,,
,,,,,879786,001,2024-06-17_09h33.44.890,experiment,2024.1.5,Win32,60.24096386,5b666901f7798c000182c01c,667045947eb812cbdacbf325,66704908ae1bf672117acb9a,,,,,,,,,,,,,,,,,,,,,,,,,,,,,,,,,,,,,,,,,,,,152.2894,153.156,3.988888889,0.856,0,3,3,15,1,song_indices/Superstition_StevieWonder.csv,,,,,,,,,,,,,,,,,,,,,,,,,,,,,,,,,,,,,,,,,,,,,,,,
,,,,,879786,001,2024-06-17_09h33.44.890,experiment,2024.1.5,Win32,60.24096386,5b666901f7798c000182c01c,667045947eb812cbdacbf325,66704908ae1bf672117acb9a,,,,,,,,,,,,,,,,,,,,,,,,,,,,,,,,,,,,153.1577,160.5921,0,0,0,0,1,SoundStimuli/Kiss_Prince_Original5S.wav,,,,,,,,,,,,,,,,,,,,,,,,,,,,,,,,,,,,,,,,,,,,,,,,,,,,,,,,,,
,,,,,879786,001,2024-06-17_09h33.44.890,experiment,2024.1.5,Win32,60.24096386,5b666901f7798c000182c01c,667045947eb812cbdacbf325,66704908ae1bf672117acb9a,,,,,,,,,,,,,,,,,,,,,,,,,,,,,,,,,,,,160.6011,166.8778,0,1,1,1,1,SoundStimuli/Kiss_Prince_Cover5S.wav,,,,,,,,,,,,,,,,,,,,,,,,,,,,,,,,,,,,,,,,,,,,,,,,,,,,,,,,,,
,,,,,879786,001,2024-06-17_09h33.44.890,experiment,2024.1.5,Win32,60.24096386,5b666901f7798c000182c01c,667045947eb812cbdacbf325,66704908ae1bf672117acb9a,,,,,,,,,,,,,,,,,,,,,,,,,,,,,,,,,,,,,,,,,,,,166.8781,167.9615,1.044444444,1.0708,0,4,4,14,1,song_indices/Kiss_Prince.csv,,,,,,,,,,,,,,,,,,,,,,,,,,,,,,,,,,,,,,,,,,,,,,,,
,,,,,879786,001,2024-06-17_09h33.44.890,experiment,2024.1.5,Win32,60.24096386,5b666901f7798c000182c01c,667045947eb812cbdacbf325,66704908ae1bf672117acb9a,,,,,,,,,,,,,,,,,,,,,,,,,,,,,,,,,,,,167.9632,174.0805,0,0,0,0,1,SoundStimuli/JoyToTheWorld_ThreeDogNight_Original5S.wav,,,,,,,,,,,,,,,,,,,,,,,,,,,,,,,,,,,,,,,,,,,,,,,,,,,,,,,,,,
,,,,,879786,001,2024-06-17_09h33.44.890,experiment,2024.1.5,Win32,60.24096386,5b666901f7798c000182c01c,667045947eb812cbdacbf325,66704908ae1bf672117acb9a,,,,,,,,,,,,,,,,,,,,,,,,,,,,,,,,,,,,174.09,179.2158,0,1,1,1,1,SoundStimuli/JoyToTheWorld_ThreeDogNight_Cover5S.wav,,,,,,,,,,,,,,,,,,,,,,,,,,,,,,,,,,,,,,,,,,,,,,,,,,,,,,,,,,
,,,,,879786,001,2024-06-17_09h33.44.890,experiment,2024.1.5,Win32,60.24096386,5b666901f7798c000182c01c,667045947eb812cbdacbf325,66704908ae1bf672117acb9a,,,,,,,,,,,,,,,,,,,,,,,,,,,,,,,,,,,,,,,,,,,,179.2162,180.5995,5.994444444,1.3705,0,5,5,8,1,song_indices/JoyToTheWorld_ThreeDogNight.csv,,,,,,,,,,,,,,,,,,,,,,,,,,,,,,,,,,,,,,,,,,,,,,,,
,,,,,879786,001,2024-06-17_09h33.44.890,experiment,2024.1.5,Win32,60.24096386,5b666901f7798c000182c01c,667045947eb812cbdacbf325,66704908ae1bf672117acb9a,,,,,,,,,,,,,,,,,,,,,,,,,,,,,,,,,,,,180.6014,186.9023,0,0,0,0,1,SoundStimuli/LetsGetItOn_MarvinGaye_Original5S.wav,,,,,,,,,,,,,,,,,,,,,,,,,,,,,,,,,,,,,,,,,,,,,,,,,,,,,,,,,,
,,,,,879786,001,2024-06-17_09h33.44.890,experiment,2024.1.5,Win32,60.24096386,5b666901f7798c000182c01c,667045947eb812cbdacbf325,66704908ae1bf672117acb9a,,,,,,,,,,,,,,,,,,,,,,,,,,,,,,,,,,,,186.9112,193.5549,0,1,1,1,1,SoundStimuli/LetsGetItOn_MarvinGaye_Cover5S.wav,,,,,,,,,,,,,,,,,,,,,,,,,,,,,,,,,,,,,,,,,,,,,,,,,,,,,,,,,,
,,,,,879786,001,2024-06-17_09h33.44.890,experiment,2024.1.5,Win32,60.24096386,5b666901f7798c000182c01c,667045947eb812cbdacbf325,66704908ae1bf672117acb9a,,,,,,,,,,,,,,,,,,,,,,,,,,,,,,,,,,,,,,,,,,,,193.555,194.6433,3.972222222,1.0786,0,6,6,20,1,song_indices/LetsGetItOn_MarvinGaye.csv,,,,,,,,,,,,,,,,,,,,,,,,,,,,,,,,,,,,,,,,,,,,,,,,
,,,,,879786,001,2024-06-17_09h33.44.890,experiment,2024.1.5,Win32,60.24096386,5b666901f7798c000182c01c,667045947eb812cbdacbf325,66704908ae1bf672117acb9a,,,,,,,,,,,,,,,,,,,,,,,,,,,,,,,,,,,,194.6444,200.8631,0,0,0,0,1,SoundStimuli/TikTok_Kesha_Original5S.wav,,,,,,,,,,,,,,,,,,,,,,,,,,,,,,,,,,,,,,,,,,,,,,,,,,,,,,,,,,
,,,,,879786,001,2024-06-17_09h33.44.890,experiment,2024.1.5,Win32,60.24096386,5b666901f7798c000182c01c,667045947eb812cbdacbf325,66704908ae1bf672117acb9a,,,,,,,,,,,,,,,,,,,,,,,,,,,,,,,,,,,,200.8722,208.3934,0,1,1,1,1,SoundStimuli/TikTok_Kesha_Cover5S.wav,,,,,,,,,,,,,,,,,,,,,,,,,,,,,,,,,,,,,,,,,,,,,,,,,,,,,,,,,,
,,,,,879786,001,2024-06-17_09h33.44.890,experiment,2024.1.5,Win32,60.24096386,5b666901f7798c000182c01c,667045947eb812cbdacbf325,66704908ae1bf672117acb9a,,,,,,,,,,,,,,,,,,,,,,,,,,,,,,,,,,,,,,,,,,,,208.3937,210.6681,4.977777778,2.2545,0,7,7,3,1,song_indices/TikTok_Kesha.csv,,,,,,,,,,,,,,,,,,,,,,,,,,,,,,,,,,,,,,,,,,,,,,,,
,,,,,879786,001,2024-06-17_09h33.44.890,experiment,2024.1.5,Win32,60.24096386,5b666901f7798c000182c01c,667045947eb812cbdacbf325,66704908ae1bf672117acb9a,,,,,,,,,,,,,,,,,,,,,,,,,,,,,,,,,,,,210.6749,216.6797,0,0,0,1,1,SoundStimuli/TheSign_AceOfBase_Cover5S.wav,,,,,,,,,,,,,,,,,,,,,,,,,,,,,,,,,,,,,,,,,,,,,,,,,,,,,,,,,,
,,,,,879786,001,2024-06-17_09h33.44.890,experiment,2024.1.5,Win32,60.24096386,5b666901f7798c000182c01c,667045947eb812cbdacbf325,66704908ae1bf672117acb9a,,,,,,,,,,,,,,,,,,,,,,,,,,,,,,,,,,,,216.6889,222.8488,0,1,1,0,1,SoundStimuli/TheSign_AceOfBase_Original5S.wav,,,,,,,,,,,,,,,,,,,,,,,,,,,,,,,,,,,,,,,,,,,,,,,,,,,,,,,,,,
,,,,,879786,001,2024-06-17_09h33.44.890,experiment,2024.1.5,Win32,60.24096386,5b666901f7798c000182c01c,667045947eb812cbdacbf325,66704908ae1bf672117acb9a,,,,,,,,,,,,,,,,,,,,,,,,,,,,,,,,,,,,,,,,,,,,222.8489,224.2659,6.972222222,1.4039,0,8,8,5,1,song_indices/TheSign_AceOfBase.csv,,,,,,,,,,,,,,,,,,,,,,,,,,,,,,,,,,,,,,,,,,,,,,,,
,,,,,879786,001,2024-06-17_09h33.44.890,experiment,2024.1.5,Win32,60.24096386,5b666901f7798c000182c01c,667045947eb812cbdacbf325,66704908ae1bf672117acb9a,,,,,,,,,,,,,,,,,,,,,,,,,,,,,,,,,,,,224.2673,231.0684,0,0,0,1,1,SoundStimuli/BlindingLights_TheWeeknd_Cover5S.wav,,,,,,,,,,,,,,,,,,,,,,,,,,,,,,,,,,,,,,,,,,,,,,,,,,,,,,,,,,
,,,,,879786,001,2024-06-17_09h33.44.890,experiment,2024.1.5,Win32,60.24096386,5b666901f7798c000182c01c,667045947eb812cbdacbf325,66704908ae1bf672117acb9a,,,,,,,,,,,,,,,,,,,,,,,,,,,,,,,,,,,,231.0774,237.5544,0,1,1,0,1,SoundStimuli/BlindingLights_TheWeeknd_Original5S.wav,,,,,,,,,,,,,,,,,,,,,,,,,,,,,,,,,,,,,,,,,,,,,,,,,,,,,,,,,,
,,,,,879786,001,2024-06-17_09h33.44.890,experiment,2024.1.5,Win32,60.24096386,5b666901f7798c000182c01c,667045947eb812cbdacbf325,66704908ae1bf672117acb9a,,,,,,,,,,,,,,,,,,,,,,,,,,,,,,,,,,,,,,,,,,,,237.5545,238.1877,5.122222222,0.6209,0,9,9,21,1,song_indices/BlindingLights_TheWeeknd.csv,,,,,,,,,,,,,,,,,,,,,,,,,,,,,,,,,,,,,,,,,,,,,,,,
,,,,,879786,001,2024-06-17_09h33.44.890,experiment,2024.1.5,Win32,60.24096386,5b666901f7798c000182c01c,667045947eb812cbdacbf325,66704908ae1bf672117acb9a,,,,,,,,,,,,,,,,,,,,,,,,,,,,,,,,,,,,238.1896,244.9555,0,0,0,0,1,SoundStimuli/BlurredLines_RobinThicke_Original5S.wav,,,,,,,,,,,,,,,,,,,,,,,,,,,,,,,,,,,,,,,,,,,,,,,,,,,,,,,,,,
,,,,,879786,001,2024-06-17_09h33.44.890,experiment,2024.1.5,Win32,60.24096386,5b666901f7798c000182c01c,667045947eb812cbdacbf325,66704908ae1bf672117acb9a,,,,,,,,,,,,,,,,,,,,,,,,,,,,,,,,,,,,244.9648,252.0597,0,1,1,1,1,SoundStimuli/BlurredLines_RobinThicke_Cover5S.wav,,,,,,,,,,,,,,,,,,,,,,,,,,,,,,,,,,,,,,,,,,,,,,,,,,,,,,,,,,
,,,,,879786,001,2024-06-17_09h33.44.890,experiment,2024.1.5,Win32,60.24096386,5b666901f7798c000182c01c,667045947eb812cbdacbf325,66704908ae1bf672117acb9a,,,,,,,,,,,,,,,,,,,,,,,,,,,,,,,,,,,,,,,,,,,,252.0599,253.0969,4.994444444,1.0274,0,10,10,9,1,song_indices/BlurredLines_RobinThicke.csv,,,,,,,,,,,,,,,,,,,,,,,,,,,,,,,,,,,,,,,,,,,,,,,,
,,,,,879786,001,2024-06-17_09h33.44.890,experiment,2024.1.5,Win32,60.24096386,5b666901f7798c000182c01c,667045947eb812cbdacbf325,66704908ae1bf672117acb9a,,,,,,,,,,,,,,,,,,,,,,,,,,,,,,,,,,,,253.0981,259.5457,0,0,0,1,1,SoundStimuli/YouLightUpMyLife_DebbyBoone_Cover5S.wav,,,,,,,,,,,,,,,,,,,,,,,,,,,,,,,,,,,,,,,,,,,,,,,,,,,,,,,,,,
,,,,,879786,001,2024-06-17_09h33.44.890,experiment,2024.1.5,Win32,60.24096386,5b666901f7798c000182c01c,667045947eb812cbdacbf325,66704908ae1bf672117acb9a,,,,,,,,,,,,,,,,,,,,,,,,,,,,,,,,,,,,259.5546,265.6316,0,1,1,0,1,SoundStimuli/YouLightUpMyLife_DebbyBoone_Original5S.wav,,,,,,,,,,,,,,,,,,,,,,,,,,,,,,,,,,,,,,,,,,,,,,,,,,,,,,,,,,
,,,,,879786,001,2024-06-17_09h33.44.890,experiment,2024.1.5,Win32,60.24096386,5b666901f7798c000182c01c,667045947eb812cbdacbf325,66704908ae1bf672117acb9a,,,,,,,,,,,,,,,,,,,,,,,,,,,,,,,,,,,,,,,,,,,,265.6317,266.3649,6.972222222,0.7208,0,11,11,4,1,song_indices/YouLightUpMyLife_DebbyBoone.csv,,,,,,,,,,,,,,,,,,,,,,,,,,,,,,,,,,,,,,,,,,,,,,,,
,,,,,879786,001,2024-06-17_09h33.44.890,experiment,2024.1.5,Win32,60.24096386,5b666901f7798c000182c01c,667045947eb812cbdacbf325,66704908ae1bf672117acb9a,,,,,,,,,,,,,,,,,,,,,,,,,,,,,,,,,,,,266.3665,274.2013,0,0,0,1,1,SoundStimuli/Dreams_FleetwoodMac_Cover5S.wav,,,,,,,,,,,,,,,,,,,,,,,,,,,,,,,,,,,,,,,,,,,,,,,,,,,,,,,,,,
,,,,,879786,001,2024-06-17_09h33.44.890,experiment,2024.1.5,Win32,60.24096386,5b666901f7798c000182c01c,667045947eb812cbdacbf325,66704908ae1bf672117acb9a,,,,,,,,,,,,,,,,,,,,,,,,,,,,,,,,,,,,274.2103,280.7206,0,1,1,0,1,SoundStimuli/Dreams_FleetwoodMac_Original5S.wav,,,,,,,,,,,,,,,,,,,,,,,,,,,,,,,,,,,,,,,,,,,,,,,,,,,,,,,,,,
,,,,,879786,001,2024-06-17_09h33.44.890,experiment,2024.1.5,Win32,60.24096386,5b666901f7798c000182c01c,667045947eb812cbdacbf325,66704908ae1bf672117acb9a,,,,,,,,,,,,,,,,,,,,,,,,,,,,,,,,,,,,,,,,,,,,280.721,281.5206,3.044444444,0.7874,0,12,12,1,1,song_indices/Dreams_FleetwoodMac.csv,,,,,,,,,,,,,,,,,,,,,,,,,,,,,,,,,,,,,,,,,,,,,,,,
,,,,,879786,001,2024-06-17_09h33.44.890,experiment,2024.1.5,Win32,60.24096386,5b666901f7798c000182c01c,667045947eb812cbdacbf325,66704908ae1bf672117acb9a,,,,,,,,,,,,,,,,,,,,,,,,,,,,,,,,,,,,281.5232,288.54,0,0,0,0,1,SoundStimuli/PokerFace_LadyGaga_Original5S.wav,,,,,,,,,,,,,,,,,,,,,,,,,,,,,,,,,,,,,,,,,,,,,,,,,,,,,,,,,,
,,,,,879786,001,2024-06-17_09h33.44.890,experiment,2024.1.5,Win32,60.24096386,5b666901f7798c000182c01c,667045947eb812cbdacbf325,66704908ae1bf672117acb9a,,,,,,,,,,,,,,,,,,,,,,,,,,,,,,,,,,,,288.549,295.3923,0,1,1,1,1,SoundStimuli/PokerFace_LadyGaga_Cover5S.wav,,,,,,,,,,,,,,,,,,,,,,,,,,,,,,,,,,,,,,,,,,,,,,,,,,,,,,,,,,
,,,,,879786,001,2024-06-17_09h33.44.890,experiment,2024.1.5,Win32,60.24096386,5b666901f7798c000182c01c,667045947eb812cbdacbf325,66704908ae1bf672117acb9a,,,,,,,,,,,,,,,,,,,,,,,,,,,,,,,,,,,,,,,,,,,,295.3926,297.3924,3.927777778,1.9897,0,13,13,23,1,song_indices/PokerFace_LadyGaga.csv,,,,,,,,,,,,,,,,,,,,,,,,,,,,,,,,,,,,,,,,,,,,,,,,
,,,,,879786,001,2024-06-17_09h33.44.890,experiment,2024.1.5,Win32,60.24096386,5b666901f7798c000182c01c,667045947eb812cbdacbf325,66704908ae1bf672117acb9a,,,,,,,,,,,,,,,,,,,,,,,,,,,,,,,,,,,,297.3938,302.8786,0,0,0,1,1,SoundStimuli/HowDoILive_LeAnnRimes_Cover5S.wav,,,,,,,,,,,,,,,,,,,,,,,,,,,,,,,,,,,,,,,,,,,,,,,,,,,,,,,,,,
,,,,,879786,001,2024-06-17_09h33.44.890,experiment,2024.1.5,Win32,60.24096386,5b666901f7798c000182c01c,667045947eb812cbdacbf325,66704908ae1bf672117acb9a,,,,,,,,,,,,,,,,,,,,,,,,,,,,,,,,,,,,302.8886,308.9141,0,1,1,0,1,SoundStimuli/HowDoILive_LeAnnRimes_Original5S.wav,,,,,,,,,,,,,,,,,,,,,,,,,,,,,,,,,,,,,,,,,,,,,,,,,,,,,,,,,,
,,,,,879786,001,2024-06-17_09h33.44.890,experiment,2024.1.5,Win32,60.24096386,5b666901f7798c000182c01c,667045947eb812cbdacbf325,66704908ae1bf672117acb9a,,,,,,,,,,,,,,,,,,,,,,,,,,,,,,,,,,,,,,,,,,,,308.9143,309.7814,6.9,0.8542,0,14,14,17,1,song_indices/HowDoILive_LeAnnRimes.csv,,,,,,,,,,,,,,,,,,,,,,,,,,,,,,,,,,,,,,,,,,,,,,,,
,,,,,879786,001,2024-06-17_09h33.44.890,experiment,2024.1.5,Win32,60.24096386,5b666901f7798c000182c01c,667045947eb812cbdacbf325,66704908ae1bf672117acb9a,,,,,,,,,,,,,,,,,,,,,,,,,,,,,,,,,,,,309.7831,315.9837,0,0,0,0,1,SoundStimuli/SaveYourTears_TheWeekndArianaGrande_Original5S.wav,,,,,,,,,,,,,,,,,,,,,,,,,,,,,,,,,,,,,,,,,,,,,,,,,,,,,,,,,,
,,,,,879786,001,2024-06-17_09h33.44.890,experiment,2024.1.5,Win32,60.24096386,5b666901f7798c000182c01c,667045947eb812cbdacbf325,66704908ae1bf672117acb9a,,,,,,,,,,,,,,,,,,,,,,,,,,,,,,,,,,,,315.9935,321.8857,0,1,1,1,1,SoundStimuli/SaveYourTears_TheWeekndArianaGrande_Cover5S.wav,,,,,,,,,,,,,,,,,,,,,,,,,,,,,,,,,,,,,,,,,,,,,,,,,,,,,,,,,,
,,,,,879786,001,2024-06-17_09h33.44.890,experiment,2024.1.5,Win32,60.24096386,5b666901f7798c000182c01c,667045947eb812cbdacbf325,66704908ae1bf672117acb9a,,,,,,,,,,,,,,,,,,,,,,,,,,,,,,,,,,,,,,,,,,,,321.8859,322.686,5,0.7867,0,15,15,12,1,song_indices/SaveYourTears_TheWeekndArianaGrande.csv,,,,,,,,,,,,,,,,,,,,,,,,,,,,,,,,,,,,,,,,,,,,,,,,
,,,,,879786,001,2024-06-17_09h33.44.890,experiment,2024.1.5,Win32,60.24096386,5b666901f7798c000182c01c,667045947eb812cbdacbf325,66704908ae1bf672117acb9a,,,,,,,,,,,,,,,,,,,,,,,,,,,,,,,,,,,,322.6876,328.8056,0,0,0,1,1,SoundStimuli/TossinAndTurnin_BobbyLewis_Cover5S.wav,,,,,,,,,,,,,,,,,,,,,,,,,,,,,,,,,,,,,,,,,,,,,,,,,,,,,,,,,,
,,,,,879786,001,2024-06-17_09h33.44.890,experiment,2024.1.5,Win32,60.24096386,5b666901f7798c000182c01c,667045947eb812cbdacbf325,66704908ae1bf672117acb9a,,,,,,,,,,,,,,,,,,,,,,,,,,,,,,,,,,,,328.8133,334.8865,0,1,1,0,1,SoundStimuli/TossinAndTurnin_BobbyLewis_Original5S.wav,,,,,,,,,,,,,,,,,,,,,,,,,,,,,,,,,,,,,,,,,,,,,,,,,,,,,,,,,,
,,,,,879786,001,2024-06-17_09h33.44.890,experiment,2024.1.5,Win32,60.24096386,5b666901f7798c000182c01c,667045947eb812cbdacbf325,66704908ae1bf672117acb9a,,,,,,,,,,,,,,,,,,,,,,,,,,,,,,,,,,,,,,,,,,,,334.8868,336.2076,1.027777778,1.3107,0,16,16,13,1,song_indices/TossinAndTurnin_BobbyLewis.csv,,,,,,,,,,,,,,,,,,,,,,,,,,,,,,,,,,,,,,,,,,,,,,,,
,,,,,879786,001,2024-06-17_09h33.44.890,experiment,2024.1.5,Win32,60.24096386,5b666901f7798c000182c01c,667045947eb812cbdacbf325,66704908ae1bf672117acb9a,,,,,,,,,,,,,,,,,,,,,,,,,,,,,,,,,,,,336.2096,342.6936,0,0,0,1,1,SoundStimuli/Weak_SWV_Cover5S.wav,,,,,,,,,,,,,,,,,,,,,,,,,,,,,,,,,,,,,,,,,,,,,,,,,,,,,,,,,,
,,,,,879786,001,2024-06-17_09h33.44.890,experiment,2024.1.5,Win32,60.24096386,5b666901f7798c000182c01c,667045947eb812cbdacbf325,66704908ae1bf672117acb9a,,,,,,,,,,,,,,,,,,,,,,,,,,,,,,,,,,,,342.703,348.7794,0,1,1,0,1,SoundStimuli/Weak_SWV_Original5S.wav,,,,,,,,,,,,,,,,,,,,,,,,,,,,,,,,,,,,,,,,,,,,,,,,,,,,,,,,,,
,,,,,879786,001,2024-06-17_09h33.44.890,experiment,2024.1.5,Win32,60.24096386,5b666901f7798c000182c01c,667045947eb812cbdacbf325,66704908ae1bf672117acb9a,,,,,,,,,,,,,,,,,,,,,,,,,,,,,,,,,,,,,,,,,,,,348.7795,349.8463,3.994444444,1.0546,0,17,17,6,1,song_indices/Weak_SWV.csv,,,,,,,,,,,,,,,,,,,,,,,,,,,,,,,,,,,,,,,,,,,,,,,,
,,,,,879786,001,2024-06-17_09h33.44.890,experiment,2024.1.5,Win32,60.24096386,5b666901f7798c000182c01c,667045947eb812cbdacbf325,66704908ae1bf672117acb9a,,,,,,,,,,,,,,,,,,,,,,,,,,,,,,,,,,,,349.8481,355.3649,0,0,0,1,1,SoundStimuli/LeFreak_Chic_Cover5S.wav,,,,,,,,,,,,,,,,,,,,,,,,,,,,,,,,,,,,,,,,,,,,,,,,,,,,,,,,,,
,,,,,879786,001,2024-06-17_09h33.44.890,experiment,2024.1.5,Win32,60.24096386,5b666901f7798c000182c01c,667045947eb812cbdacbf325,66704908ae1bf672117acb9a,,,,,,,,,,,,,,,,,,,,,,,,,,,,,,,,,,,,355.3743,361.4005,0,1,1,0,1,SoundStimuli/LeFreak_Chic_Original5S.wav,,,,,,,,,,,,,,,,,,,,,,,,,,,,,,,,,,,,,,,,,,,,,,,,,,,,,,,,,,
,,,,,879786,001,2024-06-17_09h33.44.890,experiment,2024.1.5,Win32,60.24096386,5b666901f7798c000182c01c,667045947eb812cbdacbf325,66704908ae1bf672117acb9a,,,,,,,,,,,,,,,,,,,,,,,,,,,,,,,,,,,,,,,,,,,,361.4007,362.5014,6.983333333,1.0875,0,18,18,11,1,song_indices/LeFreak_Chic.csv,,,,,,,,,,,,,,,,,,,,,,,,,,,,,,,,,,,,,,,,,,,,,,,,
,,,,,879786,001,2024-06-17_09h33.44.890,experiment,2024.1.5,Win32,60.24096386,5b666901f7798c000182c01c,667045947eb812cbdacbf325,66704908ae1bf672117acb9a,,,,,,,,,,,,,,,,,,,,,,,,,,,,,,,,,,,,362.5034,368.3701,0,0,0,0,1,SoundStimuli/Irreplaceable_Beyonce_Original5S.wav,,,,,,,,,,,,,,,,,,,,,,,,,,,,,,,,,,,,,,,,,,,,,,,,,,,,,,,,,,
,,,,,879786,001,2024-06-17_09h33.44.890,experiment,2024.1.5,Win32,60.24096386,5b666901f7798c000182c01c,667045947eb812cbdacbf325,66704908ae1bf672117acb9a,,,,,,,,,,,,,,,,,,,,,,,,,,,,,,,,,,,,368.3797,374.2894,0,1,1,1,1,SoundStimuli/Irreplaceable_Beyonce_Cover5S.wav,,,,,,,,,,,,,,,,,,,,,,,,,,,,,,,,,,,,,,,,,,,,,,,,,,,,,,,,,,
,,,,,879786,001,2024-06-17_09h33.44.890,experiment,2024.1.5,Win32,60.24096386,5b666901f7798c000182c01c,667045947eb812cbdacbf325,66704908ae1bf672117acb9a,,,,,,,,,,,,,,,,,,,,,,,,,,,,,,,,,,,,,,,,,,,,374.2896,375.9226,5.972222222,1.6199,0,19,19,19,1,song_indices/Irreplaceable_Beyonce.csv,,,,,,,,,,,,,,,,,,,,,,,,,,,,,,,,,,,,,,,,,,,,,,,,
,,,,,879786,001,2024-06-17_09h33.44.890,experiment,2024.1.5,Win32,60.24096386,5b666901f7798c000182c01c,667045947eb812cbdacbf325,66704908ae1bf672117acb9a,,,,,,,,,,,,,,,,,,,,,,,,,,,,,,,,,,,,375.9241,382.7255,0,0,0,1,1,SoundStimuli/SomebodyThatIUsedtoKnow_Gotye_Cover5S.wav,,,,,,,,,,,,,,,,,,,,,,,,,,,,,,,,,,,,,,,,,,,,,,,,,,,,,,,,,,
,,,,,879786,001,2024-06-17_09h33.44.890,experiment,2024.1.5,Win32,60.24096386,5b666901f7798c000182c01c,667045947eb812cbdacbf325,66704908ae1bf672117acb9a,,,,,,,,,,,,,,,,,,,,,,,,,,,,,,,,,,,,382.7355,389.9736,0,1,1,0,1,SoundStimuli/SomebodyThatIUsedtoKnow_Gotye_Original5S.wav,,,,,,,,,,,,,,,,,,,,,,,,,,,,,,,,,,,,,,,,,,,,,,,,,,,,,,,,,,
,,,,,879786,001,2024-06-17_09h33.44.890,experiment,2024.1.5,Win32,60.24096386,5b666901f7798c000182c01c,667045947eb812cbdacbf325,66704908ae1bf672117acb9a,,,,,,,,,,,,,,,,,,,,,,,,,,,,,,,,,,,,,,,,,,,,389.9738,390.5282,6.005555556,0.5401,0,20,20,7,1,song_indices/SomebodyThatIUsedtoKnow_Gotye.csv,,,,,,,,,,,,,,,,,,,,,,,,,,,,,,,,,,,,,,,,,,,,,,,,
,,,,,879786,001,2024-06-17_09h33.44.890,experiment,2024.1.5,Win32,60.24096386,5b666901f7798c000182c01c,667045947eb812cbdacbf325,66704908ae1bf672117acb9a,,,,,,,,,,,,,,,,,,,,,,,,,,,,,,,,,,,,390.53,397.5973,0,0,0,1,1,SoundStimuli/ComeAndGetYourLove_Redbone_Cover5S.wav,,,,,,,,,,,,,,,,,,,,,,,,,,,,,,,,,,,,,,,,,,,,,,,,,,,,,,,,,,
,,,,,879786,001,2024-06-17_09h33.44.890,experiment,2024.1.5,Win32,60.24096386,5b666901f7798c000182c01c,667045947eb812cbdacbf325,66704908ae1bf672117acb9a,,,,,,,,,,,,,,,,,,,,,,,,,,,,,,,,,,,,397.62,403.7167,0,1,1,0,1,SoundStimuli/ComeAndGetYourLove_Redbone_Original5S.wav,,,,,,,,,,,,,,,,,,,,,,,,,,,,,,,,,,,,,,,,,,,,,,,,,,,,,,,,,,
,,,,,879786,001,2024-06-17_09h33.44.890,experiment,2024.1.5,Win32,60.24096386,5b666901f7798c000182c01c,667045947eb812cbdacbf325,66704908ae1bf672117acb9a,,,,,,,,,,,,,,,,,,,,,,,,,,,,,,,,,,,,,,,,,,,,403.717,404.2997,5.966666667,0.5725,0,21,21,22,1,song_indices/ComeAndGetYourLove_Redbone.csv,,,,,,,,,,,,,,,,,,,,,,,,,,,,,,,,,,,,,,,,,,,,,,,,
,,,,,879786,001,2024-06-17_09h33.44.890,experiment,2024.1.5,Win32,60.24096386,5b666901f7798c000182c01c,667045947eb812cbdacbf325,66704908ae1bf672117acb9a,,,,,,,,,,,,,,,,,,,,,,,,,,,,,,,,,,,,404.3012,410.4021,0,0,0,0,1,SoundStimuli/UnbreakMyHeart_ToniBraxton_Original5S.wav,,,,,,,,,,,,,,,,,,,,,,,,,,,,,,,,,,,,,,,,,,,,,,,,,,,,,,,,,,
,,,,,879786,001,2024-06-17_09h33.44.890,experiment,2024.1.5,Win32,60.24096386,5b666901f7798c000182c01c,667045947eb812cbdacbf325,66704908ae1bf672117acb9a,,,,,,,,,,,,,,,,,,,,,,,,,,,,,,,,,,,,410.4113,414.3869,0,1,1,1,1,SoundStimuli/UnbreakMyHeart_ToniBraxton_Cover5S.wav,,,,,,,,,,,,,,,,,,,,,,,,,,,,,,,,,,,,,,,,,,,,,,,,,,,,,,,,,,
,,,,,879786,001,2024-06-17_09h33.44.890,experiment,2024.1.5,Win32,60.24096386,5b666901f7798c000182c01c,667045947eb812cbdacbf325,66704908ae1bf672117acb9a,,,,,,,,,,,,,,,,,,,,,,,,,,,,,,,,,,,,,,,,,,,,414.3871,416.0717,4.1,1.6691,0,22,22,16,1,song_indices/UnbreakMyHeart_ToniBraxton.csv,,,,,,,,,,,,,,,,,,,,,,,,,,,,,,,,,,,,,,,,,,,,,,,,
,,,,,879786,001,2024-06-17_09h33.44.890,experiment,2024.1.5,Win32,60.24096386,5b666901f7798c000182c01c,667045947eb812cbdacbf325,66704908ae1bf672117acb9a,,,,,,,,,,,,,,,,,,,,,,,,,,,,,,,,,,,,416.0735,422.1403,0,0,0,1,1,SoundStimuli/Respect_ArethaFranklin_Cover5S.wav,,,,,,,,,,,,,,,,,,,,,,,,,,,,,,,,,,,,,,,,,,,,,,,,,,,,,,,,,,
,,,,,879786,001,2024-06-17_09h33.44.890,experiment,2024.1.5,Win32,60.24096386,5b666901f7798c000182c01c,667045947eb812cbdacbf325,66704908ae1bf672117acb9a,,,,,,,,,,,,,,,,,,,,,,,,,,,,,,,,,,,,422.1492,428.0757,0,1,1,0,1,SoundStimuli/Respect_ArethaFranklin_Original5S.wav,,,,,,,,,,,,,,,,,,,,,,,,,,,,,,,,,,,,,,,,,,,,,,,,,,,,,,,,,,
,,,,,879786,001,2024-06-17_09h33.44.890,experiment,2024.1.5,Win32,60.24096386,5b666901f7798c000182c01c,667045947eb812cbdacbf325,66704908ae1bf672117acb9a,,,,,,,,,,,,,,,,,,,,,,,,,,,,,,,,,,,,,,,,,,,,428.0759,429.426,3.9,1.3376,0,23,23,0,1,song_indices/Respect_ArethaFranklin.csv,,,,,,,,,,,,,,,,,,,,,,,,,,,,,,,,,,,,,,,,,,,,,,,,
,,,,,879786,001,2024-06-17_09h33.44.890,experiment,2024.1.5,Win32,60.24096386,5b666901f7798c000182c01c,667045947eb812cbdacbf325,66704908ae1bf672117acb9a,,,,,,,,,,,,,,,,,,,,,,,,,,,,,,,,,,,,,,,,,,,,,,,,,,,,,,429.4271,897.2279,space,467.7732,,0,0,0,2,1,choose_song_b3.csv,,,,,,,,,,,,,,,,,,,,,,,,,,,,,,,,,,,,,
,,,,,879786,001,2024-06-17_09h33.44.890,experiment,2024.1.5,Win32,60.24096386,5b666901f7798c000182c01c,667045947eb812cbdacbf325,66704908ae1bf672117acb9a,,,,,,,,,,,,,,,,,,,,,,,,,,,,,,,,,,,,897.2305,903.4195,0,0,0,0,1,SoundStimuli/LikeAPrayer_Madonna_Original5S.wav,,,,,,,,,,,,,,,,,,,,,,,,,,,,,,,,,,,,,,,,,,,,,,,,,,,,,,,,,,
,,,,,879786,001,2024-06-17_09h33.44.890,experiment,2024.1.5,Win32,60.24096386,5b666901f7798c000182c01c,667045947eb812cbdacbf325,66704908ae1bf672117acb9a,,,,,,,,,,,,,,,,,,,,,,,,,,,,,,,,,,,,903.4285,909.6385,0,1,1,1,1,SoundStimuli/LikeAPrayer_Madonna_Cover5S.wav,,,,,,,,,,,,,,,,,,,,,,,,,,,,,,,,,,,,,,,,,,,,,,,,,,,,,,,,,,
,,,,,879786,001,2024-06-17_09h33.44.890,experiment,2024.1.5,Win32,60.24096386,5b666901f7798c000182c01c,667045947eb812cbdacbf325,66704908ae1bf672117acb9a,,,,,,,,,,,,,,,,,,,,,,,,,,,,,,,,,,,,,,,,,,,,909.6387,910.406,5.122222222,0.7584,0,0,0,7,1,song_indices/LikeAPrayer_Madonna.csv,,,,,,,,,,,,,,,,,,,,,,,,,,,,,,,,,,,,,,,,,,,,,,,,
,,,,,879786,001,2024-06-17_09h33.44.890,experiment,2024.1.5,Win32,60.24096386,5b666901f7798c000182c01c,667045947eb812cbdacbf325,66704908ae1bf672117acb9a,,,,,,,,,,,,,,,,,,,,,,,,,,,,,,,,,,,,910.4075,917.4248,0,0,0,1,1,SoundStimuli/StrawberryFieldsForever_TheBeatles_Cover5S.wav,,,,,,,,,,,,,,,,,,,,,,,,,,,,,,,,,,,,,,,,,,,,,,,,,,,,,,,,,,
,,,,,879786,001,2024-06-17_09h33.44.890,experiment,2024.1.5,Win32,60.24096386,5b666901f7798c000182c01c,667045947eb812cbdacbf325,66704908ae1bf672117acb9a,,,,,,,,,,,,,,,,,,,,,,,,,,,,,,,,,,,,917.4342,923.5604,0,1,1,0,1,SoundStimuli/StrawberryFieldsForever_TheBeatles_Original5S.wav,,,,,,,,,,,,,,,,,,,,,,,,,,,,,,,,,,,,,,,,,,,,,,,,,,,,,,,,,,
,,,,,879786,001,2024-06-17_09h33.44.890,experiment,2024.1.5,Win32,60.24096386,5b666901f7798c000182c01c,667045947eb812cbdacbf325,66704908ae1bf672117acb9a,,,,,,,,,,,,,,,,,,,,,,,,,,,,,,,,,,,,,,,,,,,,923.5605,924.6274,3.972222222,1.0558,0,1,1,14,1,song_indices/StrawberryFieldsForever_TheBeatles.csv,,,,,,,,,,,,,,,,,,,,,,,,,,,,,,,,,,,,,,,,,,,,,,,,
,,,,,879786,001,2024-06-17_09h33.44.890,experiment,2024.1.5,Win32,60.24096386,5b666901f7798c000182c01c,667045947eb812cbdacbf325,66704908ae1bf672117acb9a,,,,,,,,,,,,,,,,,,,,,,,,,,,,,,,,,,,,924.6292,930.4134,0,0,0,0,1,SoundStimuli/IWantToHoldYourHand_TheBeatles_Original5S.wav,,,,,,,,,,,,,,,,,,,,,,,,,,,,,,,,,,,,,,,,,,,,,,,,,,,,,,,,,,
,,,,,879786,001,2024-06-17_09h33.44.890,experiment,2024.1.5,Win32,60.24096386,5b666901f7798c000182c01c,667045947eb812cbdacbf325,66704908ae1bf672117acb9a,,,,,,,,,,,,,,,,,,,,,,,,,,,,,,,,,,,,930.4223,936.4608,0,1,1,1,1,SoundStimuli/IWantToHoldYourHand_TheBeatles_Cover5S.wav,,,,,,,,,,,,,,,,,,,,,,,,,,,,,,,,,,,,,,,,,,,,,,,,,,,,,,,,,,
,,,,,879786,001,2024-06-17_09h33.44.890,experiment,2024.1.5,Win32,60.24096386,5b666901f7798c000182c01c,667045947eb812cbdacbf325,66704908ae1bf672117acb9a,,,,,,,,,,,,,,,,,,,,,,,,,,,,,,,,,,,,,,,,,,,,936.461,937.3497,2.983333333,0.8745,0,2,2,19,1,song_indices/IWantToHoldYourHand_TheBeatles.csv,,,,,,,,,,,,,,,,,,,,,,,,,,,,,,,,,,,,,,,,,,,,,,,,
,,,,,879786,001,2024-06-17_09h33.44.890,experiment,2024.1.5,Win32,60.24096386,5b666901f7798c000182c01c,667045947eb812cbdacbf325,66704908ae1bf672117acb9a,,,,,,,,,,,,,,,,,,,,,,,,,,,,,,,,,,,,937.3511,943.4847,0,0,0,1,1,SoundStimuli/Smooth_SantanaRobThomas_Cover5S.wav,,,,,,,,,,,,,,,,,,,,,,,,,,,,,,,,,,,,,,,,,,,,,,,,,,,,,,,,,,
,,,,,879786,001,2024-06-17_09h33.44.890,experiment,2024.1.5,Win32,60.24096386,5b666901f7798c000182c01c,667045947eb812cbdacbf325,66704908ae1bf672117acb9a,,,,,,,,,,,,,,,,,,,,,,,,,,,,,,,,,,,,943.4937,949.7036,0,1,1,0,1,SoundStimuli/Smooth_SantanaRobThomas_Original5S.wav,,,,,,,,,,,,,,,,,,,,,,,,,,,,,,,,,,,,,,,,,,,,,,,,,,,,,,,,,,
,,,,,879786,001,2024-06-17_09h33.44.890,experiment,2024.1.5,Win32,60.24096386,5b666901f7798c000182c01c,667045947eb812cbdacbf325,66704908ae1bf672117acb9a,,,,,,,,,,,,,,,,,,,,,,,,,,,,,,,,,,,,,,,,,,,,949.7039,950.2872,4.988888889,0.5724,0,3,3,4,1,song_indices/Smooth_SantanaRobThomas.csv,,,,,,,,,,,,,,,,,,,,,,,,,,,,,,,,,,,,,,,,,,,,,,,,
,,,,,879786,001,2024-06-17_09h33.44.890,experiment,2024.1.5,Win32,60.24096386,5b666901f7798c000182c01c,667045947eb812cbdacbf325,66704908ae1bf672117acb9a,,,,,,,,,,,,,,,,,,,,,,,,,,,,,,,,,,,,950.2889,958.4068,0,0,0,1,1,SoundStimuli/AnotherOneBitesTheDust_Queen_Cover5S.wav,,,,,,,,,,,,,,,,,,,,,,,,,,,,,,,,,,,,,,,,,,,,,,,,,,,,,,,,,,
,,,,,879786,001,2024-06-17_09h33.44.890,experiment,2024.1.5,Win32,60.24096386,5b666901f7798c000182c01c,667045947eb812cbdacbf325,66704908ae1bf672117acb9a,,,,,,,,,,,,,,,,,,,,,,,,,,,,,,,,,,,,958.4159,964.4425,0,1,1,0,1,SoundStimuli/AnotherOneBitesTheDust_Queen_Original5S.wav,,,,,,,,,,,,,,,,,,,,,,,,,,,,,,,,,,,,,,,,,,,,,,,,,,,,,,,,,,
,,,,,879786,001,2024-06-17_09h33.44.890,experiment,2024.1.5,Win32,60.24096386,5b666901f7798c000182c01c,667045947eb812cbdacbf325,66704908ae1bf672117acb9a,,,,,,,,,,,,,,,,,,,,,,,,,,,,,,,,,,,,,,,,,,,,964.4427,965.4927,4.994444444,1.0382,0,4,4,9,1,song_indices/AnotherOneBitesTheDust_Queen.csv,,,,,,,,,,,,,,,,,,,,,,,,,,,,,,,,,,,,,,,,,,,,,,,,
,,,,,879786,001,2024-06-17_09h33.44.890,experiment,2024.1.5,Win32,60.24096386,5b666901f7798c000182c01c,667045947eb812cbdacbf325,66704908ae1bf672117acb9a,,,,,,,,,,,,,,,,,,,,,,,,,,,,,,,,,,,,965.4947,974.0959,0,0,0,1,1,SoundStimuli/HeatWaves_GlassAnimals_Cover5S.wav,,,,,,,,,,,,,,,,,,,,,,,,,,,,,,,,,,,,,,,,,,,,,,,,,,,,,,,,,,
,,,,,879786,001,2024-06-17_09h33.44.890,experiment,2024.1.5,Win32,60.24096386,5b666901f7798c000182c01c,667045947eb812cbdacbf325,66704908ae1bf672117acb9a,,,,,,,,,,,,,,,,,,,,,,,,,,,,,,,,,,,,974.1049,980.1983,0,1,1,0,1,SoundStimuli/HeatWaves_GlassAnimals_Original5S.wav,,,,,,,,,,,,,,,,,,,,,,,,,,,,,,,,,,,,,,,,,,,,,,,,,,,,,,,,,,
,,,,,879786,001,2024-06-17_09h33.44.890,experiment,2024.1.5,Win32,60.24096386,5b666901f7798c000182c01c,667045947eb812cbdacbf325,66704908ae1bf672117acb9a,,,,,,,,,,,,,,,,,,,,,,,,,,,,,,,,,,,,,,,,,,,,980.1985,981.1821,6.961111111,0.9722,0,5,5,10,1,song_indices/HeatWaves_GlassAnimals.csv,,,,,,,,,,,,,,,,,,,,,,,,,,,,,,,,,,,,,,,,,,,,,,,,
,,,,,879786,001,2024-06-17_09h33.44.890,experiment,2024.1.5,Win32,60.24096386,5b666901f7798c000182c01c,667045947eb812cbdacbf325,66704908ae1bf672117acb9a,,,,,,,,,,,,,,,,,,,,,,,,,,,,,,,,,,,,981.1838,987.2177,0,0,0,0,1,SoundStimuli/AChangeIsGonnaCome_SamCooke_Original5S.wav,,,,,,,,,,,,,,,,,,,,,,,,,,,,,,,,,,,,,,,,,,,,,,,,,,,,,,,,,,
,,,,,879786,001,2024-06-17_09h33.44.890,experiment,2024.1.5,Win32,60.24096386,5b666901f7798c000182c01c,667045947eb812cbdacbf325,66704908ae1bf672117acb9a,,,,,,,,,,,,,,,,,,,,,,,,,,,,,,,,,,,,987.2267,991.9363,0,1,1,1,1,SoundStimuli/AChangeIsGonnaCome_SamCooke_Cover5S.wav,,,,,,,,,,,,,,,,,,,,,,,,,,,,,,,,,,,,,,,,,,,,,,,,,,,,,,,,,,
,,,,,879786,001,2024-06-17_09h33.44.890,experiment,2024.1.5,Win32,60.24096386,5b666901f7798c000182c01c,667045947eb812cbdacbf325,66704908ae1bf672117acb9a,,,,,,,,,,,,,,,,,,,,,,,,,,,,,,,,,,,,,,,,,,,,991.9364,997.1226,6.994444444,5.176,0,6,6,17,1,song_indices/AChangeIsGonnaCome_SamCooke.csv,,,,,,,,,,,,,,,,,,,,,,,,,,,,,,,,,,,,,,,,,,,,,,,,
,,,,,879786,001,2024-06-17_09h33.44.890,experiment,2024.1.5,Win32,60.24096386,5b666901f7798c000182c01c,667045947eb812cbdacbf325,66704908ae1bf672117acb9a,,,,,,,,,,,,,,,,,,,,,,,,,,,,,,,,,,,,997.1239,1003.6412,0,0,0,1,1,SoundStimuli/OldTownRoad_LilNasX_Cover5S.wav,,,,,,,,,,,,,,,,,,,,,,,,,,,,,,,,,,,,,,,,,,,,,,,,,,,,,,,,,,
,,,,,879786,001,2024-06-17_09h33.44.890,experiment,2024.1.5,Win32,60.24096386,5b666901f7798c000182c01c,667045947eb812cbdacbf325,66704908ae1bf672117acb9a,,,,,,,,,,,,,,,,,,,,,,,,,,,,,,,,,,,,1003.65,1011.0264,0,1,1,0,1,SoundStimuli/OldTownRoad_LilNasX_Original5S.wav,,,,,,,,,,,,,,,,,,,,,,,,,,,,,,,,,,,,,,,,,,,,,,,,,,,,,,,,,,
,,,,,879786,001,2024-06-17_09h33.44.890,experiment,2024.1.5,Win32,60.24096386,5b666901f7798c000182c01c,667045947eb812cbdacbf325,66704908ae1bf672117acb9a,,,,,,,,,,,,,,,,,,,,,,,,,,,,,,,,,,,,,,,,,,,,1011.0266,1013.0939,6.205555556,2.0559,0,7,7,20,1,song_indices/OldTownRoad_LilNasX.csv,,,,,,,,,,,,,,,,,,,,,,,,,,,,,,,,,,,,,,,,,,,,,,,,
,,,,,879786,001,2024-06-17_09h33.44.890,experiment,2024.1.5,Win32,60.24096386,5b666901f7798c000182c01c,667045947eb812cbdacbf325,66704908ae1bf672117acb9a,,,,,,,,,,,,,,,,,,,,,,,,,,,,,,,,,,,,1013.0957,1021.3969,0,0,0,1,1,SoundStimuli/Mood_24kGoldnianndior_Cover5S.wav,,,,,,,,,,,,,,,,,,,,,,,,,,,,,,,,,,,,,,,,,,,,,,,,,,,,,,,,,,
,,,,,879786,001,2024-06-17_09h33.44.890,experiment,2024.1.5,Win32,60.24096386,5b666901f7798c000182c01c,667045947eb812cbdacbf325,66704908ae1bf672117acb9a,,,,,,,,,,,,,,,,,,,,,,,,,,,,,,,,,,,,1021.406,1027.6998,0,1,1,0,1,SoundStimuli/Mood_24kGoldnianndior_Original5S.wav,,,,,,,,,,,,,,,,,,,,,,,,,,,,,,,,,,,,,,,,,,,,,,,,,,,,,,,,,,
,,,,,879786,001,2024-06-17_09h33.44.890,experiment,2024.1.5,Win32,60.24096386,5b666901f7798c000182c01c,667045947eb812cbdacbf325,66704908ae1bf672117acb9a,,,,,,,,,,,,,,,,,,,,,,,,,,,,,,,,,,,,,,,,,,,,1027.7001,1028.2505,6.022222222,0.5368,0,8,8,5,1,song_indices/Mood_24kGoldnianndior.csv,,,,,,,,,,,,,,,,,,,,,,,,,,,,,,,,,,,,,,,,,,,,,,,,
,,,,,879786,001,2024-06-17_09h33.44.890,experiment,2024.1.5,Win32,60.24096386,5b666901f7798c000182c01c,667045947eb812cbdacbf325,66704908ae1bf672117acb9a,,,,,,,,,,,,,,,,,,,,,,,,,,,,,,,,,,,,1028.2517,1034.5186,0,0,0,1,1,SoundStimuli/MackTheKnife_BobbyDarin_Cover5S.wav,,,,,,,,,,,,,,,,,,,,,,,,,,,,,,,,,,,,,,,,,,,,,,,,,,,,,,,,,,
,,,,,879786,001,2024-06-17_09h33.44.890,experiment,2024.1.5,Win32,60.24096386,5b666901f7798c000182c01c,667045947eb812cbdacbf325,66704908ae1bf672117acb9a,,,,,,,,,,,,,,,,,,,,,,,,,,,,,,,,,,,,1034.5281,1040.671,0,1,1,0,1,SoundStimuli/MackTheKnife_BobbyDarin_Original5S.wav,,,,,,,,,,,,,,,,,,,,,,,,,,,,,,,,,,,,,,,,,,,,,,,,,,,,,,,,,,
,,,,,879786,001,2024-06-17_09h33.44.890,experiment,2024.1.5,Win32,60.24096386,5b666901f7798c000182c01c,667045947eb812cbdacbf325,66704908ae1bf672117acb9a,,,,,,,,,,,,,,,,,,,,,,,,,,,,,,,,,,,,,,,,,,,,1040.6712,1042.9891,1.016666667,2.3067,0,9,9,21,1,song_indices/MackTheKnife_BobbyDarin.csv,,,,,,,,,,,,,,,,,,,,,,,,,,,,,,,,,,,,,,,,,,,,,,,,
,,,,,879786,001,2024-06-17_09h33.44.890,experiment,2024.1.5,Win32,60.24096386,5b666901f7798c000182c01c,667045947eb812cbdacbf325,66704908ae1bf672117acb9a,,,,,,,,,,,,,,,,,,,,,,,,,,,,,,,,,,,,1042.9902,1049.2412,0,0,0,0,1,SoundStimuli/LivinOnAPrayer_BonJovi_Original5S.wav,,,,,,,,,,,,,,,,,,,,,,,,,,,,,,,,,,,,,,,,,,,,,,,,,,,,,,,,,,
,,,,,879786,001,2024-06-17_09h33.44.890,experiment,2024.1.5,Win32,60.24096386,5b666901f7798c000182c01c,667045947eb812cbdacbf325,66704908ae1bf672117acb9a,,,,,,,,,,,,,,,,,,,,,,,,,,,,,,,,,,,,1049.2502,1056.9268,0,1,1,1,1,SoundStimuli/LivinOnAPrayer_BonJovi_Cover5S.wav,,,,,,,,,,,,,,,,,,,,,,,,,,,,,,,,,,,,,,,,,,,,,,,,,,,,,,,,,,
,,,,,879786,001,2024-06-17_09h33.44.890,experiment,2024.1.5,Win32,60.24096386,5b666901f7798c000182c01c,667045947eb812cbdacbf325,66704908ae1bf672117acb9a,,,,,,,,,,,,,,,,,,,,,,,,,,,,,,,,,,,,,,,,,,,,1056.927,1057.835,3.066666667,0.8885,0,10,10,16,1,song_indices/LivinOnAPrayer_BonJovi.csv,,,,,,,,,,,,,,,,,,,,,,,,,,,,,,,,,,,,,,,,,,,,,,,,
,,,,,879786,001,2024-06-17_09h33.44.890,experiment,2024.1.5,Win32,60.24096386,5b666901f7798c000182c01c,667045947eb812cbdacbf325,66704908ae1bf672117acb9a,,,,,,,,,,,,,,,,,,,,,,,,,,,,,,,,,,,,1057.8359,1063.6633,0,0,0,1,1,SoundStimuli/StayinAlive_BeeGees_Cover5S.wav,,,,,,,,,,,,,,,,,,,,,,,,,,,,,,,,,,,,,,,,,,,,,,,,,,,,,,,,,,
,,,,,879786,001,2024-06-17_09h33.44.890,experiment,2024.1.5,Win32,60.24096386,5b666901f7798c000182c01c,667045947eb812cbdacbf325,66704908ae1bf672117acb9a,,,,,,,,,,,,,,,,,,,,,,,,,,,,,,,,,,,,1063.6724,1069.6984,0,1,1,0,1,SoundStimuli/StayinAlive_BeeGees_Original5S.wav,,,,,,,,,,,,,,,,,,,,,,,,,,,,,,,,,,,,,,,,,,,,,,,,,,,,,,,,,,
,,,,,879786,001,2024-06-17_09h33.44.890,experiment,2024.1.5,Win32,60.24096386,5b666901f7798c000182c01c,667045947eb812cbdacbf325,66704908ae1bf672117acb9a,,,,,,,,,,,,,,,,,,,,,,,,,,,,,,,,,,,,,,,,,,,,1069.6987,1071.4825,5.961111111,1.7731,0,11,11,2,1,song_indices/StayinAlive_BeeGees.csv,,,,,,,,,,,,,,,,,,,,,,,,,,,,,,,,,,,,,,,,,,,,,,,,
,,,,,879786,001,2024-06-17_09h33.44.890,experiment,2024.1.5,Win32,60.24096386,5b666901f7798c000182c01c,667045947eb812cbdacbf325,66704908ae1bf672117acb9a,,,,,,,,,,,,,,,,,,,,,,,,,,,,,,,,,,,,1071.4839,1077.9351,0,0,0,0,1,SoundStimuli/BadDay_DanielPowter_Original5S.wav,,,,,,,,,,,,,,,,,,,,,,,,,,,,,,,,,,,,,,,,,,,,,,,,,,,,,,,,,,
,,,,,879786,001,2024-06-17_09h33.44.890,experiment,2024.1.5,Win32,60.24096386,5b666901f7798c000182c01c,667045947eb812cbdacbf325,66704908ae1bf672117acb9a,,,,,,,,,,,,,,,,,,,,,,,,,,,,,,,,,,,,1077.9441,1085.4379,0,1,1,1,1,SoundStimuli/BadDay_DanielPowter_Cover5S.wav,,,,,,,,,,,,,,,,,,,,,,,,,,,,,,,,,,,,,,,,,,,,,,,,,,,,,,,,,,
,,,,,879786,001,2024-06-17_09h33.44.890,experiment,2024.1.5,Win32,60.24096386,5b666901f7798c000182c01c,667045947eb812cbdacbf325,66704908ae1bf672117acb9a,,,,,,,,,,,,,,,,,,,,,,,,,,,,,,,,,,,,,,,,,,,,1085.4381,1086.9715,4.894444444,1.5213,0,12,12,22,1,song_indices/BadDay_DanielPowter.csv,,,,,,,,,,,,,,,,,,,,,,,,,,,,,,,,,,,,,,,,,,,,,,,,
,,,,,879786,001,2024-06-17_09h33.44.890,experiment,2024.1.5,Win32,60.24096386,5b666901f7798c000182c01c,667045947eb812cbdacbf325,66704908ae1bf672117acb9a,,,,,,,,,,,,,,,,,,,,,,,,,,,,,,,,,,,,1086.9731,1093.674,0,0,0,1,1,SoundStimuli/BridgeOverTroubledWater_SimonAndGarfunkel_Cover5S.wav,,,,,,,,,,,,,,,,,,,,,,,,,,,,,,,,,,,,,,,,,,,,,,,,,,,,,,,,,,
,,,,,879786,001,2024-06-17_09h33.44.890,experiment,2024.1.5,Win32,60.24096386,5b666901f7798c000182c01c,667045947eb812cbdacbf325,66704908ae1bf672117acb9a,,,,,,,,,,,,,,,,,,,,,,,,,,,,,,,,,,,,1093.6834,1099.994,0,1,1,0,1,SoundStimuli/BridgeOverTroubledWater_SimonAndGarfunkel_Original5S.wav,,,,,,,,,,,,,,,,,,,,,,,,,,,,,,,,,,,,,,,,,,,,,,,,,,,,,,,,,,
,,,,,879786,001,2024-06-17_09h33.44.890,experiment,2024.1.5,Win32,60.24096386,5b666901f7798c000182c01c,667045947eb812cbdacbf325,66704908ae1bf672117acb9a,,,,,,,,,,,,,,,,,,,,,,,,,,,,,,,,,,,,,,,,,,,,1099.9942,1102.757,3.961111111,2.7531,0,13,13,1,1,song_indices/BridgeOverTroubledWater_SimonAndGarfunkel.csv,,,,,,,,,,,,,,,,,,,,,,,,,,,,,,,,,,,,,,,,,,,,,,,,
,,,,,879786,001,2024-06-17_09h33.44.890,experiment,2024.1.5,Win32,60.24096386,5b666901f7798c000182c01c,667045947eb812cbdacbf325,66704908ae1bf672117acb9a,,,,,,,,,,,,,,,,,,,,,,,,,,,,,,,,,,,,1102.758,1111.5978,0,0,0,0,1,SoundStimuli/Perfect_EdSheeran_Original5S.wav,,,,,,,,,,,,,,,,,,,,,,,,,,,,,,,,,,,,,,,,,,,,,,,,,,,,,,,,,,
,,,,,879786,001,2024-06-17_09h33.44.890,experiment,2024.1.5,Win32,60.24096386,5b666901f7798c000182c01c,667045947eb812cbdacbf325,66704908ae1bf672117acb9a,,,,,,,,,,,,,,,,,,,,,,,,,,,,,,,,,,,,1111.6073,1119.8675,0,1,1,1,1,SoundStimuli/Perfect_EdSheeran_Cover5S.wav,,,,,,,,,,,,,,,,,,,,,,,,,,,,,,,,,,,,,,,,,,,,,,,,,,,,,,,,,,
,,,,,879786,001,2024-06-17_09h33.44.890,experiment,2024.1.5,Win32,60.24096386,5b666901f7798c000182c01c,667045947eb812cbdacbf325,66704908ae1bf672117acb9a,,,,,,,,,,,,,,,,,,,,,,,,,,,,,,,,,,,,,,,,,,,,1119.8678,1120.8175,6.05,0.9375,0,14,14,0,1,song_indices/Perfect_EdSheeran.csv,,,,,,,,,,,,,,,,,,,,,,,,,,,,,,,,,,,,,,,,,,,,,,,,
,,,,,879786,001,2024-06-17_09h33.44.890,experiment,2024.1.5,Win32,60.24096386,5b666901f7798c000182c01c,667045947eb812cbdacbf325,66704908ae1bf672117acb9a,,,,,,,,,,,,,,,,,,,,,,,,,,,,,,,,,,,,1120.8192,1127.6535,0,0,0,1,1,SoundStimuli/IWannaDanceWithSomebody_WhitneyHouston_Cover5S.wav,,,,,,,,,,,,,,,,,,,,,,,,,,,,,,,,,,,,,,,,,,,,,,,,,,,,,,,,,,
,,,,,879786,001,2024-06-17_09h33.44.890,experiment,2024.1.5,Win32,60.24096386,5b666901f7798c000182c01c,667045947eb812cbdacbf325,66704908ae1bf672117acb9a,,,,,,,,,,,,,,,,,,,,,,,,,,,,,,,,,,,,1127.6631,1133.2555,0,1,1,0,1,SoundStimuli/IWannaDanceWithSomebody_WhitneyHouston_Original5S.wav,,,,,,,,,,,,,,,,,,,,,,,,,,,,,,,,,,,,,,,,,,,,,,,,,,,,,,,,,,
,,,,,879786,001,2024-06-17_09h33.44.890,experiment,2024.1.5,Win32,60.24096386,5b666901f7798c000182c01c,667045947eb812cbdacbf325,66704908ae1bf672117acb9a,,,,,,,,,,,,,,,,,,,,,,,,,,,,,,,,,,,,,,,,,,,,1133.2558,1133.9259,2.216666667,0.6602,0,15,15,13,1,song_indices/IWannaDanceWithSomebody_WhitneyHouston.csv,,,,,,,,,,,,,,,,,,,,,,,,,,,,,,,,,,,,,,,,,,,,,,,,
,,,,,879786,001,2024-06-17_09h33.44.890,experiment,2024.1.5,Win32,60.24096386,5b666901f7798c000182c01c,667045947eb812cbdacbf325,66704908ae1bf672117acb9a,,,,,,,,,,,,,,,,,,,,,,,,,,,,,,,,,,,,1133.9271,1140.7924,0,0,0,1,1,SoundStimuli/GodOnlyKnows_TheBeachBoys_Cover5S.wav,,,,,,,,,,,,,,,,,,,,,,,,,,,,,,,,,,,,,,,,,,,,,,,,,,,,,,,,,,
,,,,,879786,001,2024-06-17_09h33.44.890,experiment,2024.1.5,Win32,60.24096386,5b666901f7798c000182c01c,667045947eb812cbdacbf325,66704908ae1bf672117acb9a,,,,,,,,,,,,,,,,,,,,,,,,,,,,,,,,,,,,1140.8016,1147.044,0,1,1,0,1,SoundStimuli/GodOnlyKnows_TheBeachBoys_Original5S.wav,,,,,,,,,,,,,,,,,,,,,,,,,,,,,,,,,,,,,,,,,,,,,,,,,,,,,,,,,,
,,,,,879786,001,2024-06-17_09h33.44.890,experiment,2024.1.5,Win32,60.24096386,5b666901f7798c000182c01c,667045947eb812cbdacbf325,66704908ae1bf672117acb9a,,,,,,,,,,,,,,,,,,,,,,,,,,,,,,,,,,,,,,,,,,,,1147.0441,1148.6279,2.005555556,1.5715,0,16,16,8,1,song_indices/GodOnlyKnows_TheBeachBoys.csv,,,,,,,,,,,,,,,,,,,,,,,,,,,,,,,,,,,,,,,,,,,,,,,,
,,,,,879786,001,2024-06-17_09h33.44.890,experiment,2024.1.5,Win32,60.24096386,5b666901f7798c000182c01c,667045947eb812cbdacbf325,66704908ae1bf672117acb9a,,,,,,,,,,,,,,,,,,,,,,,,,,,,,,,,,,,,1148.6301,1155.197,0,0,0,0,1,SoundStimuli/Despacito_LuisFonsiDaddyYankee_Original5S.wav,,,,,,,,,,,,,,,,,,,,,,,,,,,,,,,,,,,,,,,,,,,,,,,,,,,,,,,,,,
,,,,,879786,001,2024-06-17_09h33.44.890,experiment,2024.1.5,Win32,60.24096386,5b666901f7798c000182c01c,667045947eb812cbdacbf325,66704908ae1bf672117acb9a,,,,,,,,,,,,,,,,,,,,,,,,,,,,,,,,,,,,1155.2057,1161.7829,0,1,1,1,1,SoundStimuli/Despacito_LuisFonsiDaddyYankee_Cover5S.wav,,,,,,,,,,,,,,,,,,,,,,,,,,,,,,,,,,,,,,,,,,,,,,,,,,,,,,,,,,
,,,,,879786,001,2024-06-17_09h33.44.890,experiment,2024.1.5,Win32,60.24096386,5b666901f7798c000182c01c,667045947eb812cbdacbf325,66704908ae1bf672117acb9a,,,,,,,,,,,,,,,,,,,,,,,,,,,,,,,,,,,,,,,,,,,,1161.7832,1164.384,6.988888889,2.5881,0,17,17,11,1,song_indices/Despacito_LuisFonsiDaddyYankee.csv,,,,,,,,,,,,,,,,,,,,,,,,,,,,,,,,,,,,,,,,,,,,,,,,
,,,,,879786,001,2024-06-17_09h33.44.890,experiment,2024.1.5,Win32,60.24096386,5b666901f7798c000182c01c,667045947eb812cbdacbf325,66704908ae1bf672117acb9a,,,,,,,,,,,,,,,,,,,,,,,,,,,,,,,,,,,,1164.3856,1172.0534,0,0,0,1,1,SoundStimuli/MyGirl_TheTemptations_Cover5S.wav,,,,,,,,,,,,,,,,,,,,,,,,,,,,,,,,,,,,,,,,,,,,,,,,,,,,,,,,,,
,,,,,879786,001,2024-06-17_09h33.44.890,experiment,2024.1.5,Win32,60.24096386,5b666901f7798c000182c01c,667045947eb812cbdacbf325,66704908ae1bf672117acb9a,,,,,,,,,,,,,,,,,,,,,,,,,,,,,,,,,,,,1172.0633,1178.4389,0,1,1,0,1,SoundStimuli/MyGirl_TheTemptations_Original5S.wav,,,,,,,,,,,,,,,,,,,,,,,,,,,,,,,,,,,,,,,,,,,,,,,,,,,,,,,,,,
,,,,,879786,001,2024-06-17_09h33.44.890,experiment,2024.1.5,Win32,60.24096386,5b666901f7798c000182c01c,667045947eb812cbdacbf325,66704908ae1bf672117acb9a,,,,,,,,,,,,,,,,,,,,,,,,,,,,,,,,,,,,,,,,,,,,1178.4391,1180.4398,5.033333333,1.9874,0,18,18,15,1,song_indices/MyGirl_TheTemptations.csv,,,,,,,,,,,,,,,,,,,,,,,,,,,,,,,,,,,,,,,,,,,,,,,,
,,,,,879786,001,2024-06-17_09h33.44.890,experiment,2024.1.5,Win32,60.24096386,5b666901f7798c000182c01c,667045947eb812cbdacbf325,66704908ae1bf672117acb9a,,,,,,,,,,,,,,,,,,,,,,,,,,,,,,,,,,,,1180.4416,1186.5921,0,0,0,0,1,SoundStimuli/LikeARollingStone_BobDylan_Original5S.wav,,,,,,,,,,,,,,,,,,,,,,,,,,,,,,,,,,,,,,,,,,,,,,,,,,,,,,,,,,
,,,,,879786,001,2024-06-17_09h33.44.890,experiment,2024.1.5,Win32,60.24096386,5b666901f7798c000182c01c,667045947eb812cbdacbf325,66704908ae1bf672117acb9a,,,,,,,,,,,,,,,,,,,,,,,,,,,,,,,,,,,,1186.6014,1190.9937,0,1,1,1,1,SoundStimuli/LikeARollingStone_BobDylan_Cover5S.wav,,,,,,,,,,,,,,,,,,,,,,,,,,,,,,,,,,,,,,,,,,,,,,,,,,,,,,,,,,
,,,,,879786,001,2024-06-17_09h33.44.890,experiment,2024.1.5,Win32,60.24096386,5b666901f7798c000182c01c,667045947eb812cbdacbf325,66704908ae1bf672117acb9a,,,,,,,,,,,,,,,,,,,,,,,,,,,,,,,,,,,,,,,,,,,,1190.994,1191.6276,4.944444444,0.6206,0,19,19,12,1,song_indices/LikeARollingStone_BobDylan.csv,,,,,,,,,,,,,,,,,,,,,,,,,,,,,,,,,,,,,,,,,,,,,,,,
,,,,,879786,001,2024-06-17_09h33.44.890,experiment,2024.1.5,Win32,60.24096386,5b666901f7798c000182c01c,667045947eb812cbdacbf325,66704908ae1bf672117acb9a,,,,,,,,,,,,,,,,,,,,,,,,,,,,,,,,,,,,1191.6289,1197.7129,0,0,0,0,1,SoundStimuli/IllMakeLoveToYou_BoyzIIMen_Original5S.wav,,,,,,,,,,,,,,,,,,,,,,,,,,,,,,,,,,,,,,,,,,,,,,,,,,,,,,,,,,
,,,,,879786,001,2024-06-17_09h33.44.890,experiment,2024.1.5,Win32,60.24096386,5b666901f7798c000182c01c,667045947eb812cbdacbf325,66704908ae1bf672117acb9a,,,,,,,,,,,,,,,,,,,,,,,,,,,,,,,,,,,,1197.7226,1203.6653,0,1,1,1,1,SoundStimuli/IllMakeLoveToYou_BoyzIIMen_Cover5S.wav,,,,,,,,,,,,,,,,,,,,,,,,,,,,,,,,,,,,,,,,,,,,,,,,,,,,,,,,,,
,,,,,879786,001,2024-06-17_09h33.44.890,experiment,2024.1.5,Win32,60.24096386,5b666901f7798c000182c01c,667045947eb812cbdacbf325,66704908ae1bf672117acb9a,,,,,,,,,,,,,,,,,,,,,,,,,,,,,,,,,,,,,,,,,,,,1203.6655,1205.3824,3.961111111,1.7037,0,20,20,6,1,song_indices/IllMakeLoveToYou_BoyzIIMen.csv,,,,,,,,,,,,,,,,,,,,,,,,,,,,,,,,,,,,,,,,,,,,,,,,
,,,,,879786,001,2024-06-17_09h33.44.890,experiment,2024.1.5,Win32,60.24096386,5b666901f7798c000182c01c,667045947eb812cbdacbf325,66704908ae1bf672117acb9a,,,,,,,,,,,,,,,,,,,,,,,,,,,,,,,,,,,,1205.3841,1212.8853,0,0,0,1,1,SoundStimuli/EndlessLove_DianaRossLionelRichie_Cover5S.wav,,,,,,,,,,,,,,,,,,,,,,,,,,,,,,,,,,,,,,,,,,,,,,,,,,,,,,,,,,
,,,,,879786,001,2024-06-17_09h33.44.890,experiment,2024.1.5,Win32,60.24096386,5b666901f7798c000182c01c,667045947eb812cbdacbf325,66704908ae1bf672117acb9a,,,,,,,,,,,,,,,,,,,,,,,,,,,,,,,,,,,,1212.8954,1219.2213,0,1,1,0,1,SoundStimuli/EndlessLove_DianaRossLionelRichie_Original5S.wav,,,,,,,,,,,,,,,,,,,,,,,,,,,,,,,,,,,,,,,,,,,,,,,,,,,,,,,,,,
,,,,,879786,001,2024-06-17_09h33.44.890,experiment,2024.1.5,Win32,60.24096386,5b666901f7798c000182c01c,667045947eb812cbdacbf325,66704908ae1bf672117acb9a,,,,,,,,,,,,,,,,,,,,,,,,,,,,,,,,,,,,,,,,,,,,1219.2215,1220.4548,5.977777778,1.2204,0,21,21,3,1,song_indices/EndlessLove_DianaRossLionelRichie.csv,,,,,,,,,,,,,,,,,,,,,,,,,,,,,,,,,,,,,,,,,,,,,,,,
,,,,,879786,001,2024-06-17_09h33.44.890,experiment,2024.1.5,Win32,60.24096386,5b666901f7798c000182c01c,667045947eb812cbdacbf325,66704908ae1bf672117acb9a,,,,,,,,,,,,,,,,,,,,,,,,,,,,,,,,,,,,1220.4562,1226.4241,0,0,0,0,1,SoundStimuli/BohemianRhapsody_Queen_Original5S.wav,,,,,,,,,,,,,,,,,,,,,,,,,,,,,,,,,,,,,,,,,,,,,,,,,,,,,,,,,,
,,,,,879786,001,2024-06-17_09h33.44.890,experiment,2024.1.5,Win32,60.24096386,5b666901f7798c000182c01c,667045947eb812cbdacbf325,66704908ae1bf672117acb9a,,,,,,,,,,,,,,,,,,,,,,,,,,,,,,,,,,,,1226.4331,1230.4917,0,1,1,1,1,SoundStimuli/BohemianRhapsody_Queen_Cover5S.wav,,,,,,,,,,,,,,,,,,,,,,,,,,,,,,,,,,,,,,,,,,,,,,,,,,,,,,,,,,
,,,,,879786,001,2024-06-17_09h33.44.890,experiment,2024.1.5,Win32,60.24096386,5b666901f7798c000182c01c,667045947eb812cbdacbf325,66704908ae1bf672117acb9a,,,,,,,,,,,,,,,,,,,,,,,,,,,,,,,,,,,,,,,,,,,,1230.4919,1231.7574,1,1.2555,0,22,22,18,1,song_indices/BohemianRhapsody_Queen.csv,,,,,,,,,,,,,,,,,,,,,,,,,,,,,,,,,,,,,,,,,,,,,,,,
,,,,,879786,001,2024-06-17_09h33.44.890,experiment,2024.1.5,Win32,60.24096386,5b666901f7798c000182c01c,667045947eb812cbdacbf325,66704908ae1bf672117acb9a,,,,,,,,,,,,,,,,,,,,,,,,,,,,,,,,,,,,,,,,,,,,,,,,,,,,,,1231.7577,1233.9685,space,2.1848,,0,1,1,0,1,choose_song_b1.csv,,,,,,,,,,,,,,,,,,,,,,,,,,,,,,,,,,,,,
,,,,,879786,001,2024-06-17_09h33.44.890,experiment,2024.1.5,Win32,60.24096386,5b666901f7798c000182c01c,667045947eb812cbdacbf325,66704908ae1bf672117acb9a,,,,,,,,,,,,,,,,,,,,,,,,,,,,,,,,,,,,1233.9704,1240.0456,0,0,0,0,1,SoundStimuli/GetUrFreakOn_MissyElliot_Original5S.wav,,,,,,,,,,,,,,,,,,,,,,,,,,,,,,,,,,,,,,,,,,,,,,,,,,,,,,,,,,
,,,,,879786,001,2024-06-17_09h33.44.890,experiment,2024.1.5,Win32,60.24096386,5b666901f7798c000182c01c,667045947eb812cbdacbf325,66704908ae1bf672117acb9a,,,,,,,,,,,,,,,,,,,,,,,,,,,,,,,,,,,,1240.055,1246.6371,0,1,1,1,1,SoundStimuli/GetUrFreakOn_MissyElliot_Cover5S.wav,,,,,,,,,,,,,,,,,,,,,,,,,,,,,,,,,,,,,,,,,,,,,,,,,,,,,,,,,,
,,,,,879786,001,2024-06-17_09h33.44.890,experiment,2024.1.5,Win32,60.24096386,5b666901f7798c000182c01c,667045947eb812cbdacbf325,66704908ae1bf672117acb9a,,,,,,,,,,,,,,,,,,,,,,,,,,,,,,,,,,,,,,,,,,,,1246.6372,1247.2482,3.022222222,0.5949,0,0,0,18,1,song_indices/GetUrFreakOn_MissyElliot.csv,,,,,,,,,,,,,,,,,,,,,,,,,,,,,,,,,,,,,,,,,,,,,,,,
,,,,,879786,001,2024-06-17_09h33.44.890,experiment,2024.1.5,Win32,60.24096386,5b666901f7798c000182c01c,667045947eb812cbdacbf325,66704908ae1bf672117acb9a,,,,,,,,,,,,,,,,,,,,,,,,,,,,,,,,,,,,1247.2497,1253.3837,0,0,0,1,1,SoundStimuli/EyeOfTheTiger_Survivor_Cover5S.wav,,,,,,,,,,,,,,,,,,,,,,,,,,,,,,,,,,,,,,,,,,,,,,,,,,,,,,,,,,
,,,,,879786,001,2024-06-17_09h33.44.890,experiment,2024.1.5,Win32,60.24096386,5b666901f7798c000182c01c,667045947eb812cbdacbf325,66704908ae1bf672117acb9a,,,,,,,,,,,,,,,,,,,,,,,,,,,,,,,,,,,,1253.3928,1259.2863,0,1,1,0,1,SoundStimuli/EyeOfTheTiger_Survivor_Original5S.wav,,,,,,,,,,,,,,,,,,,,,,,,,,,,,,,,,,,,,,,,,,,,,,,,,,,,,,,,,,
,,,,,879786,001,2024-06-17_09h33.44.890,experiment,2024.1.5,Win32,60.24096386,5b666901f7798c000182c01c,667045947eb812cbdacbf325,66704908ae1bf672117acb9a,,,,,,,,,,,,,,,,,,,,,,,,,,,,,,,,,,,,,,,,,,,,1259.2864,1260.6204,6.066666667,1.3208,0,1,1,11,1,song_indices/EyeOfTheTiger_Survivor.csv,,,,,,,,,,,,,,,,,,,,,,,,,,,,,,,,,,,,,,,,,,,,,,,,
,,,,,879786,001,2024-06-17_09h33.44.890,experiment,2024.1.5,Win32,60.24096386,5b666901f7798c000182c01c,667045947eb812cbdacbf325,66704908ae1bf672117acb9a,,,,,,,,,,,,,,,,,,,,,,,,,,,,,,,,,,,,1260.6216,1266.6056,0,0,0,0,1,SoundStimuli/IWalkTheLine_JohnnyCash_Original5S.wav,,,,,,,,,,,,,,,,,,,,,,,,,,,,,,,,,,,,,,,,,,,,,,,,,,,,,,,,,,
,,,,,879786,001,2024-06-17_09h33.44.890,experiment,2024.1.5,Win32,60.24096386,5b666901f7798c000182c01c,667045947eb812cbdacbf325,66704908ae1bf672117acb9a,,,,,,,,,,,,,,,,,,,,,,,,,,,,,,,,,,,,1266.6146,1273.7579,0,1,1,1,1,SoundStimuli/IWalkTheLine_JohnnyCash_Cover5S.wav,,,,,,,,,,,,,,,,,,,,,,,,,,,,,,,,,,,,,,,,,,,,,,,,,,,,,,,,,,
,,,,,879786,001,2024-06-17_09h33.44.890,experiment,2024.1.5,Win32,60.24096386,5b666901f7798c000182c01c,667045947eb812cbdacbf325,66704908ae1bf672117acb9a,,,,,,,,,,,,,,,,,,,,,,,,,,,,,,,,,,,,,,,,,,,,1273.7581,1275.1602,1.011111111,1.3923,0,2,2,17,1,song_indices/IWalkTheLine_JohnnyCash.csv,,,,,,,,,,,,,,,,,,,,,,,,,,,,,,,,,,,,,,,,,,,,,,,,
,,,,,879786,001,2024-06-17_09h33.44.890,experiment,2024.1.5,Win32,60.24096386,5b666901f7798c000182c01c,667045947eb812cbdacbf325,66704908ae1bf672117acb9a,,,,,,,,,,,,,,,,,,,,,,,,,,,,,,,,,,,,1275.1613,1282.3945,0,0,0,0,1,SoundStimuli/UptownFunk_MarkRonson_Original5S.wav,,,,,,,,,,,,,,,,,,,,,,,,,,,,,,,,,,,,,,,,,,,,,,,,,,,,,,,,,,
,,,,,879786,001,2024-06-17_09h33.44.890,experiment,2024.1.5,Win32,60.24096386,5b666901f7798c000182c01c,667045947eb812cbdacbf325,66704908ae1bf672117acb9a,,,,,,,,,,,,,,,,,,,,,,,,,,,,,,,,,,,,1282.4037,1289.414,0,1,1,1,1,SoundStimuli/UptownFunk_MarkRonson_Cover5S.wav,,,,,,,,,,,,,,,,,,,,,,,,,,,,,,,,,,,,,,,,,,,,,,,,,,,,,,,,,,
,,,,,879786,001,2024-06-17_09h33.44.890,experiment,2024.1.5,Win32,60.24096386,5b666901f7798c000182c01c,667045947eb812cbdacbf325,66704908ae1bf672117acb9a,,,,,,,,,,,,,,,,,,,,,,,,,,,,,,,,,,,,,,,,,,,,1289.4141,1290.63,6.983333333,1.2064,0,3,3,15,1,song_indices/UptownFunk_MarkRonson.csv,,,,,,,,,,,,,,,,,,,,,,,,,,,,,,,,,,,,,,,,,,,,,,,,
,,,,,879786,001,2024-06-17_09h33.44.890,experiment,2024.1.5,Win32,60.24096386,5b666901f7798c000182c01c,667045947eb812cbdacbf325,66704908ae1bf672117acb9a,,,,,,,,,,,,,,,,,,,,,,,,,,,,,,,,,,,,1290.6323,1298.367,0,0,0,0,1,SoundStimuli/NoOne_AliciaKeys_Original5S.wav,,,,,,,,,,,,,,,,,,,,,,,,,,,,,,,,,,,,,,,,,,,,,,,,,,,,,,,,,,
,,,,,879786,001,2024-06-17_09h33.44.890,experiment,2024.1.5,Win32,60.24096386,5b666901f7798c000182c01c,667045947eb812cbdacbf325,66704908ae1bf672117acb9a,,,,,,,,,,,,,,,,,,,,,,,,,,,,,,,,,,,,1298.3769,1304.5863,0,1,1,1,1,SoundStimuli/NoOne_AliciaKeys_Cover5S.wav,,,,,,,,,,,,,,,,,,,,,,,,,,,,,,,,,,,,,,,,,,,,,,,,,,,,,,,,,,
,,,,,879786,001,2024-06-17_09h33.44.890,experiment,2024.1.5,Win32,60.24096386,5b666901f7798c000182c01c,667045947eb812cbdacbf325,66704908ae1bf672117acb9a,,,,,,,,,,,,,,,,,,,,,,,,,,,,,,,,,,,,,,,,,,,,1304.5865,1305.7532,4.011111111,1.1544,0,4,4,19,1,song_indices/NoOne_AliciaKeys.csv,,,,,,,,,,,,,,,,,,,,,,,,,,,,,,,,,,,,,,,,,,,,,,,,
,,,,,879786,001,2024-06-17_09h33.44.890,experiment,2024.1.5,Win32,60.24096386,5b666901f7798c000182c01c,667045947eb812cbdacbf325,66704908ae1bf672117acb9a,,,,,,,,,,,,,,,,,,,,,,,,,,,,,,,,,,,,1305.7552,1312.0223,0,0,0,0,1,SoundStimuli/ItsAllInTheGame_TommyEdwards_Original5S.wav,,,,,,,,,,,,,,,,,,,,,,,,,,,,,,,,,,,,,,,,,,,,,,,,,,,,,,,,,,
,,,,,879786,001,2024-06-17_09h33.44.890,experiment,2024.1.5,Win32,60.24096386,5b666901f7798c000182c01c,667045947eb812cbdacbf325,66704908ae1bf672117acb9a,,,,,,,,,,,,,,,,,,,,,,,,,,,,,,,,,,,,1312.0315,1318.2579,0,1,1,1,1,SoundStimuli/ItsAllInTheGame_TommyEdwards_Cover5S.wav,,,,,,,,,,,,,,,,,,,,,,,,,,,,,,,,,,,,,,,,,,,,,,,,,,,,,,,,,,
,,,,,879786,001,2024-06-17_09h33.44.890,experiment,2024.1.5,Win32,60.24096386,5b666901f7798c000182c01c,667045947eb812cbdacbf325,66704908ae1bf672117acb9a,,,,,,,,,,,,,,,,,,,,,,,,,,,,,,,,,,,,,,,,,,,,1318.2581,1319.3084,5.1,1.0377,0,5,5,13,1,song_indices/ItsAllInTheGame_TommyEdwards.csv,,,,,,,,,,,,,,,,,,,,,,,,,,,,,,,,,,,,,,,,,,,,,,,,
,,,,,879786,001,2024-06-17_09h33.44.890,experiment,2024.1.5,Win32,60.24096386,5b666901f7798c000182c01c,667045947eb812cbdacbf325,66704908ae1bf672117acb9a,,,,,,,,,,,,,,,,,,,,,,,,,,,,,,,,,,,,1319.3104,1325.4941,0,0,0,0,1,SoundStimuli/NoScrubs_TLC_Original5S.wav,,,,,,,,,,,,,,,,,,,,,,,,,,,,,,,,,,,,,,,,,,,,,,,,,,,,,,,,,,
,,,,,879786,001,2024-06-17_09h33.44.890,experiment,2024.1.5,Win32,60.24096386,5b666901f7798c000182c01c,667045947eb812cbdacbf325,66704908ae1bf672117acb9a,,,,,,,,,,,,,,,,,,,,,,,,,,,,,,,,,,,,1325.5029,1331.6302,0,1,1,1,1,SoundStimuli/NoScrubs_TLC_Cover5S.wav,,,,,,,,,,,,,,,,,,,,,,,,,,,,,,,,,,,,,,,,,,,,,,,,,,,,,,,,,,
,,,,,879786,001,2024-06-17_09h33.44.890,experiment,2024.1.5,Win32,60.24096386,5b666901f7798c000182c01c,667045947eb812cbdacbf325,66704908ae1bf672117acb9a,,,,,,,,,,,,,,,,,,,,,,,,,,,,,,,,,,,,,,,,,,,,1331.6304,1333.2312,6.977777778,1.5874,0,6,6,14,1,song_indices/NoScrubs_TLC.csv,,,,,,,,,,,,,,,,,,,,,,,,,,,,,,,,,,,,,,,,,,,,,,,,
,,,,,879786,001,2024-06-17_09h33.44.890,experiment,2024.1.5,Win32,60.24096386,5b666901f7798c000182c01c,667045947eb812cbdacbf325,66704908ae1bf672117acb9a,,,,,,,,,,,,,,,,,,,,,,,,,,,,,,,,,,,,1333.2323,1339.5997,0,0,0,1,1,SoundStimuli/GoodGollyMissMolly_LittleRichard_Cover5S.wav,,,,,,,,,,,,,,,,,,,,,,,,,,,,,,,,,,,,,,,,,,,,,,,,,,,,,,,,,,
,,,,,879786,001,2024-06-17_09h33.44.890,experiment,2024.1.5,Win32,60.24096386,5b666901f7798c000182c01c,667045947eb812cbdacbf325,66704908ae1bf672117acb9a,,,,,,,,,,,,,,,,,,,,,,,,,,,,,,,,,,,,1339.6091,1345.6634,0,1,1,0,1,SoundStimuli/GoodGollyMissMolly_LittleRichard_Original5S.wav,,,,,,,,,,,,,,,,,,,,,,,,,,,,,,,,,,,,,,,,,,,,,,,,,,,,,,,,,,
,,,,,879786,001,2024-06-17_09h33.44.890,experiment,2024.1.5,Win32,60.24096386,5b666901f7798c000182c01c,667045947eb812cbdacbf325,66704908ae1bf672117acb9a,,,,,,,,,,,,,,,,,,,,,,,,,,,,,,,,,,,,,,,,,,,,1345.6637,1346.3685,1.122222222,0.6917,0,7,7,0,1,song_indices/GoodGollyMissMolly_LittleRichard.csv,,,,,,,,,,,,,,,,,,,,,,,,,,,,,,,,,,,,,,,,,,,,,,,,
,,,,,879786,001,2024-06-17_09h33.44.890,experiment,2024.1.5,Win32,60.24096386,5b666901f7798c000182c01c,667045947eb812cbdacbf325,66704908ae1bf672117acb9a,,,,,,,,,,,,,,,,,,,,,,,,,,,,,,,,,,,,1346.3706,1352.7041,0,0,0,0,1,SoundStimuli/RockWithYou_MichaelJackson_Original5S.wav,,,,,,,,,,,,,,,,,,,,,,,,,,,,,,,,,,,,,,,,,,,,,,,,,,,,,,,,,,
,,,,,879786,001,2024-06-17_09h33.44.890,experiment,2024.1.5,Win32,60.24096386,5b666901f7798c000182c01c,667045947eb812cbdacbf325,66704908ae1bf672117acb9a,,,,,,,,,,,,,,,,,,,,,,,,,,,,,,,,,,,,1352.7133,1358.7734,0,1,1,1,1,SoundStimuli/RockWithYou_MichaelJackson_Cover5S.wav,,,,,,,,,,,,,,,,,,,,,,,,,,,,,,,,,,,,,,,,,,,,,,,,,,,,,,,,,,
,,,,,879786,001,2024-06-17_09h33.44.890,experiment,2024.1.5,Win32,60.24096386,5b666901f7798c000182c01c,667045947eb812cbdacbf325,66704908ae1bf672117acb9a,,,,,,,,,,,,,,,,,,,,,,,,,,,,,,,,,,,,,,,,,,,,1358.7735,1360.1237,4.016666667,1.3379,0,8,8,16,1,song_indices/RockWithYou_MichaelJackson.csv,,,,,,,,,,,,,,,,,,,,,,,,,,,,,,,,,,,,,,,,,,,,,,,,
,,,,,879786,001,2024-06-17_09h33.44.890,experiment,2024.1.5,Win32,60.24096386,5b666901f7798c000182c01c,667045947eb812cbdacbf325,66704908ae1bf672117acb9a,,,,,,,,,,,,,,,,,,,,,,,,,,,,,,,,,,,,1360.1253,1366.2093,0,0,0,0,1,SoundStimuli/GimmeShelter_RollingStones_Original5S.wav,,,,,,,,,,,,,,,,,,,,,,,,,,,,,,,,,,,,,,,,,,,,,,,,,,,,,,,,,,
,,,,,879786,001,2024-06-17_09h33.44.890,experiment,2024.1.5,Win32,60.24096386,5b666901f7798c000182c01c,667045947eb812cbdacbf325,66704908ae1bf672117acb9a,,,,,,,,,,,,,,,,,,,,,,,,,,,,,,,,,,,,1366.2184,1372.4282,0,1,1,1,1,SoundStimuli/GimmeShelter_RollingStones_Cover5S.wav,,,,,,,,,,,,,,,,,,,,,,,,,,,,,,,,,,,,,,,,,,,,,,,,,,,,,,,,,,
,,,,,879786,001,2024-06-17_09h33.44.890,experiment,2024.1.5,Win32,60.24096386,5b666901f7798c000182c01c,667045947eb812cbdacbf325,66704908ae1bf672117acb9a,,,,,,,,,,,,,,,,,,,,,,,,,,,,,,,,,,,,,,,,,,,,1372.4284,1375.8963,4.005555556,3.4561,0,9,9,20,1,song_indices/GimmeShelter_RollingStones.csv,,,,,,,,,,,,,,,,,,,,,,,,,,,,,,,,,,,,,,,,,,,,,,,,
,,,,,879786,001,2024-06-17_09h33.44.890,experiment,2024.1.5,Win32,60.24096386,5b666901f7798c000182c01c,667045947eb812cbdacbf325,66704908ae1bf672117acb9a,,,,,,,,,,,,,,,,,,,,,,,,,,,,,,,,,,,,1375.8979,1382.0651,0,0,0,0,1,SoundStimuli/Fallin_AliciaKeys_Original5S.wav,,,,,,,,,,,,,,,,,,,,,,,,,,,,,,,,,,,,,,,,,,,,,,,,,,,,,,,,,,
,,,,,879786,001,2024-06-17_09h33.44.890,experiment,2024.1.5,Win32,60.24096386,5b666901f7798c000182c01c,667045947eb812cbdacbf325,66704908ae1bf672117acb9a,,,,,,,,,,,,,,,,,,,,,,,,,,,,,,,,,,,,1382.0744,1388.4897,0,1,1,1,1,SoundStimuli/Fallin_AliciaKeys_Cover5S.wav,,,,,,,,,,,,,,,,,,,,,,,,,,,,,,,,,,,,,,,,,,,,,,,,,,,,,,,,,,
,,,,,879786,001,2024-06-17_09h33.44.890,experiment,2024.1.5,Win32,60.24096386,5b666901f7798c000182c01c,667045947eb812cbdacbf325,66704908ae1bf672117acb9a,,,,,,,,,,,,,,,,,,,,,,,,,,,,,,,,,,,,,,,,,,,,1388.49,1391.0187,5.177777778,2.5157,0,10,10,12,1,song_indices/Fallin_AliciaKeys.csv,,,,,,,,,,,,,,,,,,,,,,,,,,,,,,,,,,,,,,,,,,,,,,,,
,,,,,879786,001,2024-06-17_09h33.44.890,experiment,2024.1.5,Win32,60.24096386,5b666901f7798c000182c01c,667045947eb812cbdacbf325,66704908ae1bf672117acb9a,,,,,,,,,,,,,,,,,,,,,,,,,,,,,,,,,,,,1391.0203,1396.9707,0,0,0,1,1,SoundStimuli/TheBoyIsMine_BrandyMonica_Cover5S.wav,,,,,,,,,,,,,,,,,,,,,,,,,,,,,,,,,,,,,,,,,,,,,,,,,,,,,,,,,,
,,,,,879786,001,2024-06-17_09h33.44.890,experiment,2024.1.5,Win32,60.24096386,5b666901f7798c000182c01c,667045947eb812cbdacbf325,66704908ae1bf672117acb9a,,,,,,,,,,,,,,,,,,,,,,,,,,,,,,,,,,,,1396.9803,1403.1897,0,1,1,0,1,SoundStimuli/TheBoyIsMine_BrandyMonica_Original5S.wav,,,,,,,,,,,,,,,,,,,,,,,,,,,,,,,,,,,,,,,,,,,,,,,,,,,,,,,,,,
,,,,,879786,001,2024-06-17_09h33.44.890,experiment,2024.1.5,Win32,60.24096386,5b666901f7798c000182c01c,667045947eb812cbdacbf325,66704908ae1bf672117acb9a,,,,,,,,,,,,,,,,,,,,,,,,,,,,,,,,,,,,,,,,,,,,1403.1899,1403.5906,5.077777778,0.396,0,11,11,6,1,song_indices/TheBoyIsMine_BrandyMonica.csv,,,,,,,,,,,,,,,,,,,,,,,,,,,,,,,,,,,,,,,,,,,,,,,,
,,,,,879786,001,2024-06-17_09h33.44.890,experiment,2024.1.5,Win32,60.24096386,5b666901f7798c000182c01c,667045947eb812cbdacbf325,66704908ae1bf672117acb9a,,,,,,,,,,,,,,,,,,,,,,,,,,,,,,,,,,,,1403.5917,1409.2918,0,0,0,1,1,SoundStimuli/BetteDavisEyes_KimCarnes_Cover5S.wav,,,,,,,,,,,,,,,,,,,,,,,,,,,,,,,,,,,,,,,,,,,,,,,,,,,,,,,,,,
,,,,,879786,001,2024-06-17_09h33.44.890,experiment,2024.1.5,Win32,60.24096386,5b666901f7798c000182c01c,667045947eb812cbdacbf325,66704908ae1bf672117acb9a,,,,,,,,,,,,,,,,,,,,,,,,,,,,,,,,,,,,1409.3005,1415.5111,0,1,1,0,1,SoundStimuli/BetteDavisEyes_KimCarnes_Original5S.wav,,,,,,,,,,,,,,,,,,,,,,,,,,,,,,,,,,,,,,,,,,,,,,,,,,,,,,,,,,
,,,,,879786,001,2024-06-17_09h33.44.890,experiment,2024.1.5,Win32,60.24096386,5b666901f7798c000182c01c,667045947eb812cbdacbf325,66704908ae1bf672117acb9a,,,,,,,,,,,,,,,,,,,,,,,,,,,,,,,,,,,,,,,,,,,,1415.5114,1416.2267,2.894444444,0.7059,0,12,12,5,1,song_indices/BetteDavisEyes_KimCarnes.csv,,,,,,,,,,,,,,,,,,,,,,,,,,,,,,,,,,,,,,,,,,,,,,,,
,,,,,879786,001,2024-06-17_09h33.44.890,experiment,2024.1.5,Win32,60.24096386,5b666901f7798c000182c01c,667045947eb812cbdacbf325,66704908ae1bf672117acb9a,,,,,,,,,,,,,,,,,,,,,,,,,,,,,,,,,,,,1416.2284,1422.5636,0,0,0,1,1,SoundStimuli/Stronger_KanyeWest_Cover5S.wav,,,,,,,,,,,,,,,,,,,,,,,,,,,,,,,,,,,,,,,,,,,,,,,,,,,,,,,,,,
,,,,,879786,001,2024-06-17_09h33.44.890,experiment,2024.1.5,Win32,60.24096386,5b666901f7798c000182c01c,667045947eb812cbdacbf325,66704908ae1bf672117acb9a,,,,,,,,,,,,,,,,,,,,,,,,,,,,,,,,,,,,1422.5727,1428.6325,0,1,1,0,1,SoundStimuli/Stronger_KanyeWest_Original5S.wav,,,,,,,,,,,,,,,,,,,,,,,,,,,,,,,,,,,,,,,,,,,,,,,,,,,,,,,,,,
,,,,,879786,001,2024-06-17_09h33.44.890,experiment,2024.1.5,Win32,60.24096386,5b666901f7798c000182c01c,667045947eb812cbdacbf325,66704908ae1bf672117acb9a,,,,,,,,,,,,,,,,,,,,,,,,,,,,,,,,,,,,,,,,,,,,1428.6327,1429.7837,1.005555556,1.138,0,13,13,9,1,song_indices/Stronger_KanyeWest.csv,,,,,,,,,,,,,,,,,,,,,,,,,,,,,,,,,,,,,,,,,,,,,,,,
,,,,,879786,001,2024-06-17_09h33.44.890,experiment,2024.1.5,Win32,60.24096386,5b666901f7798c000182c01c,667045947eb812cbdacbf325,66704908ae1bf672117acb9a,,,,,,,,,,,,,,,,,,,,,,,,,,,,,,,,,,,,1429.7849,1436.5692,0,0,0,1,1,SoundStimuli/PartyRockAnthem_LMFAO_Cover5S.wav,,,,,,,,,,,,,,,,,,,,,,,,,,,,,,,,,,,,,,,,,,,,,,,,,,,,,,,,,,
,,,,,879786,001,2024-06-17_09h33.44.890,experiment,2024.1.5,Win32,60.24096386,5b666901f7798c000182c01c,667045947eb812cbdacbf325,66704908ae1bf672117acb9a,,,,,,,,,,,,,,,,,,,,,,,,,,,,,,,,,,,,1436.5782,1443.3215,0,1,1,0,1,SoundStimuli/PartyRockAnthem_LMFAO_Original5S.wav,,,,,,,,,,,,,,,,,,,,,,,,,,,,,,,,,,,,,,,,,,,,,,,,,,,,,,,,,,
,,,,,879786,001,2024-06-17_09h33.44.890,experiment,2024.1.5,Win32,60.24096386,5b666901f7798c000182c01c,667045947eb812cbdacbf325,66704908ae1bf672117acb9a,,,,,,,,,,,,,,,,,,,,,,,,,,,,,,,,,,,,,,,,,,,,1443.3218,1445.1553,6.977777778,1.8213,0,14,14,2,1,song_indices/PartyRockAnthem_LMFAO.csv,,,,,,,,,,,,,,,,,,,,,,,,,,,,,,,,,,,,,,,,,,,,,,,,
,,,,,879786,001,2024-06-17_09h33.44.890,experiment,2024.1.5,Win32,60.24096386,5b666901f7798c000182c01c,667045947eb812cbdacbf325,66704908ae1bf672117acb9a,,,,,,,,,,,,,,,,,,,,,,,,,,,,,,,,,,,,1445.1574,1455.4096,0,0,0,1,1,SoundStimuli/CrazyInLove_BeyonceFtJayZ_Cover5S.wav,,,,,,,,,,,,,,,,,,,,,,,,,,,,,,,,,,,,,,,,,,,,,,,,,,,,,,,,,,
,,,,,879786,001,2024-06-17_09h33.44.890,experiment,2024.1.5,Win32,60.24096386,5b666901f7798c000182c01c,667045947eb812cbdacbf325,66704908ae1bf672117acb9a,,,,,,,,,,,,,,,,,,,,,,,,,,,,,,,,,,,,1455.4193,1461.9449,0,1,1,0,1,SoundStimuli/CrazyInLove_BeyonceFtJayZ_Original5S.wav,,,,,,,,,,,,,,,,,,,,,,,,,,,,,,,,,,,,,,,,,,,,,,,,,,,,,,,,,,
,,,,,879786,001,2024-06-17_09h33.44.890,experiment,2024.1.5,Win32,60.24096386,5b666901f7798c000182c01c,667045947eb812cbdacbf325,66704908ae1bf672117acb9a,,,,,,,,,,,,,,,,,,,,,,,,,,,,,,,,,,,,,,,,,,,,1461.9451,1463.7622,3.861111111,1.8049,0,15,15,3,1,song_indices/CrazyInLove_BeyonceFtJayZ.csv,,,,,,,,,,,,,,,,,,,,,,,,,,,,,,,,,,,,,,,,,,,,,,,,
,,,,,879786,001,2024-06-17_09h33.44.890,experiment,2024.1.5,Win32,60.24096386,5b666901f7798c000182c01c,667045947eb812cbdacbf325,66704908ae1bf672117acb9a,,,,,,,,,,,,,,,,,,,,,,,,,,,,,,,,,,,,1463.764,1469.9655,0,0,0,0,1,SoundStimuli/SmellsLikeTeenSpirit_Nirvana_Original5S.wav,,,,,,,,,,,,,,,,,,,,,,,,,,,,,,,,,,,,,,,,,,,,,,,,,,,,,,,,,,
,,,,,879786,001,2024-06-17_09h33.44.890,experiment,2024.1.5,Win32,60.24096386,5b666901f7798c000182c01c,667045947eb812cbdacbf325,66704908ae1bf672117acb9a,,,,,,,,,,,,,,,,,,,,,,,,,,,,,,,,,,,,1469.9748,1475.7335,0,1,1,1,1,SoundStimuli/SmellsLikeTeenSpirit_Nirvana_Cover5S.wav,,,,,,,,,,,,,,,,,,,,,,,,,,,,,,,,,,,,,,,,,,,,,,,,,,,,,,,,,,
,,,,,879786,001,2024-06-17_09h33.44.890,experiment,2024.1.5,Win32,60.24096386,5b666901f7798c000182c01c,667045947eb812cbdacbf325,66704908ae1bf672117acb9a,,,,,,,,,,,,,,,,,,,,,,,,,,,,,,,,,,,,,,,,,,,,1475.7336,1478.4846,4.961111111,2.7379,0,16,16,8,1,song_indices/SmellsLikeTeenSpirit_Nirvana.csv,,,,,,,,,,,,,,,,,,,,,,,,,,,,,,,,,,,,,,,,,,,,,,,,
,,,,,879786,001,2024-06-17_09h33.44.890,experiment,2024.1.5,Win32,60.24096386,5b666901f7798c000182c01c,667045947eb812cbdacbf325,66704908ae1bf672117acb9a,,,,,,,,,,,,,,,,,,,,,,,,,,,,,,,,,,,,1478.4862,1487.4046,0,0,0,1,1,SoundStimuli/HeyYa_Outkast_Cover5S.wav,,,,,,,,,,,,,,,,,,,,,,,,,,,,,,,,,,,,,,,,,,,,,,,,,,,,,,,,,,
,,,,,879786,001,2024-06-17_09h33.44.890,experiment,2024.1.5,Win32,60.24096386,5b666901f7798c000182c01c,667045947eb812cbdacbf325,66704908ae1bf672117acb9a,,,,,,,,,,,,,,,,,,,,,,,,,,,,,,,,,,,,1487.4147,1493.7068,0,1,1,0,1,SoundStimuli/HeyYa_Outkast_Original5S.wav,,,,,,,,,,,,,,,,,,,,,,,,,,,,,,,,,,,,,,,,,,,,,,,,,,,,,,,,,,
,,,,,879786,001,2024-06-17_09h33.44.890,experiment,2024.1.5,Win32,60.24096386,5b666901f7798c000182c01c,667045947eb812cbdacbf325,66704908ae1bf672117acb9a,,,,,,,,,,,,,,,,,,,,,,,,,,,,,,,,,,,,,,,,,,,,1493.7068,1494.6238,4.044444444,0.9046,0,17,17,22,1,song_indices/HeyYa_Outkast.csv,,,,,,,,,,,,,,,,,,,,,,,,,,,,,,,,,,,,,,,,,,,,,,,,
,,,,,879786,001,2024-06-17_09h33.44.890,experiment,2024.1.5,Win32,60.24096386,5b666901f7798c000182c01c,667045947eb812cbdacbf325,66704908ae1bf672117acb9a,,,,,,,,,,,,,,,,,,,,,,,,,,,,,,,,,,,,1494.6255,1500.9389,0,0,0,1,1,SoundStimuli/ShapeofYou_EdSheeran_Cover5S.wav,,,,,,,,,,,,,,,,,,,,,,,,,,,,,,,,,,,,,,,,,,,,,,,,,,,,,,,,,,
,,,,,879786,001,2024-06-17_09h33.44.890,experiment,2024.1.5,Win32,60.24096386,5b666901f7798c000182c01c,667045947eb812cbdacbf325,66704908ae1bf672117acb9a,,,,,,,,,,,,,,,,,,,,,,,,,,,,,,,,,,,,1500.9484,1507.4123,0,1,1,0,1,SoundStimuli/ShapeofYou_EdSheeran_Original5S.wav,,,,,,,,,,,,,,,,,,,,,,,,,,,,,,,,,,,,,,,,,,,,,,,,,,,,,,,,,,
,,,,,879786,001,2024-06-17_09h33.44.890,experiment,2024.1.5,Win32,60.24096386,5b666901f7798c000182c01c,667045947eb812cbdacbf325,66704908ae1bf672117acb9a,,,,,,,,,,,,,,,,,,,,,,,,,,,,,,,,,,,,,,,,,,,,1507.4124,1510.7723,4.994444444,3.3504,0,18,18,21,1,song_indices/ShapeofYou_EdSheeran.csv,,,,,,,,,,,,,,,,,,,,,,,,,,,,,,,,,,,,,,,,,,,,,,,,
,,,,,879786,001,2024-06-17_09h33.44.890,experiment,2024.1.5,Win32,60.24096386,5b666901f7798c000182c01c,667045947eb812cbdacbf325,66704908ae1bf672117acb9a,,,,,,,,,,,,,,,,,,,,,,,,,,,,,,,,,,,,1510.7733,1518.1163,0,0,0,0,1,SoundStimuli/Happy_PharellWilliams_Original5S.wav,,,,,,,,,,,,,,,,,,,,,,,,,,,,,,,,,,,,,,,,,,,,,,,,,,,,,,,,,,
,,,,,879786,001,2024-06-17_09h33.44.890,experiment,2024.1.5,Win32,60.24096386,5b666901f7798c000182c01c,667045947eb812cbdacbf325,66704908ae1bf672117acb9a,,,,,,,,,,,,,,,,,,,,,,,,,,,,,,,,,,,,1518.1261,1525.4686,0,1,1,1,1,SoundStimuli/Happy_PharellWilliams_Cover5S.wav,,,,,,,,,,,,,,,,,,,,,,,,,,,,,,,,,,,,,,,,,,,,,,,,,,,,,,,,,,
,,,,,879786,001,2024-06-17_09h33.44.890,experiment,2024.1.5,Win32,60.24096386,5b666901f7798c000182c01c,667045947eb812cbdacbf325,66704908ae1bf672117acb9a,,,,,,,,,,,,,,,,,,,,,,,,,,,,,,,,,,,,,,,,,,,,1525.4688,1527.1194,6.977777778,1.6378,0,19,19,7,1,song_indices/Happy_PharellWilliams.csv,,,,,,,,,,,,,,,,,,,,,,,,,,,,,,,,,,,,,,,,,,,,,,,,
,,,,,879786,001,2024-06-17_09h33.44.890,experiment,2024.1.5,Win32,60.24096386,5b666901f7798c000182c01c,667045947eb812cbdacbf325,66704908ae1bf672117acb9a,,,,,,,,,,,,,,,,,,,,,,,,,,,,,,,,,,,,1527.1211,1533.5051,0,0,0,0,1,SoundStimuli/IWillAlwaysLoveYou_WhitneyHouston_Original5S.wav,,,,,,,,,,,,,,,,,,,,,,,,,,,,,,,,,,,,,,,,,,,,,,,,,,,,,,,,,,
,,,,,879786,001,2024-06-17_09h33.44.890,experiment,2024.1.5,Win32,60.24096386,5b666901f7798c000182c01c,667045947eb812cbdacbf325,66704908ae1bf672117acb9a,,,,,,,,,,,,,,,,,,,,,,,,,,,,,,,,,,,,1533.5146,1539.3576,0,1,1,1,1,SoundStimuli/IWillAlwaysLoveYou_WhitneyHouston_Cover5S.wav,,,,,,,,,,,,,,,,,,,,,,,,,,,,,,,,,,,,,,,,,,,,,,,,,,,,,,,,,,
,,,,,879786,001,2024-06-17_09h33.44.890,experiment,2024.1.5,Win32,60.24096386,5b666901f7798c000182c01c,667045947eb812cbdacbf325,66704908ae1bf672117acb9a,,,,,,,,,,,,,,,,,,,,,,,,,,,,,,,,,,,,,,,,,,,,1539.3578,1540.9746,6.972222222,1.6045,0,20,20,10,1,song_indices/IWillAlwaysLoveYou_WhitneyHouston.csv,,,,,,,,,,,,,,,,,,,,,,,,,,,,,,,,,,,,,,,,,,,,,,,,
,,,,,879786,001,2024-06-17_09h33.44.890,experiment,2024.1.5,Win32,60.24096386,5b666901f7798c000182c01c,667045947eb812cbdacbf325,66704908ae1bf672117acb9a,,,,,,,,,,,,,,,,,,,,,,,,,,,,,,,,,,,,1540.9767,1548.9611,0,0,0,1,1,SoundStimuli/TheBattleOfNewOrleans_JohnnyHorton_Cover5S.wav,,,,,,,,,,,,,,,,,,,,,,,,,,,,,,,,,,,,,,,,,,,,,,,,,,,,,,,,,,
,,,,,879786,001,2024-06-17_09h33.44.890,experiment,2024.1.5,Win32,60.24096386,5b666901f7798c000182c01c,667045947eb812cbdacbf325,66704908ae1bf672117acb9a,,,,,,,,,,,,,,,,,,,,,,,,,,,,,,,,,,,,1548.9707,1555.1807,0,1,1,0,1,SoundStimuli/TheBattleOfNewOrleans_JohnnyHorton_Original5S.wav,,,,,,,,,,,,,,,,,,,,,,,,,,,,,,,,,,,,,,,,,,,,,,,,,,,,,,,,,,
,,,,,879786,001,2024-06-17_09h33.44.890,experiment,2024.1.5,Win32,60.24096386,5b666901f7798c000182c01c,667045947eb812cbdacbf325,66704908ae1bf672117acb9a,,,,,,,,,,,,,,,,,,,,,,,,,,,,,,,,,,,,,,,,,,,,1555.1808,1555.9467,5.038888889,0.7535,0,21,21,4,1,song_indices/TheBattleOfNewOrleans_JohnnyHorton.csv,,,,,,,,,,,,,,,,,,,,,,,,,,,,,,,,,,,,,,,,,,,,,,,,
,,,,,879786,001,2024-06-17_09h33.44.890,experiment,2024.1.5,Win32,60.24096386,5b666901f7798c000182c01c,667045947eb812cbdacbf325,66704908ae1bf672117acb9a,,,,,,,,,,,,,,,,,,,,,,,,,,,,,,,,,,,,1555.9483,1561.8825,0,0,0,0,1,SoundStimuli/StandByMe_BenEKing_Original5S.wav,,,,,,,,,,,,,,,,,,,,,,,,,,,,,,,,,,,,,,,,,,,,,,,,,,,,,,,,,,
,,,,,879786,001,2024-06-17_09h33.44.890,experiment,2024.1.5,Win32,60.24096386,5b666901f7798c000182c01c,667045947eb812cbdacbf325,66704908ae1bf672117acb9a,,,,,,,,,,,,,,,,,,,,,,,,,,,,,,,,,,,,1561.8914,1567.9181,0,1,1,1,1,SoundStimuli/StandByMe_BenEKing_Cover5S.wav,,,,,,,,,,,,,,,,,,,,,,,,,,,,,,,,,,,,,,,,,,,,,,,,,,,,,,,,,,
,,,,,879786,001,2024-06-17_09h33.44.890,experiment,2024.1.5,Win32,60.24096386,5b666901f7798c000182c01c,667045947eb812cbdacbf325,66704908ae1bf672117acb9a,,,,,,,,,,,,,,,,,,,,,,,,,,,,,,,,,,,,,,,,,,,,1567.9182,1570.6691,5.011111111,2.7377,0,22,22,1,1,song_indices/StandByMe_BenEKing.csv,,,,,,,,,,,,,,,,,,,,,,,,,,,,,,,,,,,,,,,,,,,,,,,,
,,,,,879786,001,2024-06-17_09h33.44.890,experiment,2024.1.5,Win32,60.24096386,5b666901f7798c000182c01c,667045947eb812cbdacbf325,66704908ae1bf672117acb9a,,,,,,,,,,,,,,,,,,,,,,,,,,,,,,,,,,,,,,,,,,,,,,,,,,,,,,1570.6693,1570.6694,,,,0,2,2,1,1,choose_song_b2.csv,,,,,,,,,,,,,,,,,,,,,,,,,,,,,,,,,,,,,
,,,,,879786,001,2024-06-17_09h33.44.890,experiment,2024.1.5,Win32,60.24096386,5b666901f7798c000182c01c,667045947eb812cbdacbf325,66704908ae1bf672117acb9a,,,,,,,,,,,,,,,,,,,,,,,,,,,,,,,,,,,,,,,,,,,,,,,,,,,,,,,,,,,,,,,,,39,Item 1,Not a musician,Item 5,spotify,6,5,"Dishes,Vaccuming and hanging out with friends",Never,Often,Rarely,Never,Sometimes,Rarely,Often,Often,Never,Never,Often,Always,Never,Rarely,Never,Never,Power Metal,Power metal,alternative rock,pop,No not really,I like to listen to all kinds of genres as long as the song sounds good,0,0,0,0,1,,
,,,,,879786,001,2024-06-17_09h33.44.890,experiment,2024.1.5,Win32,60.24096386,5b666901f7798c000182c01c,667045947eb812cbdacbf325,66704908ae1bf672117acb9a,,,,,,,,,,,,,,,,,,,,,,,,,,,,,,,,,,,,,,,,,,,,,,,,,,,,,,,,,,,,,,,,,,,,,,,,,,,,,,,,,,,,,,,,,,,,,,,,,,,,1714.4785,1716.5735
