welcome.started,welcome.stopped,space_to_continue.keys,space_to_continue.rt,space_to_continue.duration,participant,session,date,expName,psychopyVersion,OS,frameRate,PROLIFIC_PID,STUDY_ID,SESSION_ID,consent.consent,consent.consent_recontact,consent_check.started,consent_check.stopped,calibration_ready.started,calibration_ready.stopped,cal_ready.keys,cal_ready.rt,cal_ready.duration,calibration.started,calibration.stopped,mouse.x,mouse.y,mouse.leftButton,mouse.midButton,mouse.rightButton,mouse.time,mouse.clicked_name,move_on.keys,move_on.rt,move_on.duration,instructions.started,instructions.stopped,next.keys,next.rt,next.duration,practice_trial.started,practice_trial.stopped,practice_slider.response,practice_slider.rt,ready.started,ready.stopped,key_resp.keys,key_resp.rt,key_resp.duration,play_sound.started,play_sound.stopped,trials.thisRepN,trials.thisTrialN,trials.thisN,trials.thisIndex,trials.ran,orig_or_cover,rating.started,rating.stopped,slider.response,slider.rt,songs.thisRepN,songs.thisTrialN,songs.thisN,songs.thisIndex,songs.ran,song_id,short_break.started,short_break.stopped,space_to_move_on.keys,space_to_move_on.rt,space_to_move_on.duration,blocks.thisRepN,blocks.thisTrialN,blocks.thisN,blocks.thisIndex,blocks.ran,block,survey.age,survey.musician,survey.music_making,survey.listen_time,survey.medium,survey.music_seeking,survey.music_choice,survey.activities,survey.question1.Disco,survey.question1.Reggae,survey.question1.Folk/indie,survey.question1.Alternative rock,survey.question1.Classical,survey.question1.Jazz,survey.question1.Electronic (EDM),survey.question1.Ambient,survey.question1.Latin,survey.question1.Country,survey.question1.Hip hop,survey.question1.Metal,survey.question1.A cappella,survey.question1.Pop,survey.question1.R&B,survey.question1.Classic rock,survey.other_genres,survey.genres_ranked.text1,survey.genres_ranked.text2,survey.genres_ranked.text3,survey.habit_change,survey.habits,experiment.thisRepN,experiment.thisTrialN,experiment.thisN,experiment.thisIndex,experiment.ran,goodbye.started,goodbye.stopped
0.0005,56.7059,space,56.6567,,885953,001,2024-06-17_13h41.08.646,experiment,2024.1.5,Win32,59.88023952,559c3b0efdf99b32b6963e81,667045947eb812cbdacbf325,66706b708526cfb6e35ce8fe,,,,,,,,,,,,,,,,,,,,,,,,,,,,,,,,,,,,,,,,,,,,,,,,,,,,,,,,,,,,,,,,,,,,,,,,,,,,,,,,,,,,,,,,,,,,,,,,,,,,,
,,,,,885953,001,2024-06-17_13h41.08.646,experiment,2024.1.5,Win32,59.88023952,559c3b0efdf99b32b6963e81,667045947eb812cbdacbf325,66706b708526cfb6e35ce8fe,yes,yes,,,,,,,,,,,,,,,,,,,,,,,,,,,,,,,,,,,,,,,,,,,,,,,,,,,,,,,,,,,,,,,,,,,,,,,,,,,,,,,,,,,,,,,,,,,,,,,,,,,
,,,,,885953,001,2024-06-17_13h41.08.646,experiment,2024.1.5,Win32,59.88023952,559c3b0efdf99b32b6963e81,667045947eb812cbdacbf325,66706b708526cfb6e35ce8fe,,,96.9977,96.998,,,,,,,,,,,,,,,,,,,,,,,,,,,,,,,,,,,,,,,,,,,,,,,,,,,,,,,,,,,,,,,,,,,,,,,,,,,,,,,,,,,,,,,,,,,,,,,,,
,,,,,885953,001,2024-06-17_13h41.08.646,experiment,2024.1.5,Win32,59.88023952,559c3b0efdf99b32b6963e81,667045947eb812cbdacbf325,66706b708526cfb6e35ce8fe,,,,,97.0006,100.6652,space,3.6283,,100.6656,149.1823,"[-0.012962962962962963,0.5527777777777778,-0.025,0.4046296296296296]","[-0.4287037037037037,-0.1685185185185185,-0.425,-0.18796296296296297]","[1,1,1,1]","[0,0,0,0]","[0,0,0,0]","[18.385899999976147,45.432199999988086,46.70339999997617,47.50329999998212]","[""play_button""]",right,38.4688,,149.1833,234.0626,space,84.8359,,234.0628,250.2675,5.544444444,16.2024,250.2678,251.6022,space,1.3163,,251.6289,257.5537,0,0,0,0,1,SoundStimuli/StandByMe_BenEKing_Original5S.wav,,,,,,,,,,,,,,,,,,,,,,,,,,,,,,,,,,,,,,,,,,,,,,,,,,,,,,,,,,
,,,,,885953,001,2024-06-17_13h41.08.646,experiment,2024.1.5,Win32,59.88023952,559c3b0efdf99b32b6963e81,667045947eb812cbdacbf325,66706b708526cfb6e35ce8fe,,,,,,,,,,,,,,,,,,,,,,,,,,,,,,,,,,,,257.555,263.576,0,1,1,1,1,SoundStimuli/StandByMe_BenEKing_Cover5S.wav,,,,,,,,,,,,,,,,,,,,,,,,,,,,,,,,,,,,,,,,,,,,,,,,,,,,,,,,,,
,,,,,885953,001,2024-06-17_13h41.08.646,experiment,2024.1.5,Win32,59.88023952,559c3b0efdf99b32b6963e81,667045947eb812cbdacbf325,66706b708526cfb6e35ce8fe,,,,,,,,,,,,,,,,,,,,,,,,,,,,,,,,,,,,,,,,,,,,263.599,279.1724,4.461111111,15.5695,0,0,0,1,1,song_indices/StandByMe_BenEKing.csv,,,,,,,,,,,,,,,,,,,,,,,,,,,,,,,,,,,,,,,,,,,,,,,,
,,,,,885953,001,2024-06-17_13h41.08.646,experiment,2024.1.5,Win32,59.88023952,559c3b0efdf99b32b6963e81,667045947eb812cbdacbf325,66706b708526cfb6e35ce8fe,,,,,,,,,,,,,,,,,,,,,,,,,,,,,,,,,,,,279.1748,285.3695,0,0,0,0,1,SoundStimuli/TheBattleOfNewOrleans_JohnnyHorton_Original5S.wav,,,,,,,,,,,,,,,,,,,,,,,,,,,,,,,,,,,,,,,,,,,,,,,,,,,,,,,,,,
,,,,,885953,001,2024-06-17_13h41.08.646,experiment,2024.1.5,Win32,59.88023952,559c3b0efdf99b32b6963e81,667045947eb812cbdacbf325,66706b708526cfb6e35ce8fe,,,,,,,,,,,,,,,,,,,,,,,,,,,,,,,,,,,,285.3957,293.3655,0,1,1,1,1,SoundStimuli/TheBattleOfNewOrleans_JohnnyHorton_Cover5S.wav,,,,,,,,,,,,,,,,,,,,,,,,,,,,,,,,,,,,,,,,,,,,,,,,,,,,,,,,,,
,,,,,885953,001,2024-06-17_13h41.08.646,experiment,2024.1.5,Win32,59.88023952,559c3b0efdf99b32b6963e81,667045947eb812cbdacbf325,66706b708526cfb6e35ce8fe,,,,,,,,,,,,,,,,,,,,,,,,,,,,,,,,,,,,,,,,,,,,293.3658,296.715,4,3.3274,0,1,1,4,1,song_indices/TheBattleOfNewOrleans_JohnnyHorton.csv,,,,,,,,,,,,,,,,,,,,,,,,,,,,,,,,,,,,,,,,,,,,,,,,
,,,,,885953,001,2024-06-17_13h41.08.646,experiment,2024.1.5,Win32,59.88023952,559c3b0efdf99b32b6963e81,667045947eb812cbdacbf325,66706b708526cfb6e35ce8fe,,,,,,,,,,,,,,,,,,,,,,,,,,,,,,,,,,,,296.718,302.7792,0,0,0,1,1,SoundStimuli/RockWithYou_MichaelJackson_Cover5S.wav,,,,,,,,,,,,,,,,,,,,,,,,,,,,,,,,,,,,,,,,,,,,,,,,,,,,,,,,,,
,,,,,885953,001,2024-06-17_13h41.08.646,experiment,2024.1.5,Win32,59.88023952,559c3b0efdf99b32b6963e81,667045947eb812cbdacbf325,66706b708526cfb6e35ce8fe,,,,,,,,,,,,,,,,,,,,,,,,,,,,,,,,,,,,302.8017,309.1271,0,1,1,0,1,SoundStimuli/RockWithYou_MichaelJackson_Original5S.wav,,,,,,,,,,,,,,,,,,,,,,,,,,,,,,,,,,,,,,,,,,,,,,,,,,,,,,,,,,
,,,,,885953,001,2024-06-17_13h41.08.646,experiment,2024.1.5,Win32,59.88023952,559c3b0efdf99b32b6963e81,667045947eb812cbdacbf325,66706b708526cfb6e35ce8fe,,,,,,,,,,,,,,,,,,,,,,,,,,,,,,,,,,,,,,,,,,,,309.1274,311.4762,5.983333333,2.3199,0,2,2,16,1,song_indices/RockWithYou_MichaelJackson.csv,,,,,,,,,,,,,,,,,,,,,,,,,,,,,,,,,,,,,,,,,,,,,,,,
,,,,,885953,001,2024-06-17_13h41.08.646,experiment,2024.1.5,Win32,59.88023952,559c3b0efdf99b32b6963e81,667045947eb812cbdacbf325,66706b708526cfb6e35ce8fe,,,,,,,,,,,,,,,,,,,,,,,,,,,,,,,,,,,,311.4799,317.4241,0,0,0,1,1,SoundStimuli/TheBoyIsMine_BrandyMonica_Cover5S.wav,,,,,,,,,,,,,,,,,,,,,,,,,,,,,,,,,,,,,,,,,,,,,,,,,,,,,,,,,,
,,,,,885953,001,2024-06-17_13h41.08.646,experiment,2024.1.5,Win32,59.88023952,559c3b0efdf99b32b6963e81,667045947eb812cbdacbf325,66706b708526cfb6e35ce8fe,,,,,,,,,,,,,,,,,,,,,,,,,,,,,,,,,,,,317.4449,323.6563,0,1,1,0,1,SoundStimuli/TheBoyIsMine_BrandyMonica_Original5S.wav,,,,,,,,,,,,,,,,,,,,,,,,,,,,,,,,,,,,,,,,,,,,,,,,,,,,,,,,,,
,,,,,885953,001,2024-06-17_13h41.08.646,experiment,2024.1.5,Win32,59.88023952,559c3b0efdf99b32b6963e81,667045947eb812cbdacbf325,66706b708526cfb6e35ce8fe,,,,,,,,,,,,,,,,,,,,,,,,,,,,,,,,,,,,,,,,,,,,323.6565,325.6718,6.566666667,1.9889,0,3,3,6,1,song_indices/TheBoyIsMine_BrandyMonica.csv,,,,,,,,,,,,,,,,,,,,,,,,,,,,,,,,,,,,,,,,,,,,,,,,
,,,,,885953,001,2024-06-17_13h41.08.646,experiment,2024.1.5,Win32,59.88023952,559c3b0efdf99b32b6963e81,667045947eb812cbdacbf325,66706b708526cfb6e35ce8fe,,,,,,,,,,,,,,,,,,,,,,,,,,,,,,,,,,,,325.6741,332.036,0,0,0,1,1,SoundStimuli/GoodGollyMissMolly_LittleRichard_Cover5S.wav,,,,,,,,,,,,,,,,,,,,,,,,,,,,,,,,,,,,,,,,,,,,,,,,,,,,,,,,,,
,,,,,885953,001,2024-06-17_13h41.08.646,experiment,2024.1.5,Win32,59.88023952,559c3b0efdf99b32b6963e81,667045947eb812cbdacbf325,66706b708526cfb6e35ce8fe,,,,,,,,,,,,,,,,,,,,,,,,,,,,,,,,,,,,332.0564,338.1173,0,1,1,0,1,SoundStimuli/GoodGollyMissMolly_LittleRichard_Original5S.wav,,,,,,,,,,,,,,,,,,,,,,,,,,,,,,,,,,,,,,,,,,,,,,,,,,,,,,,,,,
,,,,,885953,001,2024-06-17_13h41.08.646,experiment,2024.1.5,Win32,59.88023952,559c3b0efdf99b32b6963e81,667045947eb812cbdacbf325,66706b708526cfb6e35ce8fe,,,,,,,,,,,,,,,,,,,,,,,,,,,,,,,,,,,,,,,,,,,,338.1176,340.4834,5.011111111,2.3428,0,4,4,0,1,song_indices/GoodGollyMissMolly_LittleRichard.csv,,,,,,,,,,,,,,,,,,,,,,,,,,,,,,,,,,,,,,,,,,,,,,,,
,,,,,885953,001,2024-06-17_13h41.08.646,experiment,2024.1.5,Win32,59.88023952,559c3b0efdf99b32b6963e81,667045947eb812cbdacbf325,66706b708526cfb6e35ce8fe,,,,,,,,,,,,,,,,,,,,,,,,,,,,,,,,,,,,340.4856,346.7145,0,0,0,1,1,SoundStimuli/NoOne_AliciaKeys_Cover5S.wav,,,,,,,,,,,,,,,,,,,,,,,,,,,,,,,,,,,,,,,,,,,,,,,,,,,,,,,,,,
,,,,,885953,001,2024-06-17_13h41.08.646,experiment,2024.1.5,Win32,59.88023952,559c3b0efdf99b32b6963e81,667045947eb812cbdacbf325,66706b708526cfb6e35ce8fe,,,,,,,,,,,,,,,,,,,,,,,,,,,,,,,,,,,,346.7361,354.4615,0,1,1,0,1,SoundStimuli/NoOne_AliciaKeys_Original5S.wav,,,,,,,,,,,,,,,,,,,,,,,,,,,,,,,,,,,,,,,,,,,,,,,,,,,,,,,,,,
,,,,,885953,001,2024-06-17_13h41.08.646,experiment,2024.1.5,Win32,59.88023952,559c3b0efdf99b32b6963e81,667045947eb812cbdacbf325,66706b708526cfb6e35ce8fe,,,,,,,,,,,,,,,,,,,,,,,,,,,,,,,,,,,,,,,,,,,,354.4619,356.4112,3,1.918,0,5,5,19,1,song_indices/NoOne_AliciaKeys.csv,,,,,,,,,,,,,,,,,,,,,,,,,,,,,,,,,,,,,,,,,,,,,,,,
,,,,,885953,001,2024-06-17_13h41.08.646,experiment,2024.1.5,Win32,59.88023952,559c3b0efdf99b32b6963e81,667045947eb812cbdacbf325,66706b708526cfb6e35ce8fe,,,,,,,,,,,,,,,,,,,,,,,,,,,,,,,,,,,,356.4143,362.3917,0,0,0,0,1,SoundStimuli/IWalkTheLine_JohnnyCash_Original5S.wav,,,,,,,,,,,,,,,,,,,,,,,,,,,,,,,,,,,,,,,,,,,,,,,,,,,,,,,,,,
,,,,,885953,001,2024-06-17_13h41.08.646,experiment,2024.1.5,Win32,59.88023952,559c3b0efdf99b32b6963e81,667045947eb812cbdacbf325,66706b708526cfb6e35ce8fe,,,,,,,,,,,,,,,,,,,,,,,,,,,,,,,,,,,,362.4,369.5398,0,1,1,1,1,SoundStimuli/IWalkTheLine_JohnnyCash_Cover5S.wav,,,,,,,,,,,,,,,,,,,,,,,,,,,,,,,,,,,,,,,,,,,,,,,,,,,,,,,,,,
,,,,,885953,001,2024-06-17_13h41.08.646,experiment,2024.1.5,Win32,59.88023952,559c3b0efdf99b32b6963e81,667045947eb812cbdacbf325,66706b708526cfb6e35ce8fe,,,,,,,,,,,,,,,,,,,,,,,,,,,,,,,,,,,,,,,,,,,,369.5401,370.4397,4.016666667,0.8752,0,6,6,17,1,song_indices/IWalkTheLine_JohnnyCash.csv,,,,,,,,,,,,,,,,,,,,,,,,,,,,,,,,,,,,,,,,,,,,,,,,
,,,,,885953,001,2024-06-17_13h41.08.646,experiment,2024.1.5,Win32,59.88023952,559c3b0efdf99b32b6963e81,667045947eb812cbdacbf325,66706b708526cfb6e35ce8fe,,,,,,,,,,,,,,,,,,,,,,,,,,,,,,,,,,,,370.4423,377.4706,0,0,0,1,1,SoundStimuli/UptownFunk_MarkRonson_Cover5S.wav,,,,,,,,,,,,,,,,,,,,,,,,,,,,,,,,,,,,,,,,,,,,,,,,,,,,,,,,,,
,,,,,885953,001,2024-06-17_13h41.08.646,experiment,2024.1.5,Win32,59.88023952,559c3b0efdf99b32b6963e81,667045947eb812cbdacbf325,66706b708526cfb6e35ce8fe,,,,,,,,,,,,,,,,,,,,,,,,,,,,,,,,,,,,377.4891,384.7182,0,1,1,0,1,SoundStimuli/UptownFunk_MarkRonson_Original5S.wav,,,,,,,,,,,,,,,,,,,,,,,,,,,,,,,,,,,,,,,,,,,,,,,,,,,,,,,,,,
,,,,,885953,001,2024-06-17_13h41.08.646,experiment,2024.1.5,Win32,59.88023952,559c3b0efdf99b32b6963e81,667045947eb812cbdacbf325,66706b708526cfb6e35ce8fe,,,,,,,,,,,,,,,,,,,,,,,,,,,,,,,,,,,,,,,,,,,,384.7185,387.2841,6.994444444,2.5493,0,7,7,15,1,song_indices/UptownFunk_MarkRonson.csv,,,,,,,,,,,,,,,,,,,,,,,,,,,,,,,,,,,,,,,,,,,,,,,,
,,,,,885953,001,2024-06-17_13h41.08.646,experiment,2024.1.5,Win32,59.88023952,559c3b0efdf99b32b6963e81,667045947eb812cbdacbf325,66706b708526cfb6e35ce8fe,,,,,,,,,,,,,,,,,,,,,,,,,,,,,,,,,,,,387.2862,393.498,0,0,0,0,1,SoundStimuli/SmellsLikeTeenSpirit_Nirvana_Original5S.wav,,,,,,,,,,,,,,,,,,,,,,,,,,,,,,,,,,,,,,,,,,,,,,,,,,,,,,,,,,
,,,,,885953,001,2024-06-17_13h41.08.646,experiment,2024.1.5,Win32,59.88023952,559c3b0efdf99b32b6963e81,667045947eb812cbdacbf325,66706b708526cfb6e35ce8fe,,,,,,,,,,,,,,,,,,,,,,,,,,,,,,,,,,,,393.5068,399.2804,0,1,1,1,1,SoundStimuli/SmellsLikeTeenSpirit_Nirvana_Cover5S.wav,,,,,,,,,,,,,,,,,,,,,,,,,,,,,,,,,,,,,,,,,,,,,,,,,,,,,,,,,,
,,,,,885953,001,2024-06-17_13h41.08.646,experiment,2024.1.5,Win32,59.88023952,559c3b0efdf99b32b6963e81,667045947eb812cbdacbf325,66706b708526cfb6e35ce8fe,,,,,,,,,,,,,,,,,,,,,,,,,,,,,,,,,,,,,,,,,,,,399.2807,400.8792,6.883333333,1.5715,0,8,8,8,1,song_indices/SmellsLikeTeenSpirit_Nirvana.csv,,,,,,,,,,,,,,,,,,,,,,,,,,,,,,,,,,,,,,,,,,,,,,,,
,,,,,885953,001,2024-06-17_13h41.08.646,experiment,2024.1.5,Win32,59.88023952,559c3b0efdf99b32b6963e81,667045947eb812cbdacbf325,66706b708526cfb6e35ce8fe,,,,,,,,,,,,,,,,,,,,,,,,,,,,,,,,,,,,400.8816,407.1272,0,0,0,1,1,SoundStimuli/ItsAllInTheGame_TommyEdwards_Cover5S.wav,,,,,,,,,,,,,,,,,,,,,,,,,,,,,,,,,,,,,,,,,,,,,,,,,,,,,,,,,,
,,,,,885953,001,2024-06-17_13h41.08.646,experiment,2024.1.5,Win32,59.88023952,559c3b0efdf99b32b6963e81,667045947eb812cbdacbf325,66706b708526cfb6e35ce8fe,,,,,,,,,,,,,,,,,,,,,,,,,,,,,,,,,,,,407.1488,413.4088,0,1,1,0,1,SoundStimuli/ItsAllInTheGame_TommyEdwards_Original5S.wav,,,,,,,,,,,,,,,,,,,,,,,,,,,,,,,,,,,,,,,,,,,,,,,,,,,,,,,,,,
,,,,,885953,001,2024-06-17_13h41.08.646,experiment,2024.1.5,Win32,59.88023952,559c3b0efdf99b32b6963e81,667045947eb812cbdacbf325,66706b708526cfb6e35ce8fe,,,,,,,,,,,,,,,,,,,,,,,,,,,,,,,,,,,,,,,,,,,,413.4094,414.6412,5.988888889,1.1995,0,9,9,13,1,song_indices/ItsAllInTheGame_TommyEdwards.csv,,,,,,,,,,,,,,,,,,,,,,,,,,,,,,,,,,,,,,,,,,,,,,,,
,,,,,885953,001,2024-06-17_13h41.08.646,experiment,2024.1.5,Win32,59.88023952,559c3b0efdf99b32b6963e81,667045947eb812cbdacbf325,66706b708526cfb6e35ce8fe,,,,,,,,,,,,,,,,,,,,,,,,,,,,,,,,,,,,414.6451,421.2224,0,0,0,1,1,SoundStimuli/GetUrFreakOn_MissyElliot_Cover5S.wav,,,,,,,,,,,,,,,,,,,,,,,,,,,,,,,,,,,,,,,,,,,,,,,,,,,,,,,,,,
,,,,,885953,001,2024-06-17_13h41.08.646,experiment,2024.1.5,Win32,59.88023952,559c3b0efdf99b32b6963e81,667045947eb812cbdacbf325,66706b708526cfb6e35ce8fe,,,,,,,,,,,,,,,,,,,,,,,,,,,,,,,,,,,,421.2439,427.321,0,1,1,0,1,SoundStimuli/GetUrFreakOn_MissyElliot_Original5S.wav,,,,,,,,,,,,,,,,,,,,,,,,,,,,,,,,,,,,,,,,,,,,,,,,,,,,,,,,,,
,,,,,885953,001,2024-06-17_13h41.08.646,experiment,2024.1.5,Win32,59.88023952,559c3b0efdf99b32b6963e81,667045947eb812cbdacbf325,66706b708526cfb6e35ce8fe,,,,,,,,,,,,,,,,,,,,,,,,,,,,,,,,,,,,,,,,,,,,427.3212,432.9857,4.522222222,5.6308,0,10,10,18,1,song_indices/GetUrFreakOn_MissyElliot.csv,,,,,,,,,,,,,,,,,,,,,,,,,,,,,,,,,,,,,,,,,,,,,,,,
,,,,,885953,001,2024-06-17_13h41.08.646,experiment,2024.1.5,Win32,59.88023952,559c3b0efdf99b32b6963e81,667045947eb812cbdacbf325,66706b708526cfb6e35ce8fe,,,,,,,,,,,,,,,,,,,,,,,,,,,,,,,,,,,,432.9884,439.117,0,0,0,1,1,SoundStimuli/NoScrubs_TLC_Cover5S.wav,,,,,,,,,,,,,,,,,,,,,,,,,,,,,,,,,,,,,,,,,,,,,,,,,,,,,,,,,,
,,,,,885953,001,2024-06-17_13h41.08.646,experiment,2024.1.5,Win32,59.88023952,559c3b0efdf99b32b6963e81,667045947eb812cbdacbf325,66706b708526cfb6e35ce8fe,,,,,,,,,,,,,,,,,,,,,,,,,,,,,,,,,,,,439.1332,445.3368,0,1,1,0,1,SoundStimuli/NoScrubs_TLC_Original5S.wav,,,,,,,,,,,,,,,,,,,,,,,,,,,,,,,,,,,,,,,,,,,,,,,,,,,,,,,,,,
,,,,,885953,001,2024-06-17_13h41.08.646,experiment,2024.1.5,Win32,59.88023952,559c3b0efdf99b32b6963e81,667045947eb812cbdacbf325,66706b708526cfb6e35ce8fe,,,,,,,,,,,,,,,,,,,,,,,,,,,,,,,,,,,,,,,,,,,,445.3371,446.5646,6.727777778,1.2017,0,11,11,14,1,song_indices/NoScrubs_TLC.csv,,,,,,,,,,,,,,,,,,,,,,,,,,,,,,,,,,,,,,,,,,,,,,,,
,,,,,885953,001,2024-06-17_13h41.08.646,experiment,2024.1.5,Win32,59.88023952,559c3b0efdf99b32b6963e81,667045947eb812cbdacbf325,66706b708526cfb6e35ce8fe,,,,,,,,,,,,,,,,,,,,,,,,,,,,,,,,,,,,446.567,452.7785,0,0,0,1,1,SoundStimuli/GimmeShelter_RollingStones_Cover5S.wav,,,,,,,,,,,,,,,,,,,,,,,,,,,,,,,,,,,,,,,,,,,,,,,,,,,,,,,,,,
,,,,,885953,001,2024-06-17_13h41.08.646,experiment,2024.1.5,Win32,59.88023952,559c3b0efdf99b32b6963e81,667045947eb812cbdacbf325,66706b708526cfb6e35ce8fe,,,,,,,,,,,,,,,,,,,,,,,,,,,,,,,,,,,,452.7943,458.8766,0,1,1,0,1,SoundStimuli/GimmeShelter_RollingStones_Original5S.wav,,,,,,,,,,,,,,,,,,,,,,,,,,,,,,,,,,,,,,,,,,,,,,,,,,,,,,,,,,
,,,,,885953,001,2024-06-17_13h41.08.646,experiment,2024.1.5,Win32,59.88023952,559c3b0efdf99b32b6963e81,667045947eb812cbdacbf325,66706b708526cfb6e35ce8fe,,,,,,,,,,,,,,,,,,,,,,,,,,,,,,,,,,,,,,,,,,,,458.8769,460.2927,5.005555556,1.3839,0,12,12,20,1,song_indices/GimmeShelter_RollingStones.csv,,,,,,,,,,,,,,,,,,,,,,,,,,,,,,,,,,,,,,,,,,,,,,,,
,,,,,885953,001,2024-06-17_13h41.08.646,experiment,2024.1.5,Win32,59.88023952,559c3b0efdf99b32b6963e81,667045947eb812cbdacbf325,66706b708526cfb6e35ce8fe,,,,,,,,,,,,,,,,,,,,,,,,,,,,,,,,,,,,460.2952,466.1905,0,0,0,0,1,SoundStimuli/EyeOfTheTiger_Survivor_Original5S.wav,,,,,,,,,,,,,,,,,,,,,,,,,,,,,,,,,,,,,,,,,,,,,,,,,,,,,,,,,,
,,,,,885953,001,2024-06-17_13h41.08.646,experiment,2024.1.5,Win32,59.88023952,559c3b0efdf99b32b6963e81,667045947eb812cbdacbf325,66706b708526cfb6e35ce8fe,,,,,,,,,,,,,,,,,,,,,,,,,,,,,,,,,,,,466.2115,472.3442,0,1,1,1,1,SoundStimuli/EyeOfTheTiger_Survivor_Cover5S.wav,,,,,,,,,,,,,,,,,,,,,,,,,,,,,,,,,,,,,,,,,,,,,,,,,,,,,,,,,,
,,,,,885953,001,2024-06-17_13h41.08.646,experiment,2024.1.5,Win32,59.88023952,559c3b0efdf99b32b6963e81,667045947eb812cbdacbf325,66706b708526cfb6e35ce8fe,,,,,,,,,,,,,,,,,,,,,,,,,,,,,,,,,,,,,,,,,,,,472.3443,473.3718,6.027777778,0.9958,0,13,13,11,1,song_indices/EyeOfTheTiger_Survivor.csv,,,,,,,,,,,,,,,,,,,,,,,,,,,,,,,,,,,,,,,,,,,,,,,,
,,,,,885953,001,2024-06-17_13h41.08.646,experiment,2024.1.5,Win32,59.88023952,559c3b0efdf99b32b6963e81,667045947eb812cbdacbf325,66706b708526cfb6e35ce8fe,,,,,,,,,,,,,,,,,,,,,,,,,,,,,,,,,,,,473.3737,479.4362,0,0,0,0,1,SoundStimuli/Stronger_KanyeWest_Original5S.wav,,,,,,,,,,,,,,,,,,,,,,,,,,,,,,,,,,,,,,,,,,,,,,,,,,,,,,,,,,
,,,,,885953,001,2024-06-17_13h41.08.646,experiment,2024.1.5,Win32,59.88023952,559c3b0efdf99b32b6963e81,667045947eb812cbdacbf325,66706b708526cfb6e35ce8fe,,,,,,,,,,,,,,,,,,,,,,,,,,,,,,,,,,,,479.4587,485.7845,0,1,1,1,1,SoundStimuli/Stronger_KanyeWest_Cover5S.wav,,,,,,,,,,,,,,,,,,,,,,,,,,,,,,,,,,,,,,,,,,,,,,,,,,,,,,,,,,
,,,,,885953,001,2024-06-17_13h41.08.646,experiment,2024.1.5,Win32,59.88023952,559c3b0efdf99b32b6963e81,667045947eb812cbdacbf325,66706b708526cfb6e35ce8fe,,,,,,,,,,,,,,,,,,,,,,,,,,,,,,,,,,,,,,,,,,,,485.7849,487.6827,1.566666667,1.878,0,14,14,9,1,song_indices/Stronger_KanyeWest.csv,,,,,,,,,,,,,,,,,,,,,,,,,,,,,,,,,,,,,,,,,,,,,,,,
,,,,,885953,001,2024-06-17_13h41.08.646,experiment,2024.1.5,Win32,59.88023952,559c3b0efdf99b32b6963e81,667045947eb812cbdacbf325,66706b708526cfb6e35ce8fe,,,,,,,,,,,,,,,,,,,,,,,,,,,,,,,,,,,,487.6836,493.9811,0,0,0,0,1,SoundStimuli/HeyYa_Outkast_Original5S.wav,,,,,,,,,,,,,,,,,,,,,,,,,,,,,,,,,,,,,,,,,,,,,,,,,,,,,,,,,,
,,,,,885953,001,2024-06-17_13h41.08.646,experiment,2024.1.5,Win32,59.88023952,559c3b0efdf99b32b6963e81,667045947eb812cbdacbf325,66706b708526cfb6e35ce8fe,,,,,,,,,,,,,,,,,,,,,,,,,,,,,,,,,,,,494.0018,502.9115,0,1,1,1,1,SoundStimuli/HeyYa_Outkast_Cover5S.wav,,,,,,,,,,,,,,,,,,,,,,,,,,,,,,,,,,,,,,,,,,,,,,,,,,,,,,,,,,
,,,,,885953,001,2024-06-17_13h41.08.646,experiment,2024.1.5,Win32,59.88023952,559c3b0efdf99b32b6963e81,667045947eb812cbdacbf325,66706b708526cfb6e35ce8fe,,,,,,,,,,,,,,,,,,,,,,,,,,,,,,,,,,,,,,,,,,,,502.9116,505.2943,1.177777778,2.3498,0,15,15,22,1,song_indices/HeyYa_Outkast.csv,,,,,,,,,,,,,,,,,,,,,,,,,,,,,,,,,,,,,,,,,,,,,,,,
,,,,,885953,001,2024-06-17_13h41.08.646,experiment,2024.1.5,Win32,59.88023952,559c3b0efdf99b32b6963e81,667045947eb812cbdacbf325,66706b708526cfb6e35ce8fe,,,,,,,,,,,,,,,,,,,,,,,,,,,,,,,,,,,,505.297,511.7826,0,0,0,0,1,SoundStimuli/ShapeofYou_EdSheeran_Original5S.wav,,,,,,,,,,,,,,,,,,,,,,,,,,,,,,,,,,,,,,,,,,,,,,,,,,,,,,,,,,
,,,,,885953,001,2024-06-17_13h41.08.646,experiment,2024.1.5,Win32,59.88023952,559c3b0efdf99b32b6963e81,667045947eb812cbdacbf325,66706b708526cfb6e35ce8fe,,,,,,,,,,,,,,,,,,,,,,,,,,,,,,,,,,,,511.8082,518.1229,0,1,1,1,1,SoundStimuli/ShapeofYou_EdSheeran_Cover5S.wav,,,,,,,,,,,,,,,,,,,,,,,,,,,,,,,,,,,,,,,,,,,,,,,,,,,,,,,,,,
,,,,,885953,001,2024-06-17_13h41.08.646,experiment,2024.1.5,Win32,59.88023952,559c3b0efdf99b32b6963e81,667045947eb812cbdacbf325,66706b708526cfb6e35ce8fe,,,,,,,,,,,,,,,,,,,,,,,,,,,,,,,,,,,,,,,,,,,,518.1231,519.6054,4.344444444,1.453,0,16,16,21,1,song_indices/ShapeofYou_EdSheeran.csv,,,,,,,,,,,,,,,,,,,,,,,,,,,,,,,,,,,,,,,,,,,,,,,,
,,,,,885953,001,2024-06-17_13h41.08.646,experiment,2024.1.5,Win32,59.88023952,559c3b0efdf99b32b6963e81,667045947eb812cbdacbf325,66706b708526cfb6e35ce8fe,,,,,,,,,,,,,,,,,,,,,,,,,,,,,,,,,,,,519.6079,526.9704,0,0,0,0,1,SoundStimuli/Happy_PharellWilliams_Original5S.wav,,,,,,,,,,,,,,,,,,,,,,,,,,,,,,,,,,,,,,,,,,,,,,,,,,,,,,,,,,
,,,,,885953,001,2024-06-17_13h41.08.646,experiment,2024.1.5,Win32,59.88023952,559c3b0efdf99b32b6963e81,667045947eb812cbdacbf325,66706b708526cfb6e35ce8fe,,,,,,,,,,,,,,,,,,,,,,,,,,,,,,,,,,,,526.9909,534.3512,0,1,1,1,1,SoundStimuli/Happy_PharellWilliams_Cover5S.wav,,,,,,,,,,,,,,,,,,,,,,,,,,,,,,,,,,,,,,,,,,,,,,,,,,,,,,,,,,
,,,,,885953,001,2024-06-17_13h41.08.646,experiment,2024.1.5,Win32,59.88023952,559c3b0efdf99b32b6963e81,667045947eb812cbdacbf325,66706b708526cfb6e35ce8fe,,,,,,,,,,,,,,,,,,,,,,,,,,,,,,,,,,,,,,,,,,,,534.3517,535.6837,6.977777778,1.2964,0,17,17,7,1,song_indices/Happy_PharellWilliams.csv,,,,,,,,,,,,,,,,,,,,,,,,,,,,,,,,,,,,,,,,,,,,,,,,
,,,,,885953,001,2024-06-17_13h41.08.646,experiment,2024.1.5,Win32,59.88023952,559c3b0efdf99b32b6963e81,667045947eb812cbdacbf325,66706b708526cfb6e35ce8fe,,,,,,,,,,,,,,,,,,,,,,,,,,,,,,,,,,,,535.688,542.1149,0,0,0,1,1,SoundStimuli/Fallin_AliciaKeys_Cover5S.wav,,,,,,,,,,,,,,,,,,,,,,,,,,,,,,,,,,,,,,,,,,,,,,,,,,,,,,,,,,
,,,,,885953,001,2024-06-17_13h41.08.646,experiment,2024.1.5,Win32,59.88023952,559c3b0efdf99b32b6963e81,667045947eb812cbdacbf325,66706b708526cfb6e35ce8fe,,,,,,,,,,,,,,,,,,,,,,,,,,,,,,,,,,,,542.1364,548.3163,0,1,1,0,1,SoundStimuli/Fallin_AliciaKeys_Original5S.wav,,,,,,,,,,,,,,,,,,,,,,,,,,,,,,,,,,,,,,,,,,,,,,,,,,,,,,,,,,
,,,,,885953,001,2024-06-17_13h41.08.646,experiment,2024.1.5,Win32,59.88023952,559c3b0efdf99b32b6963e81,667045947eb812cbdacbf325,66706b708526cfb6e35ce8fe,,,,,,,,,,,,,,,,,,,,,,,,,,,,,,,,,,,,,,,,,,,,548.3166,550.2286,5.083333333,1.8791,0,18,18,12,1,song_indices/Fallin_AliciaKeys.csv,,,,,,,,,,,,,,,,,,,,,,,,,,,,,,,,,,,,,,,,,,,,,,,,
,,,,,885953,001,2024-06-17_13h41.08.646,experiment,2024.1.5,Win32,59.88023952,559c3b0efdf99b32b6963e81,667045947eb812cbdacbf325,66706b708526cfb6e35ce8fe,,,,,,,,,,,,,,,,,,,,,,,,,,,,,,,,,,,,550.2313,557.0103,0,0,0,1,1,SoundStimuli/PartyRockAnthem_LMFAO_Cover5S.wav,,,,,,,,,,,,,,,,,,,,,,,,,,,,,,,,,,,,,,,,,,,,,,,,,,,,,,,,,,
,,,,,885953,001,2024-06-17_13h41.08.646,experiment,2024.1.5,Win32,59.88023952,559c3b0efdf99b32b6963e81,667045947eb812cbdacbf325,66706b708526cfb6e35ce8fe,,,,,,,,,,,,,,,,,,,,,,,,,,,,,,,,,,,,557.0346,563.7742,0,1,1,0,1,SoundStimuli/PartyRockAnthem_LMFAO_Original5S.wav,,,,,,,,,,,,,,,,,,,,,,,,,,,,,,,,,,,,,,,,,,,,,,,,,,,,,,,,,,
,,,,,885953,001,2024-06-17_13h41.08.646,experiment,2024.1.5,Win32,59.88023952,559c3b0efdf99b32b6963e81,667045947eb812cbdacbf325,66706b708526cfb6e35ce8fe,,,,,,,,,,,,,,,,,,,,,,,,,,,,,,,,,,,,,,,,,,,,563.7747,566.7403,4.238888889,2.9289,0,19,19,2,1,song_indices/PartyRockAnthem_LMFAO.csv,,,,,,,,,,,,,,,,,,,,,,,,,,,,,,,,,,,,,,,,,,,,,,,,
,,,,,885953,001,2024-06-17_13h41.08.646,experiment,2024.1.5,Win32,59.88023952,559c3b0efdf99b32b6963e81,667045947eb812cbdacbf325,66706b708526cfb6e35ce8fe,,,,,,,,,,,,,,,,,,,,,,,,,,,,,,,,,,,,566.7437,573.1373,0,0,0,0,1,SoundStimuli/IWillAlwaysLoveYou_WhitneyHouston_Original5S.wav,,,,,,,,,,,,,,,,,,,,,,,,,,,,,,,,,,,,,,,,,,,,,,,,,,,,,,,,,,
,,,,,885953,001,2024-06-17_13h41.08.646,experiment,2024.1.5,Win32,59.88023952,559c3b0efdf99b32b6963e81,667045947eb812cbdacbf325,66706b708526cfb6e35ce8fe,,,,,,,,,,,,,,,,,,,,,,,,,,,,,,,,,,,,573.155,579.0031,0,1,1,1,1,SoundStimuli/IWillAlwaysLoveYou_WhitneyHouston_Cover5S.wav,,,,,,,,,,,,,,,,,,,,,,,,,,,,,,,,,,,,,,,,,,,,,,,,,,,,,,,,,,
,,,,,885953,001,2024-06-17_13h41.08.646,experiment,2024.1.5,Win32,59.88023952,559c3b0efdf99b32b6963e81,667045947eb812cbdacbf325,66706b708526cfb6e35ce8fe,,,,,,,,,,,,,,,,,,,,,,,,,,,,,,,,,,,,,,,,,,,,579.0034,581.1861,6.972222222,2.1583,0,20,20,10,1,song_indices/IWillAlwaysLoveYou_WhitneyHouston.csv,,,,,,,,,,,,,,,,,,,,,,,,,,,,,,,,,,,,,,,,,,,,,,,,
,,,,,885953,001,2024-06-17_13h41.08.646,experiment,2024.1.5,Win32,59.88023952,559c3b0efdf99b32b6963e81,667045947eb812cbdacbf325,66706b708526cfb6e35ce8fe,,,,,,,,,,,,,,,,,,,,,,,,,,,,,,,,,,,,581.1887,587.7327,0,0,0,0,1,SoundStimuli/CrazyInLove_BeyonceFtJayZ_Original5S.wav,,,,,,,,,,,,,,,,,,,,,,,,,,,,,,,,,,,,,,,,,,,,,,,,,,,,,,,,,,
,,,,,885953,001,2024-06-17_13h41.08.646,experiment,2024.1.5,Win32,59.88023952,559c3b0efdf99b32b6963e81,667045947eb812cbdacbf325,66706b708526cfb6e35ce8fe,,,,,,,,,,,,,,,,,,,,,,,,,,,,,,,,,,,,587.7571,597.9962,0,1,1,1,1,SoundStimuli/CrazyInLove_BeyonceFtJayZ_Cover5S.wav,,,,,,,,,,,,,,,,,,,,,,,,,,,,,,,,,,,,,,,,,,,,,,,,,,,,,,,,,,
,,,,,885953,001,2024-06-17_13h41.08.646,experiment,2024.1.5,Win32,59.88023952,559c3b0efdf99b32b6963e81,667045947eb812cbdacbf325,66706b708526cfb6e35ce8fe,,,,,,,,,,,,,,,,,,,,,,,,,,,,,,,,,,,,,,,,,,,,597.9974,599.3789,3.233333333,1.3481,0,21,21,3,1,song_indices/CrazyInLove_BeyonceFtJayZ.csv,,,,,,,,,,,,,,,,,,,,,,,,,,,,,,,,,,,,,,,,,,,,,,,,
,,,,,885953,001,2024-06-17_13h41.08.646,experiment,2024.1.5,Win32,59.88023952,559c3b0efdf99b32b6963e81,667045947eb812cbdacbf325,66706b708526cfb6e35ce8fe,,,,,,,,,,,,,,,,,,,,,,,,,,,,,,,,,,,,599.3806,605.5933,0,0,0,0,1,SoundStimuli/BetteDavisEyes_KimCarnes_Original5S.wav,,,,,,,,,,,,,,,,,,,,,,,,,,,,,,,,,,,,,,,,,,,,,,,,,,,,,,,,,,
,,,,,885953,001,2024-06-17_13h41.08.646,experiment,2024.1.5,Win32,59.88023952,559c3b0efdf99b32b6963e81,667045947eb812cbdacbf325,66706b708526cfb6e35ce8fe,,,,,,,,,,,,,,,,,,,,,,,,,,,,,,,,,,,,605.6182,611.3083,0,1,1,1,1,SoundStimuli/BetteDavisEyes_KimCarnes_Cover5S.wav,,,,,,,,,,,,,,,,,,,,,,,,,,,,,,,,,,,,,,,,,,,,,,,,,,,,,,,,,,
,,,,,885953,001,2024-06-17_13h41.08.646,experiment,2024.1.5,Win32,59.88023952,559c3b0efdf99b32b6963e81,667045947eb812cbdacbf325,66706b708526cfb6e35ce8fe,,,,,,,,,,,,,,,,,,,,,,,,,,,,,,,,,,,,,,,,,,,,611.3091,613.2748,5.611111111,1.9348,0,22,22,5,1,song_indices/BetteDavisEyes_KimCarnes.csv,,,,,,,,,,,,,,,,,,,,,,,,,,,,,,,,,,,,,,,,,,,,,,,,
,,,,,885953,001,2024-06-17_13h41.08.646,experiment,2024.1.5,Win32,59.88023952,559c3b0efdf99b32b6963e81,667045947eb812cbdacbf325,66706b708526cfb6e35ce8fe,,,,,,,,,,,,,,,,,,,,,,,,,,,,,,,,,,,,,,,,,,,,,,,,,,,,,,613.2768,616.6967,space,3.3665,,0,0,0,1,1,choose_song_b2.csv,,,,,,,,,,,,,,,,,,,,,,,,,,,,,,,,,,,,,
,,,,,885953,001,2024-06-17_13h41.08.646,experiment,2024.1.5,Win32,59.88023952,559c3b0efdf99b32b6963e81,667045947eb812cbdacbf325,66706b708526cfb6e35ce8fe,,,,,,,,,,,,,,,,,,,,,,,,,,,,,,,,,,,,616.7,624.2038,0,0,0,1,1,SoundStimuli/EndlessLove_DianaRossLionelRichie_Cover5S.wav,,,,,,,,,,,,,,,,,,,,,,,,,,,,,,,,,,,,,,,,,,,,,,,,,,,,,,,,,,
,,,,,885953,001,2024-06-17_13h41.08.646,experiment,2024.1.5,Win32,59.88023952,559c3b0efdf99b32b6963e81,667045947eb812cbdacbf325,66706b708526cfb6e35ce8fe,,,,,,,,,,,,,,,,,,,,,,,,,,,,,,,,,,,,624.2294,630.5684,0,1,1,0,1,SoundStimuli/EndlessLove_DianaRossLionelRichie_Original5S.wav,,,,,,,,,,,,,,,,,,,,,,,,,,,,,,,,,,,,,,,,,,,,,,,,,,,,,,,,,,
,,,,,885953,001,2024-06-17_13h41.08.646,experiment,2024.1.5,Win32,59.88023952,559c3b0efdf99b32b6963e81,667045947eb812cbdacbf325,66706b708526cfb6e35ce8fe,,,,,,,,,,,,,,,,,,,,,,,,,,,,,,,,,,,,,,,,,,,,630.5687,635.1833,5.75,4.5812,0,0,0,3,1,song_indices/EndlessLove_DianaRossLionelRichie.csv,,,,,,,,,,,,,,,,,,,,,,,,,,,,,,,,,,,,,,,,,,,,,,,,
,,,,,885953,001,2024-06-17_13h41.08.646,experiment,2024.1.5,Win32,59.88023952,559c3b0efdf99b32b6963e81,667045947eb812cbdacbf325,66706b708526cfb6e35ce8fe,,,,,,,,,,,,,,,,,,,,,,,,,,,,,,,,,,,,635.1857,643.4472,0,0,0,1,1,SoundStimuli/Perfect_EdSheeran_Cover5S.wav,,,,,,,,,,,,,,,,,,,,,,,,,,,,,,,,,,,,,,,,,,,,,,,,,,,,,,,,,,
,,,,,885953,001,2024-06-17_13h41.08.646,experiment,2024.1.5,Win32,59.88023952,559c3b0efdf99b32b6963e81,667045947eb812cbdacbf325,66706b708526cfb6e35ce8fe,,,,,,,,,,,,,,,,,,,,,,,,,,,,,,,,,,,,643.4671,652.3278,0,1,1,0,1,SoundStimuli/Perfect_EdSheeran_Original5S.wav,,,,,,,,,,,,,,,,,,,,,,,,,,,,,,,,,,,,,,,,,,,,,,,,,,,,,,,,,,
,,,,,885953,001,2024-06-17_13h41.08.646,experiment,2024.1.5,Win32,59.88023952,559c3b0efdf99b32b6963e81,667045947eb812cbdacbf325,66706b708526cfb6e35ce8fe,,,,,,,,,,,,,,,,,,,,,,,,,,,,,,,,,,,,,,,,,,,,652.3281,653.8939,5.861111111,1.5341,0,1,1,0,1,song_indices/Perfect_EdSheeran.csv,,,,,,,,,,,,,,,,,,,,,,,,,,,,,,,,,,,,,,,,,,,,,,,,
,,,,,885953,001,2024-06-17_13h41.08.646,experiment,2024.1.5,Win32,59.88023952,559c3b0efdf99b32b6963e81,667045947eb812cbdacbf325,66706b708526cfb6e35ce8fe,,,,,,,,,,,,,,,,,,,,,,,,,,,,,,,,,,,,653.8959,660.1082,0,0,0,1,1,SoundStimuli/LikeAPrayer_Madonna_Cover5S.wav,,,,,,,,,,,,,,,,,,,,,,,,,,,,,,,,,,,,,,,,,,,,,,,,,,,,,,,,,,
,,,,,885953,001,2024-06-17_13h41.08.646,experiment,2024.1.5,Win32,59.88023952,559c3b0efdf99b32b6963e81,667045947eb812cbdacbf325,66706b708526cfb6e35ce8fe,,,,,,,,,,,,,,,,,,,,,,,,,,,,,,,,,,,,660.1298,666.3228,0,1,1,0,1,SoundStimuli/LikeAPrayer_Madonna_Original5S.wav,,,,,,,,,,,,,,,,,,,,,,,,,,,,,,,,,,,,,,,,,,,,,,,,,,,,,,,,,,
,,,,,885953,001,2024-06-17_13h41.08.646,experiment,2024.1.5,Win32,59.88023952,559c3b0efdf99b32b6963e81,667045947eb812cbdacbf325,66706b708526cfb6e35ce8fe,,,,,,,,,,,,,,,,,,,,,,,,,,,,,,,,,,,,,,,,,,,,666.3231,668.6455,2.933333333,2.3004,0,2,2,7,1,song_indices/LikeAPrayer_Madonna.csv,,,,,,,,,,,,,,,,,,,,,,,,,,,,,,,,,,,,,,,,,,,,,,,,
,,,,,885953,001,2024-06-17_13h41.08.646,experiment,2024.1.5,Win32,59.88023952,559c3b0efdf99b32b6963e81,667045947eb812cbdacbf325,66706b708526cfb6e35ce8fe,,,,,,,,,,,,,,,,,,,,,,,,,,,,,,,,,,,,668.6473,674.7538,0,0,0,0,1,SoundStimuli/HeatWaves_GlassAnimals_Original5S.wav,,,,,,,,,,,,,,,,,,,,,,,,,,,,,,,,,,,,,,,,,,,,,,,,,,,,,,,,,,
,,,,,885953,001,2024-06-17_13h41.08.646,experiment,2024.1.5,Win32,59.88023952,559c3b0efdf99b32b6963e81,667045947eb812cbdacbf325,66706b708526cfb6e35ce8fe,,,,,,,,,,,,,,,,,,,,,,,,,,,,,,,,,,,,674.7787,683.3724,0,1,1,1,1,SoundStimuli/HeatWaves_GlassAnimals_Cover5S.wav,,,,,,,,,,,,,,,,,,,,,,,,,,,,,,,,,,,,,,,,,,,,,,,,,,,,,,,,,,
,,,,,885953,001,2024-06-17_13h41.08.646,experiment,2024.1.5,Win32,59.88023952,559c3b0efdf99b32b6963e81,667045947eb812cbdacbf325,66706b708526cfb6e35ce8fe,,,,,,,,,,,,,,,,,,,,,,,,,,,,,,,,,,,,,,,,,,,,683.3727,684.4333,2.277777778,1.0368,0,3,3,10,1,song_indices/HeatWaves_GlassAnimals.csv,,,,,,,,,,,,,,,,,,,,,,,,,,,,,,,,,,,,,,,,,,,,,,,,
,,,,,885953,001,2024-06-17_13h41.08.646,experiment,2024.1.5,Win32,59.88023952,559c3b0efdf99b32b6963e81,667045947eb812cbdacbf325,66706b708526cfb6e35ce8fe,,,,,,,,,,,,,,,,,,,,,,,,,,,,,,,,,,,,684.4357,690.9976,0,0,0,0,1,SoundStimuli/Despacito_LuisFonsiDaddyYankee_Original5S.wav,,,,,,,,,,,,,,,,,,,,,,,,,,,,,,,,,,,,,,,,,,,,,,,,,,,,,,,,,,
,,,,,885953,001,2024-06-17_13h41.08.646,experiment,2024.1.5,Win32,59.88023952,559c3b0efdf99b32b6963e81,667045947eb812cbdacbf325,66706b708526cfb6e35ce8fe,,,,,,,,,,,,,,,,,,,,,,,,,,,,,,,,,,,,691.0205,697.5956,0,1,1,1,1,SoundStimuli/Despacito_LuisFonsiDaddyYankee_Cover5S.wav,,,,,,,,,,,,,,,,,,,,,,,,,,,,,,,,,,,,,,,,,,,,,,,,,,,,,,,,,,
,,,,,885953,001,2024-06-17_13h41.08.646,experiment,2024.1.5,Win32,59.88023952,559c3b0efdf99b32b6963e81,667045947eb812cbdacbf325,66706b708526cfb6e35ce8fe,,,,,,,,,,,,,,,,,,,,,,,,,,,,,,,,,,,,,,,,,,,,697.5959,698.6284,4.105555556,1.0091,0,4,4,11,1,song_indices/Despacito_LuisFonsiDaddyYankee.csv,,,,,,,,,,,,,,,,,,,,,,,,,,,,,,,,,,,,,,,,,,,,,,,,
,,,,,885953,001,2024-06-17_13h41.08.646,experiment,2024.1.5,Win32,59.88023952,559c3b0efdf99b32b6963e81,667045947eb812cbdacbf325,66706b708526cfb6e35ce8fe,,,,,,,,,,,,,,,,,,,,,,,,,,,,,,,,,,,,698.63,703.0272,0,0,0,1,1,SoundStimuli/LikeARollingStone_BobDylan_Cover5S.wav,,,,,,,,,,,,,,,,,,,,,,,,,,,,,,,,,,,,,,,,,,,,,,,,,,,,,,,,,,
,,,,,885953,001,2024-06-17_13h41.08.646,experiment,2024.1.5,Win32,59.88023952,559c3b0efdf99b32b6963e81,667045947eb812cbdacbf325,66706b708526cfb6e35ce8fe,,,,,,,,,,,,,,,,,,,,,,,,,,,,,,,,,,,,703.0491,709.1913,0,1,1,0,1,SoundStimuli/LikeARollingStone_BobDylan_Original5S.wav,,,,,,,,,,,,,,,,,,,,,,,,,,,,,,,,,,,,,,,,,,,,,,,,,,,,,,,,,,
,,,,,885953,001,2024-06-17_13h41.08.646,experiment,2024.1.5,Win32,59.88023952,559c3b0efdf99b32b6963e81,667045947eb812cbdacbf325,66706b708526cfb6e35ce8fe,,,,,,,,,,,,,,,,,,,,,,,,,,,,,,,,,,,,,,,,,,,,709.1914,710.6407,3.65,1.4378,0,5,5,12,1,song_indices/LikeARollingStone_BobDylan.csv,,,,,,,,,,,,,,,,,,,,,,,,,,,,,,,,,,,,,,,,,,,,,,,,
,,,,,885953,001,2024-06-17_13h41.08.646,experiment,2024.1.5,Win32,59.88023952,559c3b0efdf99b32b6963e81,667045947eb812cbdacbf325,66706b708526cfb6e35ce8fe,,,,,,,,,,,,,,,,,,,,,,,,,,,,,,,,,,,,710.6415,716.6894,0,0,0,1,1,SoundStimuli/IWantToHoldYourHand_TheBeatles_Cover5S.wav,,,,,,,,,,,,,,,,,,,,,,,,,,,,,,,,,,,,,,,,,,,,,,,,,,,,,,,,,,
,,,,,885953,001,2024-06-17_13h41.08.646,experiment,2024.1.5,Win32,59.88023952,559c3b0efdf99b32b6963e81,667045947eb812cbdacbf325,66706b708526cfb6e35ce8fe,,,,,,,,,,,,,,,,,,,,,,,,,,,,,,,,,,,,716.714,722.4875,0,1,1,0,1,SoundStimuli/IWantToHoldYourHand_TheBeatles_Original5S.wav,,,,,,,,,,,,,,,,,,,,,,,,,,,,,,,,,,,,,,,,,,,,,,,,,,,,,,,,,,
,,,,,885953,001,2024-06-17_13h41.08.646,experiment,2024.1.5,Win32,59.88023952,559c3b0efdf99b32b6963e81,667045947eb812cbdacbf325,66706b708526cfb6e35ce8fe,,,,,,,,,,,,,,,,,,,,,,,,,,,,,,,,,,,,,,,,,,,,722.488,724.3701,1.611111111,1.8474,0,6,6,19,1,song_indices/IWantToHoldYourHand_TheBeatles.csv,,,,,,,,,,,,,,,,,,,,,,,,,,,,,,,,,,,,,,,,,,,,,,,,
,,,,,885953,001,2024-06-17_13h41.08.646,experiment,2024.1.5,Win32,59.88023952,559c3b0efdf99b32b6963e81,667045947eb812cbdacbf325,66706b708526cfb6e35ce8fe,,,,,,,,,,,,,,,,,,,,,,,,,,,,,,,,,,,,724.3727,730.3177,0,0,0,1,1,SoundStimuli/IllMakeLoveToYou_BoyzIIMen_Cover5S.wav,,,,,,,,,,,,,,,,,,,,,,,,,,,,,,,,,,,,,,,,,,,,,,,,,,,,,,,,,,
,,,,,885953,001,2024-06-17_13h41.08.646,experiment,2024.1.5,Win32,59.88023952,559c3b0efdf99b32b6963e81,667045947eb812cbdacbf325,66706b708526cfb6e35ce8fe,,,,,,,,,,,,,,,,,,,,,,,,,,,,,,,,,,,,730.3384,736.4237,0,1,1,0,1,SoundStimuli/IllMakeLoveToYou_BoyzIIMen_Original5S.wav,,,,,,,,,,,,,,,,,,,,,,,,,,,,,,,,,,,,,,,,,,,,,,,,,,,,,,,,,,
,,,,,885953,001,2024-06-17_13h41.08.646,experiment,2024.1.5,Win32,59.88023952,559c3b0efdf99b32b6963e81,667045947eb812cbdacbf325,66706b708526cfb6e35ce8fe,,,,,,,,,,,,,,,,,,,,,,,,,,,,,,,,,,,,,,,,,,,,736.4239,739.516,2.994444444,3.0579,0,7,7,6,1,song_indices/IllMakeLoveToYou_BoyzIIMen.csv,,,,,,,,,,,,,,,,,,,,,,,,,,,,,,,,,,,,,,,,,,,,,,,,
,,,,,885953,001,2024-06-17_13h41.08.646,experiment,2024.1.5,Win32,59.88023952,559c3b0efdf99b32b6963e81,667045947eb812cbdacbf325,66706b708526cfb6e35ce8fe,,,,,,,,,,,,,,,,,,,,,,,,,,,,,,,,,,,,739.5184,745.7463,0,0,0,0,1,SoundStimuli/Smooth_SantanaRobThomas_Original5S.wav,,,,,,,,,,,,,,,,,,,,,,,,,,,,,,,,,,,,,,,,,,,,,,,,,,,,,,,,,,
,,,,,885953,001,2024-06-17_13h41.08.646,experiment,2024.1.5,Win32,59.88023952,559c3b0efdf99b32b6963e81,667045947eb812cbdacbf325,66706b708526cfb6e35ce8fe,,,,,,,,,,,,,,,,,,,,,,,,,,,,,,,,,,,,745.7713,751.9005,0,1,1,1,1,SoundStimuli/Smooth_SantanaRobThomas_Cover5S.wav,,,,,,,,,,,,,,,,,,,,,,,,,,,,,,,,,,,,,,,,,,,,,,,,,,,,,,,,,,
,,,,,885953,001,2024-06-17_13h41.08.646,experiment,2024.1.5,Win32,59.88023952,559c3b0efdf99b32b6963e81,667045947eb812cbdacbf325,66706b708526cfb6e35ce8fe,,,,,,,,,,,,,,,,,,,,,,,,,,,,,,,,,,,,,,,,,,,,751.9006,753.3941,6.922222222,1.4601,0,8,8,4,1,song_indices/Smooth_SantanaRobThomas.csv,,,,,,,,,,,,,,,,,,,,,,,,,,,,,,,,,,,,,,,,,,,,,,,,
,,,,,885953,001,2024-06-17_13h41.08.646,experiment,2024.1.5,Win32,59.88023952,559c3b0efdf99b32b6963e81,667045947eb812cbdacbf325,66706b708526cfb6e35ce8fe,,,,,,,,,,,,,,,,,,,,,,,,,,,,,,,,,,,,753.3969,757.4759,0,0,0,1,1,SoundStimuli/BohemianRhapsody_Queen_Cover5S.wav,,,,,,,,,,,,,,,,,,,,,,,,,,,,,,,,,,,,,,,,,,,,,,,,,,,,,,,,,,
,,,,,885953,001,2024-06-17_13h41.08.646,experiment,2024.1.5,Win32,59.88023952,559c3b0efdf99b32b6963e81,667045947eb812cbdacbf325,66706b708526cfb6e35ce8fe,,,,,,,,,,,,,,,,,,,,,,,,,,,,,,,,,,,,757.494,763.4403,0,1,1,0,1,SoundStimuli/BohemianRhapsody_Queen_Original5S.wav,,,,,,,,,,,,,,,,,,,,,,,,,,,,,,,,,,,,,,,,,,,,,,,,,,,,,,,,,,
,,,,,885953,001,2024-06-17_13h41.08.646,experiment,2024.1.5,Win32,59.88023952,559c3b0efdf99b32b6963e81,667045947eb812cbdacbf325,66706b708526cfb6e35ce8fe,,,,,,,,,,,,,,,,,,,,,,,,,,,,,,,,,,,,,,,,,,,,763.4407,765.3232,2.005555556,1.8537,0,9,9,18,1,song_indices/BohemianRhapsody_Queen.csv,,,,,,,,,,,,,,,,,,,,,,,,,,,,,,,,,,,,,,,,,,,,,,,,
,,,,,885953,001,2024-06-17_13h41.08.646,experiment,2024.1.5,Win32,59.88023952,559c3b0efdf99b32b6963e81,667045947eb812cbdacbf325,66706b708526cfb6e35ce8fe,,,,,,,,,,,,,,,,,,,,,,,,,,,,,,,,,,,,765.3259,771.6212,0,0,0,0,1,SoundStimuli/Mood_24kGoldnianndior_Original5S.wav,,,,,,,,,,,,,,,,,,,,,,,,,,,,,,,,,,,,,,,,,,,,,,,,,,,,,,,,,,
,,,,,885953,001,2024-06-17_13h41.08.646,experiment,2024.1.5,Win32,59.88023952,559c3b0efdf99b32b6963e81,667045947eb812cbdacbf325,66706b708526cfb6e35ce8fe,,,,,,,,,,,,,,,,,,,,,,,,,,,,,,,,,,,,771.6458,779.9344,0,1,1,1,1,SoundStimuli/Mood_24kGoldnianndior_Cover5S.wav,,,,,,,,,,,,,,,,,,,,,,,,,,,,,,,,,,,,,,,,,,,,,,,,,,,,,,,,,,
,,,,,885953,001,2024-06-17_13h41.08.646,experiment,2024.1.5,Win32,59.88023952,559c3b0efdf99b32b6963e81,667045947eb812cbdacbf325,66706b708526cfb6e35ce8fe,,,,,,,,,,,,,,,,,,,,,,,,,,,,,,,,,,,,,,,,,,,,779.935,781.9002,1.433333333,1.9262,0,10,10,5,1,song_indices/Mood_24kGoldnianndior.csv,,,,,,,,,,,,,,,,,,,,,,,,,,,,,,,,,,,,,,,,,,,,,,,,
,,,,,885953,001,2024-06-17_13h41.08.646,experiment,2024.1.5,Win32,59.88023952,559c3b0efdf99b32b6963e81,667045947eb812cbdacbf325,66706b708526cfb6e35ce8fe,,,,,,,,,,,,,,,,,,,,,,,,,,,,,,,,,,,,781.9013,787.9321,0,0,0,0,1,SoundStimuli/StayinAlive_BeeGees_Original5S.wav,,,,,,,,,,,,,,,,,,,,,,,,,,,,,,,,,,,,,,,,,,,,,,,,,,,,,,,,,,
,,,,,885953,001,2024-06-17_13h41.08.646,experiment,2024.1.5,Win32,59.88023952,559c3b0efdf99b32b6963e81,667045947eb812cbdacbf325,66706b708526cfb6e35ce8fe,,,,,,,,,,,,,,,,,,,,,,,,,,,,,,,,,,,,787.9539,793.7803,0,1,1,1,1,SoundStimuli/StayinAlive_BeeGees_Cover5S.wav,,,,,,,,,,,,,,,,,,,,,,,,,,,,,,,,,,,,,,,,,,,,,,,,,,,,,,,,,,
,,,,,885953,001,2024-06-17_13h41.08.646,experiment,2024.1.5,Win32,59.88023952,559c3b0efdf99b32b6963e81,667045947eb812cbdacbf325,66706b708526cfb6e35ce8fe,,,,,,,,,,,,,,,,,,,,,,,,,,,,,,,,,,,,,,,,,,,,793.7807,795.613,5.833333333,1.805,0,11,11,2,1,song_indices/StayinAlive_BeeGees.csv,,,,,,,,,,,,,,,,,,,,,,,,,,,,,,,,,,,,,,,,,,,,,,,,
,,,,,885953,001,2024-06-17_13h41.08.646,experiment,2024.1.5,Win32,59.88023952,559c3b0efdf99b32b6963e81,667045947eb812cbdacbf325,66706b708526cfb6e35ce8fe,,,,,,,,,,,,,,,,,,,,,,,,,,,,,,,,,,,,795.6162,803.1103,0,0,0,1,1,SoundStimuli/BadDay_DanielPowter_Cover5S.wav,,,,,,,,,,,,,,,,,,,,,,,,,,,,,,,,,,,,,,,,,,,,,,,,,,,,,,,,,,
,,,,,885953,001,2024-06-17_13h41.08.646,experiment,2024.1.5,Win32,59.88023952,559c3b0efdf99b32b6963e81,667045947eb812cbdacbf325,66706b708526cfb6e35ce8fe,,,,,,,,,,,,,,,,,,,,,,,,,,,,,,,,,,,,803.1366,809.5753,0,1,1,0,1,SoundStimuli/BadDay_DanielPowter_Original5S.wav,,,,,,,,,,,,,,,,,,,,,,,,,,,,,,,,,,,,,,,,,,,,,,,,,,,,,,,,,,
,,,,,885953,001,2024-06-17_13h41.08.646,experiment,2024.1.5,Win32,59.88023952,559c3b0efdf99b32b6963e81,667045947eb812cbdacbf325,66706b708526cfb6e35ce8fe,,,,,,,,,,,,,,,,,,,,,,,,,,,,,,,,,,,,,,,,,,,,809.5756,811.9236,4.955555556,2.3151,0,12,12,22,1,song_indices/BadDay_DanielPowter.csv,,,,,,,,,,,,,,,,,,,,,,,,,,,,,,,,,,,,,,,,,,,,,,,,
,,,,,885953,001,2024-06-17_13h41.08.646,experiment,2024.1.5,Win32,59.88023952,559c3b0efdf99b32b6963e81,667045947eb812cbdacbf325,66706b708526cfb6e35ce8fe,,,,,,,,,,,,,,,,,,,,,,,,,,,,,,,,,,,,811.9259,818.0714,0,0,0,0,1,SoundStimuli/MackTheKnife_BobbyDarin_Original5S.wav,,,,,,,,,,,,,,,,,,,,,,,,,,,,,,,,,,,,,,,,,,,,,,,,,,,,,,,,,,
,,,,,885953,001,2024-06-17_13h41.08.646,experiment,2024.1.5,Win32,59.88023952,559c3b0efdf99b32b6963e81,667045947eb812cbdacbf325,66706b708526cfb6e35ce8fe,,,,,,,,,,,,,,,,,,,,,,,,,,,,,,,,,,,,818.0926,824.3597,0,1,1,1,1,SoundStimuli/MackTheKnife_BobbyDarin_Cover5S.wav,,,,,,,,,,,,,,,,,,,,,,,,,,,,,,,,,,,,,,,,,,,,,,,,,,,,,,,,,,
,,,,,885953,001,2024-06-17_13h41.08.646,experiment,2024.1.5,Win32,59.88023952,559c3b0efdf99b32b6963e81,667045947eb812cbdacbf325,66706b708526cfb6e35ce8fe,,,,,,,,,,,,,,,,,,,,,,,,,,,,,,,,,,,,,,,,,,,,824.3599,825.6031,1,1.2095,0,13,13,21,1,song_indices/MackTheKnife_BobbyDarin.csv,,,,,,,,,,,,,,,,,,,,,,,,,,,,,,,,,,,,,,,,,,,,,,,,
,,,,,885953,001,2024-06-17_13h41.08.646,experiment,2024.1.5,Win32,59.88023952,559c3b0efdf99b32b6963e81,667045947eb812cbdacbf325,66706b708526cfb6e35ce8fe,,,,,,,,,,,,,,,,,,,,,,,,,,,,,,,,,,,,825.6058,832.0006,0,0,0,0,1,SoundStimuli/MyGirl_TheTemptations_Original5S.wav,,,,,,,,,,,,,,,,,,,,,,,,,,,,,,,,,,,,,,,,,,,,,,,,,,,,,,,,,,
,,,,,885953,001,2024-06-17_13h41.08.646,experiment,2024.1.5,Win32,59.88023952,559c3b0efdf99b32b6963e81,667045947eb812cbdacbf325,66706b708526cfb6e35ce8fe,,,,,,,,,,,,,,,,,,,,,,,,,,,,,,,,,,,,832.0264,839.6813,0,1,1,1,1,SoundStimuli/MyGirl_TheTemptations_Cover5S.wav,,,,,,,,,,,,,,,,,,,,,,,,,,,,,,,,,,,,,,,,,,,,,,,,,,,,,,,,,,
,,,,,885953,001,2024-06-17_13h41.08.646,experiment,2024.1.5,Win32,59.88023952,559c3b0efdf99b32b6963e81,667045947eb812cbdacbf325,66706b708526cfb6e35ce8fe,,,,,,,,,,,,,,,,,,,,,,,,,,,,,,,,,,,,,,,,,,,,839.6815,843.2469,2.538888889,3.5315,0,14,14,15,1,song_indices/MyGirl_TheTemptations.csv,,,,,,,,,,,,,,,,,,,,,,,,,,,,,,,,,,,,,,,,,,,,,,,,
,,,,,885953,001,2024-06-17_13h41.08.646,experiment,2024.1.5,Win32,59.88023952,559c3b0efdf99b32b6963e81,667045947eb812cbdacbf325,66706b708526cfb6e35ce8fe,,,,,,,,,,,,,,,,,,,,,,,,,,,,,,,,,,,,843.2501,849.7668,0,0,0,1,1,SoundStimuli/OldTownRoad_LilNasX_Cover5S.wav,,,,,,,,,,,,,,,,,,,,,,,,,,,,,,,,,,,,,,,,,,,,,,,,,,,,,,,,,,
,,,,,885953,001,2024-06-17_13h41.08.646,experiment,2024.1.5,Win32,59.88023952,559c3b0efdf99b32b6963e81,667045947eb812cbdacbf325,66706b708526cfb6e35ce8fe,,,,,,,,,,,,,,,,,,,,,,,,,,,,,,,,,,,,849.7919,857.1583,0,1,1,0,1,SoundStimuli/OldTownRoad_LilNasX_Original5S.wav,,,,,,,,,,,,,,,,,,,,,,,,,,,,,,,,,,,,,,,,,,,,,,,,,,,,,,,,,,
,,,,,885953,001,2024-06-17_13h41.08.646,experiment,2024.1.5,Win32,59.88023952,559c3b0efdf99b32b6963e81,667045947eb812cbdacbf325,66706b708526cfb6e35ce8fe,,,,,,,,,,,,,,,,,,,,,,,,,,,,,,,,,,,,,,,,,,,,857.1586,862.773,4.45,5.5828,0,15,15,20,1,song_indices/OldTownRoad_LilNasX.csv,,,,,,,,,,,,,,,,,,,,,,,,,,,,,,,,,,,,,,,,,,,,,,,,
,,,,,885953,001,2024-06-17_13h41.08.646,experiment,2024.1.5,Win32,59.88023952,559c3b0efdf99b32b6963e81,667045947eb812cbdacbf325,66706b708526cfb6e35ce8fe,,,,,,,,,,,,,,,,,,,,,,,,,,,,,,,,,,,,862.775,868.8207,0,0,0,0,1,SoundStimuli/AnotherOneBitesTheDust_Queen_Original5S.wav,,,,,,,,,,,,,,,,,,,,,,,,,,,,,,,,,,,,,,,,,,,,,,,,,,,,,,,,,,
,,,,,885953,001,2024-06-17_13h41.08.646,experiment,2024.1.5,Win32,59.88023952,559c3b0efdf99b32b6963e81,667045947eb812cbdacbf325,66706b708526cfb6e35ce8fe,,,,,,,,,,,,,,,,,,,,,,,,,,,,,,,,,,,,868.8288,876.9525,0,1,1,1,1,SoundStimuli/AnotherOneBitesTheDust_Queen_Cover5S.wav,,,,,,,,,,,,,,,,,,,,,,,,,,,,,,,,,,,,,,,,,,,,,,,,,,,,,,,,,,
,,,,,885953,001,2024-06-17_13h41.08.646,experiment,2024.1.5,Win32,59.88023952,559c3b0efdf99b32b6963e81,667045947eb812cbdacbf325,66706b708526cfb6e35ce8fe,,,,,,,,,,,,,,,,,,,,,,,,,,,,,,,,,,,,,,,,,,,,876.9528,877.9513,1.361111111,0.9719,0,16,16,9,1,song_indices/AnotherOneBitesTheDust_Queen.csv,,,,,,,,,,,,,,,,,,,,,,,,,,,,,,,,,,,,,,,,,,,,,,,,
,,,,,885953,001,2024-06-17_13h41.08.646,experiment,2024.1.5,Win32,59.88023952,559c3b0efdf99b32b6963e81,667045947eb812cbdacbf325,66706b708526cfb6e35ce8fe,,,,,,,,,,,,,,,,,,,,,,,,,,,,,,,,,,,,877.9536,884.1995,0,0,0,0,1,SoundStimuli/GodOnlyKnows_TheBeachBoys_Original5S.wav,,,,,,,,,,,,,,,,,,,,,,,,,,,,,,,,,,,,,,,,,,,,,,,,,,,,,,,,,,
,,,,,885953,001,2024-06-17_13h41.08.646,experiment,2024.1.5,Win32,59.88023952,559c3b0efdf99b32b6963e81,667045947eb812cbdacbf325,66706b708526cfb6e35ce8fe,,,,,,,,,,,,,,,,,,,,,,,,,,,,,,,,,,,,884.2214,891.0807,0,1,1,1,1,SoundStimuli/GodOnlyKnows_TheBeachBoys_Cover5S.wav,,,,,,,,,,,,,,,,,,,,,,,,,,,,,,,,,,,,,,,,,,,,,,,,,,,,,,,,,,
,,,,,885953,001,2024-06-17_13h41.08.646,experiment,2024.1.5,Win32,59.88023952,559c3b0efdf99b32b6963e81,667045947eb812cbdacbf325,66706b708526cfb6e35ce8fe,,,,,,,,,,,,,,,,,,,,,,,,,,,,,,,,,,,,,,,,,,,,891.0812,894.1128,2.211111111,2.9965,0,17,17,8,1,song_indices/GodOnlyKnows_TheBeachBoys.csv,,,,,,,,,,,,,,,,,,,,,,,,,,,,,,,,,,,,,,,,,,,,,,,,
,,,,,885953,001,2024-06-17_13h41.08.646,experiment,2024.1.5,Win32,59.88023952,559c3b0efdf99b32b6963e81,667045947eb812cbdacbf325,66706b708526cfb6e35ce8fe,,,,,,,,,,,,,,,,,,,,,,,,,,,,,,,,,,,,894.1152,901.7932,0,0,0,1,1,SoundStimuli/LivinOnAPrayer_BonJovi_Cover5S.wav,,,,,,,,,,,,,,,,,,,,,,,,,,,,,,,,,,,,,,,,,,,,,,,,,,,,,,,,,,
,,,,,885953,001,2024-06-17_13h41.08.646,experiment,2024.1.5,Win32,59.88023952,559c3b0efdf99b32b6963e81,667045947eb812cbdacbf325,66706b708526cfb6e35ce8fe,,,,,,,,,,,,,,,,,,,,,,,,,,,,,,,,,,,,901.8166,908.0581,0,1,1,0,1,SoundStimuli/LivinOnAPrayer_BonJovi_Original5S.wav,,,,,,,,,,,,,,,,,,,,,,,,,,,,,,,,,,,,,,,,,,,,,,,,,,,,,,,,,,
,,,,,885953,001,2024-06-17_13h41.08.646,experiment,2024.1.5,Win32,59.88023952,559c3b0efdf99b32b6963e81,667045947eb812cbdacbf325,66706b708526cfb6e35ce8fe,,,,,,,,,,,,,,,,,,,,,,,,,,,,,,,,,,,,,,,,,,,,908.0586,909.2073,1.061111111,1.1224,0,18,18,16,1,song_indices/LivinOnAPrayer_BonJovi.csv,,,,,,,,,,,,,,,,,,,,,,,,,,,,,,,,,,,,,,,,,,,,,,,,
,,,,,885953,001,2024-06-17_13h41.08.646,experiment,2024.1.5,Win32,59.88023952,559c3b0efdf99b32b6963e81,667045947eb812cbdacbf325,66706b708526cfb6e35ce8fe,,,,,,,,,,,,,,,,,,,,,,,,,,,,,,,,,,,,909.2095,915.3386,0,0,0,0,1,SoundStimuli/StrawberryFieldsForever_TheBeatles_Original5S.wav,,,,,,,,,,,,,,,,,,,,,,,,,,,,,,,,,,,,,,,,,,,,,,,,,,,,,,,,,,
,,,,,885953,001,2024-06-17_13h41.08.646,experiment,2024.1.5,Win32,59.88023952,559c3b0efdf99b32b6963e81,667045947eb812cbdacbf325,66706b708526cfb6e35ce8fe,,,,,,,,,,,,,,,,,,,,,,,,,,,,,,,,,,,,915.3603,922.3752,0,1,1,1,1,SoundStimuli/StrawberryFieldsForever_TheBeatles_Cover5S.wav,,,,,,,,,,,,,,,,,,,,,,,,,,,,,,,,,,,,,,,,,,,,,,,,,,,,,,,,,,
,,,,,885953,001,2024-06-17_13h41.08.646,experiment,2024.1.5,Win32,59.88023952,559c3b0efdf99b32b6963e81,667045947eb812cbdacbf325,66706b708526cfb6e35ce8fe,,,,,,,,,,,,,,,,,,,,,,,,,,,,,,,,,,,,,,,,,,,,922.3754,923.8864,1.733333333,1.4841,0,19,19,14,1,song_indices/StrawberryFieldsForever_TheBeatles.csv,,,,,,,,,,,,,,,,,,,,,,,,,,,,,,,,,,,,,,,,,,,,,,,,
,,,,,885953,001,2024-06-17_13h41.08.646,experiment,2024.1.5,Win32,59.88023952,559c3b0efdf99b32b6963e81,667045947eb812cbdacbf325,66706b708526cfb6e35ce8fe,,,,,,,,,,,,,,,,,,,,,,,,,,,,,,,,,,,,923.8891,929.4838,0,0,0,0,1,SoundStimuli/IWannaDanceWithSomebody_WhitneyHouston_Original5S.wav,,,,,,,,,,,,,,,,,,,,,,,,,,,,,,,,,,,,,,,,,,,,,,,,,,,,,,,,,,
,,,,,885953,001,2024-06-17_13h41.08.646,experiment,2024.1.5,Win32,59.88023952,559c3b0efdf99b32b6963e81,667045947eb812cbdacbf325,66706b708526cfb6e35ce8fe,,,,,,,,,,,,,,,,,,,,,,,,,,,,,,,,,,,,929.5092,936.3536,0,1,1,1,1,SoundStimuli/IWannaDanceWithSomebody_WhitneyHouston_Cover5S.wav,,,,,,,,,,,,,,,,,,,,,,,,,,,,,,,,,,,,,,,,,,,,,,,,,,,,,,,,,,
,,,,,885953,001,2024-06-17_13h41.08.646,experiment,2024.1.5,Win32,59.88023952,559c3b0efdf99b32b6963e81,667045947eb812cbdacbf325,66706b708526cfb6e35ce8fe,,,,,,,,,,,,,,,,,,,,,,,,,,,,,,,,,,,,,,,,,,,,936.354,939.2653,1.722222222,2.8754,0,20,20,13,1,song_indices/IWannaDanceWithSomebody_WhitneyHouston.csv,,,,,,,,,,,,,,,,,,,,,,,,,,,,,,,,,,,,,,,,,,,,,,,,
,,,,,885953,001,2024-06-17_13h41.08.646,experiment,2024.1.5,Win32,59.88023952,559c3b0efdf99b32b6963e81,667045947eb812cbdacbf325,66706b708526cfb6e35ce8fe,,,,,,,,,,,,,,,,,,,,,,,,,,,,,,,,,,,,939.2675,945.5783,0,0,0,0,1,SoundStimuli/BridgeOverTroubledWater_SimonAndGarfunkel_Original5S.wav,,,,,,,,,,,,,,,,,,,,,,,,,,,,,,,,,,,,,,,,,,,,,,,,,,,,,,,,,,
,,,,,885953,001,2024-06-17_13h41.08.646,experiment,2024.1.5,Win32,59.88023952,559c3b0efdf99b32b6963e81,667045947eb812cbdacbf325,66706b708526cfb6e35ce8fe,,,,,,,,,,,,,,,,,,,,,,,,,,,,,,,,,,,,945.6004,952.2927,0,1,1,1,1,SoundStimuli/BridgeOverTroubledWater_SimonAndGarfunkel_Cover5S.wav,,,,,,,,,,,,,,,,,,,,,,,,,,,,,,,,,,,,,,,,,,,,,,,,,,,,,,,,,,
,,,,,885953,001,2024-06-17_13h41.08.646,experiment,2024.1.5,Win32,59.88023952,559c3b0efdf99b32b6963e81,667045947eb812cbdacbf325,66706b708526cfb6e35ce8fe,,,,,,,,,,,,,,,,,,,,,,,,,,,,,,,,,,,,,,,,,,,,952.293,955.5079,3.794444444,3.189,0,21,21,1,1,song_indices/BridgeOverTroubledWater_SimonAndGarfunkel.csv,,,,,,,,,,,,,,,,,,,,,,,,,,,,,,,,,,,,,,,,,,,,,,,,
,,,,,885953,001,2024-06-17_13h41.08.646,experiment,2024.1.5,Win32,59.88023952,559c3b0efdf99b32b6963e81,667045947eb812cbdacbf325,66706b708526cfb6e35ce8fe,,,,,,,,,,,,,,,,,,,,,,,,,,,,,,,,,,,,955.509,960.2235,0,0,0,1,1,SoundStimuli/AChangeIsGonnaCome_SamCooke_Cover5S.wav,,,,,,,,,,,,,,,,,,,,,,,,,,,,,,,,,,,,,,,,,,,,,,,,,,,,,,,,,,
,,,,,885953,001,2024-06-17_13h41.08.646,experiment,2024.1.5,Win32,59.88023952,559c3b0efdf99b32b6963e81,667045947eb812cbdacbf325,66706b708526cfb6e35ce8fe,,,,,,,,,,,,,,,,,,,,,,,,,,,,,,,,,,,,960.2495,966.2883,0,1,1,0,1,SoundStimuli/AChangeIsGonnaCome_SamCooke_Original5S.wav,,,,,,,,,,,,,,,,,,,,,,,,,,,,,,,,,,,,,,,,,,,,,,,,,,,,,,,,,,
,,,,,885953,001,2024-06-17_13h41.08.646,experiment,2024.1.5,Win32,59.88023952,559c3b0efdf99b32b6963e81,667045947eb812cbdacbf325,66706b708526cfb6e35ce8fe,,,,,,,,,,,,,,,,,,,,,,,,,,,,,,,,,,,,,,,,,,,,966.2887,972.6189,4.216666667,6.2992,0,22,22,17,1,song_indices/AChangeIsGonnaCome_SamCooke.csv,,,,,,,,,,,,,,,,,,,,,,,,,,,,,,,,,,,,,,,,,,,,,,,,
,,,,,885953,001,2024-06-17_13h41.08.646,experiment,2024.1.5,Win32,59.88023952,559c3b0efdf99b32b6963e81,667045947eb812cbdacbf325,66706b708526cfb6e35ce8fe,,,,,,,,,,,,,,,,,,,,,,,,,,,,,,,,,,,,,,,,,,,,,,,,,,,,,,972.6191,974.219,space,1.5851,,0,1,1,0,1,choose_song_b1.csv,,,,,,,,,,,,,,,,,,,,,,,,,,,,,,,,,,,,,
,,,,,885953,001,2024-06-17_13h41.08.646,experiment,2024.1.5,Win32,59.88023952,559c3b0efdf99b32b6963e81,667045947eb812cbdacbf325,66706b708526cfb6e35ce8fe,,,,,,,,,,,,,,,,,,,,,,,,,,,,,,,,,,,,974.2242,980.7164,0,0,0,0,1,SoundStimuli/BlindingLights_TheWeeknd_Original5S.wav,,,,,,,,,,,,,,,,,,,,,,,,,,,,,,,,,,,,,,,,,,,,,,,,,,,,,,,,,,
,,,,,885953,001,2024-06-17_13h41.08.646,experiment,2024.1.5,Win32,59.88023952,559c3b0efdf99b32b6963e81,667045947eb812cbdacbf325,66706b708526cfb6e35ce8fe,,,,,,,,,,,,,,,,,,,,,,,,,,,,,,,,,,,,980.7311,987.5141,0,1,1,1,1,SoundStimuli/BlindingLights_TheWeeknd_Cover5S.wav,,,,,,,,,,,,,,,,,,,,,,,,,,,,,,,,,,,,,,,,,,,,,,,,,,,,,,,,,,
,,,,,885953,001,2024-06-17_13h41.08.646,experiment,2024.1.5,Win32,59.88023952,559c3b0efdf99b32b6963e81,667045947eb812cbdacbf325,66706b708526cfb6e35ce8fe,,,,,,,,,,,,,,,,,,,,,,,,,,,,,,,,,,,,,,,,,,,,987.5143,990.5132,4.922222222,2.9728,0,0,0,21,1,song_indices/BlindingLights_TheWeeknd.csv,,,,,,,,,,,,,,,,,,,,,,,,,,,,,,,,,,,,,,,,,,,,,,,,
,,,,,885953,001,2024-06-17_13h41.08.646,experiment,2024.1.5,Win32,59.88023952,559c3b0efdf99b32b6963e81,667045947eb812cbdacbf325,66706b708526cfb6e35ce8fe,,,,,,,,,,,,,,,,,,,,,,,,,,,,,,,,,,,,990.5154,996.5944,0,0,0,0,1,SoundStimuli/Weak_SWV_Original5S.wav,,,,,,,,,,,,,,,,,,,,,,,,,,,,,,,,,,,,,,,,,,,,,,,,,,,,,,,,,,
,,,,,885953,001,2024-06-17_13h41.08.646,experiment,2024.1.5,Win32,59.88023952,559c3b0efdf99b32b6963e81,667045947eb812cbdacbf325,66706b708526cfb6e35ce8fe,,,,,,,,,,,,,,,,,,,,,,,,,,,,,,,,,,,,996.6146,1003.0992,0,1,1,1,1,SoundStimuli/Weak_SWV_Cover5S.wav,,,,,,,,,,,,,,,,,,,,,,,,,,,,,,,,,,,,,,,,,,,,,,,,,,,,,,,,,,
,,,,,885953,001,2024-06-17_13h41.08.646,experiment,2024.1.5,Win32,59.88023952,559c3b0efdf99b32b6963e81,667045947eb812cbdacbf325,66706b708526cfb6e35ce8fe,,,,,,,,,,,,,,,,,,,,,,,,,,,,,,,,,,,,,,,,,,,,1003.0994,1004.5917,2.722222222,1.4612,0,1,1,6,1,song_indices/Weak_SWV.csv,,,,,,,,,,,,,,,,,,,,,,,,,,,,,,,,,,,,,,,,,,,,,,,,
,,,,,885953,001,2024-06-17_13h41.08.646,experiment,2024.1.5,Win32,59.88023952,559c3b0efdf99b32b6963e81,667045947eb812cbdacbf325,66706b708526cfb6e35ce8fe,,,,,,,,,,,,,,,,,,,,,,,,,,,,,,,,,,,,1004.5943,1010.6229,0,0,0,0,1,SoundStimuli/HowDoILive_LeAnnRimes_Original5S.wav,,,,,,,,,,,,,,,,,,,,,,,,,,,,,,,,,,,,,,,,,,,,,,,,,,,,,,,,,,
,,,,,885953,001,2024-06-17_13h41.08.646,experiment,2024.1.5,Win32,59.88023952,559c3b0efdf99b32b6963e81,667045947eb812cbdacbf325,66706b708526cfb6e35ce8fe,,,,,,,,,,,,,,,,,,,,,,,,,,,,,,,,,,,,1010.6438,1016.1216,0,1,1,1,1,SoundStimuli/HowDoILive_LeAnnRimes_Cover5S.wav,,,,,,,,,,,,,,,,,,,,,,,,,,,,,,,,,,,,,,,,,,,,,,,,,,,,,,,,,,
,,,,,885953,001,2024-06-17_13h41.08.646,experiment,2024.1.5,Win32,59.88023952,559c3b0efdf99b32b6963e81,667045947eb812cbdacbf325,66706b708526cfb6e35ce8fe,,,,,,,,,,,,,,,,,,,,,,,,,,,,,,,,,,,,,,,,,,,,1016.1223,1019.1867,3.7,3.0374,0,2,2,17,1,song_indices/HowDoILive_LeAnnRimes.csv,,,,,,,,,,,,,,,,,,,,,,,,,,,,,,,,,,,,,,,,,,,,,,,,
,,,,,885953,001,2024-06-17_13h41.08.646,experiment,2024.1.5,Win32,59.88023952,559c3b0efdf99b32b6963e81,667045947eb812cbdacbf325,66706b708526cfb6e35ce8fe,,,,,,,,,,,,,,,,,,,,,,,,,,,,,,,,,,,,1019.1886,1024.9014,0,0,0,1,1,SoundStimuli/Levitating_DuaLipa_Cover5S.wav,,,,,,,,,,,,,,,,,,,,,,,,,,,,,,,,,,,,,,,,,,,,,,,,,,,,,,,,,,
,,,,,885953,001,2024-06-17_13h41.08.646,experiment,2024.1.5,Win32,59.88023952,559c3b0efdf99b32b6963e81,667045947eb812cbdacbf325,66706b708526cfb6e35ce8fe,,,,,,,,,,,,,,,,,,,,,,,,,,,,,,,,,,,,1024.9242,1030.9222,0,1,1,0,1,SoundStimuli/Levitating_DuaLipa_Original5S.wav,,,,,,,,,,,,,,,,,,,,,,,,,,,,,,,,,,,,,,,,,,,,,,,,,,,,,,,,,,
,,,,,885953,001,2024-06-17_13h41.08.646,experiment,2024.1.5,Win32,59.88023952,559c3b0efdf99b32b6963e81,667045947eb812cbdacbf325,66706b708526cfb6e35ce8fe,,,,,,,,,,,,,,,,,,,,,,,,,,,,,,,,,,,,,,,,,,,,1030.9225,1033.5152,2.622222222,2.5647,0,3,3,10,1,song_indices/Levitating_DuaLipa.csv,,,,,,,,,,,,,,,,,,,,,,,,,,,,,,,,,,,,,,,,,,,,,,,,
,,,,,885953,001,2024-06-17_13h41.08.646,experiment,2024.1.5,Win32,59.88023952,559c3b0efdf99b32b6963e81,667045947eb812cbdacbf325,66706b708526cfb6e35ce8fe,,,,,,,,,,,,,,,,,,,,,,,,,,,,,,,,,,,,1033.5168,1041.3626,0,0,0,1,1,SoundStimuli/Dreams_FleetwoodMac_Cover5S.wav,,,,,,,,,,,,,,,,,,,,,,,,,,,,,,,,,,,,,,,,,,,,,,,,,,,,,,,,,,
,,,,,885953,001,2024-06-17_13h41.08.646,experiment,2024.1.5,Win32,59.88023952,559c3b0efdf99b32b6963e81,667045947eb812cbdacbf325,66706b708526cfb6e35ce8fe,,,,,,,,,,,,,,,,,,,,,,,,,,,,,,,,,,,,1041.3841,1047.8942,0,1,1,0,1,SoundStimuli/Dreams_FleetwoodMac_Original5S.wav,,,,,,,,,,,,,,,,,,,,,,,,,,,,,,,,,,,,,,,,,,,,,,,,,,,,,,,,,,
,,,,,885953,001,2024-06-17_13h41.08.646,experiment,2024.1.5,Win32,59.88023952,559c3b0efdf99b32b6963e81,667045947eb812cbdacbf325,66706b708526cfb6e35ce8fe,,,,,,,,,,,,,,,,,,,,,,,,,,,,,,,,,,,,,,,,,,,,1047.8946,1050.2265,1.994444444,2.3031,0,4,4,1,1,song_indices/Dreams_FleetwoodMac.csv,,,,,,,,,,,,,,,,,,,,,,,,,,,,,,,,,,,,,,,,,,,,,,,,
,,,,,885953,001,2024-06-17_13h41.08.646,experiment,2024.1.5,Win32,59.88023952,559c3b0efdf99b32b6963e81,667045947eb812cbdacbf325,66706b708526cfb6e35ce8fe,,,,,,,,,,,,,,,,,,,,,,,,,,,,,,,,,,,,1050.2291,1056.3081,0,0,0,0,1,SoundStimuli/YouLightUpMyLife_DebbyBoone_Original5S.wav,,,,,,,,,,,,,,,,,,,,,,,,,,,,,,,,,,,,,,,,,,,,,,,,,,,,,,,,,,
,,,,,885953,001,2024-06-17_13h41.08.646,experiment,2024.1.5,Win32,59.88023952,559c3b0efdf99b32b6963e81,667045947eb812cbdacbf325,66706b708526cfb6e35ce8fe,,,,,,,,,,,,,,,,,,,,,,,,,,,,,,,,,,,,1056.33,1062.772,0,1,1,1,1,SoundStimuli/YouLightUpMyLife_DebbyBoone_Cover5S.wav,,,,,,,,,,,,,,,,,,,,,,,,,,,,,,,,,,,,,,,,,,,,,,,,,,,,,,,,,,
,,,,,885953,001,2024-06-17_13h41.08.646,experiment,2024.1.5,Win32,59.88023952,559c3b0efdf99b32b6963e81,667045947eb812cbdacbf325,66706b708526cfb6e35ce8fe,,,,,,,,,,,,,,,,,,,,,,,,,,,,,,,,,,,,,,,,,,,,1062.7723,1064.1383,5.844444444,1.3408,0,5,5,4,1,song_indices/YouLightUpMyLife_DebbyBoone.csv,,,,,,,,,,,,,,,,,,,,,,,,,,,,,,,,,,,,,,,,,,,,,,,,
,,,,,885953,001,2024-06-17_13h41.08.646,experiment,2024.1.5,Win32,59.88023952,559c3b0efdf99b32b6963e81,667045947eb812cbdacbf325,66706b708526cfb6e35ce8fe,,,,,,,,,,,,,,,,,,,,,,,,,,,,,,,,,,,,1064.1401,1070.0369,0,0,0,1,1,SoundStimuli/SaveYourTears_TheWeekndArianaGrande_Cover5S.wav,,,,,,,,,,,,,,,,,,,,,,,,,,,,,,,,,,,,,,,,,,,,,,,,,,,,,,,,,,
,,,,,885953,001,2024-06-17_13h41.08.646,experiment,2024.1.5,Win32,59.88023952,559c3b0efdf99b32b6963e81,667045947eb812cbdacbf325,66706b708526cfb6e35ce8fe,,,,,,,,,,,,,,,,,,,,,,,,,,,,,,,,,,,,1070.0602,1076.2564,0,1,1,0,1,SoundStimuli/SaveYourTears_TheWeekndArianaGrande_Original5S.wav,,,,,,,,,,,,,,,,,,,,,,,,,,,,,,,,,,,,,,,,,,,,,,,,,,,,,,,,,,
,,,,,885953,001,2024-06-17_13h41.08.646,experiment,2024.1.5,Win32,59.88023952,559c3b0efdf99b32b6963e81,667045947eb812cbdacbf325,66706b708526cfb6e35ce8fe,,,,,,,,,,,,,,,,,,,,,,,,,,,,,,,,,,,,,,,,,,,,1076.2567,1078.8832,3.244444444,2.5979,0,6,6,12,1,song_indices/SaveYourTears_TheWeekndArianaGrande.csv,,,,,,,,,,,,,,,,,,,,,,,,,,,,,,,,,,,,,,,,,,,,,,,,
,,,,,885953,001,2024-06-17_13h41.08.646,experiment,2024.1.5,Win32,59.88023952,559c3b0efdf99b32b6963e81,667045947eb812cbdacbf325,66706b708526cfb6e35ce8fe,,,,,,,,,,,,,,,,,,,,,,,,,,,,,,,,,,,,1078.8851,1085.9477,0,0,0,1,1,SoundStimuli/ComeAndGetYourLove_Redbone_Cover5S.wav,,,,,,,,,,,,,,,,,,,,,,,,,,,,,,,,,,,,,,,,,,,,,,,,,,,,,,,,,,
,,,,,885953,001,2024-06-17_13h41.08.646,experiment,2024.1.5,Win32,59.88023952,559c3b0efdf99b32b6963e81,667045947eb812cbdacbf325,66706b708526cfb6e35ce8fe,,,,,,,,,,,,,,,,,,,,,,,,,,,,,,,,,,,,1085.9681,1092.0791,0,1,1,0,1,SoundStimuli/ComeAndGetYourLove_Redbone_Original5S.wav,,,,,,,,,,,,,,,,,,,,,,,,,,,,,,,,,,,,,,,,,,,,,,,,,,,,,,,,,,
,,,,,885953,001,2024-06-17_13h41.08.646,experiment,2024.1.5,Win32,59.88023952,559c3b0efdf99b32b6963e81,667045947eb812cbdacbf325,66706b708526cfb6e35ce8fe,,,,,,,,,,,,,,,,,,,,,,,,,,,,,,,,,,,,,,,,,,,,1092.0793,1093.695,4.616666667,1.5932,0,7,7,22,1,song_indices/ComeAndGetYourLove_Redbone.csv,,,,,,,,,,,,,,,,,,,,,,,,,,,,,,,,,,,,,,,,,,,,,,,,
,,,,,885953,001,2024-06-17_13h41.08.646,experiment,2024.1.5,Win32,59.88023952,559c3b0efdf99b32b6963e81,667045947eb812cbdacbf325,66706b708526cfb6e35ce8fe,,,,,,,,,,,,,,,,,,,,,,,,,,,,,,,,,,,,1093.6976,1099.8602,0,0,0,0,1,SoundStimuli/TheSign_AceOfBase_Original5S.wav,,,,,,,,,,,,,,,,,,,,,,,,,,,,,,,,,,,,,,,,,,,,,,,,,,,,,,,,,,
,,,,,885953,001,2024-06-17_13h41.08.646,experiment,2024.1.5,Win32,59.88023952,559c3b0efdf99b32b6963e81,667045947eb812cbdacbf325,66706b708526cfb6e35ce8fe,,,,,,,,,,,,,,,,,,,,,,,,,,,,,,,,,,,,1099.887,1105.8909,0,1,1,1,1,SoundStimuli/TheSign_AceOfBase_Cover5S.wav,,,,,,,,,,,,,,,,,,,,,,,,,,,,,,,,,,,,,,,,,,,,,,,,,,,,,,,,,,
,,,,,885953,001,2024-06-17_13h41.08.646,experiment,2024.1.5,Win32,59.88023952,559c3b0efdf99b32b6963e81,667045947eb812cbdacbf325,66706b708526cfb6e35ce8fe,,,,,,,,,,,,,,,,,,,,,,,,,,,,,,,,,,,,,,,,,,,,1105.8911,1118.5197,3.355555556,12.5952,0,8,8,5,1,song_indices/TheSign_AceOfBase.csv,,,,,,,,,,,,,,,,,,,,,,,,,,,,,,,,,,,,,,,,,,,,,,,,
,,,,,885953,001,2024-06-17_13h41.08.646,experiment,2024.1.5,Win32,59.88023952,559c3b0efdf99b32b6963e81,667045947eb812cbdacbf325,66706b708526cfb6e35ce8fe,,,,,,,,,,,,,,,,,,,,,,,,,,,,,,,,,,,,1118.5211,1124.7342,0,0,0,0,1,SoundStimuli/TikTok_Kesha_Original5S.wav,,,,,,,,,,,,,,,,,,,,,,,,,,,,,,,,,,,,,,,,,,,,,,,,,,,,,,,,,,
,,,,,885953,001,2024-06-17_13h41.08.646,experiment,2024.1.5,Win32,59.88023952,559c3b0efdf99b32b6963e81,667045947eb812cbdacbf325,66706b708526cfb6e35ce8fe,,,,,,,,,,,,,,,,,,,,,,,,,,,,,,,,,,,,1124.7506,1132.2659,0,1,1,1,1,SoundStimuli/TikTok_Kesha_Cover5S.wav,,,,,,,,,,,,,,,,,,,,,,,,,,,,,,,,,,,,,,,,,,,,,,,,,,,,,,,,,,
,,,,,885953,001,2024-06-17_13h41.08.646,experiment,2024.1.5,Win32,59.88023952,559c3b0efdf99b32b6963e81,667045947eb812cbdacbf325,66706b708526cfb6e35ce8fe,,,,,,,,,,,,,,,,,,,,,,,,,,,,,,,,,,,,,,,,,,,,1132.2663,1137.6966,2.477777778,5.4024,0,9,9,3,1,song_indices/TikTok_Kesha.csv,,,,,,,,,,,,,,,,,,,,,,,,,,,,,,,,,,,,,,,,,,,,,,,,
,,,,,885953,001,2024-06-17_13h41.08.646,experiment,2024.1.5,Win32,59.88023952,559c3b0efdf99b32b6963e81,667045947eb812cbdacbf325,66706b708526cfb6e35ce8fe,,,,,,,,,,,,,,,,,,,,,,,,,,,,,,,,,,,,1137.6981,1142.8282,0,0,0,1,1,SoundStimuli/JoyToTheWorld_ThreeDogNight_Cover5S.wav,,,,,,,,,,,,,,,,,,,,,,,,,,,,,,,,,,,,,,,,,,,,,,,,,,,,,,,,,,
,,,,,885953,001,2024-06-17_13h41.08.646,experiment,2024.1.5,Win32,59.88023952,559c3b0efdf99b32b6963e81,667045947eb812cbdacbf325,66706b708526cfb6e35ce8fe,,,,,,,,,,,,,,,,,,,,,,,,,,,,,,,,,,,,1142.8491,1148.9596,0,1,1,0,1,SoundStimuli/JoyToTheWorld_ThreeDogNight_Original5S.wav,,,,,,,,,,,,,,,,,,,,,,,,,,,,,,,,,,,,,,,,,,,,,,,,,,,,,,,,,,
,,,,,885953,001,2024-06-17_13h41.08.646,experiment,2024.1.5,Win32,59.88023952,559c3b0efdf99b32b6963e81,667045947eb812cbdacbf325,66706b708526cfb6e35ce8fe,,,,,,,,,,,,,,,,,,,,,,,,,,,,,,,,,,,,,,,,,,,,1148.9598,1150.859,5.988888889,1.8749,0,10,10,8,1,song_indices/JoyToTheWorld_ThreeDogNight.csv,,,,,,,,,,,,,,,,,,,,,,,,,,,,,,,,,,,,,,,,,,,,,,,,
,,,,,885953,001,2024-06-17_13h41.08.646,experiment,2024.1.5,Win32,59.88023952,559c3b0efdf99b32b6963e81,667045947eb812cbdacbf325,66706b708526cfb6e35ce8fe,,,,,,,,,,,,,,,,,,,,,,,,,,,,,,,,,,,,1150.861,1158.1397,0,0,0,1,1,SoundStimuli/FlashdanceWhatAFeeling_IreneCara_Cover5S.wav,,,,,,,,,,,,,,,,,,,,,,,,,,,,,,,,,,,,,,,,,,,,,,,,,,,,,,,,,,
,,,,,885953,001,2024-06-17_13h41.08.646,experiment,2024.1.5,Win32,59.88023952,559c3b0efdf99b32b6963e81,667045947eb812cbdacbf325,66706b708526cfb6e35ce8fe,,,,,,,,,,,,,,,,,,,,,,,,,,,,,,,,,,,,1158.1617,1164.5542,0,1,1,0,1,SoundStimuli/FlashdanceWhatAFeeling_IreneCara_Original5S.wav,,,,,,,,,,,,,,,,,,,,,,,,,,,,,,,,,,,,,,,,,,,,,,,,,,,,,,,,,,
,,,,,885953,001,2024-06-17_13h41.08.646,experiment,2024.1.5,Win32,59.88023952,559c3b0efdf99b32b6963e81,667045947eb812cbdacbf325,66706b708526cfb6e35ce8fe,,,,,,,,,,,,,,,,,,,,,,,,,,,,,,,,,,,,,,,,,,,,1164.5545,1165.8038,5.488888889,1.2191,0,11,11,18,1,song_indices/FlashdanceWhatAFeeling_IreneCara.csv,,,,,,,,,,,,,,,,,,,,,,,,,,,,,,,,,,,,,,,,,,,,,,,,
,,,,,885953,001,2024-06-17_13h41.08.646,experiment,2024.1.5,Win32,59.88023952,559c3b0efdf99b32b6963e81,667045947eb812cbdacbf325,66706b708526cfb6e35ce8fe,,,,,,,,,,,,,,,,,,,,,,,,,,,,,,,,,,,,1165.8069,1172.1022,0,0,0,0,1,SoundStimuli/LetsGetItOn_MarvinGaye_Original5S.wav,,,,,,,,,,,,,,,,,,,,,,,,,,,,,,,,,,,,,,,,,,,,,,,,,,,,,,,,,,
,,,,,885953,001,2024-06-17_13h41.08.646,experiment,2024.1.5,Win32,59.88023952,559c3b0efdf99b32b6963e81,667045947eb812cbdacbf325,66706b708526cfb6e35ce8fe,,,,,,,,,,,,,,,,,,,,,,,,,,,,,,,,,,,,1172.1242,1178.7661,0,1,1,1,1,SoundStimuli/LetsGetItOn_MarvinGaye_Cover5S.wav,,,,,,,,,,,,,,,,,,,,,,,,,,,,,,,,,,,,,,,,,,,,,,,,,,,,,,,,,,
,,,,,885953,001,2024-06-17_13h41.08.646,experiment,2024.1.5,Win32,59.88023952,559c3b0efdf99b32b6963e81,667045947eb812cbdacbf325,66706b708526cfb6e35ce8fe,,,,,,,,,,,,,,,,,,,,,,,,,,,,,,,,,,,,,,,,,,,,1178.7666,1181.0152,2.35,2.2162,0,12,12,20,1,song_indices/LetsGetItOn_MarvinGaye.csv,,,,,,,,,,,,,,,,,,,,,,,,,,,,,,,,,,,,,,,,,,,,,,,,
,,,,,885953,001,2024-06-17_13h41.08.646,experiment,2024.1.5,Win32,59.88023952,559c3b0efdf99b32b6963e81,667045947eb812cbdacbf325,66706b708526cfb6e35ce8fe,,,,,,,,,,,,,,,,,,,,,,,,,,,,,,,,,,,,1181.0173,1187.2965,0,0,0,1,1,SoundStimuli/Kiss_Prince_Cover5S.wav,,,,,,,,,,,,,,,,,,,,,,,,,,,,,,,,,,,,,,,,,,,,,,,,,,,,,,,,,,
,,,,,885953,001,2024-06-17_13h41.08.646,experiment,2024.1.5,Win32,59.88023952,559c3b0efdf99b32b6963e81,667045947eb812cbdacbf325,66706b708526cfb6e35ce8fe,,,,,,,,,,,,,,,,,,,,,,,,,,,,,,,,,,,,1187.3191,1194.7441,0,1,1,0,1,SoundStimuli/Kiss_Prince_Original5S.wav,,,,,,,,,,,,,,,,,,,,,,,,,,,,,,,,,,,,,,,,,,,,,,,,,,,,,,,,,,
,,,,,885953,001,2024-06-17_13h41.08.646,experiment,2024.1.5,Win32,59.88023952,559c3b0efdf99b32b6963e81,667045947eb812cbdacbf325,66706b708526cfb6e35ce8fe,,,,,,,,,,,,,,,,,,,,,,,,,,,,,,,,,,,,,,,,,,,,1194.7443,1196.0103,1.333333333,1.2403,0,13,13,14,1,song_indices/Kiss_Prince.csv,,,,,,,,,,,,,,,,,,,,,,,,,,,,,,,,,,,,,,,,,,,,,,,,
,,,,,885953,001,2024-06-17_13h41.08.646,experiment,2024.1.5,Win32,59.88023952,559c3b0efdf99b32b6963e81,667045947eb812cbdacbf325,66706b708526cfb6e35ce8fe,,,,,,,,,,,,,,,,,,,,,,,,,,,,,,,,,,,,1196.0122,1201.5256,0,0,0,1,1,SoundStimuli/LeFreak_Chic_Cover5S.wav,,,,,,,,,,,,,,,,,,,,,,,,,,,,,,,,,,,,,,,,,,,,,,,,,,,,,,,,,,
,,,,,885953,001,2024-06-17_13h41.08.646,experiment,2024.1.5,Win32,59.88023952,559c3b0efdf99b32b6963e81,667045947eb812cbdacbf325,66706b708526cfb6e35ce8fe,,,,,,,,,,,,,,,,,,,,,,,,,,,,,,,,,,,,1201.547,1207.5729,0,1,1,0,1,SoundStimuli/LeFreak_Chic_Original5S.wav,,,,,,,,,,,,,,,,,,,,,,,,,,,,,,,,,,,,,,,,,,,,,,,,,,,,,,,,,,
,,,,,885953,001,2024-06-17_13h41.08.646,experiment,2024.1.5,Win32,59.88023952,559c3b0efdf99b32b6963e81,667045947eb812cbdacbf325,66706b708526cfb6e35ce8fe,,,,,,,,,,,,,,,,,,,,,,,,,,,,,,,,,,,,,,,,,,,,1207.5732,1209.1726,1.533333333,1.572,0,14,14,11,1,song_indices/LeFreak_Chic.csv,,,,,,,,,,,,,,,,,,,,,,,,,,,,,,,,,,,,,,,,,,,,,,,,
,,,,,885953,001,2024-06-17_13h41.08.646,experiment,2024.1.5,Win32,59.88023952,559c3b0efdf99b32b6963e81,667045947eb812cbdacbf325,66706b708526cfb6e35ce8fe,,,,,,,,,,,,,,,,,,,,,,,,,,,,,,,,,,,,1209.1743,1215.1034,0,0,0,0,1,SoundStimuli/Respect_ArethaFranklin_Original5S.wav,,,,,,,,,,,,,,,,,,,,,,,,,,,,,,,,,,,,,,,,,,,,,,,,,,,,,,,,,,
,,,,,885953,001,2024-06-17_13h41.08.646,experiment,2024.1.5,Win32,59.88023952,559c3b0efdf99b32b6963e81,667045947eb812cbdacbf325,66706b708526cfb6e35ce8fe,,,,,,,,,,,,,,,,,,,,,,,,,,,,,,,,,,,,1215.115,1221.169,0,1,1,1,1,SoundStimuli/Respect_ArethaFranklin_Cover5S.wav,,,,,,,,,,,,,,,,,,,,,,,,,,,,,,,,,,,,,,,,,,,,,,,,,,,,,,,,,,
,,,,,885953,001,2024-06-17_13h41.08.646,experiment,2024.1.5,Win32,59.88023952,559c3b0efdf99b32b6963e81,667045947eb812cbdacbf325,66706b708526cfb6e35ce8fe,,,,,,,,,,,,,,,,,,,,,,,,,,,,,,,,,,,,,,,,,,,,1221.1692,1223.2678,1.044444444,2.0689,0,15,15,0,1,song_indices/Respect_ArethaFranklin.csv,,,,,,,,,,,,,,,,,,,,,,,,,,,,,,,,,,,,,,,,,,,,,,,,
,,,,,885953,001,2024-06-17_13h41.08.646,experiment,2024.1.5,Win32,59.88023952,559c3b0efdf99b32b6963e81,667045947eb812cbdacbf325,66706b708526cfb6e35ce8fe,,,,,,,,,,,,,,,,,,,,,,,,,,,,,,,,,,,,1223.2697,1230.0822,0,0,0,1,1,SoundStimuli/SomebodyThatIUsedtoKnow_Gotye_Cover5S.wav,,,,,,,,,,,,,,,,,,,,,,,,,,,,,,,,,,,,,,,,,,,,,,,,,,,,,,,,,,
,,,,,885953,001,2024-06-17_13h41.08.646,experiment,2024.1.5,Win32,59.88023952,559c3b0efdf99b32b6963e81,667045947eb812cbdacbf325,66706b708526cfb6e35ce8fe,,,,,,,,,,,,,,,,,,,,,,,,,,,,,,,,,,,,1230.1028,1237.3357,0,1,1,0,1,SoundStimuli/SomebodyThatIUsedtoKnow_Gotye_Original5S.wav,,,,,,,,,,,,,,,,,,,,,,,,,,,,,,,,,,,,,,,,,,,,,,,,,,,,,,,,,,
,,,,,885953,001,2024-06-17_13h41.08.646,experiment,2024.1.5,Win32,59.88023952,559c3b0efdf99b32b6963e81,667045947eb812cbdacbf325,66706b708526cfb6e35ce8fe,,,,,,,,,,,,,,,,,,,,,,,,,,,,,,,,,,,,,,,,,,,,1237.3359,1242.312,4.111111111,4.9444,0,16,16,7,1,song_indices/SomebodyThatIUsedtoKnow_Gotye.csv,,,,,,,,,,,,,,,,,,,,,,,,,,,,,,,,,,,,,,,,,,,,,,,,
,,,,,885953,001,2024-06-17_13h41.08.646,experiment,2024.1.5,Win32,59.88023952,559c3b0efdf99b32b6963e81,667045947eb812cbdacbf325,66706b708526cfb6e35ce8fe,,,,,,,,,,,,,,,,,,,,,,,,,,,,,,,,,,,,1242.3153,1249.3427,0,0,0,0,1,SoundStimuli/PokerFace_LadyGaga_Original5S.wav,,,,,,,,,,,,,,,,,,,,,,,,,,,,,,,,,,,,,,,,,,,,,,,,,,,,,,,,,,
,,,,,885953,001,2024-06-17_13h41.08.646,experiment,2024.1.5,Win32,59.88023952,559c3b0efdf99b32b6963e81,667045947eb812cbdacbf325,66706b708526cfb6e35ce8fe,,,,,,,,,,,,,,,,,,,,,,,,,,,,,,,,,,,,1249.3661,1256.2132,0,1,1,1,1,SoundStimuli/PokerFace_LadyGaga_Cover5S.wav,,,,,,,,,,,,,,,,,,,,,,,,,,,,,,,,,,,,,,,,,,,,,,,,,,,,,,,,,,
,,,,,885953,001,2024-06-17_13h41.08.646,experiment,2024.1.5,Win32,59.88023952,559c3b0efdf99b32b6963e81,667045947eb812cbdacbf325,66706b708526cfb6e35ce8fe,,,,,,,,,,,,,,,,,,,,,,,,,,,,,,,,,,,,,,,,,,,,1256.2136,1262.2722,3.994444444,6.024,0,17,17,23,1,song_indices/PokerFace_LadyGaga.csv,,,,,,,,,,,,,,,,,,,,,,,,,,,,,,,,,,,,,,,,,,,,,,,,
,,,,,885953,001,2024-06-17_13h41.08.646,experiment,2024.1.5,Win32,59.88023952,559c3b0efdf99b32b6963e81,667045947eb812cbdacbf325,66706b708526cfb6e35ce8fe,,,,,,,,,,,,,,,,,,,,,,,,,,,,,,,,,,,,1262.2752,1268.3861,0,0,0,1,1,SoundStimuli/TossinAndTurnin_BobbyLewis_Cover5S.wav,,,,,,,,,,,,,,,,,,,,,,,,,,,,,,,,,,,,,,,,,,,,,,,,,,,,,,,,,,
,,,,,885953,001,2024-06-17_13h41.08.646,experiment,2024.1.5,Win32,59.88023952,559c3b0efdf99b32b6963e81,667045947eb812cbdacbf325,66706b708526cfb6e35ce8fe,,,,,,,,,,,,,,,,,,,,,,,,,,,,,,,,,,,,1268.4114,1274.4737,0,1,1,0,1,SoundStimuli/TossinAndTurnin_BobbyLewis_Original5S.wav,,,,,,,,,,,,,,,,,,,,,,,,,,,,,,,,,,,,,,,,,,,,,,,,,,,,,,,,,,
,,,,,885953,001,2024-06-17_13h41.08.646,experiment,2024.1.5,Win32,59.88023952,559c3b0efdf99b32b6963e81,667045947eb812cbdacbf325,66706b708526cfb6e35ce8fe,,,,,,,,,,,,,,,,,,,,,,,,,,,,,,,,,,,,,,,,,,,,1274.4739,1276.9669,1.994444444,2.4635,0,18,18,13,1,song_indices/TossinAndTurnin_BobbyLewis.csv,,,,,,,,,,,,,,,,,,,,,,,,,,,,,,,,,,,,,,,,,,,,,,,,
,,,,,885953,001,2024-06-17_13h41.08.646,experiment,2024.1.5,Win32,59.88023952,559c3b0efdf99b32b6963e81,667045947eb812cbdacbf325,66706b708526cfb6e35ce8fe,,,,,,,,,,,,,,,,,,,,,,,,,,,,,,,,,,,,1276.9705,1282.8811,0,0,0,1,1,SoundStimuli/Irreplaceable_Beyonce_Cover5S.wav,,,,,,,,,,,,,,,,,,,,,,,,,,,,,,,,,,,,,,,,,,,,,,,,,,,,,,,,,,
,,,,,885953,001,2024-06-17_13h41.08.646,experiment,2024.1.5,Win32,59.88023952,559c3b0efdf99b32b6963e81,667045947eb812cbdacbf325,66706b708526cfb6e35ce8fe,,,,,,,,,,,,,,,,,,,,,,,,,,,,,,,,,,,,1282.9058,1288.7792,0,1,1,0,1,SoundStimuli/Irreplaceable_Beyonce_Original5S.wav,,,,,,,,,,,,,,,,,,,,,,,,,,,,,,,,,,,,,,,,,,,,,,,,,,,,,,,,,,
,,,,,885953,001,2024-06-17_13h41.08.646,experiment,2024.1.5,Win32,59.88023952,559c3b0efdf99b32b6963e81,667045947eb812cbdacbf325,66706b708526cfb6e35ce8fe,,,,,,,,,,,,,,,,,,,,,,,,,,,,,,,,,,,,,,,,,,,,1288.7796,1291.3448,4.494444444,2.5393,0,19,19,19,1,song_indices/Irreplaceable_Beyonce.csv,,,,,,,,,,,,,,,,,,,,,,,,,,,,,,,,,,,,,,,,,,,,,,,,
,,,,,885953,001,2024-06-17_13h41.08.646,experiment,2024.1.5,Win32,59.88023952,559c3b0efdf99b32b6963e81,667045947eb812cbdacbf325,66706b708526cfb6e35ce8fe,,,,,,,,,,,,,,,,,,,,,,,,,,,,,,,,,,,,1291.3456,1298.1091,0,0,0,0,1,SoundStimuli/BlurredLines_RobinThicke_Original5S.wav,,,,,,,,,,,,,,,,,,,,,,,,,,,,,,,,,,,,,,,,,,,,,,,,,,,,,,,,,,
,,,,,885953,001,2024-06-17_13h41.08.646,experiment,2024.1.5,Win32,59.88023952,559c3b0efdf99b32b6963e81,667045947eb812cbdacbf325,66706b708526cfb6e35ce8fe,,,,,,,,,,,,,,,,,,,,,,,,,,,,,,,,,,,,1298.1312,1305.2234,0,1,1,1,1,SoundStimuli/BlurredLines_RobinThicke_Cover5S.wav,,,,,,,,,,,,,,,,,,,,,,,,,,,,,,,,,,,,,,,,,,,,,,,,,,,,,,,,,,
,,,,,885953,001,2024-06-17_13h41.08.646,experiment,2024.1.5,Win32,59.88023952,559c3b0efdf99b32b6963e81,667045947eb812cbdacbf325,66706b708526cfb6e35ce8fe,,,,,,,,,,,,,,,,,,,,,,,,,,,,,,,,,,,,,,,,,,,,1305.2235,1306.8397,5.455555556,1.5839,0,20,20,9,1,song_indices/BlurredLines_RobinThicke.csv,,,,,,,,,,,,,,,,,,,,,,,,,,,,,,,,,,,,,,,,,,,,,,,,
,,,,,885953,001,2024-06-17_13h41.08.646,experiment,2024.1.5,Win32,59.88023952,559c3b0efdf99b32b6963e81,667045947eb812cbdacbf325,66706b708526cfb6e35ce8fe,,,,,,,,,,,,,,,,,,,,,,,,,,,,,,,,,,,,1306.8417,1313.0373,0,0,0,0,1,SoundStimuli/Dilemma_NellyKellyRowland_Original5S.wav,,,,,,,,,,,,,,,,,,,,,,,,,,,,,,,,,,,,,,,,,,,,,,,,,,,,,,,,,,
,,,,,885953,001,2024-06-17_13h41.08.646,experiment,2024.1.5,Win32,59.88023952,559c3b0efdf99b32b6963e81,667045947eb812cbdacbf325,66706b708526cfb6e35ce8fe,,,,,,,,,,,,,,,,,,,,,,,,,,,,,,,,,,,,1313.0578,1320.0415,0,1,1,1,1,SoundStimuli/Dilemma_NellyKellyRowland_Cover5S.wav,,,,,,,,,,,,,,,,,,,,,,,,,,,,,,,,,,,,,,,,,,,,,,,,,,,,,,,,,,
,,,,,885953,001,2024-06-17_13h41.08.646,experiment,2024.1.5,Win32,59.88023952,559c3b0efdf99b32b6963e81,667045947eb812cbdacbf325,66706b708526cfb6e35ce8fe,,,,,,,,,,,,,,,,,,,,,,,,,,,,,,,,,,,,,,,,,,,,1320.0419,1321.3845,2.005555556,1.3042,0,21,21,2,1,song_indices/Dilemma_NellyKellyRowland.csv,,,,,,,,,,,,,,,,,,,,,,,,,,,,,,,,,,,,,,,,,,,,,,,,
,,,,,885953,001,2024-06-17_13h41.08.646,experiment,2024.1.5,Win32,59.88023952,559c3b0efdf99b32b6963e81,667045947eb812cbdacbf325,66706b708526cfb6e35ce8fe,,,,,,,,,,,,,,,,,,,,,,,,,,,,,,,,,,,,1321.3869,1327.4992,0,0,0,0,1,SoundStimuli/UnbreakMyHeart_ToniBraxton_Original5S.wav,,,,,,,,,,,,,,,,,,,,,,,,,,,,,,,,,,,,,,,,,,,,,,,,,,,,,,,,,,
,,,,,885953,001,2024-06-17_13h41.08.646,experiment,2024.1.5,Win32,59.88023952,559c3b0efdf99b32b6963e81,667045947eb812cbdacbf325,66706b708526cfb6e35ce8fe,,,,,,,,,,,,,,,,,,,,,,,,,,,,,,,,,,,,1327.5208,1331.4977,0,1,1,1,1,SoundStimuli/UnbreakMyHeart_ToniBraxton_Cover5S.wav,,,,,,,,,,,,,,,,,,,,,,,,,,,,,,,,,,,,,,,,,,,,,,,,,,,,,,,,,,
,,,,,885953,001,2024-06-17_13h41.08.646,experiment,2024.1.5,Win32,59.88023952,559c3b0efdf99b32b6963e81,667045947eb812cbdacbf325,66706b708526cfb6e35ce8fe,,,,,,,,,,,,,,,,,,,,,,,,,,,,,,,,,,,,,,,,,,,,1331.498,1334.6804,1.038888889,3.1505,0,22,22,16,1,song_indices/UnbreakMyHeart_ToniBraxton.csv,,,,,,,,,,,,,,,,,,,,,,,,,,,,,,,,,,,,,,,,,,,,,,,,
,,,,,885953,001,2024-06-17_13h41.08.646,experiment,2024.1.5,Win32,59.88023952,559c3b0efdf99b32b6963e81,667045947eb812cbdacbf325,66706b708526cfb6e35ce8fe,,,,,,,,,,,,,,,,,,,,,,,,,,,,,,,,,,,,1334.6825,1339.9949,0,0,0,1,1,SoundStimuli/Superstition_StevieWonder_Cover5S.wav,,,,,,,,,,,,,,,,,,,,,,,,,,,,,,,,,,,,,,,,,,,,,,,,,,,,,,,,,,
,,,,,885953,001,2024-06-17_13h41.08.646,experiment,2024.1.5,Win32,59.88023952,559c3b0efdf99b32b6963e81,667045947eb812cbdacbf325,66706b708526cfb6e35ce8fe,,,,,,,,,,,,,,,,,,,,,,,,,,,,,,,,,,,,1340.0074,1346.1435,0,1,1,0,1,SoundStimuli/Superstition_StevieWonder_Original5S.wav,,,,,,,,,,,,,,,,,,,,,,,,,,,,,,,,,,,,,,,,,,,,,,,,,,,,,,,,,,
,,,,,885953,001,2024-06-17_13h41.08.646,experiment,2024.1.5,Win32,59.88023952,559c3b0efdf99b32b6963e81,667045947eb812cbdacbf325,66706b708526cfb6e35ce8fe,,,,,,,,,,,,,,,,,,,,,,,,,,,,,,,,,,,,,,,,,,,,1346.1438,1346.9592,1.977777778,0.7825,0,23,23,15,1,song_indices/Superstition_StevieWonder.csv,,,,,,,,,,,,,,,,,,,,,,,,,,,,,,,,,,,,,,,,,,,,,,,,
,,,,,885953,001,2024-06-17_13h41.08.646,experiment,2024.1.5,Win32,59.88023952,559c3b0efdf99b32b6963e81,667045947eb812cbdacbf325,66706b708526cfb6e35ce8fe,,,,,,,,,,,,,,,,,,,,,,,,,,,,,,,,,,,,,,,,,,,,,,,,,,,,,,1346.9594,1346.9597,,,,0,2,2,2,1,choose_song_b3.csv,,,,,,,,,,,,,,,,,,,,,,,,,,,,,,,,,,,,,
,,,,,885953,001,2024-06-17_13h41.08.646,experiment,2024.1.5,Win32,59.88023952,559c3b0efdf99b32b6963e81,667045947eb812cbdacbf325,66706b708526cfb6e35ce8fe,,,,,,,,,,,,,,,,,,,,,,,,,,,,,,,,,,,,,,,,,,,,,,,,,,,,,,,,,,,,,,,,,34,Item 4,"Self taught guitar, drums, bass starting at age 10. Rock/indie influences. Played saxophone in high school band for 4 years. Played in gospel groups at churches (drums) age 10-13. Played in various local rock groups during ages 15-27.",Item 5,Spotify & youtube,6,7,"Playing online games, driving, exercising, laundry, cleaning",Never,Never,Often,Always,Rarely,Sometimes,Sometimes,Sometimes,Rarely,Rarely,Rarely,Rarely,Rarely,Sometimes,Rarely,Rarely,Math Rock. Lofi (maybe considered ambient?),Alternative Rock,Math Rock,Pop Punk,I would say I listen to a wider variety of music and usually prefer sounds that are less heavy.,I usually find a artist I like and listen to them for a while. I sometimes have songs that I will always play first when starting a listening session.,0,0,0,0,1,,
,,,,,885953,001,2024-06-17_13h41.08.646,experiment,2024.1.5,Win32,59.88023952,559c3b0efdf99b32b6963e81,667045947eb812cbdacbf325,66706b708526cfb6e35ce8fe,,,,,,,,,,,,,,,,,,,,,,,,,,,,,,,,,,,,,,,,,,,,,,,,,,,,,,,,,,,,,,,,,,,,,,,,,,,,,,,,,,,,,,,,,,,,,,,,,,,,1802.7284,1805.221
