welcome.started,welcome.stopped,space_to_continue.keys,space_to_continue.rt,space_to_continue.duration,participant,session,date,expName,psychopyVersion,OS,frameRate,PROLIFIC_PID,STUDY_ID,SESSION_ID,consent.consent,consent.consent_recontact,consent_check.started,consent_check.stopped,calibration_ready.started,calibration_ready.stopped,cal_ready.keys,cal_ready.rt,cal_ready.duration,calibration.started,calibration.stopped,mouse.x,mouse.y,mouse.leftButton,mouse.midButton,mouse.rightButton,mouse.time,mouse.clicked_name,move_on.keys,move_on.rt,move_on.duration,instructions.started,instructions.stopped,next.keys,next.rt,next.duration,practice_trial.started,practice_trial.stopped,practice_slider.response,practice_slider.rt,ready.started,ready.stopped,key_resp.keys,key_resp.rt,key_resp.duration,play_sound.started,play_sound.stopped,trials.thisRepN,trials.thisTrialN,trials.thisN,trials.thisIndex,trials.ran,orig_or_cover,rating.started,rating.stopped,slider.response,slider.rt,songs.thisRepN,songs.thisTrialN,songs.thisN,songs.thisIndex,songs.ran,song_id,short_break.started,short_break.stopped,space_to_move_on.keys,space_to_move_on.rt,space_to_move_on.duration,blocks.thisRepN,blocks.thisTrialN,blocks.thisN,blocks.thisIndex,blocks.ran,block,survey.age,survey.musician,survey.music_making,survey.listen_time,survey.medium,survey.music_seeking,survey.music_choice,survey.question1.Jazz,survey.question1.Pop,survey.question1.Hip hop,survey.question1.Folk/indie,survey.question1.A cappella,survey.question1.Country,survey.question1.Alternative rock,survey.question1.R&B,survey.question1.Ambient,survey.question1.Metal,survey.question1.Disco,survey.question1.Classical,survey.question1.Electronic (EDM),survey.question1.Reggae,survey.question1.Classic rock,survey.question1.Latin,survey.other_genres,survey.genres_ranked.text1,survey.genres_ranked.text2,survey.genres_ranked.text3,survey.habit_change,survey.habits,experiment.thisRepN,experiment.thisTrialN,experiment.thisN,experiment.thisIndex,experiment.ran,goodbye.started,goodbye.stopped
0.0131,2.3541,space,2.3045,,910590,001,2024-06-17_10h47.05.026,experiment,2024.1.5,Win32,60.24096386,59cadb5f59b379000115128d,667045947eb812cbdacbf325,66704bff311674800ba0a876,,,,,,,,,,,,,,,,,,,,,,,,,,,,,,,,,,,,,,,,,,,,,,,,,,,,,,,,,,,,,,,,,,,,,,,,,,,,,,,,,,,,,,,,,,,,,,,,,,,,
,,,,,910590,001,2024-06-17_10h47.05.026,experiment,2024.1.5,Win32,60.24096386,59cadb5f59b379000115128d,667045947eb812cbdacbf325,66704bff311674800ba0a876,yes,yes,,,,,,,,,,,,,,,,,,,,,,,,,,,,,,,,,,,,,,,,,,,,,,,,,,,,,,,,,,,,,,,,,,,,,,,,,,,,,,,,,,,,,,,,,,,,,,,,,,
,,,,,910590,001,2024-06-17_10h47.05.026,experiment,2024.1.5,Win32,60.24096386,59cadb5f59b379000115128d,667045947eb812cbdacbf325,66704bff311674800ba0a876,,,28.6912,28.6918,,,,,,,,,,,,,,,,,,,,,,,,,,,,,,,,,,,,,,,,,,,,,,,,,,,,,,,,,,,,,,,,,,,,,,,,,,,,,,,,,,,,,,,,,,,,,,,,
,,,,,910590,001,2024-06-17_10h47.05.026,experiment,2024.1.5,Win32,60.24096386,59cadb5f59b379000115128d,667045947eb812cbdacbf325,66704bff311674800ba0a876,,,,,28.6994,34.6583,space,5.9237,,34.6586,81.0539,"[-0.017752673322380185,-0.015151562779417024]","[-0.42339703692216557,-0.41689421690584766]","[1,1]","[0,0]","[0,0]","[24.58699999999999,42.56040000000597]","[""play_button"",""play_button""]",right,36.3369,,81.0546,93.6574,space,12.5503,,93.6582,117.4062,4.953374906,23.7241,117.4067,121.0594,space,3.6238,,121.1355,127.3068,0,0,0,0,1,SoundStimuli/MackTheKnife_BobbyDarin_Original5S.wav,,,,,,,,,,,,,,,,,,,,,,,,,,,,,,,,,,,,,,,,,,,,,,,,,,,,,,,,,
,,,,,910590,001,2024-06-17_10h47.05.026,experiment,2024.1.5,Win32,60.24096386,59cadb5f59b379000115128d,667045947eb812cbdacbf325,66704bff311674800ba0a876,,,,,,,,,,,,,,,,,,,,,,,,,,,,,,,,,,,,127.3238,133.6249,0,1,1,1,1,SoundStimuli/MackTheKnife_BobbyDarin_Cover5S.wav,,,,,,,,,,,,,,,,,,,,,,,,,,,,,,,,,,,,,,,,,,,,,,,,,,,,,,,,,
,,,,,910590,001,2024-06-17_10h47.05.026,experiment,2024.1.5,Win32,60.24096386,59cadb5f59b379000115128d,667045947eb812cbdacbf325,66704bff311674800ba0a876,,,,,,,,,,,,,,,,,,,,,,,,,,,,,,,,,,,,,,,,,,,,133.6433,135.3707,2.956149628,1.7212,0,0,0,21,1,song_indices/MackTheKnife_BobbyDarin.csv,,,,,,,,,,,,,,,,,,,,,,,,,,,,,,,,,,,,,,,,,,,,,,,
,,,,,910590,001,2024-06-17_10h47.05.026,experiment,2024.1.5,Win32,60.24096386,59cadb5f59b379000115128d,667045947eb812cbdacbf325,66704bff311674800ba0a876,,,,,,,,,,,,,,,,,,,,,,,,,,,,,,,,,,,,135.3748,142.2309,0,0,0,1,1,SoundStimuli/IWannaDanceWithSomebody_WhitneyHouston_Cover5S.wav,,,,,,,,,,,,,,,,,,,,,,,,,,,,,,,,,,,,,,,,,,,,,,,,,,,,,,,,,
,,,,,910590,001,2024-06-17_10h47.05.026,experiment,2024.1.5,Win32,60.24096386,59cadb5f59b379000115128d,667045947eb812cbdacbf325,66704bff311674800ba0a876,,,,,,,,,,,,,,,,,,,,,,,,,,,,,,,,,,,,142.2469,147.8767,0,1,1,0,1,SoundStimuli/IWannaDanceWithSomebody_WhitneyHouston_Original5S.wav,,,,,,,,,,,,,,,,,,,,,,,,,,,,,,,,,,,,,,,,,,,,,,,,,,,,,,,,,
,,,,,910590,001,2024-06-17_10h47.05.026,experiment,2024.1.5,Win32,60.24096386,59cadb5f59b379000115128d,667045947eb812cbdacbf325,66704bff311674800ba0a876,,,,,,,,,,,,,,,,,,,,,,,,,,,,,,,,,,,,,,,,,,,,147.877,149.3262,1.918528669,1.4273,0,1,1,13,1,song_indices/IWannaDanceWithSomebody_WhitneyHouston.csv,,,,,,,,,,,,,,,,,,,,,,,,,,,,,,,,,,,,,,,,,,,,,,,
,,,,,910590,001,2024-06-17_10h47.05.026,experiment,2024.1.5,Win32,60.24096386,59cadb5f59b379000115128d,667045947eb812cbdacbf325,66704bff311674800ba0a876,,,,,,,,,,,,,,,,,,,,,,,,,,,,,,,,,,,,149.3282,155.4545,0,0,0,0,1,SoundStimuli/StayinAlive_BeeGees_Original5S.wav,,,,,,,,,,,,,,,,,,,,,,,,,,,,,,,,,,,,,,,,,,,,,,,,,,,,,,,,,
,,,,,910590,001,2024-06-17_10h47.05.026,experiment,2024.1.5,Win32,60.24096386,59cadb5f59b379000115128d,667045947eb812cbdacbf325,66704bff311674800ba0a876,,,,,,,,,,,,,,,,,,,,,,,,,,,,,,,,,,,,155.4723,161.3536,0,1,1,1,1,SoundStimuli/StayinAlive_BeeGees_Cover5S.wav,,,,,,,,,,,,,,,,,,,,,,,,,,,,,,,,,,,,,,,,,,,,,,,,,,,,,,,,,
,,,,,910590,001,2024-06-17_10h47.05.026,experiment,2024.1.5,Win32,60.24096386,59cadb5f59b379000115128d,667045947eb812cbdacbf325,66704bff311674800ba0a876,,,,,,,,,,,,,,,,,,,,,,,,,,,,,,,,,,,,,,,,,,,,161.3538,164.8031,6.014399731,3.4285,0,2,2,2,1,song_indices/StayinAlive_BeeGees.csv,,,,,,,,,,,,,,,,,,,,,,,,,,,,,,,,,,,,,,,,,,,,,,,
,,,,,910590,001,2024-06-17_10h47.05.026,experiment,2024.1.5,Win32,60.24096386,59cadb5f59b379000115128d,667045947eb812cbdacbf325,66704bff311674800ba0a876,,,,,,,,,,,,,,,,,,,,,,,,,,,,,,,,,,,,164.8088,170.7814,0,0,0,1,1,SoundStimuli/IllMakeLoveToYou_BoyzIIMen_Cover5S.wav,,,,,,,,,,,,,,,,,,,,,,,,,,,,,,,,,,,,,,,,,,,,,,,,,,,,,,,,,
,,,,,910590,001,2024-06-17_10h47.05.026,experiment,2024.1.5,Win32,60.24096386,59cadb5f59b379000115128d,667045947eb812cbdacbf325,66704bff311674800ba0a876,,,,,,,,,,,,,,,,,,,,,,,,,,,,,,,,,,,,170.8014,176.8984,0,1,1,0,1,SoundStimuli/IllMakeLoveToYou_BoyzIIMen_Original5S.wav,,,,,,,,,,,,,,,,,,,,,,,,,,,,,,,,,,,,,,,,,,,,,,,,,,,,,,,,,
,,,,,910590,001,2024-06-17_10h47.05.026,experiment,2024.1.5,Win32,60.24096386,59cadb5f59b379000115128d,667045947eb812cbdacbf325,66704bff311674800ba0a876,,,,,,,,,,,,,,,,,,,,,,,,,,,,,,,,,,,,,,,,,,,,176.8987,185.3962,3.993770586,8.4775,0,3,3,6,1,song_indices/IllMakeLoveToYou_BoyzIIMen.csv,,,,,,,,,,,,,,,,,,,,,,,,,,,,,,,,,,,,,,,,,,,,,,,
,,,,,910590,001,2024-06-17_10h47.05.026,experiment,2024.1.5,Win32,60.24096386,59cadb5f59b379000115128d,667045947eb812cbdacbf325,66704bff311674800ba0a876,,,,,,,,,,,,,,,,,,,,,,,,,,,,,,,,,,,,185.3988,193.7153,0,0,0,1,1,SoundStimuli/Perfect_EdSheeran_Cover5S.wav,,,,,,,,,,,,,,,,,,,,,,,,,,,,,,,,,,,,,,,,,,,,,,,,,,,,,,,,,
,,,,,910590,001,2024-06-17_10h47.05.026,experiment,2024.1.5,Win32,60.24096386,59cadb5f59b379000115128d,667045947eb812cbdacbf325,66704bff311674800ba0a876,,,,,,,,,,,,,,,,,,,,,,,,,,,,,,,,,,,,193.7318,202.6198,0,1,1,0,1,SoundStimuli/Perfect_EdSheeran_Original5S.wav,,,,,,,,,,,,,,,,,,,,,,,,,,,,,,,,,,,,,,,,,,,,,,,,,,,,,,,,,
,,,,,910590,001,2024-06-17_10h47.05.026,experiment,2024.1.5,Win32,60.24096386,59cadb5f59b379000115128d,667045947eb812cbdacbf325,66704bff311674800ba0a876,,,,,,,,,,,,,,,,,,,,,,,,,,,,,,,,,,,,,,,,,,,,202.6201,203.6809,6.053409229,1.0383,0,4,4,0,1,song_indices/Perfect_EdSheeran.csv,,,,,,,,,,,,,,,,,,,,,,,,,,,,,,,,,,,,,,,,,,,,,,,
,,,,,910590,001,2024-06-17_10h47.05.026,experiment,2024.1.5,Win32,60.24096386,59cadb5f59b379000115128d,667045947eb812cbdacbf325,66704bff311674800ba0a876,,,,,,,,,,,,,,,,,,,,,,,,,,,,,,,,,,,,203.6831,210.2218,0,0,0,1,1,SoundStimuli/OldTownRoad_LilNasX_Cover5S.wav,,,,,,,,,,,,,,,,,,,,,,,,,,,,,,,,,,,,,,,,,,,,,,,,,,,,,,,,,
,,,,,910590,001,2024-06-17_10h47.05.026,experiment,2024.1.5,Win32,60.24096386,59cadb5f59b379000115128d,667045947eb812cbdacbf325,66704bff311674800ba0a876,,,,,,,,,,,,,,,,,,,,,,,,,,,,,,,,,,,,210.2402,217.6233,0,1,1,0,1,SoundStimuli/OldTownRoad_LilNasX_Original5S.wav,,,,,,,,,,,,,,,,,,,,,,,,,,,,,,,,,,,,,,,,,,,,,,,,,,,,,,,,,
,,,,,910590,001,2024-06-17_10h47.05.026,experiment,2024.1.5,Win32,60.24096386,59cadb5f59b379000115128d,667045947eb812cbdacbf325,66704bff311674800ba0a876,,,,,,,,,,,,,,,,,,,,,,,,,,,,,,,,,,,,,,,,,,,,217.6237,226.1175,3.993770586,8.4749,0,5,5,20,1,song_indices/OldTownRoad_LilNasX.csv,,,,,,,,,,,,,,,,,,,,,,,,,,,,,,,,,,,,,,,,,,,,,,,
,,,,,910590,001,2024-06-17_10h47.05.026,experiment,2024.1.5,Win32,60.24096386,59cadb5f59b379000115128d,667045947eb812cbdacbf325,66704bff311674800ba0a876,,,,,,,,,,,,,,,,,,,,,,,,,,,,,,,,,,,,226.1208,232.1623,0,0,0,1,1,SoundStimuli/IWantToHoldYourHand_TheBeatles_Cover5S.wav,,,,,,,,,,,,,,,,,,,,,,,,,,,,,,,,,,,,,,,,,,,,,,,,,,,,,,,,,
,,,,,910590,001,2024-06-17_10h47.05.026,experiment,2024.1.5,Win32,60.24096386,59cadb5f59b379000115128d,667045947eb812cbdacbf325,66704bff311674800ba0a876,,,,,,,,,,,,,,,,,,,,,,,,,,,,,,,,,,,,232.1779,238.0134,0,1,1,0,1,SoundStimuli/IWantToHoldYourHand_TheBeatles_Original5S.wav,,,,,,,,,,,,,,,,,,,,,,,,,,,,,,,,,,,,,,,,,,,,,,,,,,,,,,,,,
,,,,,910590,001,2024-06-17_10h47.05.026,experiment,2024.1.5,Win32,60.24096386,59cadb5f59b379000115128d,667045947eb812cbdacbf325,66704bff311674800ba0a876,,,,,,,,,,,,,,,,,,,,,,,,,,,,,,,,,,,,,,,,,,,,238.0137,239.2633,2.035553758,1.2294,0,6,6,19,1,song_indices/IWantToHoldYourHand_TheBeatles.csv,,,,,,,,,,,,,,,,,,,,,,,,,,,,,,,,,,,,,,,,,,,,,,,
,,,,,910590,001,2024-06-17_10h47.05.026,experiment,2024.1.5,Win32,60.24096386,59cadb5f59b379000115128d,667045947eb812cbdacbf325,66704bff311674800ba0a876,,,,,,,,,,,,,,,,,,,,,,,,,,,,,,,,,,,,239.2671,245.5367,0,0,0,0,1,SoundStimuli/Smooth_SantanaRobThomas_Original5S.wav,,,,,,,,,,,,,,,,,,,,,,,,,,,,,,,,,,,,,,,,,,,,,,,,,,,,,,,,,
,,,,,910590,001,2024-06-17_10h47.05.026,experiment,2024.1.5,Win32,60.24096386,59cadb5f59b379000115128d,667045947eb812cbdacbf325,66704bff311674800ba0a876,,,,,,,,,,,,,,,,,,,,,,,,,,,,,,,,,,,,245.5568,251.699,0,1,1,1,1,SoundStimuli/Smooth_SantanaRobThomas_Cover5S.wav,,,,,,,,,,,,,,,,,,,,,,,,,,,,,,,,,,,,,,,,,,,,,,,,,,,,,,,,,
,,,,,910590,001,2024-06-17_10h47.05.026,experiment,2024.1.5,Win32,60.24096386,59cadb5f59b379000115128d,667045947eb812cbdacbf325,66704bff311674800ba0a876,,,,,,,,,,,,,,,,,,,,,,,,,,,,,,,,,,,,,,,,,,,,251.6992,253.0908,6.193839231,1.3707,0,7,7,4,1,song_indices/Smooth_SantanaRobThomas.csv,,,,,,,,,,,,,,,,,,,,,,,,,,,,,,,,,,,,,,,,,,,,,,,
,,,,,910590,001,2024-06-17_10h47.05.026,experiment,2024.1.5,Win32,60.24096386,59cadb5f59b379000115128d,667045947eb812cbdacbf325,66704bff311674800ba0a876,,,,,,,,,,,,,,,,,,,,,,,,,,,,,,,,,,,,253.0931,259.734,0,0,0,1,1,SoundStimuli/Despacito_LuisFonsiDaddyYankee_Cover5S.wav,,,,,,,,,,,,,,,,,,,,,,,,,,,,,,,,,,,,,,,,,,,,,,,,,,,,,,,,,
,,,,,910590,001,2024-06-17_10h47.05.026,experiment,2024.1.5,Win32,60.24096386,59cadb5f59b379000115128d,667045947eb812cbdacbf325,66704bff311674800ba0a876,,,,,,,,,,,,,,,,,,,,,,,,,,,,,,,,,,,,259.7505,266.3295,0,1,1,0,1,SoundStimuli/Despacito_LuisFonsiDaddyYankee_Original5S.wav,,,,,,,,,,,,,,,,,,,,,,,,,,,,,,,,,,,,,,,,,,,,,,,,,,,,,,,,,
,,,,,910590,001,2024-06-17_10h47.05.026,experiment,2024.1.5,Win32,60.24096386,59cadb5f59b379000115128d,667045947eb812cbdacbf325,66704bff311674800ba0a876,,,,,,,,,,,,,,,,,,,,,,,,,,,,,,,,,,,,,,,,,,,,266.3298,267.5732,5.265441462,1.2219,0,8,8,11,1,song_indices/Despacito_LuisFonsiDaddyYankee.csv,,,,,,,,,,,,,,,,,,,,,,,,,,,,,,,,,,,,,,,,,,,,,,,
,,,,,910590,001,2024-06-17_10h47.05.026,experiment,2024.1.5,Win32,60.24096386,59cadb5f59b379000115128d,667045947eb812cbdacbf325,66704bff311674800ba0a876,,,,,,,,,,,,,,,,,,,,,,,,,,,,,,,,,,,,267.5748,274.0551,0,0,0,0,1,SoundStimuli/BadDay_DanielPowter_Original5S.wav,,,,,,,,,,,,,,,,,,,,,,,,,,,,,,,,,,,,,,,,,,,,,,,,,,,,,,,,,
,,,,,910590,001,2024-06-17_10h47.05.026,experiment,2024.1.5,Win32,60.24096386,59cadb5f59b379000115128d,667045947eb812cbdacbf325,66704bff311674800ba0a876,,,,,,,,,,,,,,,,,,,,,,,,,,,,,,,,,,,,274.0724,281.6268,0,1,1,1,1,SoundStimuli/BadDay_DanielPowter_Cover5S.wav,,,,,,,,,,,,,,,,,,,,,,,,,,,,,,,,,,,,,,,,,,,,,,,,,,,,,,,,,
,,,,,910590,001,2024-06-17_10h47.05.026,experiment,2024.1.5,Win32,60.24096386,59cadb5f59b379000115128d,667045947eb812cbdacbf325,66704bff311674800ba0a876,,,,,,,,,,,,,,,,,,,,,,,,,,,,,,,,,,,,,,,,,,,,281.6273,284.4509,2.932744714,2.7863,0,9,9,22,1,song_indices/BadDay_DanielPowter.csv,,,,,,,,,,,,,,,,,,,,,,,,,,,,,,,,,,,,,,,,,,,,,,,
,,,,,910590,001,2024-06-17_10h47.05.026,experiment,2024.1.5,Win32,60.24096386,59cadb5f59b379000115128d,667045947eb812cbdacbf325,66704bff311674800ba0a876,,,,,,,,,,,,,,,,,,,,,,,,,,,,,,,,,,,,284.4533,290.8565,0,0,0,0,1,SoundStimuli/MyGirl_TheTemptations_Original5S.wav,,,,,,,,,,,,,,,,,,,,,,,,,,,,,,,,,,,,,,,,,,,,,,,,,,,,,,,,,
,,,,,910590,001,2024-06-17_10h47.05.026,experiment,2024.1.5,Win32,60.24096386,59cadb5f59b379000115128d,667045947eb812cbdacbf325,66704bff311674800ba0a876,,,,,,,,,,,,,,,,,,,,,,,,,,,,,,,,,,,,290.8748,298.5734,0,1,1,1,1,SoundStimuli/MyGirl_TheTemptations_Cover5S.wav,,,,,,,,,,,,,,,,,,,,,,,,,,,,,,,,,,,,,,,,,,,,,,,,,,,,,,,,,
,,,,,910590,001,2024-06-17_10h47.05.026,experiment,2024.1.5,Win32,60.24096386,59cadb5f59b379000115128d,667045947eb812cbdacbf325,66704bff311674800ba0a876,,,,,,,,,,,,,,,,,,,,,,,,,,,,,,,,,,,,,,,,,,,,298.5735,304.7559,3.002959716,6.15,0,10,10,15,1,song_indices/MyGirl_TheTemptations.csv,,,,,,,,,,,,,,,,,,,,,,,,,,,,,,,,,,,,,,,,,,,,,,,
,,,,,910590,001,2024-06-17_10h47.05.026,experiment,2024.1.5,Win32,60.24096386,59cadb5f59b379000115128d,667045947eb812cbdacbf325,66704bff311674800ba0a876,,,,,,,,,,,,,,,,,,,,,,,,,,,,,,,,,,,,304.7574,310.9149,0,0,0,0,1,SoundStimuli/LikeARollingStone_BobDylan_Original5S.wav,,,,,,,,,,,,,,,,,,,,,,,,,,,,,,,,,,,,,,,,,,,,,,,,,,,,,,,,,
,,,,,910590,001,2024-06-17_10h47.05.026,experiment,2024.1.5,Win32,60.24096386,59cadb5f59b379000115128d,667045947eb812cbdacbf325,66704bff311674800ba0a876,,,,,,,,,,,,,,,,,,,,,,,,,,,,,,,,,,,,310.9315,315.3132,0,1,1,1,1,SoundStimuli/LikeARollingStone_BobDylan_Cover5S.wav,,,,,,,,,,,,,,,,,,,,,,,,,,,,,,,,,,,,,,,,,,,,,,,,,,,,,,,,,
,,,,,910590,001,2024-06-17_10h47.05.026,experiment,2024.1.5,Win32,60.24096386,59cadb5f59b379000115128d,667045947eb812cbdacbf325,66704bff311674800ba0a876,,,,,,,,,,,,,,,,,,,,,,,,,,,,,,,,,,,,,,,,,,,,315.3135,319.0423,2.924943077,3.7075,0,11,11,12,1,song_indices/LikeARollingStone_BobDylan.csv,,,,,,,,,,,,,,,,,,,,,,,,,,,,,,,,,,,,,,,,,,,,,,,
,,,,,910590,001,2024-06-17_10h47.05.026,experiment,2024.1.5,Win32,60.24096386,59cadb5f59b379000115128d,667045947eb812cbdacbf325,66704bff311674800ba0a876,,,,,,,,,,,,,,,,,,,,,,,,,,,,,,,,,,,,319.0448,325.7704,0,0,0,1,1,SoundStimuli/BridgeOverTroubledWater_SimonAndGarfunkel_Cover5S.wav,,,,,,,,,,,,,,,,,,,,,,,,,,,,,,,,,,,,,,,,,,,,,,,,,,,,,,,,,
,,,,,910590,001,2024-06-17_10h47.05.026,experiment,2024.1.5,Win32,60.24096386,59cadb5f59b379000115128d,667045947eb812cbdacbf325,66704bff311674800ba0a876,,,,,,,,,,,,,,,,,,,,,,,,,,,,,,,,,,,,325.7871,332.1221,0,1,1,0,1,SoundStimuli/BridgeOverTroubledWater_SimonAndGarfunkel_Original5S.wav,,,,,,,,,,,,,,,,,,,,,,,,,,,,,,,,,,,,,,,,,,,,,,,,,,,,,,,,,
,,,,,910590,001,2024-06-17_10h47.05.026,experiment,2024.1.5,Win32,60.24096386,59cadb5f59b379000115128d,667045947eb812cbdacbf325,66704bff311674800ba0a876,,,,,,,,,,,,,,,,,,,,,,,,,,,,,,,,,,,,,,,,,,,,332.1224,333.1764,3.85334006,1.036,0,12,12,1,1,song_indices/BridgeOverTroubledWater_SimonAndGarfunkel.csv,,,,,,,,,,,,,,,,,,,,,,,,,,,,,,,,,,,,,,,,,,,,,,,
,,,,,910590,001,2024-06-17_10h47.05.026,experiment,2024.1.5,Win32,60.24096386,59cadb5f59b379000115128d,667045947eb812cbdacbf325,66704bff311674800ba0a876,,,,,,,,,,,,,,,,,,,,,,,,,,,,,,,,,,,,333.1812,337.9168,0,0,0,1,1,SoundStimuli/AChangeIsGonnaCome_SamCooke_Cover5S.wav,,,,,,,,,,,,,,,,,,,,,,,,,,,,,,,,,,,,,,,,,,,,,,,,,,,,,,,,,
,,,,,910590,001,2024-06-17_10h47.05.026,experiment,2024.1.5,Win32,60.24096386,59cadb5f59b379000115128d,667045947eb812cbdacbf325,66704bff311674800ba0a876,,,,,,,,,,,,,,,,,,,,,,,,,,,,,,,,,,,,337.9331,343.9617,0,1,1,0,1,SoundStimuli/AChangeIsGonnaCome_SamCooke_Original5S.wav,,,,,,,,,,,,,,,,,,,,,,,,,,,,,,,,,,,,,,,,,,,,,,,,,,,,,,,,,
,,,,,910590,001,2024-06-17_10h47.05.026,experiment,2024.1.5,Win32,60.24096386,59cadb5f59b379000115128d,667045947eb812cbdacbf325,66704bff311674800ba0a876,,,,,,,,,,,,,,,,,,,,,,,,,,,,,,,,,,,,,,,,,,,,343.962,346.4351,4.391655419,2.4504,0,13,13,17,1,song_indices/AChangeIsGonnaCome_SamCooke.csv,,,,,,,,,,,,,,,,,,,,,,,,,,,,,,,,,,,,,,,,,,,,,,,
,,,,,910590,001,2024-06-17_10h47.05.026,experiment,2024.1.5,Win32,60.24096386,59cadb5f59b379000115128d,667045947eb812cbdacbf325,66704bff311674800ba0a876,,,,,,,,,,,,,,,,,,,,,,,,,,,,,,,,,,,,346.4366,352.4178,0,0,0,0,1,SoundStimuli/BohemianRhapsody_Queen_Original5S.wav,,,,,,,,,,,,,,,,,,,,,,,,,,,,,,,,,,,,,,,,,,,,,,,,,,,,,,,,,
,,,,,910590,001,2024-06-17_10h47.05.026,experiment,2024.1.5,Win32,60.24096386,59cadb5f59b379000115128d,667045947eb812cbdacbf325,66704bff311674800ba0a876,,,,,,,,,,,,,,,,,,,,,,,,,,,,,,,,,,,,352.4341,356.5131,0,1,1,1,1,SoundStimuli/BohemianRhapsody_Queen_Cover5S.wav,,,,,,,,,,,,,,,,,,,,,,,,,,,,,,,,,,,,,,,,,,,,,,,,,,,,,,,,,
,,,,,910590,001,2024-06-17_10h47.05.026,experiment,2024.1.5,Win32,60.24096386,59cadb5f59b379000115128d,667045947eb812cbdacbf325,66704bff311674800ba0a876,,,,,,,,,,,,,,,,,,,,,,,,,,,,,,,,,,,,,,,,,,,,356.5133,358.5923,1.161767715,2.0613,0,14,14,18,1,song_indices/BohemianRhapsody_Queen.csv,,,,,,,,,,,,,,,,,,,,,,,,,,,,,,,,,,,,,,,,,,,,,,,
,,,,,910590,001,2024-06-17_10h47.05.026,experiment,2024.1.5,Win32,60.24096386,59cadb5f59b379000115128d,667045947eb812cbdacbf325,66704bff311674800ba0a876,,,,,,,,,,,,,,,,,,,,,,,,,,,,,,,,,,,,358.5941,364.9167,0,0,0,0,1,SoundStimuli/Mood_24kGoldnianndior_Original5S.wav,,,,,,,,,,,,,,,,,,,,,,,,,,,,,,,,,,,,,,,,,,,,,,,,,,,,,,,,,
,,,,,910590,001,2024-06-17_10h47.05.026,experiment,2024.1.5,Win32,60.24096386,59cadb5f59b379000115128d,667045947eb812cbdacbf325,66704bff311674800ba0a876,,,,,,,,,,,,,,,,,,,,,,,,,,,,,,,,,,,,364.9326,373.2481,0,1,1,1,1,SoundStimuli/Mood_24kGoldnianndior_Cover5S.wav,,,,,,,,,,,,,,,,,,,,,,,,,,,,,,,,,,,,,,,,,,,,,,,,,,,,,,,,,
,,,,,910590,001,2024-06-17_10h47.05.026,experiment,2024.1.5,Win32,60.24096386,59cadb5f59b379000115128d,667045947eb812cbdacbf325,66704bff311674800ba0a876,,,,,,,,,,,,,,,,,,,,,,,,,,,,,,,,,,,,,,,,,,,,373.2483,374.2913,2.043355396,1.0208,0,15,15,5,1,song_indices/Mood_24kGoldnianndior.csv,,,,,,,,,,,,,,,,,,,,,,,,,,,,,,,,,,,,,,,,,,,,,,,
,,,,,910590,001,2024-06-17_10h47.05.026,experiment,2024.1.5,Win32,60.24096386,59cadb5f59b379000115128d,667045947eb812cbdacbf325,66704bff311674800ba0a876,,,,,,,,,,,,,,,,,,,,,,,,,,,,,,,,,,,,374.2934,380.5757,0,0,0,1,1,SoundStimuli/LikeAPrayer_Madonna_Cover5S.wav,,,,,,,,,,,,,,,,,,,,,,,,,,,,,,,,,,,,,,,,,,,,,,,,,,,,,,,,,
,,,,,910590,001,2024-06-17_10h47.05.026,experiment,2024.1.5,Win32,60.24096386,59cadb5f59b379000115128d,667045947eb812cbdacbf325,66704bff311674800ba0a876,,,,,,,,,,,,,,,,,,,,,,,,,,,,,,,,,,,,380.597,386.8092,0,1,1,0,1,SoundStimuli/LikeAPrayer_Madonna_Original5S.wav,,,,,,,,,,,,,,,,,,,,,,,,,,,,,,,,,,,,,,,,,,,,,,,,,,,,,,,,,
,,,,,910590,001,2024-06-17_10h47.05.026,experiment,2024.1.5,Win32,60.24096386,59cadb5f59b379000115128d,667045947eb812cbdacbf325,66704bff311674800ba0a876,,,,,,,,,,,,,,,,,,,,,,,,,,,,,,,,,,,,,,,,,,,,386.8096,388.88,6.872583546,2.0491,0,16,16,7,1,song_indices/LikeAPrayer_Madonna.csv,,,,,,,,,,,,,,,,,,,,,,,,,,,,,,,,,,,,,,,,,,,,,,,
,,,,,910590,001,2024-06-17_10h47.05.026,experiment,2024.1.5,Win32,60.24096386,59cadb5f59b379000115128d,667045947eb812cbdacbf325,66704bff311674800ba0a876,,,,,,,,,,,,,,,,,,,,,,,,,,,,,,,,,,,,388.8836,394.9883,0,0,0,0,1,SoundStimuli/AnotherOneBitesTheDust_Queen_Original5S.wav,,,,,,,,,,,,,,,,,,,,,,,,,,,,,,,,,,,,,,,,,,,,,,,,,,,,,,,,,
,,,,,910590,001,2024-06-17_10h47.05.026,experiment,2024.1.5,Win32,60.24096386,59cadb5f59b379000115128d,667045947eb812cbdacbf325,66704bff311674800ba0a876,,,,,,,,,,,,,,,,,,,,,,,,,,,,,,,,,,,,395.0138,403.1859,0,1,1,1,1,SoundStimuli/AnotherOneBitesTheDust_Queen_Cover5S.wav,,,,,,,,,,,,,,,,,,,,,,,,,,,,,,,,,,,,,,,,,,,,,,,,,,,,,,,,,
,,,,,910590,001,2024-06-17_10h47.05.026,experiment,2024.1.5,Win32,60.24096386,59cadb5f59b379000115128d,667045947eb812cbdacbf325,66704bff311674800ba0a876,,,,,,,,,,,,,,,,,,,,,,,,,,,,,,,,,,,,,,,,,,,,403.1862,406.1408,1.122759265,2.9356,0,17,17,9,1,song_indices/AnotherOneBitesTheDust_Queen.csv,,,,,,,,,,,,,,,,,,,,,,,,,,,,,,,,,,,,,,,,,,,,,,,
,,,,,910590,001,2024-06-17_10h47.05.026,experiment,2024.1.5,Win32,60.24096386,59cadb5f59b379000115128d,667045947eb812cbdacbf325,66704bff311674800ba0a876,,,,,,,,,,,,,,,,,,,,,,,,,,,,,,,,,,,,406.1432,412.4071,0,0,0,0,1,SoundStimuli/LivinOnAPrayer_BonJovi_Original5S.wav,,,,,,,,,,,,,,,,,,,,,,,,,,,,,,,,,,,,,,,,,,,,,,,,,,,,,,,,,
,,,,,910590,001,2024-06-17_10h47.05.026,experiment,2024.1.5,Win32,60.24096386,59cadb5f59b379000115128d,667045947eb812cbdacbf325,66704bff311674800ba0a876,,,,,,,,,,,,,,,,,,,,,,,,,,,,,,,,,,,,412.4239,420.1804,0,1,1,1,1,SoundStimuli/LivinOnAPrayer_BonJovi_Cover5S.wav,,,,,,,,,,,,,,,,,,,,,,,,,,,,,,,,,,,,,,,,,,,,,,,,,,,,,,,,,
,,,,,910590,001,2024-06-17_10h47.05.026,experiment,2024.1.5,Win32,60.24096386,59cadb5f59b379000115128d,667045947eb812cbdacbf325,66704bff311674800ba0a876,,,,,,,,,,,,,,,,,,,,,,,,,,,,,,,,,,,,,,,,,,,,420.1806,422.7557,1.107155989,2.5469,0,18,18,16,1,song_indices/LivinOnAPrayer_BonJovi.csv,,,,,,,,,,,,,,,,,,,,,,,,,,,,,,,,,,,,,,,,,,,,,,,
,,,,,910590,001,2024-06-17_10h47.05.026,experiment,2024.1.5,Win32,60.24096386,59cadb5f59b379000115128d,667045947eb812cbdacbf325,66704bff311674800ba0a876,,,,,,,,,,,,,,,,,,,,,,,,,,,,,,,,,,,,422.7573,431.4175,0,0,0,1,1,SoundStimuli/HeatWaves_GlassAnimals_Cover5S.wav,,,,,,,,,,,,,,,,,,,,,,,,,,,,,,,,,,,,,,,,,,,,,,,,,,,,,,,,,
,,,,,910590,001,2024-06-17_10h47.05.026,experiment,2024.1.5,Win32,60.24096386,59cadb5f59b379000115128d,667045947eb812cbdacbf325,66704bff311674800ba0a876,,,,,,,,,,,,,,,,,,,,,,,,,,,,,,,,,,,,431.4399,437.5788,0,1,1,0,1,SoundStimuli/HeatWaves_GlassAnimals_Original5S.wav,,,,,,,,,,,,,,,,,,,,,,,,,,,,,,,,,,,,,,,,,,,,,,,,,,,,,,,,,
,,,,,910590,001,2024-06-17_10h47.05.026,experiment,2024.1.5,Win32,60.24096386,59cadb5f59b379000115128d,667045947eb812cbdacbf325,66704bff311674800ba0a876,,,,,,,,,,,,,,,,,,,,,,,,,,,,,,,,,,,,,,,,,,,,437.5794,440.3339,2.043355396,2.7336,0,19,19,10,1,song_indices/HeatWaves_GlassAnimals.csv,,,,,,,,,,,,,,,,,,,,,,,,,,,,,,,,,,,,,,,,,,,,,,,
,,,,,910590,001,2024-06-17_10h47.05.026,experiment,2024.1.5,Win32,60.24096386,59cadb5f59b379000115128d,667045947eb812cbdacbf325,66704bff311674800ba0a876,,,,,,,,,,,,,,,,,,,,,,,,,,,,,,,,,,,,440.3382,447.8903,0,0,0,1,1,SoundStimuli/EndlessLove_DianaRossLionelRichie_Cover5S.wav,,,,,,,,,,,,,,,,,,,,,,,,,,,,,,,,,,,,,,,,,,,,,,,,,,,,,,,,,
,,,,,910590,001,2024-06-17_10h47.05.026,experiment,2024.1.5,Win32,60.24096386,59cadb5f59b379000115128d,667045947eb812cbdacbf325,66704bff311674800ba0a876,,,,,,,,,,,,,,,,,,,,,,,,,,,,,,,,,,,,447.9075,454.2775,0,1,1,0,1,SoundStimuli/EndlessLove_DianaRossLionelRichie_Original5S.wav,,,,,,,,,,,,,,,,,,,,,,,,,,,,,,,,,,,,,,,,,,,,,,,,,,,,,,,,,
,,,,,910590,001,2024-06-17_10h47.05.026,experiment,2024.1.5,Win32,60.24096386,59cadb5f59b379000115128d,667045947eb812cbdacbf325,66704bff311674800ba0a876,,,,,,,,,,,,,,,,,,,,,,,,,,,,,,,,,,,,,,,,,,,,454.2777,456.5153,2.027752121,2.215,0,20,20,3,1,song_indices/EndlessLove_DianaRossLionelRichie.csv,,,,,,,,,,,,,,,,,,,,,,,,,,,,,,,,,,,,,,,,,,,,,,,
,,,,,910590,001,2024-06-17_10h47.05.026,experiment,2024.1.5,Win32,60.24096386,59cadb5f59b379000115128d,667045947eb812cbdacbf325,66704bff311674800ba0a876,,,,,,,,,,,,,,,,,,,,,,,,,,,,,,,,,,,,456.5186,463.5663,0,0,0,1,1,SoundStimuli/StrawberryFieldsForever_TheBeatles_Cover5S.wav,,,,,,,,,,,,,,,,,,,,,,,,,,,,,,,,,,,,,,,,,,,,,,,,,,,,,,,,,
,,,,,910590,001,2024-06-17_10h47.05.026,experiment,2024.1.5,Win32,60.24096386,59cadb5f59b379000115128d,667045947eb812cbdacbf325,66704bff311674800ba0a876,,,,,,,,,,,,,,,,,,,,,,,,,,,,,,,,,,,,463.5822,469.7292,0,1,1,0,1,SoundStimuli/StrawberryFieldsForever_TheBeatles_Original5S.wav,,,,,,,,,,,,,,,,,,,,,,,,,,,,,,,,,,,,,,,,,,,,,,,,,,,,,,,,,
,,,,,910590,001,2024-06-17_10h47.05.026,experiment,2024.1.5,Win32,60.24096386,59cadb5f59b379000115128d,667045947eb812cbdacbf325,66704bff311674800ba0a876,,,,,,,,,,,,,,,,,,,,,,,,,,,,,,,,,,,,,,,,,,,,469.7294,471.3961,1.021337713,1.6454,0,21,21,14,1,song_indices/StrawberryFieldsForever_TheBeatles.csv,,,,,,,,,,,,,,,,,,,,,,,,,,,,,,,,,,,,,,,,,,,,,,,
,,,,,910590,001,2024-06-17_10h47.05.026,experiment,2024.1.5,Win32,60.24096386,59cadb5f59b379000115128d,667045947eb812cbdacbf325,66704bff311674800ba0a876,,,,,,,,,,,,,,,,,,,,,,,,,,,,,,,,,,,,471.3982,478.3137,0,0,0,1,1,SoundStimuli/GodOnlyKnows_TheBeachBoys_Cover5S.wav,,,,,,,,,,,,,,,,,,,,,,,,,,,,,,,,,,,,,,,,,,,,,,,,,,,,,,,,,
,,,,,910590,001,2024-06-17_10h47.05.026,experiment,2024.1.5,Win32,60.24096386,59cadb5f59b379000115128d,667045947eb812cbdacbf325,66704bff311674800ba0a876,,,,,,,,,,,,,,,,,,,,,,,,,,,,,,,,,,,,478.3299,484.6066,0,1,1,0,1,SoundStimuli/GodOnlyKnows_TheBeachBoys_Original5S.wav,,,,,,,,,,,,,,,,,,,,,,,,,,,,,,,,,,,,,,,,,,,,,,,,,,,,,,,,,
,,,,,910590,001,2024-06-17_10h47.05.026,experiment,2024.1.5,Win32,60.24096386,59cadb5f59b379000115128d,667045947eb812cbdacbf325,66704bff311674800ba0a876,,,,,,,,,,,,,,,,,,,,,,,,,,,,,,,,,,,,,,,,,,,,484.6068,487.2999,4.890961804,2.6733,0,22,22,8,1,song_indices/GodOnlyKnows_TheBeachBoys.csv,,,,,,,,,,,,,,,,,,,,,,,,,,,,,,,,,,,,,,,,,,,,,,,
,,,,,910590,001,2024-06-17_10h47.05.026,experiment,2024.1.5,Win32,60.24096386,59cadb5f59b379000115128d,667045947eb812cbdacbf325,66704bff311674800ba0a876,,,,,,,,,,,,,,,,,,,,,,,,,,,,,,,,,,,,,,,,,,,,,,,,,,,,,,487.3013,700.7137,space,213.3586,,0,0,0,0,1,choose_song_b1.csv,,,,,,,,,,,,,,,,,,,,,,,,,,,,,,,,,,,,
,,,,,910590,001,2024-06-17_10h47.05.026,experiment,2024.1.5,Win32,60.24096386,59cadb5f59b379000115128d,667045947eb812cbdacbf325,66704bff311674800ba0a876,,,,,,,,,,,,,,,,,,,,,,,,,,,,,,,,,,,,700.7202,705.9197,0,0,0,1,1,SoundStimuli/JoyToTheWorld_ThreeDogNight_Cover5S.wav,,,,,,,,,,,,,,,,,,,,,,,,,,,,,,,,,,,,,,,,,,,,,,,,,,,,,,,,,
,,,,,910590,001,2024-06-17_10h47.05.026,experiment,2024.1.5,Win32,60.24096386,59cadb5f59b379000115128d,667045947eb812cbdacbf325,66704bff311674800ba0a876,,,,,,,,,,,,,,,,,,,,,,,,,,,,,,,,,,,,705.965,712.1167,0,1,1,0,1,SoundStimuli/JoyToTheWorld_ThreeDogNight_Original5S.wav,,,,,,,,,,,,,,,,,,,,,,,,,,,,,,,,,,,,,,,,,,,,,,,,,,,,,,,,,
,,,,,910590,001,2024-06-17_10h47.05.026,experiment,2024.1.5,Win32,60.24096386,59cadb5f59b379000115128d,667045947eb812cbdacbf325,66704bff311674800ba0a876,,,,,,,,,,,,,,,,,,,,,,,,,,,,,,,,,,,,,,,,,,,,712.1169,714.5213,6.677542341,2.3872,0,0,0,8,1,song_indices/JoyToTheWorld_ThreeDogNight.csv,,,,,,,,,,,,,,,,,,,,,,,,,,,,,,,,,,,,,,,,,,,,,,,
,,,,,910590,001,2024-06-17_10h47.05.026,experiment,2024.1.5,Win32,60.24096386,59cadb5f59b379000115128d,667045947eb812cbdacbf325,66704bff311674800ba0a876,,,,,,,,,,,,,,,,,,,,,,,,,,,,,,,,,,,,714.5247,721.074,0,0,0,1,1,SoundStimuli/Weak_SWV_Cover5S.wav,,,,,,,,,,,,,,,,,,,,,,,,,,,,,,,,,,,,,,,,,,,,,,,,,,,,,,,,,
,,,,,910590,001,2024-06-17_10h47.05.026,experiment,2024.1.5,Win32,60.24096386,59cadb5f59b379000115128d,667045947eb812cbdacbf325,66704bff311674800ba0a876,,,,,,,,,,,,,,,,,,,,,,,,,,,,,,,,,,,,721.0977,727.2258,0,1,1,0,1,SoundStimuli/Weak_SWV_Original5S.wav,,,,,,,,,,,,,,,,,,,,,,,,,,,,,,,,,,,,,,,,,,,,,,,,,,,,,,,,,
,,,,,910590,001,2024-06-17_10h47.05.026,experiment,2024.1.5,Win32,60.24096386,59cadb5f59b379000115128d,667045947eb812cbdacbf325,66704bff311674800ba0a876,,,,,,,,,,,,,,,,,,,,,,,,,,,,,,,,,,,,,,,,,,,,727.2261,728.6891,4.94557353,1.4343,0,1,1,6,1,song_indices/Weak_SWV.csv,,,,,,,,,,,,,,,,,,,,,,,,,,,,,,,,,,,,,,,,,,,,,,,
,,,,,910590,001,2024-06-17_10h47.05.026,experiment,2024.1.5,Win32,60.24096386,59cadb5f59b379000115128d,667045947eb812cbdacbf325,66704bff311674800ba0a876,,,,,,,,,,,,,,,,,,,,,,,,,,,,,,,,,,,,728.6906,734.8817,0,0,0,0,1,SoundStimuli/TheSign_AceOfBase_Original5S.wav,,,,,,,,,,,,,,,,,,,,,,,,,,,,,,,,,,,,,,,,,,,,,,,,,,,,,,,,,
,,,,,910590,001,2024-06-17_10h47.05.026,experiment,2024.1.5,Win32,60.24096386,59cadb5f59b379000115128d,667045947eb812cbdacbf325,66704bff311674800ba0a876,,,,,,,,,,,,,,,,,,,,,,,,,,,,,,,,,,,,734.8993,740.9481,0,1,1,1,1,SoundStimuli/TheSign_AceOfBase_Cover5S.wav,,,,,,,,,,,,,,,,,,,,,,,,,,,,,,,,,,,,,,,,,,,,,,,,,,,,,,,,,
,,,,,910590,001,2024-06-17_10h47.05.026,experiment,2024.1.5,Win32,60.24096386,59cadb5f59b379000115128d,667045947eb812cbdacbf325,66704bff311674800ba0a876,,,,,,,,,,,,,,,,,,,,,,,,,,,,,,,,,,,,,,,,,,,,740.9484,743.3217,4.992383357,2.3544,0,2,2,5,1,song_indices/TheSign_AceOfBase.csv,,,,,,,,,,,,,,,,,,,,,,,,,,,,,,,,,,,,,,,,,,,,,,,
,,,,,910590,001,2024-06-17_10h47.05.026,experiment,2024.1.5,Win32,60.24096386,59cadb5f59b379000115128d,667045947eb812cbdacbf325,66704bff311674800ba0a876,,,,,,,,,,,,,,,,,,,,,,,,,,,,,,,,,,,,743.3243,749.4472,0,0,0,0,1,SoundStimuli/ComeAndGetYourLove_Redbone_Original5S.wav,,,,,,,,,,,,,,,,,,,,,,,,,,,,,,,,,,,,,,,,,,,,,,,,,,,,,,,,,
,,,,,910590,001,2024-06-17_10h47.05.026,experiment,2024.1.5,Win32,60.24096386,59cadb5f59b379000115128d,667045947eb812cbdacbf325,66704bff311674800ba0a876,,,,,,,,,,,,,,,,,,,,,,,,,,,,,,,,,,,,749.4622,756.5291,0,1,1,1,1,SoundStimuli/ComeAndGetYourLove_Redbone_Cover5S.wav,,,,,,,,,,,,,,,,,,,,,,,,,,,,,,,,,,,,,,,,,,,,,,,,,,,,,,,,,
,,,,,910590,001,2024-06-17_10h47.05.026,experiment,2024.1.5,Win32,60.24096386,59cadb5f59b379000115128d,667045947eb812cbdacbf325,66704bff311674800ba0a876,,,,,,,,,,,,,,,,,,,,,,,,,,,,,,,,,,,,,,,,,,,,756.5294,758.7724,3.424248676,2.224,0,3,3,22,1,song_indices/ComeAndGetYourLove_Redbone.csv,,,,,,,,,,,,,,,,,,,,,,,,,,,,,,,,,,,,,,,,,,,,,,,
,,,,,910590,001,2024-06-17_10h47.05.026,experiment,2024.1.5,Win32,60.24096386,59cadb5f59b379000115128d,667045947eb812cbdacbf325,66704bff311674800ba0a876,,,,,,,,,,,,,,,,,,,,,,,,,,,,,,,,,,,,758.7741,764.8844,0,0,0,0,1,SoundStimuli/UnbreakMyHeart_ToniBraxton_Original5S.wav,,,,,,,,,,,,,,,,,,,,,,,,,,,,,,,,,,,,,,,,,,,,,,,,,,,,,,,,,
,,,,,910590,001,2024-06-17_10h47.05.026,experiment,2024.1.5,Win32,60.24096386,59cadb5f59b379000115128d,667045947eb812cbdacbf325,66704bff311674800ba0a876,,,,,,,,,,,,,,,,,,,,,,,,,,,,,,,,,,,,764.9006,768.8889,0,1,1,1,1,SoundStimuli/UnbreakMyHeart_ToniBraxton_Cover5S.wav,,,,,,,,,,,,,,,,,,,,,,,,,,,,,,,,,,,,,,,,,,,,,,,,,,,,,,,,,
,,,,,910590,001,2024-06-17_10h47.05.026,experiment,2024.1.5,Win32,60.24096386,59cadb5f59b379000115128d,667045947eb812cbdacbf325,66704bff311674800ba0a876,,,,,,,,,,,,,,,,,,,,,,,,,,,,,,,,,,,,,,,,,,,,768.8891,771.7649,1.926330568,2.8547,0,4,4,16,1,song_indices/UnbreakMyHeart_ToniBraxton.csv,,,,,,,,,,,,,,,,,,,,,,,,,,,,,,,,,,,,,,,,,,,,,,,
,,,,,910590,001,2024-06-17_10h47.05.026,experiment,2024.1.5,Win32,60.24096386,59cadb5f59b379000115128d,667045947eb812cbdacbf325,66704bff311674800ba0a876,,,,,,,,,,,,,,,,,,,,,,,,,,,,,,,,,,,,771.7681,777.5635,0,0,0,1,1,SoundStimuli/Levitating_DuaLipa_Cover5S.wav,,,,,,,,,,,,,,,,,,,,,,,,,,,,,,,,,,,,,,,,,,,,,,,,,,,,,,,,,
,,,,,910590,001,2024-06-17_10h47.05.026,experiment,2024.1.5,Win32,60.24096386,59cadb5f59b379000115128d,667045947eb812cbdacbf325,66704bff311674800ba0a876,,,,,,,,,,,,,,,,,,,,,,,,,,,,,,,,,,,,777.5819,783.6397,0,1,1,0,1,SoundStimuli/Levitating_DuaLipa_Original5S.wav,,,,,,,,,,,,,,,,,,,,,,,,,,,,,,,,,,,,,,,,,,,,,,,,,,,,,,,,,
,,,,,910590,001,2024-06-17_10h47.05.026,experiment,2024.1.5,Win32,60.24096386,59cadb5f59b379000115128d,667045947eb812cbdacbf325,66704bff311674800ba0a876,,,,,,,,,,,,,,,,,,,,,,,,,,,,,,,,,,,,,,,,,,,,783.64,785.991,1.832710392,2.3302,0,5,5,10,1,song_indices/Levitating_DuaLipa.csv,,,,,,,,,,,,,,,,,,,,,,,,,,,,,,,,,,,,,,,,,,,,,,,
,,,,,910590,001,2024-06-17_10h47.05.026,experiment,2024.1.5,Win32,60.24096386,59cadb5f59b379000115128d,667045947eb812cbdacbf325,66704bff311674800ba0a876,,,,,,,,,,,,,,,,,,,,,,,,,,,,,,,,,,,,785.9929,793.6041,0,0,0,1,1,SoundStimuli/TikTok_Kesha_Cover5S.wav,,,,,,,,,,,,,,,,,,,,,,,,,,,,,,,,,,,,,,,,,,,,,,,,,,,,,,,,,
,,,,,910590,001,2024-06-17_10h47.05.026,experiment,2024.1.5,Win32,60.24096386,59cadb5f59b379000115128d,667045947eb812cbdacbf325,66704bff311674800ba0a876,,,,,,,,,,,,,,,,,,,,,,,,,,,,,,,,,,,,793.6205,799.8541,0,1,1,0,1,SoundStimuli/TikTok_Kesha_Original5S.wav,,,,,,,,,,,,,,,,,,,,,,,,,,,,,,,,,,,,,,,,,,,,,,,,,,,,,,,,,
,,,,,910590,001,2024-06-17_10h47.05.026,experiment,2024.1.5,Win32,60.24096386,59cadb5f59b379000115128d,667045947eb812cbdacbf325,66704bff311674800ba0a876,,,,,,,,,,,,,,,,,,,,,,,,,,,,,,,,,,,,,,,,,,,,799.8543,801.2539,2.971753165,1.3801,0,6,6,3,1,song_indices/TikTok_Kesha.csv,,,,,,,,,,,,,,,,,,,,,,,,,,,,,,,,,,,,,,,,,,,,,,,
,,,,,910590,001,2024-06-17_10h47.05.026,experiment,2024.1.5,Win32,60.24096386,59cadb5f59b379000115128d,667045947eb812cbdacbf325,66704bff311674800ba0a876,,,,,,,,,,,,,,,,,,,,,,,,,,,,,,,,,,,,801.2575,807.9125,0,0,0,1,1,SoundStimuli/LetsGetItOn_MarvinGaye_Cover5S.wav,,,,,,,,,,,,,,,,,,,,,,,,,,,,,,,,,,,,,,,,,,,,,,,,,,,,,,,,,
,,,,,910590,001,2024-06-17_10h47.05.026,experiment,2024.1.5,Win32,60.24096386,59cadb5f59b379000115128d,667045947eb812cbdacbf325,66704bff311674800ba0a876,,,,,,,,,,,,,,,,,,,,,,,,,,,,,,,,,,,,807.9291,814.3116,0,1,1,0,1,SoundStimuli/LetsGetItOn_MarvinGaye_Original5S.wav,,,,,,,,,,,,,,,,,,,,,,,,,,,,,,,,,,,,,,,,,,,,,,,,,,,,,,,,,
,,,,,910590,001,2024-06-17_10h47.05.026,experiment,2024.1.5,Win32,60.24096386,59cadb5f59b379000115128d,667045947eb812cbdacbf325,66704bff311674800ba0a876,,,,,,,,,,,,,,,,,,,,,,,,,,,,,,,,,,,,,,,,,,,,814.3118,816.3653,1.052544263,2.0351,0,7,7,20,1,song_indices/LetsGetItOn_MarvinGaye.csv,,,,,,,,,,,,,,,,,,,,,,,,,,,,,,,,,,,,,,,,,,,,,,,
,,,,,910590,001,2024-06-17_10h47.05.026,experiment,2024.1.5,Win32,60.24096386,59cadb5f59b379000115128d,667045947eb812cbdacbf325,66704bff311674800ba0a876,,,,,,,,,,,,,,,,,,,,,,,,,,,,,,,,,,,,816.3669,823.4026,0,0,0,1,1,SoundStimuli/Dilemma_NellyKellyRowland_Cover5S.wav,,,,,,,,,,,,,,,,,,,,,,,,,,,,,,,,,,,,,,,,,,,,,,,,,,,,,,,,,
,,,,,910590,001,2024-06-17_10h47.05.026,experiment,2024.1.5,Win32,60.24096386,59cadb5f59b379000115128d,667045947eb812cbdacbf325,66704bff311674800ba0a876,,,,,,,,,,,,,,,,,,,,,,,,,,,,,,,,,,,,823.4186,829.6889,0,1,1,0,1,SoundStimuli/Dilemma_NellyKellyRowland_Original5S.wav,,,,,,,,,,,,,,,,,,,,,,,,,,,,,,,,,,,,,,,,,,,,,,,,,,,,,,,,,
,,,,,910590,001,2024-06-17_10h47.05.026,experiment,2024.1.5,Win32,60.24096386,59cadb5f59b379000115128d,667045947eb812cbdacbf325,66704bff311674800ba0a876,,,,,,,,,,,,,,,,,,,,,,,,,,,,,,,,,,,,,,,,,,,,829.6892,831.9892,1.114957627,2.2797,0,8,8,2,1,song_indices/Dilemma_NellyKellyRowland.csv,,,,,,,,,,,,,,,,,,,,,,,,,,,,,,,,,,,,,,,,,,,,,,,
,,,,,910590,001,2024-06-17_10h47.05.026,experiment,2024.1.5,Win32,60.24096386,59cadb5f59b379000115128d,667045947eb812cbdacbf325,66704bff311674800ba0a876,,,,,,,,,,,,,,,,,,,,,,,,,,,,,,,,,,,,831.9912,838.0783,0,0,0,0,1,SoundStimuli/YouLightUpMyLife_DebbyBoone_Original5S.wav,,,,,,,,,,,,,,,,,,,,,,,,,,,,,,,,,,,,,,,,,,,,,,,,,,,,,,,,,
,,,,,910590,001,2024-06-17_10h47.05.026,experiment,2024.1.5,Win32,60.24096386,59cadb5f59b379000115128d,667045947eb812cbdacbf325,66704bff311674800ba0a876,,,,,,,,,,,,,,,,,,,,,,,,,,,,,,,,,,,,838.0957,844.5842,0,1,1,1,1,SoundStimuli/YouLightUpMyLife_DebbyBoone_Cover5S.wav,,,,,,,,,,,,,,,,,,,,,,,,,,,,,,,,,,,,,,,,,,,,,,,,,,,,,,,,,
,,,,,910590,001,2024-06-17_10h47.05.026,experiment,2024.1.5,Win32,60.24096386,59cadb5f59b379000115128d,667045947eb812cbdacbf325,66704bff311674800ba0a876,,,,,,,,,,,,,,,,,,,,,,,,,,,,,,,,,,,,,,,,,,,,844.5845,846.9828,6.974005098,2.3771,0,9,9,4,1,song_indices/YouLightUpMyLife_DebbyBoone.csv,,,,,,,,,,,,,,,,,,,,,,,,,,,,,,,,,,,,,,,,,,,,,,,
,,,,,910590,001,2024-06-17_10h47.05.026,experiment,2024.1.5,Win32,60.24096386,59cadb5f59b379000115128d,667045947eb812cbdacbf325,66704bff311674800ba0a876,,,,,,,,,,,,,,,,,,,,,,,,,,,,,,,,,,,,846.9848,853.1144,0,0,0,1,1,SoundStimuli/TossinAndTurnin_BobbyLewis_Cover5S.wav,,,,,,,,,,,,,,,,,,,,,,,,,,,,,,,,,,,,,,,,,,,,,,,,,,,,,,,,,
,,,,,910590,001,2024-06-17_10h47.05.026,experiment,2024.1.5,Win32,60.24096386,59cadb5f59b379000115128d,667045947eb812cbdacbf325,66704bff311674800ba0a876,,,,,,,,,,,,,,,,,,,,,,,,,,,,,,,,,,,,853.1312,859.2275,0,1,1,0,1,SoundStimuli/TossinAndTurnin_BobbyLewis_Original5S.wav,,,,,,,,,,,,,,,,,,,,,,,,,,,,,,,,,,,,,,,,,,,,,,,,,,,,,,,,,
,,,,,910590,001,2024-06-17_10h47.05.026,experiment,2024.1.5,Win32,60.24096386,59cadb5f59b379000115128d,667045947eb812cbdacbf325,66704bff311674800ba0a876,,,,,,,,,,,,,,,,,,,,,,,,,,,,,,,,,,,,,,,,,,,,859.2278,861.0066,2.979554803,1.7562,0,10,10,13,1,song_indices/TossinAndTurnin_BobbyLewis.csv,,,,,,,,,,,,,,,,,,,,,,,,,,,,,,,,,,,,,,,,,,,,,,,
,,,,,910590,001,2024-06-17_10h47.05.026,experiment,2024.1.5,Win32,60.24096386,59cadb5f59b379000115128d,667045947eb812cbdacbf325,66704bff311674800ba0a876,,,,,,,,,,,,,,,,,,,,,,,,,,,,,,,,,,,,861.0095,867.5266,0,0,0,0,1,SoundStimuli/Dreams_FleetwoodMac_Original5S.wav,,,,,,,,,,,,,,,,,,,,,,,,,,,,,,,,,,,,,,,,,,,,,,,,,,,,,,,,,
,,,,,910590,001,2024-06-17_10h47.05.026,experiment,2024.1.5,Win32,60.24096386,59cadb5f59b379000115128d,667045947eb812cbdacbf325,66704bff311674800ba0a876,,,,,,,,,,,,,,,,,,,,,,,,,,,,,,,,,,,,867.545,875.3909,0,1,1,1,1,SoundStimuli/Dreams_FleetwoodMac_Cover5S.wav,,,,,,,,,,,,,,,,,,,,,,,,,,,,,,,,,,,,,,,,,,,,,,,,,,,,,,,,,
,,,,,910590,001,2024-06-17_10h47.05.026,experiment,2024.1.5,Win32,60.24096386,59cadb5f59b379000115128d,667045947eb812cbdacbf325,66704bff311674800ba0a876,,,,,,,,,,,,,,,,,,,,,,,,,,,,,,,,,,,,,,,,,,,,875.3911,876.7187,4.539886274,1.3036,0,11,11,1,1,song_indices/Dreams_FleetwoodMac.csv,,,,,,,,,,,,,,,,,,,,,,,,,,,,,,,,,,,,,,,,,,,,,,,
,,,,,910590,001,2024-06-17_10h47.05.026,experiment,2024.1.5,Win32,60.24096386,59cadb5f59b379000115128d,667045947eb812cbdacbf325,66704bff311674800ba0a876,,,,,,,,,,,,,,,,,,,,,,,,,,,,,,,,,,,,876.7204,882.2727,0,0,0,1,1,SoundStimuli/LeFreak_Chic_Cover5S.wav,,,,,,,,,,,,,,,,,,,,,,,,,,,,,,,,,,,,,,,,,,,,,,,,,,,,,,,,,
,,,,,910590,001,2024-06-17_10h47.05.026,experiment,2024.1.5,Win32,60.24096386,59cadb5f59b379000115128d,667045947eb812cbdacbf325,66704bff311674800ba0a876,,,,,,,,,,,,,,,,,,,,,,,,,,,,,,,,,,,,882.2902,888.3465,0,1,1,0,1,SoundStimuli/LeFreak_Chic_Original5S.wav,,,,,,,,,,,,,,,,,,,,,,,,,,,,,,,,,,,,,,,,,,,,,,,,,,,,,,,,,
,,,,,910590,001,2024-06-17_10h47.05.026,experiment,2024.1.5,Win32,60.24096386,59cadb5f59b379000115128d,667045947eb812cbdacbf325,66704bff311674800ba0a876,,,,,,,,,,,,,,,,,,,,,,,,,,,,,,,,,,,,,,,,,,,,888.3468,889.5992,3.822134033,1.2297,0,12,12,11,1,song_indices/LeFreak_Chic.csv,,,,,,,,,,,,,,,,,,,,,,,,,,,,,,,,,,,,,,,,,,,,,,,
,,,,,910590,001,2024-06-17_10h47.05.026,experiment,2024.1.5,Win32,60.24096386,59cadb5f59b379000115128d,667045947eb812cbdacbf325,66704bff311674800ba0a876,,,,,,,,,,,,,,,,,,,,,,,,,,,,,,,,,,,,889.6012,896.4607,0,0,0,1,1,SoundStimuli/BlindingLights_TheWeeknd_Cover5S.wav,,,,,,,,,,,,,,,,,,,,,,,,,,,,,,,,,,,,,,,,,,,,,,,,,,,,,,,,,
,,,,,910590,001,2024-06-17_10h47.05.026,experiment,2024.1.5,Win32,60.24096386,59cadb5f59b379000115128d,667045947eb812cbdacbf325,66704bff311674800ba0a876,,,,,,,,,,,,,,,,,,,,,,,,,,,,,,,,,,,,896.483,903.0255,0,1,1,0,1,SoundStimuli/BlindingLights_TheWeeknd_Original5S.wav,,,,,,,,,,,,,,,,,,,,,,,,,,,,,,,,,,,,,,,,,,,,,,,,,,,,,,,,,
,,,,,910590,001,2024-06-17_10h47.05.026,experiment,2024.1.5,Win32,60.24096386,59cadb5f59b379000115128d,667045947eb812cbdacbf325,66704bff311674800ba0a876,,,,,,,,,,,,,,,,,,,,,,,,,,,,,,,,,,,,,,,,,,,,903.026,904.9515,6.59952544,1.9066,0,13,13,21,1,song_indices/BlindingLights_TheWeeknd.csv,,,,,,,,,,,,,,,,,,,,,,,,,,,,,,,,,,,,,,,,,,,,,,,
,,,,,910590,001,2024-06-17_10h47.05.026,experiment,2024.1.5,Win32,60.24096386,59cadb5f59b379000115128d,667045947eb812cbdacbf325,66704bff311674800ba0a876,,,,,,,,,,,,,,,,,,,,,,,,,,,,,,,,,,,,904.9544,911.8092,0,0,0,1,1,SoundStimuli/PokerFace_LadyGaga_Cover5S.wav,,,,,,,,,,,,,,,,,,,,,,,,,,,,,,,,,,,,,,,,,,,,,,,,,,,,,,,,,
,,,,,910590,001,2024-06-17_10h47.05.026,experiment,2024.1.5,Win32,60.24096386,59cadb5f59b379000115128d,667045947eb812cbdacbf325,66704bff311674800ba0a876,,,,,,,,,,,,,,,,,,,,,,,,,,,,,,,,,,,,911.8245,918.8879,0,1,1,0,1,SoundStimuli/PokerFace_LadyGaga_Original5S.wav,,,,,,,,,,,,,,,,,,,,,,,,,,,,,,,,,,,,,,,,,,,,,,,,,,,,,,,,,
,,,,,910590,001,2024-06-17_10h47.05.026,experiment,2024.1.5,Win32,60.24096386,59cadb5f59b379000115128d,667045947eb812cbdacbf325,66704bff311674800ba0a876,,,,,,,,,,,,,,,,,,,,,,,,,,,,,,,,,,,,,,,,,,,,918.8883,921.6089,5.351259739,2.7,0,14,14,23,1,song_indices/PokerFace_LadyGaga.csv,,,,,,,,,,,,,,,,,,,,,,,,,,,,,,,,,,,,,,,,,,,,,,,
,,,,,910590,001,2024-06-17_10h47.05.026,experiment,2024.1.5,Win32,60.24096386,59cadb5f59b379000115128d,667045947eb812cbdacbf325,66704bff311674800ba0a876,,,,,,,,,,,,,,,,,,,,,,,,,,,,,,,,,,,,921.6106,927.683,0,0,0,1,1,SoundStimuli/Respect_ArethaFranklin_Cover5S.wav,,,,,,,,,,,,,,,,,,,,,,,,,,,,,,,,,,,,,,,,,,,,,,,,,,,,,,,,,
,,,,,910590,001,2024-06-17_10h47.05.026,experiment,2024.1.5,Win32,60.24096386,59cadb5f59b379000115128d,667045947eb812cbdacbf325,66704bff311674800ba0a876,,,,,,,,,,,,,,,,,,,,,,,,,,,,,,,,,,,,927.6989,933.6819,0,1,1,0,1,SoundStimuli/Respect_ArethaFranklin_Original5S.wav,,,,,,,,,,,,,,,,,,,,,,,,,,,,,,,,,,,,,,,,,,,,,,,,,,,,,,,,,
,,,,,910590,001,2024-06-17_10h47.05.026,experiment,2024.1.5,Win32,60.24096386,59cadb5f59b379000115128d,667045947eb812cbdacbf325,66704bff311674800ba0a876,,,,,,,,,,,,,,,,,,,,,,,,,,,,,,,,,,,,,,,,,,,,933.6821,937.8087,4.937771631,4.1077,0,15,15,0,1,song_indices/Respect_ArethaFranklin.csv,,,,,,,,,,,,,,,,,,,,,,,,,,,,,,,,,,,,,,,,,,,,,,,
,,,,,910590,001,2024-06-17_10h47.05.026,experiment,2024.1.5,Win32,60.24096386,59cadb5f59b379000115128d,667045947eb812cbdacbf325,66704bff311674800ba0a876,,,,,,,,,,,,,,,,,,,,,,,,,,,,,,,,,,,,937.8107,944.6376,0,0,0,1,1,SoundStimuli/SomebodyThatIUsedtoKnow_Gotye_Cover5S.wav,,,,,,,,,,,,,,,,,,,,,,,,,,,,,,,,,,,,,,,,,,,,,,,,,,,,,,,,,
,,,,,910590,001,2024-06-17_10h47.05.026,experiment,2024.1.5,Win32,60.24096386,59cadb5f59b379000115128d,667045947eb812cbdacbf325,66704bff311674800ba0a876,,,,,,,,,,,,,,,,,,,,,,,,,,,,,,,,,,,,944.655,951.932,0,1,1,0,1,SoundStimuli/SomebodyThatIUsedtoKnow_Gotye_Original5S.wav,,,,,,,,,,,,,,,,,,,,,,,,,,,,,,,,,,,,,,,,,,,,,,,,,,,,,,,,,
,,,,,910590,001,2024-06-17_10h47.05.026,experiment,2024.1.5,Win32,60.24096386,59cadb5f59b379000115128d,667045947eb812cbdacbf325,66704bff311674800ba0a876,,,,,,,,,,,,,,,,,,,,,,,,,,,,,,,,,,,,,,,,,,,,951.9324,952.832,5.928581978,0.8798,0,16,16,7,1,song_indices/SomebodyThatIUsedtoKnow_Gotye.csv,,,,,,,,,,,,,,,,,,,,,,,,,,,,,,,,,,,,,,,,,,,,,,,
,,,,,910590,001,2024-06-17_10h47.05.026,experiment,2024.1.5,Win32,60.24096386,59cadb5f59b379000115128d,667045947eb812cbdacbf325,66704bff311674800ba0a876,,,,,,,,,,,,,,,,,,,,,,,,,,,,,,,,,,,,952.8344,958.7293,0,0,0,0,1,SoundStimuli/Irreplaceable_Beyonce_Original5S.wav,,,,,,,,,,,,,,,,,,,,,,,,,,,,,,,,,,,,,,,,,,,,,,,,,,,,,,,,,
,,,,,910590,001,2024-06-17_10h47.05.026,experiment,2024.1.5,Win32,60.24096386,59cadb5f59b379000115128d,667045947eb812cbdacbf325,66704bff311674800ba0a876,,,,,,,,,,,,,,,,,,,,,,,,,,,,,,,,,,,,958.7446,964.7678,0,1,1,1,1,SoundStimuli/Irreplaceable_Beyonce_Cover5S.wav,,,,,,,,,,,,,,,,,,,,,,,,,,,,,,,,,,,,,,,,,,,,,,,,,,,,,,,,,
,,,,,910590,001,2024-06-17_10h47.05.026,experiment,2024.1.5,Win32,60.24096386,59cadb5f59b379000115128d,667045947eb812cbdacbf325,66704bff311674800ba0a876,,,,,,,,,,,,,,,,,,,,,,,,,,,,,,,,,,,,,,,,,,,,964.7681,969.3012,4.485275596,4.5091,0,17,17,19,1,song_indices/Irreplaceable_Beyonce.csv,,,,,,,,,,,,,,,,,,,,,,,,,,,,,,,,,,,,,,,,,,,,,,,
,,,,,910590,001,2024-06-17_10h47.05.026,experiment,2024.1.5,Win32,60.24096386,59cadb5f59b379000115128d,667045947eb812cbdacbf325,66704bff311674800ba0a876,,,,,,,,,,,,,,,,,,,,,,,,,,,,,,,,,,,,969.3057,975.6593,0,0,0,1,1,SoundStimuli/Kiss_Prince_Cover5S.wav,,,,,,,,,,,,,,,,,,,,,,,,,,,,,,,,,,,,,,,,,,,,,,,,,,,,,,,,,
,,,,,910590,001,2024-06-17_10h47.05.026,experiment,2024.1.5,Win32,60.24096386,59cadb5f59b379000115128d,667045947eb812cbdacbf325,66704bff311674800ba0a876,,,,,,,,,,,,,,,,,,,,,,,,,,,,,,,,,,,,975.6785,983.1467,0,1,1,0,1,SoundStimuli/Kiss_Prince_Original5S.wav,,,,,,,,,,,,,,,,,,,,,,,,,,,,,,,,,,,,,,,,,,,,,,,,,,,,,,,,,
,,,,,910590,001,2024-06-17_10h47.05.026,experiment,2024.1.5,Win32,60.24096386,59cadb5f59b379000115128d,667045947eb812cbdacbf325,66704bff311674800ba0a876,,,,,,,,,,,,,,,,,,,,,,,,,,,,,,,,,,,,,,,,,,,,983.1475,984.2476,1.068147801,1.081,0,18,18,14,1,song_indices/Kiss_Prince.csv,,,,,,,,,,,,,,,,,,,,,,,,,,,,,,,,,,,,,,,,,,,,,,,
,,,,,910590,001,2024-06-17_10h47.05.026,experiment,2024.1.5,Win32,60.24096386,59cadb5f59b379000115128d,667045947eb812cbdacbf325,66704bff311674800ba0a876,,,,,,,,,,,,,,,,,,,,,,,,,,,,,,,,,,,,984.2512,989.7593,0,0,0,1,1,SoundStimuli/HowDoILive_LeAnnRimes_Cover5S.wav,,,,,,,,,,,,,,,,,,,,,,,,,,,,,,,,,,,,,,,,,,,,,,,,,,,,,,,,,
,,,,,910590,001,2024-06-17_10h47.05.026,experiment,2024.1.5,Win32,60.24096386,59cadb5f59b379000115128d,667045947eb812cbdacbf325,66704bff311674800ba0a876,,,,,,,,,,,,,,,,,,,,,,,,,,,,,,,,,,,,989.7801,995.8108,0,1,1,0,1,SoundStimuli/HowDoILive_LeAnnRimes_Original5S.wav,,,,,,,,,,,,,,,,,,,,,,,,,,,,,,,,,,,,,,,,,,,,,,,,,,,,,,,,,
,,,,,910590,001,2024-06-17_10h47.05.026,experiment,2024.1.5,Win32,60.24096386,59cadb5f59b379000115128d,667045947eb812cbdacbf325,66704bff311674800ba0a876,,,,,,,,,,,,,,,,,,,,,,,,,,,,,,,,,,,,,,,,,,,,995.811,998.7643,6.16263268,2.9322,0,19,19,17,1,song_indices/HowDoILive_LeAnnRimes.csv,,,,,,,,,,,,,,,,,,,,,,,,,,,,,,,,,,,,,,,,,,,,,,,
,,,,,910590,001,2024-06-17_10h47.05.026,experiment,2024.1.5,Win32,60.24096386,59cadb5f59b379000115128d,667045947eb812cbdacbf325,66704bff311674800ba0a876,,,,,,,,,,,,,,,,,,,,,,,,,,,,,,,,,,,,998.7674,1005.2021,0,0,0,0,1,SoundStimuli/FlashdanceWhatAFeeling_IreneCara_Original5S.wav,,,,,,,,,,,,,,,,,,,,,,,,,,,,,,,,,,,,,,,,,,,,,,,,,,,,,,,,,
,,,,,910590,001,2024-06-17_10h47.05.026,experiment,2024.1.5,Win32,60.24096386,59cadb5f59b379000115128d,667045947eb812cbdacbf325,66704bff311674800ba0a876,,,,,,,,,,,,,,,,,,,,,,,,,,,,,,,,,,,,1005.2266,1012.4982,0,1,1,1,1,SoundStimuli/FlashdanceWhatAFeeling_IreneCara_Cover5S.wav,,,,,,,,,,,,,,,,,,,,,,,,,,,,,,,,,,,,,,,,,,,,,,,,,,,,,,,,,
,,,,,910590,001,2024-06-17_10h47.05.026,experiment,2024.1.5,Win32,60.24096386,59cadb5f59b379000115128d,667045947eb812cbdacbf325,66704bff311674800ba0a876,,,,,,,,,,,,,,,,,,,,,,,,,,,,,,,,,,,,,,,,,,,,1012.4985,1013.7619,6.217243883,1.2416,0,20,20,18,1,song_indices/FlashdanceWhatAFeeling_IreneCara.csv,,,,,,,,,,,,,,,,,,,,,,,,,,,,,,,,,,,,,,,,,,,,,,,
,,,,,910590,001,2024-06-17_10h47.05.026,experiment,2024.1.5,Win32,60.24096386,59cadb5f59b379000115128d,667045947eb812cbdacbf325,66704bff311674800ba0a876,,,,,,,,,,,,,,,,,,,,,,,,,,,,,,,,,,,,1013.7641,1020.543,0,0,0,0,1,SoundStimuli/BlurredLines_RobinThicke_Original5S.wav,,,,,,,,,,,,,,,,,,,,,,,,,,,,,,,,,,,,,,,,,,,,,,,,,,,,,,,,,
,,,,,910590,001,2024-06-17_10h47.05.026,experiment,2024.1.5,Win32,60.24096386,59cadb5f59b379000115128d,667045947eb812cbdacbf325,66704bff311674800ba0a876,,,,,,,,,,,,,,,,,,,,,,,,,,,,,,,,,,,,1020.5599,1027.7005,0,1,1,1,1,SoundStimuli/BlurredLines_RobinThicke_Cover5S.wav,,,,,,,,,,,,,,,,,,,,,,,,,,,,,,,,,,,,,,,,,,,,,,,,,,,,,,,,,
,,,,,910590,001,2024-06-17_10h47.05.026,experiment,2024.1.5,Win32,60.24096386,59cadb5f59b379000115128d,667045947eb812cbdacbf325,66704bff311674800ba0a876,,,,,,,,,,,,,,,,,,,,,,,,,,,,,,,,,,,,,,,,,,,,1027.7009,1030.8714,6.295260784,3.1506,0,21,21,9,1,song_indices/BlurredLines_RobinThicke.csv,,,,,,,,,,,,,,,,,,,,,,,,,,,,,,,,,,,,,,,,,,,,,,,
,,,,,910590,001,2024-06-17_10h47.05.026,experiment,2024.1.5,Win32,60.24096386,59cadb5f59b379000115128d,667045947eb812cbdacbf325,66704bff311674800ba0a876,,,,,,,,,,,,,,,,,,,,,,,,,,,,,,,,,,,,1030.8728,1037.0905,0,0,0,0,1,SoundStimuli/SaveYourTears_TheWeekndArianaGrande_Original5S.wav,,,,,,,,,,,,,,,,,,,,,,,,,,,,,,,,,,,,,,,,,,,,,,,,,,,,,,,,,
,,,,,910590,001,2024-06-17_10h47.05.026,experiment,2024.1.5,Win32,60.24096386,59cadb5f59b379000115128d,667045947eb812cbdacbf325,66704bff311674800ba0a876,,,,,,,,,,,,,,,,,,,,,,,,,,,,,,,,,,,,1037.1072,1042.9963,0,1,1,1,1,SoundStimuli/SaveYourTears_TheWeekndArianaGrande_Cover5S.wav,,,,,,,,,,,,,,,,,,,,,,,,,,,,,,,,,,,,,,,,,,,,,,,,,,,,,,,,,
,,,,,910590,001,2024-06-17_10h47.05.026,experiment,2024.1.5,Win32,60.24096386,59cadb5f59b379000115128d,667045947eb812cbdacbf325,66704bff311674800ba0a876,,,,,,,,,,,,,,,,,,,,,,,,,,,,,,,,,,,,,,,,,,,,1042.9975,1046.1297,5.452681291,3.1132,0,22,22,12,1,song_indices/SaveYourTears_TheWeekndArianaGrande.csv,,,,,,,,,,,,,,,,,,,,,,,,,,,,,,,,,,,,,,,,,,,,,,,
,,,,,910590,001,2024-06-17_10h47.05.026,experiment,2024.1.5,Win32,60.24096386,59cadb5f59b379000115128d,667045947eb812cbdacbf325,66704bff311674800ba0a876,,,,,,,,,,,,,,,,,,,,,,,,,,,,,,,,,,,,1046.1342,1051.4892,0,0,0,1,1,SoundStimuli/Superstition_StevieWonder_Cover5S.wav,,,,,,,,,,,,,,,,,,,,,,,,,,,,,,,,,,,,,,,,,,,,,,,,,,,,,,,,,
,,,,,910590,001,2024-06-17_10h47.05.026,experiment,2024.1.5,Win32,60.24096386,59cadb5f59b379000115128d,667045947eb812cbdacbf325,66704bff311674800ba0a876,,,,,,,,,,,,,,,,,,,,,,,,,,,,,,,,,,,,1051.5044,1057.6791,0,1,1,0,1,SoundStimuli/Superstition_StevieWonder_Original5S.wav,,,,,,,,,,,,,,,,,,,,,,,,,,,,,,,,,,,,,,,,,,,,,,,,,,,,,,,,,
,,,,,910590,001,2024-06-17_10h47.05.026,experiment,2024.1.5,Win32,60.24096386,59cadb5f59b379000115128d,667045947eb812cbdacbf325,66704bff311674800ba0a876,,,,,,,,,,,,,,,,,,,,,,,,,,,,,,,,,,,,,,,,,,,,1057.6796,1060.3094,4.516482147,2.6098,0,23,23,15,1,song_indices/Superstition_StevieWonder.csv,,,,,,,,,,,,,,,,,,,,,,,,,,,,,,,,,,,,,,,,,,,,,,,
,,,,,910590,001,2024-06-17_10h47.05.026,experiment,2024.1.5,Win32,60.24096386,59cadb5f59b379000115128d,667045947eb812cbdacbf325,66704bff311674800ba0a876,,,,,,,,,,,,,,,,,,,,,,,,,,,,,,,,,,,,,,,,,,,,,,,,,,,,,,1060.3095,1063.6945,space,3.3502,,0,1,1,2,1,choose_song_b3.csv,,,,,,,,,,,,,,,,,,,,,,,,,,,,,,,,,,,,
,,,,,910590,001,2024-06-17_10h47.05.026,experiment,2024.1.5,Win32,60.24096386,59cadb5f59b379000115128d,667045947eb812cbdacbf325,66704bff311674800ba0a876,,,,,,,,,,,,,,,,,,,,,,,,,,,,,,,,,,,,1063.7156,1070.1655,0,0,0,0,1,SoundStimuli/RockWithYou_MichaelJackson_Original5S.wav,,,,,,,,,,,,,,,,,,,,,,,,,,,,,,,,,,,,,,,,,,,,,,,,,,,,,,,,,
,,,,,910590,001,2024-06-17_10h47.05.026,experiment,2024.1.5,Win32,60.24096386,59cadb5f59b379000115128d,667045947eb812cbdacbf325,66704bff311674800ba0a876,,,,,,,,,,,,,,,,,,,,,,,,,,,,,,,,,,,,1070.1852,1076.2745,0,1,1,1,1,SoundStimuli/RockWithYou_MichaelJackson_Cover5S.wav,,,,,,,,,,,,,,,,,,,,,,,,,,,,,,,,,,,,,,,,,,,,,,,,,,,,,,,,,
,,,,,910590,001,2024-06-17_10h47.05.026,experiment,2024.1.5,Win32,60.24096386,59cadb5f59b379000115128d,667045947eb812cbdacbf325,66704bff311674800ba0a876,,,,,,,,,,,,,,,,,,,,,,,,,,,,,,,,,,,,,,,,,,,,1076.2748,1078.3828,4.134200589,2.0845,0,0,0,16,1,song_indices/RockWithYou_MichaelJackson.csv,,,,,,,,,,,,,,,,,,,,,,,,,,,,,,,,,,,,,,,,,,,,,,,
,,,,,910590,001,2024-06-17_10h47.05.026,experiment,2024.1.5,Win32,60.24096386,59cadb5f59b379000115128d,667045947eb812cbdacbf325,66704bff311674800ba0a876,,,,,,,,,,,,,,,,,,,,,,,,,,,,,,,,,,,,1078.3843,1084.93,0,0,0,0,1,SoundStimuli/ShapeofYou_EdSheeran_Original5S.wav,,,,,,,,,,,,,,,,,,,,,,,,,,,,,,,,,,,,,,,,,,,,,,,,,,,,,,,,,
,,,,,910590,001,2024-06-17_10h47.05.026,experiment,2024.1.5,Win32,60.24096386,59cadb5f59b379000115128d,667045947eb812cbdacbf325,66704bff311674800ba0a876,,,,,,,,,,,,,,,,,,,,,,,,,,,,,,,,,,,,1084.9506,1091.2929,0,1,1,1,1,SoundStimuli/ShapeofYou_EdSheeran_Cover5S.wav,,,,,,,,,,,,,,,,,,,,,,,,,,,,,,,,,,,,,,,,,,,,,,,,,,,,,,,,,
,,,,,910590,001,2024-06-17_10h47.05.026,experiment,2024.1.5,Win32,60.24096386,59cadb5f59b379000115128d,667045947eb812cbdacbf325,66704bff311674800ba0a876,,,,,,,,,,,,,,,,,,,,,,,,,,,,,,,,,,,,,,,,,,,,1091.2933,1093.9348,3.634894204,2.6251,0,1,1,21,1,song_indices/ShapeofYou_EdSheeran.csv,,,,,,,,,,,,,,,,,,,,,,,,,,,,,,,,,,,,,,,,,,,,,,,
,,,,,910590,001,2024-06-17_10h47.05.026,experiment,2024.1.5,Win32,60.24096386,59cadb5f59b379000115128d,667045947eb812cbdacbf325,66704bff311674800ba0a876,,,,,,,,,,,,,,,,,,,,,,,,,,,,,,,,,,,,1093.9378,1099.9216,0,0,0,0,1,SoundStimuli/StandByMe_BenEKing_Original5S.wav,,,,,,,,,,,,,,,,,,,,,,,,,,,,,,,,,,,,,,,,,,,,,,,,,,,,,,,,,
,,,,,910590,001,2024-06-17_10h47.05.026,experiment,2024.1.5,Win32,60.24096386,59cadb5f59b379000115128d,667045947eb812cbdacbf325,66704bff311674800ba0a876,,,,,,,,,,,,,,,,,,,,,,,,,,,,,,,,,,,,1099.9428,1106.0172,0,1,1,1,1,SoundStimuli/StandByMe_BenEKing_Cover5S.wav,,,,,,,,,,,,,,,,,,,,,,,,,,,,,,,,,,,,,,,,,,,,,,,,,,,,,,,,,
,,,,,910590,001,2024-06-17_10h47.05.026,experiment,2024.1.5,Win32,60.24096386,59cadb5f59b379000115128d,667045947eb812cbdacbf325,66704bff311674800ba0a876,,,,,,,,,,,,,,,,,,,,,,,,,,,,,,,,,,,,,,,,,,,,1106.0175,1108.2983,2.449041867,2.2551,0,2,2,1,1,song_indices/StandByMe_BenEKing.csv,,,,,,,,,,,,,,,,,,,,,,,,,,,,,,,,,,,,,,,,,,,,,,,
,,,,,910590,001,2024-06-17_10h47.05.026,experiment,2024.1.5,Win32,60.24096386,59cadb5f59b379000115128d,667045947eb812cbdacbf325,66704bff311674800ba0a876,,,,,,,,,,,,,,,,,,,,,,,,,,,,,,,,,,,,1108.3036,1114.8983,0,0,0,1,1,SoundStimuli/GetUrFreakOn_MissyElliot_Cover5S.wav,,,,,,,,,,,,,,,,,,,,,,,,,,,,,,,,,,,,,,,,,,,,,,,,,,,,,,,,,
,,,,,910590,001,2024-06-17_10h47.05.026,experiment,2024.1.5,Win32,60.24096386,59cadb5f59b379000115128d,667045947eb812cbdacbf325,66704bff311674800ba0a876,,,,,,,,,,,,,,,,,,,,,,,,,,,,,,,,,,,,1114.9156,1121.0646,0,1,1,0,1,SoundStimuli/GetUrFreakOn_MissyElliot_Original5S.wav,,,,,,,,,,,,,,,,,,,,,,,,,,,,,,,,,,,,,,,,,,,,,,,,,,,,,,,,,
,,,,,910590,001,2024-06-17_10h47.05.026,experiment,2024.1.5,Win32,60.24096386,59cadb5f59b379000115128d,667045947eb812cbdacbf325,66704bff311674800ba0a876,,,,,,,,,,,,,,,,,,,,,,,,,,,,,,,,,,,,,,,,,,,,1121.0648,1123.9055,4.212216966,2.8204,0,3,3,18,1,song_indices/GetUrFreakOn_MissyElliot.csv,,,,,,,,,,,,,,,,,,,,,,,,,,,,,,,,,,,,,,,,,,,,,,,
,,,,,910590,001,2024-06-17_10h47.05.026,experiment,2024.1.5,Win32,60.24096386,59cadb5f59b379000115128d,667045947eb812cbdacbf325,66704bff311674800ba0a876,,,,,,,,,,,,,,,,,,,,,,,,,,,,,,,,,,,,1123.9083,1129.9479,0,0,0,0,1,SoundStimuli/IWalkTheLine_JohnnyCash_Original5S.wav,,,,,,,,,,,,,,,,,,,,,,,,,,,,,,,,,,,,,,,,,,,,,,,,,,,,,,,,,
,,,,,910590,001,2024-06-17_10h47.05.026,experiment,2024.1.5,Win32,60.24096386,59cadb5f59b379000115128d,667045947eb812cbdacbf325,66704bff311674800ba0a876,,,,,,,,,,,,,,,,,,,,,,,,,,,,,,,,,,,,1129.9638,1137.1411,0,1,1,1,1,SoundStimuli/IWalkTheLine_JohnnyCash_Cover5S.wav,,,,,,,,,,,,,,,,,,,,,,,,,,,,,,,,,,,,,,,,,,,,,,,,,,,,,,,,,
,,,,,910590,001,2024-06-17_10h47.05.026,experiment,2024.1.5,Win32,60.24096386,59cadb5f59b379000115128d,667045947eb812cbdacbf325,66704bff311674800ba0a876,,,,,,,,,,,,,,,,,,,,,,,,,,,,,,,,,,,,,,,,,,,,1137.1414,1139.4657,5.101606808,2.3053,0,4,4,17,1,song_indices/IWalkTheLine_JohnnyCash.csv,,,,,,,,,,,,,,,,,,,,,,,,,,,,,,,,,,,,,,,,,,,,,,,
,,,,,910590,001,2024-06-17_10h47.05.026,experiment,2024.1.5,Win32,60.24096386,59cadb5f59b379000115128d,667045947eb812cbdacbf325,66704bff311674800ba0a876,,,,,,,,,,,,,,,,,,,,,,,,,,,,,,,,,,,,1139.4673,1145.833,0,0,0,0,1,SoundStimuli/ItsAllInTheGame_TommyEdwards_Original5S.wav,,,,,,,,,,,,,,,,,,,,,,,,,,,,,,,,,,,,,,,,,,,,,,,,,,,,,,,,,
,,,,,910590,001,2024-06-17_10h47.05.026,experiment,2024.1.5,Win32,60.24096386,59cadb5f59b379000115128d,667045947eb812cbdacbf325,66704bff311674800ba0a876,,,,,,,,,,,,,,,,,,,,,,,,,,,,,,,,,,,,1145.8516,1152.0841,0,1,1,1,1,SoundStimuli/ItsAllInTheGame_TommyEdwards_Cover5S.wav,,,,,,,,,,,,,,,,,,,,,,,,,,,,,,,,,,,,,,,,,,,,,,,,,,,,,,,,,
,,,,,910590,001,2024-06-17_10h47.05.026,experiment,2024.1.5,Win32,60.24096386,59cadb5f59b379000115128d,667045947eb812cbdacbf325,66704bff311674800ba0a876,,,,,,,,,,,,,,,,,,,,,,,,,,,,,,,,,,,,,,,,,,,,1152.0843,1153.7914,5.156217487,1.6854,0,5,5,13,1,song_indices/ItsAllInTheGame_TommyEdwards.csv,,,,,,,,,,,,,,,,,,,,,,,,,,,,,,,,,,,,,,,,,,,,,,,
,,,,,910590,001,2024-06-17_10h47.05.026,experiment,2024.1.5,Win32,60.24096386,59cadb5f59b379000115128d,667045947eb812cbdacbf325,66704bff311674800ba0a876,,,,,,,,,,,,,,,,,,,,,,,,,,,,,,,,,,,,1153.7932,1161.1783,0,0,0,0,1,SoundStimuli/Happy_PharellWilliams_Original5S.wav,,,,,,,,,,,,,,,,,,,,,,,,,,,,,,,,,,,,,,,,,,,,,,,,,,,,,,,,,
,,,,,910590,001,2024-06-17_10h47.05.026,experiment,2024.1.5,Win32,60.24096386,59cadb5f59b379000115128d,667045947eb812cbdacbf325,66704bff311674800ba0a876,,,,,,,,,,,,,,,,,,,,,,,,,,,,,,,,,,,,1161.1947,1168.5599,0,1,1,1,1,SoundStimuli/Happy_PharellWilliams_Cover5S.wav,,,,,,,,,,,,,,,,,,,,,,,,,,,,,,,,,,,,,,,,,,,,,,,,,,,,,,,,,
,,,,,910590,001,2024-06-17_10h47.05.026,experiment,2024.1.5,Win32,60.24096386,59cadb5f59b379000115128d,667045947eb812cbdacbf325,66704bff311674800ba0a876,,,,,,,,,,,,,,,,,,,,,,,,,,,,,,,,,,,,,,,,,,,,1168.5603,1171.0633,5.632119744,2.4833,0,6,6,7,1,song_indices/Happy_PharellWilliams.csv,,,,,,,,,,,,,,,,,,,,,,,,,,,,,,,,,,,,,,,,,,,,,,,
,,,,,910590,001,2024-06-17_10h47.05.026,experiment,2024.1.5,Win32,60.24096386,59cadb5f59b379000115128d,667045947eb812cbdacbf325,66704bff311674800ba0a876,,,,,,,,,,,,,,,,,,,,,,,,,,,,,,,,,,,,1171.0646,1177.8564,0,0,0,1,1,SoundStimuli/PartyRockAnthem_LMFAO_Cover5S.wav,,,,,,,,,,,,,,,,,,,,,,,,,,,,,,,,,,,,,,,,,,,,,,,,,,,,,,,,,
,,,,,910590,001,2024-06-17_10h47.05.026,experiment,2024.1.5,Win32,60.24096386,59cadb5f59b379000115128d,667045947eb812cbdacbf325,66704bff311674800ba0a876,,,,,,,,,,,,,,,,,,,,,,,,,,,,,,,,,,,,1177.8719,1184.6315,0,1,1,0,1,SoundStimuli/PartyRockAnthem_LMFAO_Original5S.wav,,,,,,,,,,,,,,,,,,,,,,,,,,,,,,,,,,,,,,,,,,,,,,,,,,,,,,,,,
,,,,,910590,001,2024-06-17_10h47.05.026,experiment,2024.1.5,Win32,60.24096386,59cadb5f59b379000115128d,667045947eb812cbdacbf325,66704bff311674800ba0a876,,,,,,,,,,,,,,,,,,,,,,,,,,,,,,,,,,,,,,,,,,,,1184.6318,1186.9407,5.632119744,2.2807,0,7,7,2,1,song_indices/PartyRockAnthem_LMFAO.csv,,,,,,,,,,,,,,,,,,,,,,,,,,,,,,,,,,,,,,,,,,,,,,,
,,,,,910590,001,2024-06-17_10h47.05.026,experiment,2024.1.5,Win32,60.24096386,59cadb5f59b379000115128d,667045947eb812cbdacbf325,66704bff311674800ba0a876,,,,,,,,,,,,,,,,,,,,,,,,,,,,,,,,,,,,1186.943,1193.365,0,0,0,0,1,SoundStimuli/IWillAlwaysLoveYou_WhitneyHouston_Original5S.wav,,,,,,,,,,,,,,,,,,,,,,,,,,,,,,,,,,,,,,,,,,,,,,,,,,,,,,,,,
,,,,,910590,001,2024-06-17_10h47.05.026,experiment,2024.1.5,Win32,60.24096386,59cadb5f59b379000115128d,667045947eb812cbdacbf325,66704bff311674800ba0a876,,,,,,,,,,,,,,,,,,,,,,,,,,,,,,,,,,,,1193.3806,1199.2696,0,1,1,1,1,SoundStimuli/IWillAlwaysLoveYou_WhitneyHouston_Cover5S.wav,,,,,,,,,,,,,,,,,,,,,,,,,,,,,,,,,,,,,,,,,,,,,,,,,,,,,,,,,
,,,,,910590,001,2024-06-17_10h47.05.026,experiment,2024.1.5,Win32,60.24096386,59cadb5f59b379000115128d,667045947eb812cbdacbf325,66704bff311674800ba0a876,,,,,,,,,,,,,,,,,,,,,,,,,,,,,,,,,,,,,,,,,,,,1199.2699,1201.9307,6.888186821,2.6374,0,8,8,10,1,song_indices/IWillAlwaysLoveYou_WhitneyHouston.csv,,,,,,,,,,,,,,,,,,,,,,,,,,,,,,,,,,,,,,,,,,,,,,,
,,,,,910590,001,2024-06-17_10h47.05.026,experiment,2024.1.5,Win32,60.24096386,59cadb5f59b379000115128d,667045947eb812cbdacbf325,66704bff311674800ba0a876,,,,,,,,,,,,,,,,,,,,,,,,,,,,,,,,,,,,1201.9324,1208.0459,0,0,0,0,1,SoundStimuli/Stronger_KanyeWest_Original5S.wav,,,,,,,,,,,,,,,,,,,,,,,,,,,,,,,,,,,,,,,,,,,,,,,,,,,,,,,,,
,,,,,910590,001,2024-06-17_10h47.05.026,experiment,2024.1.5,Win32,60.24096386,59cadb5f59b379000115128d,667045947eb812cbdacbf325,66704bff311674800ba0a876,,,,,,,,,,,,,,,,,,,,,,,,,,,,,,,,,,,,1208.0623,1214.4106,0,1,1,1,1,SoundStimuli/Stronger_KanyeWest_Cover5S.wav,,,,,,,,,,,,,,,,,,,,,,,,,,,,,,,,,,,,,,,,,,,,,,,,,,,,,,,,,
,,,,,910590,001,2024-06-17_10h47.05.026,experiment,2024.1.5,Win32,60.24096386,59cadb5f59b379000115128d,667045947eb812cbdacbf325,66704bff311674800ba0a876,,,,,,,,,,,,,,,,,,,,,,,,,,,,,,,,,,,,,,,,,,,,1214.4113,1215.4329,1.091552714,1.0013,0,9,9,9,1,song_indices/Stronger_KanyeWest.csv,,,,,,,,,,,,,,,,,,,,,,,,,,,,,,,,,,,,,,,,,,,,,,,
,,,,,910590,001,2024-06-17_10h47.05.026,experiment,2024.1.5,Win32,60.24096386,59cadb5f59b379000115128d,667045947eb812cbdacbf325,66704bff311674800ba0a876,,,,,,,,,,,,,,,,,,,,,,,,,,,,,,,,,,,,1215.4374,1221.6037,0,0,0,1,1,SoundStimuli/NoScrubs_TLC_Cover5S.wav,,,,,,,,,,,,,,,,,,,,,,,,,,,,,,,,,,,,,,,,,,,,,,,,,,,,,,,,,
,,,,,910590,001,2024-06-17_10h47.05.026,experiment,2024.1.5,Win32,60.24096386,59cadb5f59b379000115128d,667045947eb812cbdacbf325,66704bff311674800ba0a876,,,,,,,,,,,,,,,,,,,,,,,,,,,,,,,,,,,,1221.6194,1227.8205,0,1,1,0,1,SoundStimuli/NoScrubs_TLC_Original5S.wav,,,,,,,,,,,,,,,,,,,,,,,,,,,,,,,,,,,,,,,,,,,,,,,,,,,,,,,,,
,,,,,910590,001,2024-06-17_10h47.05.026,experiment,2024.1.5,Win32,60.24096386,59cadb5f59b379000115128d,667045947eb812cbdacbf325,66704bff311674800ba0a876,,,,,,,,,,,,,,,,,,,,,,,,,,,,,,,,,,,,,,,,,,,,1227.8207,1231.2944,4.711522304,3.4541,0,10,10,14,1,song_indices/NoScrubs_TLC.csv,,,,,,,,,,,,,,,,,,,,,,,,,,,,,,,,,,,,,,,,,,,,,,,
,,,,,910590,001,2024-06-17_10h47.05.026,experiment,2024.1.5,Win32,60.24096386,59cadb5f59b379000115128d,667045947eb812cbdacbf325,66704bff311674800ba0a876,,,,,,,,,,,,,,,,,,,,,,,,,,,,,,,,,,,,1231.2984,1239.0573,0,0,0,0,1,SoundStimuli/NoOne_AliciaKeys_Original5S.wav,,,,,,,,,,,,,,,,,,,,,,,,,,,,,,,,,,,,,,,,,,,,,,,,,,,,,,,,,
,,,,,910590,001,2024-06-17_10h47.05.026,experiment,2024.1.5,Win32,60.24096386,59cadb5f59b379000115128d,667045947eb812cbdacbf325,66704bff311674800ba0a876,,,,,,,,,,,,,,,,,,,,,,,,,,,,,,,,,,,,1239.0738,1245.3035,0,1,1,1,1,SoundStimuli/NoOne_AliciaKeys_Cover5S.wav,,,,,,,,,,,,,,,,,,,,,,,,,,,,,,,,,,,,,,,,,,,,,,,,,,,,,,,,,
,,,,,910590,001,2024-06-17_10h47.05.026,experiment,2024.1.5,Win32,60.24096386,59cadb5f59b379000115128d,667045947eb812cbdacbf325,66704bff311674800ba0a876,,,,,,,,,,,,,,,,,,,,,,,,,,,,,,,,,,,,,,,,,,,,1245.3039,1248.0789,3.143389718,2.7559,0,11,11,19,1,song_indices/NoOne_AliciaKeys.csv,,,,,,,,,,,,,,,,,,,,,,,,,,,,,,,,,,,,,,,,,,,,,,,
,,,,,910590,001,2024-06-17_10h47.05.026,experiment,2024.1.5,Win32,60.24096386,59cadb5f59b379000115128d,667045947eb812cbdacbf325,66704bff311674800ba0a876,,,,,,,,,,,,,,,,,,,,,,,,,,,,,,,,,,,,1248.0834,1255.3412,0,0,0,0,1,SoundStimuli/UptownFunk_MarkRonson_Original5S.wav,,,,,,,,,,,,,,,,,,,,,,,,,,,,,,,,,,,,,,,,,,,,,,,,,,,,,,,,,
,,,,,910590,001,2024-06-17_10h47.05.026,experiment,2024.1.5,Win32,60.24096386,59cadb5f59b379000115128d,667045947eb812cbdacbf325,66704bff311674800ba0a876,,,,,,,,,,,,,,,,,,,,,,,,,,,,,,,,,,,,1255.3584,1262.4107,0,1,1,1,1,SoundStimuli/UptownFunk_MarkRonson_Cover5S.wav,,,,,,,,,,,,,,,,,,,,,,,,,,,,,,,,,,,,,,,,,,,,,,,,,,,,,,,,,
,,,,,910590,001,2024-06-17_10h47.05.026,experiment,2024.1.5,Win32,60.24096386,59cadb5f59b379000115128d,667045947eb812cbdacbf325,66704bff311674800ba0a876,,,,,,,,,,,,,,,,,,,,,,,,,,,,,,,,,,,,,,,,,,,,1262.411,1264.7392,6.958401823,2.3106,0,12,12,15,1,song_indices/UptownFunk_MarkRonson.csv,,,,,,,,,,,,,,,,,,,,,,,,,,,,,,,,,,,,,,,,,,,,,,,
,,,,,910590,001,2024-06-17_10h47.05.026,experiment,2024.1.5,Win32,60.24096386,59cadb5f59b379000115128d,667045947eb812cbdacbf325,66704bff311674800ba0a876,,,,,,,,,,,,,,,,,,,,,,,,,,,,,,,,,,,,1264.7415,1271.1415,0,0,0,1,1,SoundStimuli/GoodGollyMissMolly_LittleRichard_Cover5S.wav,,,,,,,,,,,,,,,,,,,,,,,,,,,,,,,,,,,,,,,,,,,,,,,,,,,,,,,,,
,,,,,910590,001,2024-06-17_10h47.05.026,experiment,2024.1.5,Win32,60.24096386,59cadb5f59b379000115128d,667045947eb812cbdacbf325,66704bff311674800ba0a876,,,,,,,,,,,,,,,,,,,,,,,,,,,,,,,,,,,,1271.1587,1277.3116,0,1,1,0,1,SoundStimuli/GoodGollyMissMolly_LittleRichard_Original5S.wav,,,,,,,,,,,,,,,,,,,,,,,,,,,,,,,,,,,,,,,,,,,,,,,,,,,,,,,,,
,,,,,910590,001,2024-06-17_10h47.05.026,experiment,2024.1.5,Win32,60.24096386,59cadb5f59b379000115128d,667045947eb812cbdacbf325,66704bff311674800ba0a876,,,,,,,,,,,,,,,,,,,,,,,,,,,,,,,,,,,,,,,,,,,,1277.3122,1279.7006,4.898762657,2.3648,0,13,13,0,1,song_indices/GoodGollyMissMolly_LittleRichard.csv,,,,,,,,,,,,,,,,,,,,,,,,,,,,,,,,,,,,,,,,,,,,,,,
,,,,,910590,001,2024-06-17_10h47.05.026,experiment,2024.1.5,Win32,60.24096386,59cadb5f59b379000115128d,667045947eb812cbdacbf325,66704bff311674800ba0a876,,,,,,,,,,,,,,,,,,,,,,,,,,,,,,,,,,,,1279.7021,1285.3974,0,0,0,1,1,SoundStimuli/BetteDavisEyes_KimCarnes_Cover5S.wav,,,,,,,,,,,,,,,,,,,,,,,,,,,,,,,,,,,,,,,,,,,,,,,,,,,,,,,,,
,,,,,910590,001,2024-06-17_10h47.05.026,experiment,2024.1.5,Win32,60.24096386,59cadb5f59b379000115128d,667045947eb812cbdacbf325,66704bff311674800ba0a876,,,,,,,,,,,,,,,,,,,,,,,,,,,,,,,,,,,,1285.4132,1291.6399,0,1,1,0,1,SoundStimuli/BetteDavisEyes_KimCarnes_Original5S.wav,,,,,,,,,,,,,,,,,,,,,,,,,,,,,,,,,,,,,,,,,,,,,,,,,,,,,,,,,
,,,,,910590,001,2024-06-17_10h47.05.026,experiment,2024.1.5,Win32,60.24096386,59cadb5f59b379000115128d,667045947eb812cbdacbf325,66704bff311674800ba0a876,,,,,,,,,,,,,,,,,,,,,,,,,,,,,,,,,,,,,,,,,,,,1291.6402,1294.0017,5.257639563,2.3405,0,14,14,5,1,song_indices/BetteDavisEyes_KimCarnes.csv,,,,,,,,,,,,,,,,,,,,,,,,,,,,,,,,,,,,,,,,,,,,,,,
,,,,,910590,001,2024-06-17_10h47.05.026,experiment,2024.1.5,Win32,60.24096386,59cadb5f59b379000115128d,667045947eb812cbdacbf325,66704bff311674800ba0a876,,,,,,,,,,,,,,,,,,,,,,,,,,,,,,,,,,,,1294.0052,1300.4469,0,0,0,1,1,SoundStimuli/Fallin_AliciaKeys_Cover5S.wav,,,,,,,,,,,,,,,,,,,,,,,,,,,,,,,,,,,,,,,,,,,,,,,,,,,,,,,,,
,,,,,910590,001,2024-06-17_10h47.05.026,experiment,2024.1.5,Win32,60.24096386,59cadb5f59b379000115128d,667045947eb812cbdacbf325,66704bff311674800ba0a876,,,,,,,,,,,,,,,,,,,,,,,,,,,,,,,,,,,,1300.4638,1306.6857,0,1,1,0,1,SoundStimuli/Fallin_AliciaKeys_Original5S.wav,,,,,,,,,,,,,,,,,,,,,,,,,,,,,,,,,,,,,,,,,,,,,,,,,,,,,,,,,
,,,,,910590,001,2024-06-17_10h47.05.026,experiment,2024.1.5,Win32,60.24096386,59cadb5f59b379000115128d,667045947eb812cbdacbf325,66704bff311674800ba0a876,,,,,,,,,,,,,,,,,,,,,,,,,,,,,,,,,,,,,,,,,,,,1306.6862,1308.9403,5.717938021,2.235,0,15,15,12,1,song_indices/Fallin_AliciaKeys.csv,,,,,,,,,,,,,,,,,,,,,,,,,,,,,,,,,,,,,,,,,,,,,,,
,,,,,910590,001,2024-06-17_10h47.05.026,experiment,2024.1.5,Win32,60.24096386,59cadb5f59b379000115128d,667045947eb812cbdacbf325,66704bff311674800ba0a876,,,,,,,,,,,,,,,,,,,,,,,,,,,,,,,,,,,,1308.9426,1314.9217,0,0,0,1,1,SoundStimuli/TheBoyIsMine_BrandyMonica_Cover5S.wav,,,,,,,,,,,,,,,,,,,,,,,,,,,,,,,,,,,,,,,,,,,,,,,,,,,,,,,,,
,,,,,910590,001,2024-06-17_10h47.05.026,experiment,2024.1.5,Win32,60.24096386,59cadb5f59b379000115128d,667045947eb812cbdacbf325,66704bff311674800ba0a876,,,,,,,,,,,,,,,,,,,,,,,,,,,,,,,,,,,,1314.9405,1321.1965,0,1,1,0,1,SoundStimuli/TheBoyIsMine_BrandyMonica_Original5S.wav,,,,,,,,,,,,,,,,,,,,,,,,,,,,,,,,,,,,,,,,,,,,,,,,,,,,,,,,,
,,,,,910590,001,2024-06-17_10h47.05.026,experiment,2024.1.5,Win32,60.24096386,59cadb5f59b379000115128d,667045947eb812cbdacbf325,66704bff311674800ba0a876,,,,,,,,,,,,,,,,,,,,,,,,,,,,,,,,,,,,,,,,,,,,1321.1969,1323.0807,6.646335266,1.8648,0,16,16,6,1,song_indices/TheBoyIsMine_BrandyMonica.csv,,,,,,,,,,,,,,,,,,,,,,,,,,,,,,,,,,,,,,,,,,,,,,,
,,,,,910590,001,2024-06-17_10h47.05.026,experiment,2024.1.5,Win32,60.24096386,59cadb5f59b379000115128d,667045947eb812cbdacbf325,66704bff311674800ba0a876,,,,,,,,,,,,,,,,,,,,,,,,,,,,,,,,,,,,1323.0823,1332.0644,0,0,0,1,1,SoundStimuli/HeyYa_Outkast_Cover5S.wav,,,,,,,,,,,,,,,,,,,,,,,,,,,,,,,,,,,,,,,,,,,,,,,,,,,,,,,,,
,,,,,910590,001,2024-06-17_10h47.05.026,experiment,2024.1.5,Win32,60.24096386,59cadb5f59b379000115128d,667045947eb812cbdacbf325,66704bff311674800ba0a876,,,,,,,,,,,,,,,,,,,,,,,,,,,,,,,,,,,,1332.08,1338.4278,0,1,1,0,1,SoundStimuli/HeyYa_Outkast_Original5S.wav,,,,,,,,,,,,,,,,,,,,,,,,,,,,,,,,,,,,,,,,,,,,,,,,,,,,,,,,,
,,,,,910590,001,2024-06-17_10h47.05.026,experiment,2024.1.5,Win32,60.24096386,59cadb5f59b379000115128d,667045947eb812cbdacbf325,66704bff311674800ba0a876,,,,,,,,,,,,,,,,,,,,,,,,,,,,,,,,,,,,,,,,,,,,1338.428,1340.1125,2.152578586,1.6645,0,17,17,22,1,song_indices/HeyYa_Outkast.csv,,,,,,,,,,,,,,,,,,,,,,,,,,,,,,,,,,,,,,,,,,,,,,,
,,,,,910590,001,2024-06-17_10h47.05.026,experiment,2024.1.5,Win32,60.24096386,59cadb5f59b379000115128d,667045947eb812cbdacbf325,66704bff311674800ba0a876,,,,,,,,,,,,,,,,,,,,,,,,,,,,,,,,,,,,1340.1154,1346.355,0,0,0,0,1,SoundStimuli/TheBattleOfNewOrleans_JohnnyHorton_Original5S.wav,,,,,,,,,,,,,,,,,,,,,,,,,,,,,,,,,,,,,,,,,,,,,,,,,,,,,,,,,
,,,,,910590,001,2024-06-17_10h47.05.026,experiment,2024.1.5,Win32,60.24096386,59cadb5f59b379000115128d,667045947eb812cbdacbf325,66704bff311674800ba0a876,,,,,,,,,,,,,,,,,,,,,,,,,,,,,,,,,,,,1346.371,1354.4287,0,1,1,1,1,SoundStimuli/TheBattleOfNewOrleans_JohnnyHorton_Cover5S.wav,,,,,,,,,,,,,,,,,,,,,,,,,,,,,,,,,,,,,,,,,,,,,,,,,,,,,,,,,
,,,,,910590,001,2024-06-17_10h47.05.026,experiment,2024.1.5,Win32,60.24096386,59cadb5f59b379000115128d,667045947eb812cbdacbf325,66704bff311674800ba0a876,,,,,,,,,,,,,,,,,,,,,,,,,,,,,,,,,,,,,,,,,,,,1354.4289,1356.8785,4.188812315,2.4289,0,18,18,4,1,song_indices/TheBattleOfNewOrleans_JohnnyHorton.csv,,,,,,,,,,,,,,,,,,,,,,,,,,,,,,,,,,,,,,,,,,,,,,,
,,,,,910590,001,2024-06-17_10h47.05.026,experiment,2024.1.5,Win32,60.24096386,59cadb5f59b379000115128d,667045947eb812cbdacbf325,66704bff311674800ba0a876,,,,,,,,,,,,,,,,,,,,,,,,,,,,,,,,,,,,1356.8817,1362.6544,0,0,0,1,1,SoundStimuli/SmellsLikeTeenSpirit_Nirvana_Cover5S.wav,,,,,,,,,,,,,,,,,,,,,,,,,,,,,,,,,,,,,,,,,,,,,,,,,,,,,,,,,
,,,,,910590,001,2024-06-17_10h47.05.026,experiment,2024.1.5,Win32,60.24096386,59cadb5f59b379000115128d,667045947eb812cbdacbf325,66704bff311674800ba0a876,,,,,,,,,,,,,,,,,,,,,,,,,,,,,,,,,,,,1362.6555,1368.8995,0,1,1,0,1,SoundStimuli/SmellsLikeTeenSpirit_Nirvana_Original5S.wav,,,,,,,,,,,,,,,,,,,,,,,,,,,,,,,,,,,,,,,,,,,,,,,,,,,,,,,,,
,,,,,910590,001,2024-06-17_10h47.05.026,experiment,2024.1.5,Win32,60.24096386,59cadb5f59b379000115128d,667045947eb812cbdacbf325,66704bff311674800ba0a876,,,,,,,,,,,,,,,,,,,,,,,,,,,,,,,,,,,,,,,,,,,,1368.8997,1369.9098,6.661939066,0.9874,0,19,19,8,1,song_indices/SmellsLikeTeenSpirit_Nirvana.csv,,,,,,,,,,,,,,,,,,,,,,,,,,,,,,,,,,,,,,,,,,,,,,,
,,,,,910590,001,2024-06-17_10h47.05.026,experiment,2024.1.5,Win32,60.24096386,59cadb5f59b379000115128d,667045947eb812cbdacbf325,66704bff311674800ba0a876,,,,,,,,,,,,,,,,,,,,,,,,,,,,,,,,,,,,1369.9141,1376.1562,0,0,0,1,1,SoundStimuli/GimmeShelter_RollingStones_Cover5S.wav,,,,,,,,,,,,,,,,,,,,,,,,,,,,,,,,,,,,,,,,,,,,,,,,,,,,,,,,,
,,,,,910590,001,2024-06-17_10h47.05.026,experiment,2024.1.5,Win32,60.24096386,59cadb5f59b379000115128d,667045947eb812cbdacbf325,66704bff311674800ba0a876,,,,,,,,,,,,,,,,,,,,,,,,,,,,,,,,,,,,1376.1732,1382.269,0,1,1,0,1,SoundStimuli/GimmeShelter_RollingStones_Original5S.wav,,,,,,,,,,,,,,,,,,,,,,,,,,,,,,,,,,,,,,,,,,,,,,,,,,,,,,,,,
,,,,,910590,001,2024-06-17_10h47.05.026,experiment,2024.1.5,Win32,60.24096386,59cadb5f59b379000115128d,667045947eb812cbdacbf325,66704bff311674800ba0a876,,,,,,,,,,,,,,,,,,,,,,,,,,,,,,,,,,,,,,,,,,,,1382.2696,1383.1304,4.937771631,0.8396,0,20,20,20,1,song_indices/GimmeShelter_RollingStones.csv,,,,,,,,,,,,,,,,,,,,,,,,,,,,,,,,,,,,,,,,,,,,,,,
,,,,,910590,001,2024-06-17_10h47.05.026,experiment,2024.1.5,Win32,60.24096386,59cadb5f59b379000115128d,667045947eb812cbdacbf325,66704bff311674800ba0a876,,,,,,,,,,,,,,,,,,,,,,,,,,,,,,,,,,,,1383.133,1389.0703,0,0,0,0,1,SoundStimuli/EyeOfTheTiger_Survivor_Original5S.wav,,,,,,,,,,,,,,,,,,,,,,,,,,,,,,,,,,,,,,,,,,,,,,,,,,,,,,,,,
,,,,,910590,001,2024-06-17_10h47.05.026,experiment,2024.1.5,Win32,60.24096386,59cadb5f59b379000115128d,667045947eb812cbdacbf325,66704bff311674800ba0a876,,,,,,,,,,,,,,,,,,,,,,,,,,,,,,,,,,,,1389.0861,1395.237,0,1,1,1,1,SoundStimuli/EyeOfTheTiger_Survivor_Cover5S.wav,,,,,,,,,,,,,,,,,,,,,,,,,,,,,,,,,,,,,,,,,,,,,,,,,,,,,,,,,
,,,,,910590,001,2024-06-17_10h47.05.026,experiment,2024.1.5,Win32,60.24096386,59cadb5f59b379000115128d,667045947eb812cbdacbf325,66704bff311674800ba0a876,,,,,,,,,,,,,,,,,,,,,,,,,,,,,,,,,,,,,,,,,,,,1395.2406,1396.7312,4.368249721,1.4743,0,21,21,11,1,song_indices/EyeOfTheTiger_Survivor.csv,,,,,,,,,,,,,,,,,,,,,,,,,,,,,,,,,,,,,,,,,,,,,,,
,,,,,910590,001,2024-06-17_10h47.05.026,experiment,2024.1.5,Win32,60.24096386,59cadb5f59b379000115128d,667045947eb812cbdacbf325,66704bff311674800ba0a876,,,,,,,,,,,,,,,,,,,,,,,,,,,,,,,,,,,,1396.7332,1406.9893,0,0,0,1,1,SoundStimuli/CrazyInLove_BeyonceFtJayZ_Cover5S.wav,,,,,,,,,,,,,,,,,,,,,,,,,,,,,,,,,,,,,,,,,,,,,,,,,,,,,,,,,
,,,,,910590,001,2024-06-17_10h47.05.026,experiment,2024.1.5,Win32,60.24096386,59cadb5f59b379000115128d,667045947eb812cbdacbf325,66704bff311674800ba0a876,,,,,,,,,,,,,,,,,,,,,,,,,,,,,,,,,,,,1407.0068,1413.6017,0,1,1,0,1,SoundStimuli/CrazyInLove_BeyonceFtJayZ_Original5S.wav,,,,,,,,,,,,,,,,,,,,,,,,,,,,,,,,,,,,,,,,,,,,,,,,,,,,,,,,,
,,,,,910590,001,2024-06-17_10h47.05.026,experiment,2024.1.5,Win32,60.24096386,59cadb5f59b379000115128d,667045947eb812cbdacbf325,66704bff311674800ba0a876,,,,,,,,,,,,,,,,,,,,,,,,,,,,,,,,,,,,,,,,,,,,1413.6019,1416.5514,3.658299379,2.9269,0,22,22,3,1,song_indices/CrazyInLove_BeyonceFtJayZ.csv,,,,,,,,,,,,,,,,,,,,,,,,,,,,,,,,,,,,,,,,,,,,,,,
,,,,,910590,001,2024-06-17_10h47.05.026,experiment,2024.1.5,Win32,60.24096386,59cadb5f59b379000115128d,667045947eb812cbdacbf325,66704bff311674800ba0a876,,,,,,,,,,,,,,,,,,,,,,,,,,,,,,,,,,,,,,,,,,,,,,,,,,,,,,1416.5521,1416.5524,,,,0,2,2,1,1,choose_song_b2.csv,,,,,,,,,,,,,,,,,,,,,,,,,,,,,,,,,,,,
,,,,,910590,001,2024-06-17_10h47.05.026,experiment,2024.1.5,Win32,60.24096386,59cadb5f59b379000115128d,667045947eb812cbdacbf325,66704bff311674800ba0a876,,,,,,,,,,,,,,,,,,,,,,,,,,,,,,,,,,,,,,,,,,,,,,,,,,,,,,,,,,,,,,,,,52,Item 2,"In high school, I took voice lessons for one term and I was in the chorus for one year (maybe half a year). I participated in one concert performance. Otherwise, I listen to music non-stop most days and I enjoy live musical performances.
",Item 6,Mostly youtube and youtubeMusic,5,6,Sometimes,Often,Rarely,Never,Sometimes,Sometimes,Never,Often,Rarely,Never,Rarely,Rarely,Rarely,Rarely,Rarely,Rarely,Instrumental?,R & B,Jazz,World,"I listen to less new stuff than I have in the past. As a youth, I'd say 75% of the music I listened to was new to me. Now, I'd say that number is more like 10-15% of my music is new to me.","I really listen to music when I am awake. It doesn't matter if I'm cooking, reading, working, I am listening to music unless I am actively watching visual media. Sometimes, I'm listening to music then too.",0,0,0,0,1,,
,,,,,910590,001,2024-06-17_10h47.05.026,experiment,2024.1.5,Win32,60.24096386,59cadb5f59b379000115128d,667045947eb812cbdacbf325,66704bff311674800ba0a876,,,,,,,,,,,,,,,,,,,,,,,,,,,,,,,,,,,,,,,,,,,,,,,,,,,,,,,,,,,,,,,,,,,,,,,,,,,,,,,,,,,,,,,,,,,,,,,,,,,1768.7396,1770.9908
