welcome.started,welcome.stopped,space_to_continue.keys,space_to_continue.rt,space_to_continue.duration,participant,session,date,expName,psychopyVersion,OS,frameRate,PROLIFIC_PID,STUDY_ID,SESSION_ID,consent.consent,consent_check.started,consent_check.stopped,calibration_ready.started,calibration_ready.stopped,cal_ready.keys,cal_ready.rt,cal_ready.duration,calibration.started,calibration.stopped,mouse.x,mouse.y,mouse.leftButton,mouse.midButton,mouse.rightButton,mouse.time,mouse.clicked_name,move_on.keys,move_on.rt,move_on.duration,instructions.started,instructions.stopped,next.keys,next.rt,next.duration,practice_trial.started,practice_trial.stopped,practice_slider.response,practice_slider.rt,ready.started,ready.stopped,key_resp.keys,key_resp.rt,key_resp.duration,play_sound.started,play_sound.stopped,trials.thisRepN,trials.thisTrialN,trials.thisN,trials.thisIndex,trials.ran,orig_or_cover,rating.started,rating.stopped,slider.response,slider.rt,songs.thisRepN,songs.thisTrialN,songs.thisN,songs.thisIndex,songs.ran,song_id,short_break.started,short_break.stopped,space_to_move_on.keys,space_to_move_on.rt,space_to_move_on.duration,blocks.thisRepN,blocks.thisTrialN,blocks.thisN,blocks.thisIndex,blocks.ran,block,survey.age,survey.musician,survey.music_making,survey.listen_time,survey.medium,survey.music_seeking,survey.music_choice,survey.activities,survey.question1.Classical,survey.question1.Reggae,survey.question1.Alternative rock,survey.question1.Disco,survey.question1.Metal,survey.question1.Latin,survey.question1.Pop,survey.question1.A cappella,survey.question1.Jazz,survey.question1.Folk/indie,survey.question1.Hip hop,survey.question1.Country,survey.question1.Electronic (EDM),survey.question1.Classic rock,survey.question1.R&B,survey.question1.Ambient,survey.genres_ranked.text1,survey.genres_ranked.text2,survey.genres_ranked.text3,survey.habit_change,survey.habits,experiment.thisRepN,experiment.thisTrialN,experiment.thisN,experiment.thisIndex,experiment.ran,goodbye.started,goodbye.stopped
0.0004,1.9396,space,1.9032,,969945,001,2024-06-17_09h54.27.305,experiment,2024.1.5,Win32,59.88023952,65abf2d64c8491a1bb904917,667045947eb812cbdacbf325,66704d31324eb1dc5ca970aa,,,,,,,,,,,,,,,,,,,,,,,,,,,,,,,,,,,,,,,,,,,,,,,,,,,,,,,,,,,,,,,,,,,,,,,,,,,,,,,,,,,,,,,,,,,,,,,,,,,
,,,,,969945,001,2024-06-17_09h54.27.305,experiment,2024.1.5,Win32,59.88023952,65abf2d64c8491a1bb904917,667045947eb812cbdacbf325,66704d31324eb1dc5ca970aa,yes,,,,,,,,,,,,,,,,,,,,,,,,,,,,,,,,,,,,,,,,,,,,,,,,,,,,,,,,,,,,,,,,,,,,,,,,,,,,,,,,,,,,,,,,,,,,,,,,,,
,,,,,969945,001,2024-06-17_09h54.27.305,experiment,2024.1.5,Win32,59.88023952,65abf2d64c8491a1bb904917,667045947eb812cbdacbf325,66704d31324eb1dc5ca970aa,,33.473,33.4736,,,,,,,,,,,,,,,,,,,,,,,,,,,,,,,,,,,,,,,,,,,,,,,,,,,,,,,,,,,,,,,,,,,,,,,,,,,,,,,,,,,,,,,,,,,,,,,,
,,,,,969945,001,2024-06-17_09h54.27.305,experiment,2024.1.5,Win32,59.88023952,65abf2d64c8491a1bb904917,667045947eb812cbdacbf325,66704d31324eb1dc5ca970aa,,,,33.4803,39.6026,space,6.0148,,39.6034,55.9062,[],[],[],[],[],[],[],right,6.2677,,55.9707,71.3953,space,15.3692,,71.3963,86.4768,5.920000203,15.0725,86.4778,89.2686,space,2.7709,,89.3765,95.531,0,0,0,0,1,SoundStimuli/LikeARollingStone_BobDylan_Original5S.wav,,,,,,,,,,,,,,,,,,,,,,,,,,,,,,,,,,,,,,,,,,,,,,,,,,,,,,,,,
,,,,,969945,001,2024-06-17_09h54.27.305,experiment,2024.1.5,Win32,59.88023952,65abf2d64c8491a1bb904917,667045947eb812cbdacbf325,66704d31324eb1dc5ca970aa,,,,,,,,,,,,,,,,,,,,,,,,,,,,,,,,,,,95.607,100.0031,0,1,1,1,1,SoundStimuli/LikeARollingStone_BobDylan_Cover5S.wav,,,,,,,,,,,,,,,,,,,,,,,,,,,,,,,,,,,,,,,,,,,,,,,,,,,,,,,,,
,,,,,969945,001,2024-06-17_09h54.27.305,experiment,2024.1.5,Win32,59.88023952,65abf2d64c8491a1bb904917,667045947eb812cbdacbf325,66704d31324eb1dc5ca970aa,,,,,,,,,,,,,,,,,,,,,,,,,,,,,,,,,,,,,,,,,,,100.0732,102.0065,2.603333282,1.9259,0,0,0,12,1,song_indices/LikeARollingStone_BobDylan.csv,,,,,,,,,,,,,,,,,,,,,,,,,,,,,,,,,,,,,,,,,,,,,,,
,,,,,969945,001,2024-06-17_09h54.27.305,experiment,2024.1.5,Win32,59.88023952,65abf2d64c8491a1bb904917,667045947eb812cbdacbf325,66704d31324eb1dc5ca970aa,,,,,,,,,,,,,,,,,,,,,,,,,,,,,,,,,,,102.0133,108.3497,0,0,0,0,1,SoundStimuli/EndlessLove_DianaRossLionelRichie_Original5S.wav,,,,,,,,,,,,,,,,,,,,,,,,,,,,,,,,,,,,,,,,,,,,,,,,,,,,,,,,,
,,,,,969945,001,2024-06-17_09h54.27.305,experiment,2024.1.5,Win32,59.88023952,65abf2d64c8491a1bb904917,667045947eb812cbdacbf325,66704d31324eb1dc5ca970aa,,,,,,,,,,,,,,,,,,,,,,,,,,,,,,,,,,,108.4198,115.9346,0,1,1,1,1,SoundStimuli/EndlessLove_DianaRossLionelRichie_Cover5S.wav,,,,,,,,,,,,,,,,,,,,,,,,,,,,,,,,,,,,,,,,,,,,,,,,,,,,,,,,,
,,,,,969945,001,2024-06-17_09h54.27.305,experiment,2024.1.5,Win32,59.88023952,65abf2d64c8491a1bb904917,667045947eb812cbdacbf325,66704d31324eb1dc5ca970aa,,,,,,,,,,,,,,,,,,,,,,,,,,,,,,,,,,,,,,,,,,,115.9352,117.5779,2.666666667,1.5852,0,1,1,3,1,song_indices/EndlessLove_DianaRossLionelRichie.csv,,,,,,,,,,,,,,,,,,,,,,,,,,,,,,,,,,,,,,,,,,,,,,,
,,,,,969945,001,2024-06-17_09h54.27.305,experiment,2024.1.5,Win32,59.88023952,65abf2d64c8491a1bb904917,667045947eb812cbdacbf325,66704d31324eb1dc5ca970aa,,,,,,,,,,,,,,,,,,,,,,,,,,,,,,,,,,,117.5822,122.295,0,0,0,1,1,SoundStimuli/AChangeIsGonnaCome_SamCooke_Cover5S.wav,,,,,,,,,,,,,,,,,,,,,,,,,,,,,,,,,,,,,,,,,,,,,,,,,,,,,,,,,
,,,,,969945,001,2024-06-17_09h54.27.305,experiment,2024.1.5,Win32,59.88023952,65abf2d64c8491a1bb904917,667045947eb812cbdacbf325,66704d31324eb1dc5ca970aa,,,,,,,,,,,,,,,,,,,,,,,,,,,,,,,,,,,122.3632,128.4042,0,1,1,0,1,SoundStimuli/AChangeIsGonnaCome_SamCooke_Original5S.wav,,,,,,,,,,,,,,,,,,,,,,,,,,,,,,,,,,,,,,,,,,,,,,,,,,,,,,,,,
,,,,,969945,001,2024-06-17_09h54.27.305,experiment,2024.1.5,Win32,59.88023952,65abf2d64c8491a1bb904917,667045947eb812cbdacbf325,66704d31324eb1dc5ca970aa,,,,,,,,,,,,,,,,,,,,,,,,,,,,,,,,,,,,,,,,,,,128.4052,130.2671,4.55,1.7742,0,2,2,17,1,song_indices/AChangeIsGonnaCome_SamCooke.csv,,,,,,,,,,,,,,,,,,,,,,,,,,,,,,,,,,,,,,,,,,,,,,,
,,,,,969945,001,2024-06-17_09h54.27.305,experiment,2024.1.5,Win32,59.88023952,65abf2d64c8491a1bb904917,667045947eb812cbdacbf325,66704d31324eb1dc5ca970aa,,,,,,,,,,,,,,,,,,,,,,,,,,,,,,,,,,,130.2711,136.8257,0,0,0,0,1,SoundStimuli/Despacito_LuisFonsiDaddyYankee_Original5S.wav,,,,,,,,,,,,,,,,,,,,,,,,,,,,,,,,,,,,,,,,,,,,,,,,,,,,,,,,,
,,,,,969945,001,2024-06-17_09h54.27.305,experiment,2024.1.5,Win32,59.88023952,65abf2d64c8491a1bb904917,667045947eb812cbdacbf325,66704d31324eb1dc5ca970aa,,,,,,,,,,,,,,,,,,,,,,,,,,,,,,,,,,,136.8996,143.4899,0,1,1,1,1,SoundStimuli/Despacito_LuisFonsiDaddyYankee_Cover5S.wav,,,,,,,,,,,,,,,,,,,,,,,,,,,,,,,,,,,,,,,,,,,,,,,,,,,,,,,,,
,,,,,969945,001,2024-06-17_09h54.27.305,experiment,2024.1.5,Win32,59.88023952,65abf2d64c8491a1bb904917,667045947eb812cbdacbf325,66704d31324eb1dc5ca970aa,,,,,,,,,,,,,,,,,,,,,,,,,,,,,,,,,,,,,,,,,,,143.4905,144.9704,5.326666768,1.4137,0,3,3,11,1,song_indices/Despacito_LuisFonsiDaddyYankee.csv,,,,,,,,,,,,,,,,,,,,,,,,,,,,,,,,,,,,,,,,,,,,,,,
,,,,,969945,001,2024-06-17_09h54.27.305,experiment,2024.1.5,Win32,59.88023952,65abf2d64c8491a1bb904917,667045947eb812cbdacbf325,66704d31324eb1dc5ca970aa,,,,,,,,,,,,,,,,,,,,,,,,,,,,,,,,,,,144.9732,151.1313,0,0,0,0,1,SoundStimuli/MackTheKnife_BobbyDarin_Original5S.wav,,,,,,,,,,,,,,,,,,,,,,,,,,,,,,,,,,,,,,,,,,,,,,,,,,,,,,,,,
,,,,,969945,001,2024-06-17_09h54.27.305,experiment,2024.1.5,Win32,59.88023952,65abf2d64c8491a1bb904917,667045947eb812cbdacbf325,66704d31324eb1dc5ca970aa,,,,,,,,,,,,,,,,,,,,,,,,,,,,,,,,,,,151.2043,157.4629,0,1,1,1,1,SoundStimuli/MackTheKnife_BobbyDarin_Cover5S.wav,,,,,,,,,,,,,,,,,,,,,,,,,,,,,,,,,,,,,,,,,,,,,,,,,,,,,,,,,
,,,,,969945,001,2024-06-17_09h54.27.305,experiment,2024.1.5,Win32,59.88023952,65abf2d64c8491a1bb904917,667045947eb812cbdacbf325,66704d31324eb1dc5ca970aa,,,,,,,,,,,,,,,,,,,,,,,,,,,,,,,,,,,,,,,,,,,157.4639,159.2081,1.013333384,1.6648,0,4,4,21,1,song_indices/MackTheKnife_BobbyDarin.csv,,,,,,,,,,,,,,,,,,,,,,,,,,,,,,,,,,,,,,,,,,,,,,,
,,,,,969945,001,2024-06-17_09h54.27.305,experiment,2024.1.5,Win32,59.88023952,65abf2d64c8491a1bb904917,667045947eb812cbdacbf325,66704d31324eb1dc5ca970aa,,,,,,,,,,,,,,,,,,,,,,,,,,,,,,,,,,,159.2136,165.4028,0,0,0,0,1,SoundStimuli/LikeAPrayer_Madonna_Original5S.wav,,,,,,,,,,,,,,,,,,,,,,,,,,,,,,,,,,,,,,,,,,,,,,,,,,,,,,,,,
,,,,,969945,001,2024-06-17_09h54.27.305,experiment,2024.1.5,Win32,59.88023952,65abf2d64c8491a1bb904917,667045947eb812cbdacbf325,66704d31324eb1dc5ca970aa,,,,,,,,,,,,,,,,,,,,,,,,,,,,,,,,,,,165.4809,171.6862,0,1,1,1,1,SoundStimuli/LikeAPrayer_Madonna_Cover5S.wav,,,,,,,,,,,,,,,,,,,,,,,,,,,,,,,,,,,,,,,,,,,,,,,,,,,,,,,,,
,,,,,969945,001,2024-06-17_09h54.27.305,experiment,2024.1.5,Win32,59.88023952,65abf2d64c8491a1bb904917,667045947eb812cbdacbf325,66704d31324eb1dc5ca970aa,,,,,,,,,,,,,,,,,,,,,,,,,,,,,,,,,,,,,,,,,,,171.6871,172.5446,6.520000203,0.7782,0,5,5,7,1,song_indices/LikeAPrayer_Madonna.csv,,,,,,,,,,,,,,,,,,,,,,,,,,,,,,,,,,,,,,,,,,,,,,,
,,,,,969945,001,2024-06-17_09h54.27.305,experiment,2024.1.5,Win32,59.88023952,65abf2d64c8491a1bb904917,667045947eb812cbdacbf325,66704d31324eb1dc5ca970aa,,,,,,,,,,,,,,,,,,,,,,,,,,,,,,,,,,,172.5485,178.6893,0,0,0,1,1,SoundStimuli/Smooth_SantanaRobThomas_Cover5S.wav,,,,,,,,,,,,,,,,,,,,,,,,,,,,,,,,,,,,,,,,,,,,,,,,,,,,,,,,,
,,,,,969945,001,2024-06-17_09h54.27.305,experiment,2024.1.5,Win32,59.88023952,65abf2d64c8491a1bb904917,667045947eb812cbdacbf325,66704d31324eb1dc5ca970aa,,,,,,,,,,,,,,,,,,,,,,,,,,,,,,,,,,,178.7649,184.9733,0,1,1,0,1,SoundStimuli/Smooth_SantanaRobThomas_Original5S.wav,,,,,,,,,,,,,,,,,,,,,,,,,,,,,,,,,,,,,,,,,,,,,,,,,,,,,,,,,
,,,,,969945,001,2024-06-17_09h54.27.305,experiment,2024.1.5,Win32,59.88023952,65abf2d64c8491a1bb904917,667045947eb812cbdacbf325,66704d31324eb1dc5ca970aa,,,,,,,,,,,,,,,,,,,,,,,,,,,,,,,,,,,,,,,,,,,184.9739,185.9159,6.030000305,0.8233,0,6,6,4,1,song_indices/Smooth_SantanaRobThomas.csv,,,,,,,,,,,,,,,,,,,,,,,,,,,,,,,,,,,,,,,,,,,,,,,
,,,,,969945,001,2024-06-17_09h54.27.305,experiment,2024.1.5,Win32,59.88023952,65abf2d64c8491a1bb904917,667045947eb812cbdacbf325,66704d31324eb1dc5ca970aa,,,,,,,,,,,,,,,,,,,,,,,,,,,,,,,,,,,185.9206,189.9948,0,0,0,1,1,SoundStimuli/BohemianRhapsody_Queen_Cover5S.wav,,,,,,,,,,,,,,,,,,,,,,,,,,,,,,,,,,,,,,,,,,,,,,,,,,,,,,,,,
,,,,,969945,001,2024-06-17_09h54.27.305,experiment,2024.1.5,Win32,59.88023952,65abf2d64c8491a1bb904917,667045947eb812cbdacbf325,66704d31324eb1dc5ca970aa,,,,,,,,,,,,,,,,,,,,,,,,,,,,,,,,,,,190.07,196.025,0,1,1,0,1,SoundStimuli/BohemianRhapsody_Queen_Original5S.wav,,,,,,,,,,,,,,,,,,,,,,,,,,,,,,,,,,,,,,,,,,,,,,,,,,,,,,,,,
,,,,,969945,001,2024-06-17_09h54.27.305,experiment,2024.1.5,Win32,59.88023952,65abf2d64c8491a1bb904917,667045947eb812cbdacbf325,66704d31324eb1dc5ca970aa,,,,,,,,,,,,,,,,,,,,,,,,,,,,,,,,,,,,,,,,,,,196.0254,197.1043,1.619999949,0.9798,0,7,7,18,1,song_indices/BohemianRhapsody_Queen.csv,,,,,,,,,,,,,,,,,,,,,,,,,,,,,,,,,,,,,,,,,,,,,,,
,,,,,969945,001,2024-06-17_09h54.27.305,experiment,2024.1.5,Win32,59.88023952,65abf2d64c8491a1bb904917,667045947eb812cbdacbf325,66704d31324eb1dc5ca970aa,,,,,,,,,,,,,,,,,,,,,,,,,,,,,,,,,,,197.1074,205.2337,0,0,0,1,1,SoundStimuli/AnotherOneBitesTheDust_Queen_Cover5S.wav,,,,,,,,,,,,,,,,,,,,,,,,,,,,,,,,,,,,,,,,,,,,,,,,,,,,,,,,,
,,,,,969945,001,2024-06-17_09h54.27.305,experiment,2024.1.5,Win32,59.88023952,65abf2d64c8491a1bb904917,667045947eb812cbdacbf325,66704d31324eb1dc5ca970aa,,,,,,,,,,,,,,,,,,,,,,,,,,,,,,,,,,,205.3122,211.3703,0,1,1,0,1,SoundStimuli/AnotherOneBitesTheDust_Queen_Original5S.wav,,,,,,,,,,,,,,,,,,,,,,,,,,,,,,,,,,,,,,,,,,,,,,,,,,,,,,,,,
,,,,,969945,001,2024-06-17_09h54.27.305,experiment,2024.1.5,Win32,59.88023952,65abf2d64c8491a1bb904917,667045947eb812cbdacbf325,66704d31324eb1dc5ca970aa,,,,,,,,,,,,,,,,,,,,,,,,,,,,,,,,,,,,,,,,,,,211.3721,212.322,3.260000102,0.8734,0,8,8,9,1,song_indices/AnotherOneBitesTheDust_Queen.csv,,,,,,,,,,,,,,,,,,,,,,,,,,,,,,,,,,,,,,,,,,,,,,,
,,,,,969945,001,2024-06-17_09h54.27.305,experiment,2024.1.5,Win32,59.88023952,65abf2d64c8491a1bb904917,667045947eb812cbdacbf325,66704d31324eb1dc5ca970aa,,,,,,,,,,,,,,,,,,,,,,,,,,,,,,,,,,,212.3244,218.7722,0,0,0,0,1,SoundStimuli/BadDay_DanielPowter_Original5S.wav,,,,,,,,,,,,,,,,,,,,,,,,,,,,,,,,,,,,,,,,,,,,,,,,,,,,,,,,,
,,,,,969945,001,2024-06-17_09h54.27.305,experiment,2024.1.5,Win32,59.88023952,65abf2d64c8491a1bb904917,667045947eb812cbdacbf325,66704d31324eb1dc5ca970aa,,,,,,,,,,,,,,,,,,,,,,,,,,,,,,,,,,,218.8469,226.3557,0,1,1,1,1,SoundStimuli/BadDay_DanielPowter_Cover5S.wav,,,,,,,,,,,,,,,,,,,,,,,,,,,,,,,,,,,,,,,,,,,,,,,,,,,,,,,,,
,,,,,969945,001,2024-06-17_09h54.27.305,experiment,2024.1.5,Win32,59.88023952,65abf2d64c8491a1bb904917,667045947eb812cbdacbf325,66704d31324eb1dc5ca970aa,,,,,,,,,,,,,,,,,,,,,,,,,,,,,,,,,,,,,,,,,,,226.3568,228.3571,4.353333537,1.9148,0,9,9,22,1,song_indices/BadDay_DanielPowter.csv,,,,,,,,,,,,,,,,,,,,,,,,,,,,,,,,,,,,,,,,,,,,,,,
,,,,,969945,001,2024-06-17_09h54.27.305,experiment,2024.1.5,Win32,59.88023952,65abf2d64c8491a1bb904917,667045947eb812cbdacbf325,66704d31324eb1dc5ca970aa,,,,,,,,,,,,,,,,,,,,,,,,,,,,,,,,,,,228.3601,234.3879,0,0,0,0,1,SoundStimuli/StayinAlive_BeeGees_Original5S.wav,,,,,,,,,,,,,,,,,,,,,,,,,,,,,,,,,,,,,,,,,,,,,,,,,,,,,,,,,
,,,,,969945,001,2024-06-17_09h54.27.305,experiment,2024.1.5,Win32,59.88023952,65abf2d64c8491a1bb904917,667045947eb812cbdacbf325,66704d31324eb1dc5ca970aa,,,,,,,,,,,,,,,,,,,,,,,,,,,,,,,,,,,234.4663,240.2956,0,1,1,1,1,SoundStimuli/StayinAlive_BeeGees_Cover5S.wav,,,,,,,,,,,,,,,,,,,,,,,,,,,,,,,,,,,,,,,,,,,,,,,,,,,,,,,,,
,,,,,969945,001,2024-06-17_09h54.27.305,experiment,2024.1.5,Win32,59.88023952,65abf2d64c8491a1bb904917,667045947eb812cbdacbf325,66704d31324eb1dc5ca970aa,,,,,,,,,,,,,,,,,,,,,,,,,,,,,,,,,,,,,,,,,,,240.2969,241.7489,5.210000102,1.3767,0,10,10,2,1,song_indices/StayinAlive_BeeGees.csv,,,,,,,,,,,,,,,,,,,,,,,,,,,,,,,,,,,,,,,,,,,,,,,
,,,,,969945,001,2024-06-17_09h54.27.305,experiment,2024.1.5,Win32,59.88023952,65abf2d64c8491a1bb904917,667045947eb812cbdacbf325,66704d31324eb1dc5ca970aa,,,,,,,,,,,,,,,,,,,,,,,,,,,,,,,,,,,241.7537,248.2817,0,0,0,1,1,SoundStimuli/OldTownRoad_LilNasX_Cover5S.wav,,,,,,,,,,,,,,,,,,,,,,,,,,,,,,,,,,,,,,,,,,,,,,,,,,,,,,,,,
,,,,,969945,001,2024-06-17_09h54.27.305,experiment,2024.1.5,Win32,59.88023952,65abf2d64c8491a1bb904917,667045947eb812cbdacbf325,66704d31324eb1dc5ca970aa,,,,,,,,,,,,,,,,,,,,,,,,,,,,,,,,,,,248.3556,255.7271,0,1,1,0,1,SoundStimuli/OldTownRoad_LilNasX_Original5S.wav,,,,,,,,,,,,,,,,,,,,,,,,,,,,,,,,,,,,,,,,,,,,,,,,,,,,,,,,,
,,,,,969945,001,2024-06-17_09h54.27.305,experiment,2024.1.5,Win32,59.88023952,65abf2d64c8491a1bb904917,667045947eb812cbdacbf325,66704d31324eb1dc5ca970aa,,,,,,,,,,,,,,,,,,,,,,,,,,,,,,,,,,,,,,,,,,,255.7277,258.476,3.476666768,2.671,0,11,11,20,1,song_indices/OldTownRoad_LilNasX.csv,,,,,,,,,,,,,,,,,,,,,,,,,,,,,,,,,,,,,,,,,,,,,,,
,,,,,969945,001,2024-06-17_09h54.27.305,experiment,2024.1.5,Win32,59.88023952,65abf2d64c8491a1bb904917,667045947eb812cbdacbf325,66704d31324eb1dc5ca970aa,,,,,,,,,,,,,,,,,,,,,,,,,,,,,,,,,,,258.4793,264.812,0,0,0,0,1,SoundStimuli/BridgeOverTroubledWater_SimonAndGarfunkel_Original5S.wav,,,,,,,,,,,,,,,,,,,,,,,,,,,,,,,,,,,,,,,,,,,,,,,,,,,,,,,,,
,,,,,969945,001,2024-06-17_09h54.27.305,experiment,2024.1.5,Win32,59.88023952,65abf2d64c8491a1bb904917,667045947eb812cbdacbf325,66704d31324eb1dc5ca970aa,,,,,,,,,,,,,,,,,,,,,,,,,,,,,,,,,,,264.844,271.5354,0,1,1,1,1,SoundStimuli/BridgeOverTroubledWater_SimonAndGarfunkel_Cover5S.wav,,,,,,,,,,,,,,,,,,,,,,,,,,,,,,,,,,,,,,,,,,,,,,,,,,,,,,,,,
,,,,,969945,001,2024-06-17_09h54.27.305,experiment,2024.1.5,Win32,59.88023952,65abf2d64c8491a1bb904917,667045947eb812cbdacbf325,66704d31324eb1dc5ca970aa,,,,,,,,,,,,,,,,,,,,,,,,,,,,,,,,,,,,,,,,,,,271.536,272.3479,1.696666718,0.7374,0,12,12,1,1,song_indices/BridgeOverTroubledWater_SimonAndGarfunkel.csv,,,,,,,,,,,,,,,,,,,,,,,,,,,,,,,,,,,,,,,,,,,,,,,
,,,,,969945,001,2024-06-17_09h54.27.305,experiment,2024.1.5,Win32,59.88023952,65abf2d64c8491a1bb904917,667045947eb812cbdacbf325,66704d31324eb1dc5ca970aa,,,,,,,,,,,,,,,,,,,,,,,,,,,,,,,,,,,272.3544,281.2256,0,0,0,0,1,SoundStimuli/Perfect_EdSheeran_Original5S.wav,,,,,,,,,,,,,,,,,,,,,,,,,,,,,,,,,,,,,,,,,,,,,,,,,,,,,,,,,
,,,,,969945,001,2024-06-17_09h54.27.305,experiment,2024.1.5,Win32,59.88023952,65abf2d64c8491a1bb904917,667045947eb812cbdacbf325,66704d31324eb1dc5ca970aa,,,,,,,,,,,,,,,,,,,,,,,,,,,,,,,,,,,281.3007,289.5504,0,1,1,1,1,SoundStimuli/Perfect_EdSheeran_Cover5S.wav,,,,,,,,,,,,,,,,,,,,,,,,,,,,,,,,,,,,,,,,,,,,,,,,,,,,,,,,,
,,,,,969945,001,2024-06-17_09h54.27.305,experiment,2024.1.5,Win32,59.88023952,65abf2d64c8491a1bb904917,667045947eb812cbdacbf325,66704d31324eb1dc5ca970aa,,,,,,,,,,,,,,,,,,,,,,,,,,,,,,,,,,,,,,,,,,,289.5516,291.014,1.430000051,1.3791,0,13,13,0,1,song_indices/Perfect_EdSheeran.csv,,,,,,,,,,,,,,,,,,,,,,,,,,,,,,,,,,,,,,,,,,,,,,,
,,,,,969945,001,2024-06-17_09h54.27.305,experiment,2024.1.5,Win32,59.88023952,65abf2d64c8491a1bb904917,667045947eb812cbdacbf325,66704d31324eb1dc5ca970aa,,,,,,,,,,,,,,,,,,,,,,,,,,,,,,,,,,,291.018,298.6971,0,0,0,1,1,SoundStimuli/LivinOnAPrayer_BonJovi_Cover5S.wav,,,,,,,,,,,,,,,,,,,,,,,,,,,,,,,,,,,,,,,,,,,,,,,,,,,,,,,,,
,,,,,969945,001,2024-06-17_09h54.27.305,experiment,2024.1.5,Win32,59.88023952,65abf2d64c8491a1bb904917,667045947eb812cbdacbf325,66704d31324eb1dc5ca970aa,,,,,,,,,,,,,,,,,,,,,,,,,,,,,,,,,,,298.7982,305.0473,0,1,1,0,1,SoundStimuli/LivinOnAPrayer_BonJovi_Original5S.wav,,,,,,,,,,,,,,,,,,,,,,,,,,,,,,,,,,,,,,,,,,,,,,,,,,,,,,,,,
,,,,,969945,001,2024-06-17_09h54.27.305,experiment,2024.1.5,Win32,59.88023952,65abf2d64c8491a1bb904917,667045947eb812cbdacbf325,66704d31324eb1dc5ca970aa,,,,,,,,,,,,,,,,,,,,,,,,,,,,,,,,,,,,,,,,,,,305.048,307.6152,2.596666718,2.4912,0,14,14,16,1,song_indices/LivinOnAPrayer_BonJovi.csv,,,,,,,,,,,,,,,,,,,,,,,,,,,,,,,,,,,,,,,,,,,,,,,
,,,,,969945,001,2024-06-17_09h54.27.305,experiment,2024.1.5,Win32,59.88023952,65abf2d64c8491a1bb904917,667045947eb812cbdacbf325,66704d31324eb1dc5ca970aa,,,,,,,,,,,,,,,,,,,,,,,,,,,,,,,,,,,307.6204,313.7149,0,0,0,0,1,SoundStimuli/HeatWaves_GlassAnimals_Original5S.wav,,,,,,,,,,,,,,,,,,,,,,,,,,,,,,,,,,,,,,,,,,,,,,,,,,,,,,,,,
,,,,,969945,001,2024-06-17_09h54.27.305,experiment,2024.1.5,Win32,59.88023952,65abf2d64c8491a1bb904917,667045947eb812cbdacbf325,66704d31324eb1dc5ca970aa,,,,,,,,,,,,,,,,,,,,,,,,,,,,,,,,,,,313.7762,322.3701,0,1,1,1,1,SoundStimuli/HeatWaves_GlassAnimals_Cover5S.wav,,,,,,,,,,,,,,,,,,,,,,,,,,,,,,,,,,,,,,,,,,,,,,,,,,,,,,,,,
,,,,,969945,001,2024-06-17_09h54.27.305,experiment,2024.1.5,Win32,59.88023952,65abf2d64c8491a1bb904917,667045947eb812cbdacbf325,66704d31324eb1dc5ca970aa,,,,,,,,,,,,,,,,,,,,,,,,,,,,,,,,,,,,,,,,,,,322.371,324.4874,5.033333333,2.0473,0,15,15,10,1,song_indices/HeatWaves_GlassAnimals.csv,,,,,,,,,,,,,,,,,,,,,,,,,,,,,,,,,,,,,,,,,,,,,,,
,,,,,969945,001,2024-06-17_09h54.27.305,experiment,2024.1.5,Win32,59.88023952,65abf2d64c8491a1bb904917,667045947eb812cbdacbf325,66704d31324eb1dc5ca970aa,,,,,,,,,,,,,,,,,,,,,,,,,,,,,,,,,,,324.4927,330.7374,0,0,0,0,1,SoundStimuli/GodOnlyKnows_TheBeachBoys_Original5S.wav,,,,,,,,,,,,,,,,,,,,,,,,,,,,,,,,,,,,,,,,,,,,,,,,,,,,,,,,,
,,,,,969945,001,2024-06-17_09h54.27.305,experiment,2024.1.5,Win32,59.88023952,65abf2d64c8491a1bb904917,667045947eb812cbdacbf325,66704d31324eb1dc5ca970aa,,,,,,,,,,,,,,,,,,,,,,,,,,,,,,,,,,,330.8123,337.6762,0,1,1,1,1,SoundStimuli/GodOnlyKnows_TheBeachBoys_Cover5S.wav,,,,,,,,,,,,,,,,,,,,,,,,,,,,,,,,,,,,,,,,,,,,,,,,,,,,,,,,,
,,,,,969945,001,2024-06-17_09h54.27.305,experiment,2024.1.5,Win32,59.88023952,65abf2d64c8491a1bb904917,667045947eb812cbdacbf325,66704d31324eb1dc5ca970aa,,,,,,,,,,,,,,,,,,,,,,,,,,,,,,,,,,,,,,,,,,,337.6771,340.1411,3.333333333,2.3822,0,16,16,8,1,song_indices/GodOnlyKnows_TheBeachBoys.csv,,,,,,,,,,,,,,,,,,,,,,,,,,,,,,,,,,,,,,,,,,,,,,,
,,,,,969945,001,2024-06-17_09h54.27.305,experiment,2024.1.5,Win32,59.88023952,65abf2d64c8491a1bb904917,667045947eb812cbdacbf325,66704d31324eb1dc5ca970aa,,,,,,,,,,,,,,,,,,,,,,,,,,,,,,,,,,,340.1468,348.4599,0,0,0,1,1,SoundStimuli/Mood_24kGoldnianndior_Cover5S.wav,,,,,,,,,,,,,,,,,,,,,,,,,,,,,,,,,,,,,,,,,,,,,,,,,,,,,,,,,
,,,,,969945,001,2024-06-17_09h54.27.305,experiment,2024.1.5,Win32,59.88023952,65abf2d64c8491a1bb904917,667045947eb812cbdacbf325,66704d31324eb1dc5ca970aa,,,,,,,,,,,,,,,,,,,,,,,,,,,,,,,,,,,348.5438,354.8656,0,1,1,0,1,SoundStimuli/Mood_24kGoldnianndior_Original5S.wav,,,,,,,,,,,,,,,,,,,,,,,,,,,,,,,,,,,,,,,,,,,,,,,,,,,,,,,,,
,,,,,969945,001,2024-06-17_09h54.27.305,experiment,2024.1.5,Win32,59.88023952,65abf2d64c8491a1bb904917,667045947eb812cbdacbf325,66704d31324eb1dc5ca970aa,,,,,,,,,,,,,,,,,,,,,,,,,,,,,,,,,,,,,,,,,,,354.866,357.4827,5.010000102,2.5413,0,17,17,5,1,song_indices/Mood_24kGoldnianndior.csv,,,,,,,,,,,,,,,,,,,,,,,,,,,,,,,,,,,,,,,,,,,,,,,
,,,,,969945,001,2024-06-17_09h54.27.305,experiment,2024.1.5,Win32,59.88023952,65abf2d64c8491a1bb904917,667045947eb812cbdacbf325,66704d31324eb1dc5ca970aa,,,,,,,,,,,,,,,,,,,,,,,,,,,,,,,,,,,357.486,363.2851,0,0,0,0,1,SoundStimuli/IWantToHoldYourHand_TheBeatles_Original5S.wav,,,,,,,,,,,,,,,,,,,,,,,,,,,,,,,,,,,,,,,,,,,,,,,,,,,,,,,,,
,,,,,969945,001,2024-06-17_09h54.27.305,experiment,2024.1.5,Win32,59.88023952,65abf2d64c8491a1bb904917,667045947eb812cbdacbf325,66704d31324eb1dc5ca970aa,,,,,,,,,,,,,,,,,,,,,,,,,,,,,,,,,,,363.3461,369.405,0,1,1,1,1,SoundStimuli/IWantToHoldYourHand_TheBeatles_Cover5S.wav,,,,,,,,,,,,,,,,,,,,,,,,,,,,,,,,,,,,,,,,,,,,,,,,,,,,,,,,,
,,,,,969945,001,2024-06-17_09h54.27.305,experiment,2024.1.5,Win32,59.88023952,65abf2d64c8491a1bb904917,667045947eb812cbdacbf325,66704d31324eb1dc5ca970aa,,,,,,,,,,,,,,,,,,,,,,,,,,,,,,,,,,,,,,,,,,,369.4056,373.5256,3.266666667,4.0444,0,18,18,19,1,song_indices/IWantToHoldYourHand_TheBeatles.csv,,,,,,,,,,,,,,,,,,,,,,,,,,,,,,,,,,,,,,,,,,,,,,,
,,,,,969945,001,2024-06-17_09h54.27.305,experiment,2024.1.5,Win32,59.88023952,65abf2d64c8491a1bb904917,667045947eb812cbdacbf325,66704d31324eb1dc5ca970aa,,,,,,,,,,,,,,,,,,,,,,,,,,,,,,,,,,,373.5277,380.5556,0,0,0,1,1,SoundStimuli/StrawberryFieldsForever_TheBeatles_Cover5S.wav,,,,,,,,,,,,,,,,,,,,,,,,,,,,,,,,,,,,,,,,,,,,,,,,,,,,,,,,,
,,,,,969945,001,2024-06-17_09h54.27.305,experiment,2024.1.5,Win32,59.88023952,65abf2d64c8491a1bb904917,667045947eb812cbdacbf325,66704d31324eb1dc5ca970aa,,,,,,,,,,,,,,,,,,,,,,,,,,,,,,,,,,,380.6373,386.7592,0,1,1,0,1,SoundStimuli/StrawberryFieldsForever_TheBeatles_Original5S.wav,,,,,,,,,,,,,,,,,,,,,,,,,,,,,,,,,,,,,,,,,,,,,,,,,,,,,,,,,
,,,,,969945,001,2024-06-17_09h54.27.305,experiment,2024.1.5,Win32,59.88023952,65abf2d64c8491a1bb904917,667045947eb812cbdacbf325,66704d31324eb1dc5ca970aa,,,,,,,,,,,,,,,,,,,,,,,,,,,,,,,,,,,,,,,,,,,386.76,388.4326,2.696666718,1.5987,0,19,19,14,1,song_indices/StrawberryFieldsForever_TheBeatles.csv,,,,,,,,,,,,,,,,,,,,,,,,,,,,,,,,,,,,,,,,,,,,,,,
,,,,,969945,001,2024-06-17_09h54.27.305,experiment,2024.1.5,Win32,59.88023952,65abf2d64c8491a1bb904917,667045947eb812cbdacbf325,66704d31324eb1dc5ca970aa,,,,,,,,,,,,,,,,,,,,,,,,,,,,,,,,,,,388.438,394.4056,0,0,0,1,1,SoundStimuli/IllMakeLoveToYou_BoyzIIMen_Cover5S.wav,,,,,,,,,,,,,,,,,,,,,,,,,,,,,,,,,,,,,,,,,,,,,,,,,,,,,,,,,
,,,,,969945,001,2024-06-17_09h54.27.305,experiment,2024.1.5,Win32,59.88023952,65abf2d64c8491a1bb904917,667045947eb812cbdacbf325,66704d31324eb1dc5ca970aa,,,,,,,,,,,,,,,,,,,,,,,,,,,,,,,,,,,394.4918,400.6069,0,1,1,0,1,SoundStimuli/IllMakeLoveToYou_BoyzIIMen_Original5S.wav,,,,,,,,,,,,,,,,,,,,,,,,,,,,,,,,,,,,,,,,,,,,,,,,,,,,,,,,,
,,,,,969945,001,2024-06-17_09h54.27.305,experiment,2024.1.5,Win32,59.88023952,65abf2d64c8491a1bb904917,667045947eb812cbdacbf325,66704d31324eb1dc5ca970aa,,,,,,,,,,,,,,,,,,,,,,,,,,,,,,,,,,,,,,,,,,,400.6078,402.7173,4.923333232,2.0161,0,20,20,6,1,song_indices/IllMakeLoveToYou_BoyzIIMen.csv,,,,,,,,,,,,,,,,,,,,,,,,,,,,,,,,,,,,,,,,,,,,,,,
,,,,,969945,001,2024-06-17_09h54.27.305,experiment,2024.1.5,Win32,59.88023952,65abf2d64c8491a1bb904917,667045947eb812cbdacbf325,66704d31324eb1dc5ca970aa,,,,,,,,,,,,,,,,,,,,,,,,,,,,,,,,,,,402.7223,409.1065,0,0,0,0,1,SoundStimuli/MyGirl_TheTemptations_Original5S.wav,,,,,,,,,,,,,,,,,,,,,,,,,,,,,,,,,,,,,,,,,,,,,,,,,,,,,,,,,
,,,,,969945,001,2024-06-17_09h54.27.305,experiment,2024.1.5,Win32,59.88023952,65abf2d64c8491a1bb904917,667045947eb812cbdacbf325,66704d31324eb1dc5ca970aa,,,,,,,,,,,,,,,,,,,,,,,,,,,,,,,,,,,409.1876,416.8558,0,1,1,1,1,SoundStimuli/MyGirl_TheTemptations_Cover5S.wav,,,,,,,,,,,,,,,,,,,,,,,,,,,,,,,,,,,,,,,,,,,,,,,,,,,,,,,,,
,,,,,969945,001,2024-06-17_09h54.27.305,experiment,2024.1.5,Win32,59.88023952,65abf2d64c8491a1bb904917,667045947eb812cbdacbf325,66704d31324eb1dc5ca970aa,,,,,,,,,,,,,,,,,,,,,,,,,,,,,,,,,,,,,,,,,,,416.8574,418.6423,1.043333435,1.7003,0,21,21,15,1,song_indices/MyGirl_TheTemptations.csv,,,,,,,,,,,,,,,,,,,,,,,,,,,,,,,,,,,,,,,,,,,,,,,
,,,,,969945,001,2024-06-17_09h54.27.305,experiment,2024.1.5,Win32,59.88023952,65abf2d64c8491a1bb904917,667045947eb812cbdacbf325,66704d31324eb1dc5ca970aa,,,,,,,,,,,,,,,,,,,,,,,,,,,,,,,,,,,418.6497,425.5015,0,0,0,1,1,SoundStimuli/IWannaDanceWithSomebody_WhitneyHouston_Cover5S.wav,,,,,,,,,,,,,,,,,,,,,,,,,,,,,,,,,,,,,,,,,,,,,,,,,,,,,,,,,
,,,,,969945,001,2024-06-17_09h54.27.305,experiment,2024.1.5,Win32,59.88023952,65abf2d64c8491a1bb904917,667045947eb812cbdacbf325,66704d31324eb1dc5ca970aa,,,,,,,,,,,,,,,,,,,,,,,,,,,,,,,,,,,425.5745,431.1754,0,1,1,0,1,SoundStimuli/IWannaDanceWithSomebody_WhitneyHouston_Original5S.wav,,,,,,,,,,,,,,,,,,,,,,,,,,,,,,,,,,,,,,,,,,,,,,,,,,,,,,,,,
,,,,,969945,001,2024-06-17_09h54.27.305,experiment,2024.1.5,Win32,59.88023952,65abf2d64c8491a1bb904917,667045947eb812cbdacbf325,66704d31324eb1dc5ca970aa,,,,,,,,,,,,,,,,,,,,,,,,,,,,,,,,,,,,,,,,,,,431.1763,431.9931,1.490000153,0.7664,0,22,22,13,1,song_indices/IWannaDanceWithSomebody_WhitneyHouston.csv,,,,,,,,,,,,,,,,,,,,,,,,,,,,,,,,,,,,,,,,,,,,,,,
,,,,,969945,001,2024-06-17_09h54.27.305,experiment,2024.1.5,Win32,59.88023952,65abf2d64c8491a1bb904917,667045947eb812cbdacbf325,66704d31324eb1dc5ca970aa,,,,,,,,,,,,,,,,,,,,,,,,,,,,,,,,,,,,,,,,,,,,,,,,,,,,,431.996,439.1633,space,7.1404,,0,0,0,0,1,choose_song_b1.csv,,,,,,,,,,,,,,,,,,,,,,,,,,,,,,,,,,,,
,,,,,969945,001,2024-06-17_09h54.27.305,experiment,2024.1.5,Win32,59.88023952,65abf2d64c8491a1bb904917,667045947eb812cbdacbf325,66704d31324eb1dc5ca970aa,,,,,,,,,,,,,,,,,,,,,,,,,,,,,,,,,,,439.1708,445.3779,0,0,0,1,1,SoundStimuli/GimmeShelter_RollingStones_Cover5S.wav,,,,,,,,,,,,,,,,,,,,,,,,,,,,,,,,,,,,,,,,,,,,,,,,,,,,,,,,,
,,,,,969945,001,2024-06-17_09h54.27.305,experiment,2024.1.5,Win32,59.88023952,65abf2d64c8491a1bb904917,667045947eb812cbdacbf325,66704d31324eb1dc5ca970aa,,,,,,,,,,,,,,,,,,,,,,,,,,,,,,,,,,,445.4394,451.5419,0,1,1,0,1,SoundStimuli/GimmeShelter_RollingStones_Original5S.wav,,,,,,,,,,,,,,,,,,,,,,,,,,,,,,,,,,,,,,,,,,,,,,,,,,,,,,,,,
,,,,,969945,001,2024-06-17_09h54.27.305,experiment,2024.1.5,Win32,59.88023952,65abf2d64c8491a1bb904917,667045947eb812cbdacbf325,66704d31324eb1dc5ca970aa,,,,,,,,,,,,,,,,,,,,,,,,,,,,,,,,,,,,,,,,,,,451.5442,452.7359,5.38666687,1.1179,0,0,0,20,1,song_indices/GimmeShelter_RollingStones.csv,,,,,,,,,,,,,,,,,,,,,,,,,,,,,,,,,,,,,,,,,,,,,,,
,,,,,969945,001,2024-06-17_09h54.27.305,experiment,2024.1.5,Win32,59.88023952,65abf2d64c8491a1bb904917,667045947eb812cbdacbf325,66704d31324eb1dc5ca970aa,,,,,,,,,,,,,,,,,,,,,,,,,,,,,,,,,,,452.7501,458.9508,0,0,0,0,1,SoundStimuli/NoScrubs_TLC_Original5S.wav,,,,,,,,,,,,,,,,,,,,,,,,,,,,,,,,,,,,,,,,,,,,,,,,,,,,,,,,,
,,,,,969945,001,2024-06-17_09h54.27.305,experiment,2024.1.5,Win32,59.88023952,65abf2d64c8491a1bb904917,667045947eb812cbdacbf325,66704d31324eb1dc5ca970aa,,,,,,,,,,,,,,,,,,,,,,,,,,,,,,,,,,,459.0241,465.1635,0,1,1,1,1,SoundStimuli/NoScrubs_TLC_Cover5S.wav,,,,,,,,,,,,,,,,,,,,,,,,,,,,,,,,,,,,,,,,,,,,,,,,,,,,,,,,,
,,,,,969945,001,2024-06-17_09h54.27.305,experiment,2024.1.5,Win32,59.88023952,65abf2d64c8491a1bb904917,667045947eb812cbdacbf325,66704d31324eb1dc5ca970aa,,,,,,,,,,,,,,,,,,,,,,,,,,,,,,,,,,,,,,,,,,,465.1643,466.151,4.6,0.9096,0,1,1,14,1,song_indices/NoScrubs_TLC.csv,,,,,,,,,,,,,,,,,,,,,,,,,,,,,,,,,,,,,,,,,,,,,,,
,,,,,969945,001,2024-06-17_09h54.27.305,experiment,2024.1.5,Win32,59.88023952,65abf2d64c8491a1bb904917,667045947eb812cbdacbf325,66704d31324eb1dc5ca970aa,,,,,,,,,,,,,,,,,,,,,,,,,,,,,,,,,,,466.1559,472.1154,0,0,0,1,1,SoundStimuli/TheBoyIsMine_BrandyMonica_Cover5S.wav,,,,,,,,,,,,,,,,,,,,,,,,,,,,,,,,,,,,,,,,,,,,,,,,,,,,,,,,,
,,,,,969945,001,2024-06-17_09h54.27.305,experiment,2024.1.5,Win32,59.88023952,65abf2d64c8491a1bb904917,667045947eb812cbdacbf325,66704d31324eb1dc5ca970aa,,,,,,,,,,,,,,,,,,,,,,,,,,,,,,,,,,,472.1864,478.3901,0,1,1,0,1,SoundStimuli/TheBoyIsMine_BrandyMonica_Original5S.wav,,,,,,,,,,,,,,,,,,,,,,,,,,,,,,,,,,,,,,,,,,,,,,,,,,,,,,,,,
,,,,,969945,001,2024-06-17_09h54.27.305,experiment,2024.1.5,Win32,59.88023952,65abf2d64c8491a1bb904917,667045947eb812cbdacbf325,66704d31324eb1dc5ca970aa,,,,,,,,,,,,,,,,,,,,,,,,,,,,,,,,,,,,,,,,,,,478.3908,479.4397,5.366666667,0.9663,0,2,2,6,1,song_indices/TheBoyIsMine_BrandyMonica.csv,,,,,,,,,,,,,,,,,,,,,,,,,,,,,,,,,,,,,,,,,,,,,,,
,,,,,969945,001,2024-06-17_09h54.27.305,experiment,2024.1.5,Win32,59.88023952,65abf2d64c8491a1bb904917,667045947eb812cbdacbf325,66704d31324eb1dc5ca970aa,,,,,,,,,,,,,,,,,,,,,,,,,,,,,,,,,,,479.443,485.8064,0,0,0,1,1,SoundStimuli/GoodGollyMissMolly_LittleRichard_Cover5S.wav,,,,,,,,,,,,,,,,,,,,,,,,,,,,,,,,,,,,,,,,,,,,,,,,,,,,,,,,,
,,,,,969945,001,2024-06-17_09h54.27.305,experiment,2024.1.5,Win32,59.88023952,65abf2d64c8491a1bb904917,667045947eb812cbdacbf325,66704d31324eb1dc5ca970aa,,,,,,,,,,,,,,,,,,,,,,,,,,,,,,,,,,,485.8784,491.9387,0,1,1,0,1,SoundStimuli/GoodGollyMissMolly_LittleRichard_Original5S.wav,,,,,,,,,,,,,,,,,,,,,,,,,,,,,,,,,,,,,,,,,,,,,,,,,,,,,,,,,
,,,,,969945,001,2024-06-17_09h54.27.305,experiment,2024.1.5,Win32,59.88023952,65abf2d64c8491a1bb904917,667045947eb812cbdacbf325,66704d31324eb1dc5ca970aa,,,,,,,,,,,,,,,,,,,,,,,,,,,,,,,,,,,,,,,,,,,491.9394,492.7762,1.666666667,0.751,0,3,3,0,1,song_indices/GoodGollyMissMolly_LittleRichard.csv,,,,,,,,,,,,,,,,,,,,,,,,,,,,,,,,,,,,,,,,,,,,,,,
,,,,,969945,001,2024-06-17_09h54.27.305,experiment,2024.1.5,Win32,59.88023952,65abf2d64c8491a1bb904917,667045947eb812cbdacbf325,66704d31324eb1dc5ca970aa,,,,,,,,,,,,,,,,,,,,,,,,,,,,,,,,,,,492.7816,498.6346,0,0,0,1,1,SoundStimuli/IWillAlwaysLoveYou_WhitneyHouston_Cover5S.wav,,,,,,,,,,,,,,,,,,,,,,,,,,,,,,,,,,,,,,,,,,,,,,,,,,,,,,,,,
,,,,,969945,001,2024-06-17_09h54.27.305,experiment,2024.1.5,Win32,59.88023952,65abf2d64c8491a1bb904917,667045947eb812cbdacbf325,66704d31324eb1dc5ca970aa,,,,,,,,,,,,,,,,,,,,,,,,,,,,,,,,,,,498.7048,505.1097,0,1,1,0,1,SoundStimuli/IWillAlwaysLoveYou_WhitneyHouston_Original5S.wav,,,,,,,,,,,,,,,,,,,,,,,,,,,,,,,,,,,,,,,,,,,,,,,,,,,,,,,,,
,,,,,969945,001,2024-06-17_09h54.27.305,experiment,2024.1.5,Win32,59.88023952,65abf2d64c8491a1bb904917,667045947eb812cbdacbf325,66704d31324eb1dc5ca970aa,,,,,,,,,,,,,,,,,,,,,,,,,,,,,,,,,,,,,,,,,,,505.1104,506.1848,6.966666667,0.9976,0,4,4,10,1,song_indices/IWillAlwaysLoveYou_WhitneyHouston.csv,,,,,,,,,,,,,,,,,,,,,,,,,,,,,,,,,,,,,,,,,,,,,,,
,,,,,969945,001,2024-06-17_09h54.27.305,experiment,2024.1.5,Win32,59.88023952,65abf2d64c8491a1bb904917,667045947eb812cbdacbf325,66704d31324eb1dc5ca970aa,,,,,,,,,,,,,,,,,,,,,,,,,,,,,,,,,,,506.19,511.9097,0,0,0,1,1,SoundStimuli/BetteDavisEyes_KimCarnes_Cover5S.wav,,,,,,,,,,,,,,,,,,,,,,,,,,,,,,,,,,,,,,,,,,,,,,,,,,,,,,,,,
,,,,,969945,001,2024-06-17_09h54.27.305,experiment,2024.1.5,Win32,59.88023952,65abf2d64c8491a1bb904917,667045947eb812cbdacbf325,66704d31324eb1dc5ca970aa,,,,,,,,,,,,,,,,,,,,,,,,,,,,,,,,,,,511.9803,518.205,0,1,1,0,1,SoundStimuli/BetteDavisEyes_KimCarnes_Original5S.wav,,,,,,,,,,,,,,,,,,,,,,,,,,,,,,,,,,,,,,,,,,,,,,,,,,,,,,,,,
,,,,,969945,001,2024-06-17_09h54.27.305,experiment,2024.1.5,Win32,59.88023952,65abf2d64c8491a1bb904917,667045947eb812cbdacbf325,66704d31324eb1dc5ca970aa,,,,,,,,,,,,,,,,,,,,,,,,,,,,,,,,,,,,,,,,,,,518.2057,519.4399,5.58666687,1.1535,0,5,5,5,1,song_indices/BetteDavisEyes_KimCarnes.csv,,,,,,,,,,,,,,,,,,,,,,,,,,,,,,,,,,,,,,,,,,,,,,,
,,,,,969945,001,2024-06-17_09h54.27.305,experiment,2024.1.5,Win32,59.88023952,65abf2d64c8491a1bb904917,667045947eb812cbdacbf325,66704d31324eb1dc5ca970aa,,,,,,,,,,,,,,,,,,,,,,,,,,,,,,,,,,,519.444,525.5231,0,0,0,0,1,SoundStimuli/Stronger_KanyeWest_Original5S.wav,,,,,,,,,,,,,,,,,,,,,,,,,,,,,,,,,,,,,,,,,,,,,,,,,,,,,,,,,
,,,,,969945,001,2024-06-17_09h54.27.305,experiment,2024.1.5,Win32,59.88023952,65abf2d64c8491a1bb904917,667045947eb812cbdacbf325,66704d31324eb1dc5ca970aa,,,,,,,,,,,,,,,,,,,,,,,,,,,,,,,,,,,525.5992,531.9098,0,1,1,1,1,SoundStimuli/Stronger_KanyeWest_Cover5S.wav,,,,,,,,,,,,,,,,,,,,,,,,,,,,,,,,,,,,,,,,,,,,,,,,,,,,,,,,,
,,,,,969945,001,2024-06-17_09h54.27.305,experiment,2024.1.5,Win32,59.88023952,65abf2d64c8491a1bb904917,667045947eb812cbdacbf325,66704d31324eb1dc5ca970aa,,,,,,,,,,,,,,,,,,,,,,,,,,,,,,,,,,,,,,,,,,,531.9111,532.8129,1.493333435,0.8228,0,6,6,9,1,song_indices/Stronger_KanyeWest.csv,,,,,,,,,,,,,,,,,,,,,,,,,,,,,,,,,,,,,,,,,,,,,,,
,,,,,969945,001,2024-06-17_09h54.27.305,experiment,2024.1.5,Win32,59.88023952,65abf2d64c8491a1bb904917,667045947eb812cbdacbf325,66704d31324eb1dc5ca970aa,,,,,,,,,,,,,,,,,,,,,,,,,,,,,,,,,,,532.8206,539.0459,0,0,0,0,1,SoundStimuli/SmellsLikeTeenSpirit_Nirvana_Original5S.wav,,,,,,,,,,,,,,,,,,,,,,,,,,,,,,,,,,,,,,,,,,,,,,,,,,,,,,,,,
,,,,,969945,001,2024-06-17_09h54.27.305,experiment,2024.1.5,Win32,59.88023952,65abf2d64c8491a1bb904917,667045947eb812cbdacbf325,66704d31324eb1dc5ca970aa,,,,,,,,,,,,,,,,,,,,,,,,,,,,,,,,,,,539.1192,544.9186,0,1,1,1,1,SoundStimuli/SmellsLikeTeenSpirit_Nirvana_Cover5S.wav,,,,,,,,,,,,,,,,,,,,,,,,,,,,,,,,,,,,,,,,,,,,,,,,,,,,,,,,,
,,,,,969945,001,2024-06-17_09h54.27.305,experiment,2024.1.5,Win32,59.88023952,65abf2d64c8491a1bb904917,667045947eb812cbdacbf325,66704d31324eb1dc5ca970aa,,,,,,,,,,,,,,,,,,,,,,,,,,,,,,,,,,,,,,,,,,,544.9191,546.2468,6.939999898,1.2526,0,7,7,8,1,song_indices/SmellsLikeTeenSpirit_Nirvana.csv,,,,,,,,,,,,,,,,,,,,,,,,,,,,,,,,,,,,,,,,,,,,,,,
,,,,,969945,001,2024-06-17_09h54.27.305,experiment,2024.1.5,Win32,59.88023952,65abf2d64c8491a1bb904917,667045947eb812cbdacbf325,66704d31324eb1dc5ca970aa,,,,,,,,,,,,,,,,,,,,,,,,,,,,,,,,,,,546.253,552.741,0,0,0,0,1,SoundStimuli/ShapeofYou_EdSheeran_Original5S.wav,,,,,,,,,,,,,,,,,,,,,,,,,,,,,,,,,,,,,,,,,,,,,,,,,,,,,,,,,
,,,,,969945,001,2024-06-17_09h54.27.305,experiment,2024.1.5,Win32,59.88023952,65abf2d64c8491a1bb904917,667045947eb812cbdacbf325,66704d31324eb1dc5ca970aa,,,,,,,,,,,,,,,,,,,,,,,,,,,,,,,,,,,552.819,559.1423,0,1,1,1,1,SoundStimuli/ShapeofYou_EdSheeran_Cover5S.wav,,,,,,,,,,,,,,,,,,,,,,,,,,,,,,,,,,,,,,,,,,,,,,,,,,,,,,,,,
,,,,,969945,001,2024-06-17_09h54.27.305,experiment,2024.1.5,Win32,59.88023952,65abf2d64c8491a1bb904917,667045947eb812cbdacbf325,66704d31324eb1dc5ca970aa,,,,,,,,,,,,,,,,,,,,,,,,,,,,,,,,,,,,,,,,,,,559.1445,560.248,1.686666616,1.0296,0,8,8,21,1,song_indices/ShapeofYou_EdSheeran.csv,,,,,,,,,,,,,,,,,,,,,,,,,,,,,,,,,,,,,,,,,,,,,,,
,,,,,969945,001,2024-06-17_09h54.27.305,experiment,2024.1.5,Win32,59.88023952,65abf2d64c8491a1bb904917,667045947eb812cbdacbf325,66704d31324eb1dc5ca970aa,,,,,,,,,,,,,,,,,,,,,,,,,,,,,,,,,,,560.2515,566.588,0,0,0,0,1,SoundStimuli/RockWithYou_MichaelJackson_Original5S.wav,,,,,,,,,,,,,,,,,,,,,,,,,,,,,,,,,,,,,,,,,,,,,,,,,,,,,,,,,
,,,,,969945,001,2024-06-17_09h54.27.305,experiment,2024.1.5,Win32,59.88023952,65abf2d64c8491a1bb904917,667045947eb812cbdacbf325,66704d31324eb1dc5ca970aa,,,,,,,,,,,,,,,,,,,,,,,,,,,,,,,,,,,566.6658,572.7278,0,1,1,1,1,SoundStimuli/RockWithYou_MichaelJackson_Cover5S.wav,,,,,,,,,,,,,,,,,,,,,,,,,,,,,,,,,,,,,,,,,,,,,,,,,,,,,,,,,
,,,,,969945,001,2024-06-17_09h54.27.305,experiment,2024.1.5,Win32,59.88023952,65abf2d64c8491a1bb904917,667045947eb812cbdacbf325,66704d31324eb1dc5ca970aa,,,,,,,,,,,,,,,,,,,,,,,,,,,,,,,,,,,,,,,,,,,572.7288,573.7692,1.056666819,0.957,0,9,9,16,1,song_indices/RockWithYou_MichaelJackson.csv,,,,,,,,,,,,,,,,,,,,,,,,,,,,,,,,,,,,,,,,,,,,,,,
,,,,,969945,001,2024-06-17_09h54.27.305,experiment,2024.1.5,Win32,59.88023952,65abf2d64c8491a1bb904917,667045947eb812cbdacbf325,66704d31324eb1dc5ca970aa,,,,,,,,,,,,,,,,,,,,,,,,,,,,,,,,,,,573.7731,579.8596,0,0,0,0,1,SoundStimuli/GetUrFreakOn_MissyElliot_Original5S.wav,,,,,,,,,,,,,,,,,,,,,,,,,,,,,,,,,,,,,,,,,,,,,,,,,,,,,,,,,
,,,,,969945,001,2024-06-17_09h54.27.305,experiment,2024.1.5,Win32,59.88023952,65abf2d64c8491a1bb904917,667045947eb812cbdacbf325,66704d31324eb1dc5ca970aa,,,,,,,,,,,,,,,,,,,,,,,,,,,,,,,,,,,579.9425,586.5371,0,1,1,1,1,SoundStimuli/GetUrFreakOn_MissyElliot_Cover5S.wav,,,,,,,,,,,,,,,,,,,,,,,,,,,,,,,,,,,,,,,,,,,,,,,,,,,,,,,,,
,,,,,969945,001,2024-06-17_09h54.27.305,experiment,2024.1.5,Win32,59.88023952,65abf2d64c8491a1bb904917,667045947eb812cbdacbf325,66704d31324eb1dc5ca970aa,,,,,,,,,,,,,,,,,,,,,,,,,,,,,,,,,,,,,,,,,,,586.5377,587.4551,1.580000051,0.837,0,10,10,18,1,song_indices/GetUrFreakOn_MissyElliot.csv,,,,,,,,,,,,,,,,,,,,,,,,,,,,,,,,,,,,,,,,,,,,,,,
,,,,,969945,001,2024-06-17_09h54.27.305,experiment,2024.1.5,Win32,59.88023952,65abf2d64c8491a1bb904917,667045947eb812cbdacbf325,66704d31324eb1dc5ca970aa,,,,,,,,,,,,,,,,,,,,,,,,,,,,,,,,,,,587.4598,593.4509,0,0,0,0,1,SoundStimuli/IWalkTheLine_JohnnyCash_Original5S.wav,,,,,,,,,,,,,,,,,,,,,,,,,,,,,,,,,,,,,,,,,,,,,,,,,,,,,,,,,
,,,,,969945,001,2024-06-17_09h54.27.305,experiment,2024.1.5,Win32,59.88023952,65abf2d64c8491a1bb904917,667045947eb812cbdacbf325,66704d31324eb1dc5ca970aa,,,,,,,,,,,,,,,,,,,,,,,,,,,,,,,,,,,593.5191,600.6678,0,1,1,1,1,SoundStimuli/IWalkTheLine_JohnnyCash_Cover5S.wav,,,,,,,,,,,,,,,,,,,,,,,,,,,,,,,,,,,,,,,,,,,,,,,,,,,,,,,,,
,,,,,969945,001,2024-06-17_09h54.27.305,experiment,2024.1.5,Win32,59.88023952,65abf2d64c8491a1bb904917,667045947eb812cbdacbf325,66704d31324eb1dc5ca970aa,,,,,,,,,,,,,,,,,,,,,,,,,,,,,,,,,,,,,,,,,,,600.669,602.2251,1.160000102,1.4765,0,11,11,17,1,song_indices/IWalkTheLine_JohnnyCash.csv,,,,,,,,,,,,,,,,,,,,,,,,,,,,,,,,,,,,,,,,,,,,,,,
,,,,,969945,001,2024-06-17_09h54.27.305,experiment,2024.1.5,Win32,59.88023952,65abf2d64c8491a1bb904917,667045947eb812cbdacbf325,66704d31324eb1dc5ca970aa,,,,,,,,,,,,,,,,,,,,,,,,,,,,,,,,,,,602.2303,608.1401,0,0,0,0,1,SoundStimuli/EyeOfTheTiger_Survivor_Original5S.wav,,,,,,,,,,,,,,,,,,,,,,,,,,,,,,,,,,,,,,,,,,,,,,,,,,,,,,,,,
,,,,,969945,001,2024-06-17_09h54.27.305,experiment,2024.1.5,Win32,59.88023952,65abf2d64c8491a1bb904917,667045947eb812cbdacbf325,66704d31324eb1dc5ca970aa,,,,,,,,,,,,,,,,,,,,,,,,,,,,,,,,,,,608.21,614.3566,0,1,1,1,1,SoundStimuli/EyeOfTheTiger_Survivor_Cover5S.wav,,,,,,,,,,,,,,,,,,,,,,,,,,,,,,,,,,,,,,,,,,,,,,,,,,,,,,,,,
,,,,,969945,001,2024-06-17_09h54.27.305,experiment,2024.1.5,Win32,59.88023952,65abf2d64c8491a1bb904917,667045947eb812cbdacbf325,66704d31324eb1dc5ca970aa,,,,,,,,,,,,,,,,,,,,,,,,,,,,,,,,,,,,,,,,,,,614.3573,615.0812,6.85,0.6504,0,12,12,11,1,song_indices/EyeOfTheTiger_Survivor.csv,,,,,,,,,,,,,,,,,,,,,,,,,,,,,,,,,,,,,,,,,,,,,,,
,,,,,969945,001,2024-06-17_09h54.27.305,experiment,2024.1.5,Win32,59.88023952,65abf2d64c8491a1bb904917,667045947eb812cbdacbf325,66704d31324eb1dc5ca970aa,,,,,,,,,,,,,,,,,,,,,,,,,,,,,,,,,,,615.0855,622.3239,0,0,0,0,1,SoundStimuli/UptownFunk_MarkRonson_Original5S.wav,,,,,,,,,,,,,,,,,,,,,,,,,,,,,,,,,,,,,,,,,,,,,,,,,,,,,,,,,
,,,,,969945,001,2024-06-17_09h54.27.305,experiment,2024.1.5,Win32,59.88023952,65abf2d64c8491a1bb904917,667045947eb812cbdacbf325,66704d31324eb1dc5ca970aa,,,,,,,,,,,,,,,,,,,,,,,,,,,,,,,,,,,622.3959,629.4328,0,1,1,1,1,SoundStimuli/UptownFunk_MarkRonson_Cover5S.wav,,,,,,,,,,,,,,,,,,,,,,,,,,,,,,,,,,,,,,,,,,,,,,,,,,,,,,,,,
,,,,,969945,001,2024-06-17_09h54.27.305,experiment,2024.1.5,Win32,59.88023952,65abf2d64c8491a1bb904917,667045947eb812cbdacbf325,66704d31324eb1dc5ca970aa,,,,,,,,,,,,,,,,,,,,,,,,,,,,,,,,,,,,,,,,,,,629.4335,630.4342,6.25,0.9185,0,13,13,15,1,song_indices/UptownFunk_MarkRonson.csv,,,,,,,,,,,,,,,,,,,,,,,,,,,,,,,,,,,,,,,,,,,,,,,
,,,,,969945,001,2024-06-17_09h54.27.305,experiment,2024.1.5,Win32,59.88023952,65abf2d64c8491a1bb904917,667045947eb812cbdacbf325,66704d31324eb1dc5ca970aa,,,,,,,,,,,,,,,,,,,,,,,,,,,,,,,,,,,630.4384,636.6495,0,0,0,1,1,SoundStimuli/NoOne_AliciaKeys_Cover5S.wav,,,,,,,,,,,,,,,,,,,,,,,,,,,,,,,,,,,,,,,,,,,,,,,,,,,,,,,,,
,,,,,969945,001,2024-06-17_09h54.27.305,experiment,2024.1.5,Win32,59.88023952,65abf2d64c8491a1bb904917,667045947eb812cbdacbf325,66704d31324eb1dc5ca970aa,,,,,,,,,,,,,,,,,,,,,,,,,,,,,,,,,,,636.7256,644.4659,0,1,1,0,1,SoundStimuli/NoOne_AliciaKeys_Original5S.wav,,,,,,,,,,,,,,,,,,,,,,,,,,,,,,,,,,,,,,,,,,,,,,,,,,,,,,,,,
,,,,,969945,001,2024-06-17_09h54.27.305,experiment,2024.1.5,Win32,59.88023952,65abf2d64c8491a1bb904917,667045947eb812cbdacbf325,66704d31324eb1dc5ca970aa,,,,,,,,,,,,,,,,,,,,,,,,,,,,,,,,,,,,,,,,,,,644.4663,645.3679,3.026666768,0.8138,0,14,14,19,1,song_indices/NoOne_AliciaKeys.csv,,,,,,,,,,,,,,,,,,,,,,,,,,,,,,,,,,,,,,,,,,,,,,,
,,,,,969945,001,2024-06-17_09h54.27.305,experiment,2024.1.5,Win32,59.88023952,65abf2d64c8491a1bb904917,667045947eb812cbdacbf325,66704d31324eb1dc5ca970aa,,,,,,,,,,,,,,,,,,,,,,,,,,,,,,,,,,,645.3726,651.4209,0,0,0,1,1,SoundStimuli/StandByMe_BenEKing_Cover5S.wav,,,,,,,,,,,,,,,,,,,,,,,,,,,,,,,,,,,,,,,,,,,,,,,,,,,,,,,,,
,,,,,969945,001,2024-06-17_09h54.27.305,experiment,2024.1.5,Win32,59.88023952,65abf2d64c8491a1bb904917,667045947eb812cbdacbf325,66704d31324eb1dc5ca970aa,,,,,,,,,,,,,,,,,,,,,,,,,,,,,,,,,,,651.4971,657.4325,0,1,1,0,1,SoundStimuli/StandByMe_BenEKing_Original5S.wav,,,,,,,,,,,,,,,,,,,,,,,,,,,,,,,,,,,,,,,,,,,,,,,,,,,,,,,,,
,,,,,969945,001,2024-06-17_09h54.27.305,experiment,2024.1.5,Win32,59.88023952,65abf2d64c8491a1bb904917,667045947eb812cbdacbf325,66704d31324eb1dc5ca970aa,,,,,,,,,,,,,,,,,,,,,,,,,,,,,,,,,,,,,,,,,,,657.4334,659.2448,2.543333435,1.7263,0,15,15,1,1,song_indices/StandByMe_BenEKing.csv,,,,,,,,,,,,,,,,,,,,,,,,,,,,,,,,,,,,,,,,,,,,,,,
,,,,,969945,001,2024-06-17_09h54.27.305,experiment,2024.1.5,Win32,59.88023952,65abf2d64c8491a1bb904917,667045947eb812cbdacbf325,66704d31324eb1dc5ca970aa,,,,,,,,,,,,,,,,,,,,,,,,,,,,,,,,,,,659.2497,665.4594,0,0,0,0,1,SoundStimuli/TheBattleOfNewOrleans_JohnnyHorton_Original5S.wav,,,,,,,,,,,,,,,,,,,,,,,,,,,,,,,,,,,,,,,,,,,,,,,,,,,,,,,,,
,,,,,969945,001,2024-06-17_09h54.27.305,experiment,2024.1.5,Win32,59.88023952,65abf2d64c8491a1bb904917,667045947eb812cbdacbf325,66704d31324eb1dc5ca970aa,,,,,,,,,,,,,,,,,,,,,,,,,,,,,,,,,,,665.5395,673.5229,0,1,1,1,1,SoundStimuli/TheBattleOfNewOrleans_JohnnyHorton_Cover5S.wav,,,,,,,,,,,,,,,,,,,,,,,,,,,,,,,,,,,,,,,,,,,,,,,,,,,,,,,,,
,,,,,969945,001,2024-06-17_09h54.27.305,experiment,2024.1.5,Win32,59.88023952,65abf2d64c8491a1bb904917,667045947eb812cbdacbf325,66704d31324eb1dc5ca970aa,,,,,,,,,,,,,,,,,,,,,,,,,,,,,,,,,,,,,,,,,,,673.5242,675.3852,1.133333333,1.7833,0,16,16,4,1,song_indices/TheBattleOfNewOrleans_JohnnyHorton.csv,,,,,,,,,,,,,,,,,,,,,,,,,,,,,,,,,,,,,,,,,,,,,,,
,,,,,969945,001,2024-06-17_09h54.27.305,experiment,2024.1.5,Win32,59.88023952,65abf2d64c8491a1bb904917,667045947eb812cbdacbf325,66704d31324eb1dc5ca970aa,,,,,,,,,,,,,,,,,,,,,,,,,,,,,,,,,,,675.3892,682.7466,0,0,0,1,1,SoundStimuli/Happy_PharellWilliams_Cover5S.wav,,,,,,,,,,,,,,,,,,,,,,,,,,,,,,,,,,,,,,,,,,,,,,,,,,,,,,,,,
,,,,,969945,001,2024-06-17_09h54.27.305,experiment,2024.1.5,Win32,59.88023952,65abf2d64c8491a1bb904917,667045947eb812cbdacbf325,66704d31324eb1dc5ca970aa,,,,,,,,,,,,,,,,,,,,,,,,,,,,,,,,,,,682.8234,690.1797,0,1,1,0,1,SoundStimuli/Happy_PharellWilliams_Original5S.wav,,,,,,,,,,,,,,,,,,,,,,,,,,,,,,,,,,,,,,,,,,,,,,,,,,,,,,,,,
,,,,,969945,001,2024-06-17_09h54.27.305,experiment,2024.1.5,Win32,59.88023952,65abf2d64c8491a1bb904917,667045947eb812cbdacbf325,66704d31324eb1dc5ca970aa,,,,,,,,,,,,,,,,,,,,,,,,,,,,,,,,,,,,,,,,,,,690.1805,691.047,5.203333537,0.7565,0,17,17,7,1,song_indices/Happy_PharellWilliams.csv,,,,,,,,,,,,,,,,,,,,,,,,,,,,,,,,,,,,,,,,,,,,,,,
,,,,,969945,001,2024-06-17_09h54.27.305,experiment,2024.1.5,Win32,59.88023952,65abf2d64c8491a1bb904917,667045947eb812cbdacbf325,66704d31324eb1dc5ca970aa,,,,,,,,,,,,,,,,,,,,,,,,,,,,,,,,,,,691.0508,697.3345,0,0,0,0,1,SoundStimuli/ItsAllInTheGame_TommyEdwards_Original5S.wav,,,,,,,,,,,,,,,,,,,,,,,,,,,,,,,,,,,,,,,,,,,,,,,,,,,,,,,,,
,,,,,969945,001,2024-06-17_09h54.27.305,experiment,2024.1.5,Win32,59.88023952,65abf2d64c8491a1bb904917,667045947eb812cbdacbf325,66704d31324eb1dc5ca970aa,,,,,,,,,,,,,,,,,,,,,,,,,,,,,,,,,,,697.4152,703.6607,0,1,1,1,1,SoundStimuli/ItsAllInTheGame_TommyEdwards_Cover5S.wav,,,,,,,,,,,,,,,,,,,,,,,,,,,,,,,,,,,,,,,,,,,,,,,,,,,,,,,,,
,,,,,969945,001,2024-06-17_09h54.27.305,experiment,2024.1.5,Win32,59.88023952,65abf2d64c8491a1bb904917,667045947eb812cbdacbf325,66704d31324eb1dc5ca970aa,,,,,,,,,,,,,,,,,,,,,,,,,,,,,,,,,,,,,,,,,,,703.6618,706.5686,2.206666819,2.825,0,18,18,13,1,song_indices/ItsAllInTheGame_TommyEdwards.csv,,,,,,,,,,,,,,,,,,,,,,,,,,,,,,,,,,,,,,,,,,,,,,,
,,,,,969945,001,2024-06-17_09h54.27.305,experiment,2024.1.5,Win32,59.88023952,65abf2d64c8491a1bb904917,667045947eb812cbdacbf325,66704d31324eb1dc5ca970aa,,,,,,,,,,,,,,,,,,,,,,,,,,,,,,,,,,,706.5737,713.0234,0,0,0,1,1,SoundStimuli/Fallin_AliciaKeys_Cover5S.wav,,,,,,,,,,,,,,,,,,,,,,,,,,,,,,,,,,,,,,,,,,,,,,,,,,,,,,,,,
,,,,,969945,001,2024-06-17_09h54.27.305,experiment,2024.1.5,Win32,59.88023952,65abf2d64c8491a1bb904917,667045947eb812cbdacbf325,66704d31324eb1dc5ca970aa,,,,,,,,,,,,,,,,,,,,,,,,,,,,,,,,,,,713.0967,719.2888,0,1,1,0,1,SoundStimuli/Fallin_AliciaKeys_Original5S.wav,,,,,,,,,,,,,,,,,,,,,,,,,,,,,,,,,,,,,,,,,,,,,,,,,,,,,,,,,
,,,,,969945,001,2024-06-17_09h54.27.305,experiment,2024.1.5,Win32,59.88023952,65abf2d64c8491a1bb904917,667045947eb812cbdacbf325,66704d31324eb1dc5ca970aa,,,,,,,,,,,,,,,,,,,,,,,,,,,,,,,,,,,,,,,,,,,719.2892,720.5685,5.063333639,1.1991,0,19,19,12,1,song_indices/Fallin_AliciaKeys.csv,,,,,,,,,,,,,,,,,,,,,,,,,,,,,,,,,,,,,,,,,,,,,,,
,,,,,969945,001,2024-06-17_09h54.27.305,experiment,2024.1.5,Win32,59.88023952,65abf2d64c8491a1bb904917,667045947eb812cbdacbf325,66704d31324eb1dc5ca970aa,,,,,,,,,,,,,,,,,,,,,,,,,,,,,,,,,,,720.5701,726.8647,0,0,0,0,1,SoundStimuli/HeyYa_Outkast_Original5S.wav,,,,,,,,,,,,,,,,,,,,,,,,,,,,,,,,,,,,,,,,,,,,,,,,,,,,,,,,,
,,,,,969945,001,2024-06-17_09h54.27.305,experiment,2024.1.5,Win32,59.88023952,65abf2d64c8491a1bb904917,667045947eb812cbdacbf325,66704d31324eb1dc5ca970aa,,,,,,,,,,,,,,,,,,,,,,,,,,,,,,,,,,,726.9318,735.8471,0,1,1,1,1,SoundStimuli/HeyYa_Outkast_Cover5S.wav,,,,,,,,,,,,,,,,,,,,,,,,,,,,,,,,,,,,,,,,,,,,,,,,,,,,,,,,,
,,,,,969945,001,2024-06-17_09h54.27.305,experiment,2024.1.5,Win32,59.88023952,65abf2d64c8491a1bb904917,667045947eb812cbdacbf325,66704d31324eb1dc5ca970aa,,,,,,,,,,,,,,,,,,,,,,,,,,,,,,,,,,,,,,,,,,,735.8481,738.6536,4.330000305,2.7289,0,20,20,22,1,song_indices/HeyYa_Outkast.csv,,,,,,,,,,,,,,,,,,,,,,,,,,,,,,,,,,,,,,,,,,,,,,,
,,,,,969945,001,2024-06-17_09h54.27.305,experiment,2024.1.5,Win32,59.88023952,65abf2d64c8491a1bb904917,667045947eb812cbdacbf325,66704d31324eb1dc5ca970aa,,,,,,,,,,,,,,,,,,,,,,,,,,,,,,,,,,,738.6567,745.2164,0,0,0,0,1,SoundStimuli/CrazyInLove_BeyonceFtJayZ_Original5S.wav,,,,,,,,,,,,,,,,,,,,,,,,,,,,,,,,,,,,,,,,,,,,,,,,,,,,,,,,,
,,,,,969945,001,2024-06-17_09h54.27.305,experiment,2024.1.5,Win32,59.88023952,65abf2d64c8491a1bb904917,667045947eb812cbdacbf325,66704d31324eb1dc5ca970aa,,,,,,,,,,,,,,,,,,,,,,,,,,,,,,,,,,,745.2869,755.5477,0,1,1,1,1,SoundStimuli/CrazyInLove_BeyonceFtJayZ_Cover5S.wav,,,,,,,,,,,,,,,,,,,,,,,,,,,,,,,,,,,,,,,,,,,,,,,,,,,,,,,,,
,,,,,969945,001,2024-06-17_09h54.27.305,experiment,2024.1.5,Win32,59.88023952,65abf2d64c8491a1bb904917,667045947eb812cbdacbf325,66704d31324eb1dc5ca970aa,,,,,,,,,,,,,,,,,,,,,,,,,,,,,,,,,,,,,,,,,,,755.5493,756.4047,1.356666819,0.7811,0,21,21,3,1,song_indices/CrazyInLove_BeyonceFtJayZ.csv,,,,,,,,,,,,,,,,,,,,,,,,,,,,,,,,,,,,,,,,,,,,,,,
,,,,,969945,001,2024-06-17_09h54.27.305,experiment,2024.1.5,Win32,59.88023952,65abf2d64c8491a1bb904917,667045947eb812cbdacbf325,66704d31324eb1dc5ca970aa,,,,,,,,,,,,,,,,,,,,,,,,,,,,,,,,,,,756.4085,763.1658,0,0,0,0,1,SoundStimuli/PartyRockAnthem_LMFAO_Original5S.wav,,,,,,,,,,,,,,,,,,,,,,,,,,,,,,,,,,,,,,,,,,,,,,,,,,,,,,,,,
,,,,,969945,001,2024-06-17_09h54.27.305,experiment,2024.1.5,Win32,59.88023952,65abf2d64c8491a1bb904917,667045947eb812cbdacbf325,66704d31324eb1dc5ca970aa,,,,,,,,,,,,,,,,,,,,,,,,,,,,,,,,,,,763.2387,770.0314,0,1,1,1,1,SoundStimuli/PartyRockAnthem_LMFAO_Cover5S.wav,,,,,,,,,,,,,,,,,,,,,,,,,,,,,,,,,,,,,,,,,,,,,,,,,,,,,,,,,
,,,,,969945,001,2024-06-17_09h54.27.305,experiment,2024.1.5,Win32,59.88023952,65abf2d64c8491a1bb904917,667045947eb812cbdacbf325,66704d31324eb1dc5ca970aa,,,,,,,,,,,,,,,,,,,,,,,,,,,,,,,,,,,,,,,,,,,770.0318,771.3869,5.216666667,1.3143,0,22,22,2,1,song_indices/PartyRockAnthem_LMFAO.csv,,,,,,,,,,,,,,,,,,,,,,,,,,,,,,,,,,,,,,,,,,,,,,,
,,,,,969945,001,2024-06-17_09h54.27.305,experiment,2024.1.5,Win32,59.88023952,65abf2d64c8491a1bb904917,667045947eb812cbdacbf325,66704d31324eb1dc5ca970aa,,,,,,,,,,,,,,,,,,,,,,,,,,,,,,,,,,,,,,,,,,,,,,,,,,,,,771.3871,783.5396,space,12.1362,,0,1,1,1,1,choose_song_b2.csv,,,,,,,,,,,,,,,,,,,,,,,,,,,,,,,,,,,,
,,,,,969945,001,2024-06-17_09h54.27.305,experiment,2024.1.5,Win32,59.88023952,65abf2d64c8491a1bb904917,667045947eb812cbdacbf325,66704d31324eb1dc5ca970aa,,,,,,,,,,,,,,,,,,,,,,,,,,,,,,,,,,,783.6141,789.729,0,0,0,0,1,SoundStimuli/JoyToTheWorld_ThreeDogNight_Original5S.wav,,,,,,,,,,,,,,,,,,,,,,,,,,,,,,,,,,,,,,,,,,,,,,,,,,,,,,,,,
,,,,,969945,001,2024-06-17_09h54.27.305,experiment,2024.1.5,Win32,59.88023952,65abf2d64c8491a1bb904917,667045947eb812cbdacbf325,66704d31324eb1dc5ca970aa,,,,,,,,,,,,,,,,,,,,,,,,,,,,,,,,,,,789.8,794.9333,0,1,1,1,1,SoundStimuli/JoyToTheWorld_ThreeDogNight_Cover5S.wav,,,,,,,,,,,,,,,,,,,,,,,,,,,,,,,,,,,,,,,,,,,,,,,,,,,,,,,,,
,,,,,969945,001,2024-06-17_09h54.27.305,experiment,2024.1.5,Win32,59.88023952,65abf2d64c8491a1bb904917,667045947eb812cbdacbf325,66704d31324eb1dc5ca970aa,,,,,,,,,,,,,,,,,,,,,,,,,,,,,,,,,,,,,,,,,,,794.9348,797.3884,5.620000203,2.3831,0,0,0,8,1,song_indices/JoyToTheWorld_ThreeDogNight.csv,,,,,,,,,,,,,,,,,,,,,,,,,,,,,,,,,,,,,,,,,,,,,,,
,,,,,969945,001,2024-06-17_09h54.27.305,experiment,2024.1.5,Win32,59.88023952,65abf2d64c8491a1bb904917,667045947eb812cbdacbf325,66704d31324eb1dc5ca970aa,,,,,,,,,,,,,,,,,,,,,,,,,,,,,,,,,,,797.3929,803.1135,0,0,0,1,1,SoundStimuli/Levitating_DuaLipa_Cover5S.wav,,,,,,,,,,,,,,,,,,,,,,,,,,,,,,,,,,,,,,,,,,,,,,,,,,,,,,,,,
,,,,,969945,001,2024-06-17_09h54.27.305,experiment,2024.1.5,Win32,59.88023952,65abf2d64c8491a1bb904917,667045947eb812cbdacbf325,66704d31324eb1dc5ca970aa,,,,,,,,,,,,,,,,,,,,,,,,,,,,,,,,,,,803.1848,809.2069,0,1,1,0,1,SoundStimuli/Levitating_DuaLipa_Original5S.wav,,,,,,,,,,,,,,,,,,,,,,,,,,,,,,,,,,,,,,,,,,,,,,,,,,,,,,,,,
,,,,,969945,001,2024-06-17_09h54.27.305,experiment,2024.1.5,Win32,59.88023952,65abf2d64c8491a1bb904917,667045947eb812cbdacbf325,66704d31324eb1dc5ca970aa,,,,,,,,,,,,,,,,,,,,,,,,,,,,,,,,,,,,,,,,,,,809.2077,810.4537,4.943333435,1.1751,0,1,1,10,1,song_indices/Levitating_DuaLipa.csv,,,,,,,,,,,,,,,,,,,,,,,,,,,,,,,,,,,,,,,,,,,,,,,
,,,,,969945,001,2024-06-17_09h54.27.305,experiment,2024.1.5,Win32,59.88023952,65abf2d64c8491a1bb904917,667045947eb812cbdacbf325,66704d31324eb1dc5ca970aa,,,,,,,,,,,,,,,,,,,,,,,,,,,,,,,,,,,810.459,816.9876,0,0,0,0,1,SoundStimuli/Dreams_FleetwoodMac_Original5S.wav,,,,,,,,,,,,,,,,,,,,,,,,,,,,,,,,,,,,,,,,,,,,,,,,,,,,,,,,,
,,,,,969945,001,2024-06-17_09h54.27.305,experiment,2024.1.5,Win32,59.88023952,65abf2d64c8491a1bb904917,667045947eb812cbdacbf325,66704d31324eb1dc5ca970aa,,,,,,,,,,,,,,,,,,,,,,,,,,,,,,,,,,,817.0597,824.9239,0,1,1,1,1,SoundStimuli/Dreams_FleetwoodMac_Cover5S.wav,,,,,,,,,,,,,,,,,,,,,,,,,,,,,,,,,,,,,,,,,,,,,,,,,,,,,,,,,
,,,,,969945,001,2024-06-17_09h54.27.305,experiment,2024.1.5,Win32,59.88023952,65abf2d64c8491a1bb904917,667045947eb812cbdacbf325,66704d31324eb1dc5ca970aa,,,,,,,,,,,,,,,,,,,,,,,,,,,,,,,,,,,,,,,,,,,824.9257,825.8611,5.143333435,0.8593,0,2,2,1,1,song_indices/Dreams_FleetwoodMac.csv,,,,,,,,,,,,,,,,,,,,,,,,,,,,,,,,,,,,,,,,,,,,,,,
,,,,,969945,001,2024-06-17_09h54.27.305,experiment,2024.1.5,Win32,59.88023952,65abf2d64c8491a1bb904917,667045947eb812cbdacbf325,66704d31324eb1dc5ca970aa,,,,,,,,,,,,,,,,,,,,,,,,,,,,,,,,,,,825.8653,832.0263,0,0,0,0,1,SoundStimuli/TheSign_AceOfBase_Original5S.wav,,,,,,,,,,,,,,,,,,,,,,,,,,,,,,,,,,,,,,,,,,,,,,,,,,,,,,,,,
,,,,,969945,001,2024-06-17_09h54.27.305,experiment,2024.1.5,Win32,59.88023952,65abf2d64c8491a1bb904917,667045947eb812cbdacbf325,66704d31324eb1dc5ca970aa,,,,,,,,,,,,,,,,,,,,,,,,,,,,,,,,,,,832.0966,838.1115,0,1,1,1,1,SoundStimuli/TheSign_AceOfBase_Cover5S.wav,,,,,,,,,,,,,,,,,,,,,,,,,,,,,,,,,,,,,,,,,,,,,,,,,,,,,,,,,
,,,,,969945,001,2024-06-17_09h54.27.305,experiment,2024.1.5,Win32,59.88023952,65abf2d64c8491a1bb904917,667045947eb812cbdacbf325,66704d31324eb1dc5ca970aa,,,,,,,,,,,,,,,,,,,,,,,,,,,,,,,,,,,,,,,,,,,838.113,841.7588,5.506666565,3.5611,0,3,3,5,1,song_indices/TheSign_AceOfBase.csv,,,,,,,,,,,,,,,,,,,,,,,,,,,,,,,,,,,,,,,,,,,,,,,
,,,,,969945,001,2024-06-17_09h54.27.305,experiment,2024.1.5,Win32,59.88023952,65abf2d64c8491a1bb904917,667045947eb812cbdacbf325,66704d31324eb1dc5ca970aa,,,,,,,,,,,,,,,,,,,,,,,,,,,,,,,,,,,841.7626,848.9981,0,0,0,0,1,SoundStimuli/SomebodyThatIUsedtoKnow_Gotye_Original5S.wav,,,,,,,,,,,,,,,,,,,,,,,,,,,,,,,,,,,,,,,,,,,,,,,,,,,,,,,,,
,,,,,969945,001,2024-06-17_09h54.27.305,experiment,2024.1.5,Win32,59.88023952,65abf2d64c8491a1bb904917,667045947eb812cbdacbf325,66704d31324eb1dc5ca970aa,,,,,,,,,,,,,,,,,,,,,,,,,,,,,,,,,,,849.0879,855.9101,0,1,1,1,1,SoundStimuli/SomebodyThatIUsedtoKnow_Gotye_Cover5S.wav,,,,,,,,,,,,,,,,,,,,,,,,,,,,,,,,,,,,,,,,,,,,,,,,,,,,,,,,,
,,,,,969945,001,2024-06-17_09h54.27.305,experiment,2024.1.5,Win32,59.88023952,65abf2d64c8491a1bb904917,667045947eb812cbdacbf325,66704d31324eb1dc5ca970aa,,,,,,,,,,,,,,,,,,,,,,,,,,,,,,,,,,,,,,,,,,,855.9109,860.4349,5.083333333,4.4576,0,4,4,7,1,song_indices/SomebodyThatIUsedtoKnow_Gotye.csv,,,,,,,,,,,,,,,,,,,,,,,,,,,,,,,,,,,,,,,,,,,,,,,
,,,,,969945,001,2024-06-17_09h54.27.305,experiment,2024.1.5,Win32,59.88023952,65abf2d64c8491a1bb904917,667045947eb812cbdacbf325,66704d31324eb1dc5ca970aa,,,,,,,,,,,,,,,,,,,,,,,,,,,,,,,,,,,860.4413,866.4951,0,0,0,0,1,SoundStimuli/TossinAndTurnin_BobbyLewis_Original5S.wav,,,,,,,,,,,,,,,,,,,,,,,,,,,,,,,,,,,,,,,,,,,,,,,,,,,,,,,,,
,,,,,969945,001,2024-06-17_09h54.27.305,experiment,2024.1.5,Win32,59.88023952,65abf2d64c8491a1bb904917,667045947eb812cbdacbf325,66704d31324eb1dc5ca970aa,,,,,,,,,,,,,,,,,,,,,,,,,,,,,,,,,,,866.5557,872.6891,0,1,1,1,1,SoundStimuli/TossinAndTurnin_BobbyLewis_Cover5S.wav,,,,,,,,,,,,,,,,,,,,,,,,,,,,,,,,,,,,,,,,,,,,,,,,,,,,,,,,,
,,,,,969945,001,2024-06-17_09h54.27.305,experiment,2024.1.5,Win32,59.88023952,65abf2d64c8491a1bb904917,667045947eb812cbdacbf325,66704d31324eb1dc5ca970aa,,,,,,,,,,,,,,,,,,,,,,,,,,,,,,,,,,,,,,,,,,,872.6899,877.9602,4.460000102,5.2005,0,5,5,13,1,song_indices/TossinAndTurnin_BobbyLewis.csv,,,,,,,,,,,,,,,,,,,,,,,,,,,,,,,,,,,,,,,,,,,,,,,
,,,,,969945,001,2024-06-17_09h54.27.305,experiment,2024.1.5,Win32,59.88023952,65abf2d64c8491a1bb904917,667045947eb812cbdacbf325,66704d31324eb1dc5ca970aa,,,,,,,,,,,,,,,,,,,,,,,,,,,,,,,,,,,877.9645,884.0585,0,0,0,0,1,SoundStimuli/YouLightUpMyLife_DebbyBoone_Original5S.wav,,,,,,,,,,,,,,,,,,,,,,,,,,,,,,,,,,,,,,,,,,,,,,,,,,,,,,,,,
,,,,,969945,001,2024-06-17_09h54.27.305,experiment,2024.1.5,Win32,59.88023952,65abf2d64c8491a1bb904917,667045947eb812cbdacbf325,66704d31324eb1dc5ca970aa,,,,,,,,,,,,,,,,,,,,,,,,,,,,,,,,,,,884.1265,890.5604,0,1,1,1,1,SoundStimuli/YouLightUpMyLife_DebbyBoone_Cover5S.wav,,,,,,,,,,,,,,,,,,,,,,,,,,,,,,,,,,,,,,,,,,,,,,,,,,,,,,,,,
,,,,,969945,001,2024-06-17_09h54.27.305,experiment,2024.1.5,Win32,59.88023952,65abf2d64c8491a1bb904917,667045947eb812cbdacbf325,66704d31324eb1dc5ca970aa,,,,,,,,,,,,,,,,,,,,,,,,,,,,,,,,,,,,,,,,,,,890.5619,892.6875,6.913333639,2.0917,0,6,6,4,1,song_indices/YouLightUpMyLife_DebbyBoone.csv,,,,,,,,,,,,,,,,,,,,,,,,,,,,,,,,,,,,,,,,,,,,,,,
,,,,,969945,001,2024-06-17_09h54.27.305,experiment,2024.1.5,Win32,59.88023952,65abf2d64c8491a1bb904917,667045947eb812cbdacbf325,66704d31324eb1dc5ca970aa,,,,,,,,,,,,,,,,,,,,,,,,,,,,,,,,,,,892.6942,898.5768,0,0,0,0,1,SoundStimuli/Irreplaceable_Beyonce_Original5S.wav,,,,,,,,,,,,,,,,,,,,,,,,,,,,,,,,,,,,,,,,,,,,,,,,,,,,,,,,,
,,,,,969945,001,2024-06-17_09h54.27.305,experiment,2024.1.5,Win32,59.88023952,65abf2d64c8491a1bb904917,667045947eb812cbdacbf325,66704d31324eb1dc5ca970aa,,,,,,,,,,,,,,,,,,,,,,,,,,,,,,,,,,,898.6474,904.564,0,1,1,1,1,SoundStimuli/Irreplaceable_Beyonce_Cover5S.wav,,,,,,,,,,,,,,,,,,,,,,,,,,,,,,,,,,,,,,,,,,,,,,,,,,,,,,,,,
,,,,,969945,001,2024-06-17_09h54.27.305,experiment,2024.1.5,Win32,59.88023952,65abf2d64c8491a1bb904917,667045947eb812cbdacbf325,66704d31324eb1dc5ca970aa,,,,,,,,,,,,,,,,,,,,,,,,,,,,,,,,,,,,,,,,,,,904.5647,906.3979,4.503333537,1.7533,0,7,7,19,1,song_indices/Irreplaceable_Beyonce.csv,,,,,,,,,,,,,,,,,,,,,,,,,,,,,,,,,,,,,,,,,,,,,,,
,,,,,969945,001,2024-06-17_09h54.27.305,experiment,2024.1.5,Win32,59.88023952,65abf2d64c8491a1bb904917,667045947eb812cbdacbf325,66704d31324eb1dc5ca970aa,,,,,,,,,,,,,,,,,,,,,,,,,,,,,,,,,,,906.4026,912.8973,0,0,0,0,1,SoundStimuli/BlindingLights_TheWeeknd_Original5S.wav,,,,,,,,,,,,,,,,,,,,,,,,,,,,,,,,,,,,,,,,,,,,,,,,,,,,,,,,,
,,,,,969945,001,2024-06-17_09h54.27.305,experiment,2024.1.5,Win32,59.88023952,65abf2d64c8491a1bb904917,667045947eb812cbdacbf325,66704d31324eb1dc5ca970aa,,,,,,,,,,,,,,,,,,,,,,,,,,,,,,,,,,,912.9702,919.7788,0,1,1,1,1,SoundStimuli/BlindingLights_TheWeeknd_Cover5S.wav,,,,,,,,,,,,,,,,,,,,,,,,,,,,,,,,,,,,,,,,,,,,,,,,,,,,,,,,,
,,,,,969945,001,2024-06-17_09h54.27.305,experiment,2024.1.5,Win32,59.88023952,65abf2d64c8491a1bb904917,667045947eb812cbdacbf325,66704d31324eb1dc5ca970aa,,,,,,,,,,,,,,,,,,,,,,,,,,,,,,,,,,,,,,,,,,,919.7804,920.629,1.173333486,0.7687,0,8,8,21,1,song_indices/BlindingLights_TheWeeknd.csv,,,,,,,,,,,,,,,,,,,,,,,,,,,,,,,,,,,,,,,,,,,,,,,
,,,,,969945,001,2024-06-17_09h54.27.305,experiment,2024.1.5,Win32,59.88023952,65abf2d64c8491a1bb904917,667045947eb812cbdacbf325,66704d31324eb1dc5ca970aa,,,,,,,,,,,,,,,,,,,,,,,,,,,,,,,,,,,920.6377,926.8392,0,0,0,0,1,SoundStimuli/Dilemma_NellyKellyRowland_Original5S.wav,,,,,,,,,,,,,,,,,,,,,,,,,,,,,,,,,,,,,,,,,,,,,,,,,,,,,,,,,
,,,,,969945,001,2024-06-17_09h54.27.305,experiment,2024.1.5,Win32,59.88023952,65abf2d64c8491a1bb904917,667045947eb812cbdacbf325,66704d31324eb1dc5ca970aa,,,,,,,,,,,,,,,,,,,,,,,,,,,,,,,,,,,926.9072,933.922,0,1,1,1,1,SoundStimuli/Dilemma_NellyKellyRowland_Cover5S.wav,,,,,,,,,,,,,,,,,,,,,,,,,,,,,,,,,,,,,,,,,,,,,,,,,,,,,,,,,
,,,,,969945,001,2024-06-17_09h54.27.305,experiment,2024.1.5,Win32,59.88023952,65abf2d64c8491a1bb904917,667045947eb812cbdacbf325,66704d31324eb1dc5ca970aa,,,,,,,,,,,,,,,,,,,,,,,,,,,,,,,,,,,,,,,,,,,933.9235,936.21,4.313333639,2.2136,0,9,9,2,1,song_indices/Dilemma_NellyKellyRowland.csv,,,,,,,,,,,,,,,,,,,,,,,,,,,,,,,,,,,,,,,,,,,,,,,
,,,,,969945,001,2024-06-17_09h54.27.305,experiment,2024.1.5,Win32,59.88023952,65abf2d64c8491a1bb904917,667045947eb812cbdacbf325,66704d31324eb1dc5ca970aa,,,,,,,,,,,,,,,,,,,,,,,,,,,,,,,,,,,936.2152,942.8659,0,0,0,1,1,SoundStimuli/LetsGetItOn_MarvinGaye_Cover5S.wav,,,,,,,,,,,,,,,,,,,,,,,,,,,,,,,,,,,,,,,,,,,,,,,,,,,,,,,,,
,,,,,969945,001,2024-06-17_09h54.27.305,experiment,2024.1.5,Win32,59.88023952,65abf2d64c8491a1bb904917,667045947eb812cbdacbf325,66704d31324eb1dc5ca970aa,,,,,,,,,,,,,,,,,,,,,,,,,,,,,,,,,,,942.9371,949.2331,0,1,1,0,1,SoundStimuli/LetsGetItOn_MarvinGaye_Original5S.wav,,,,,,,,,,,,,,,,,,,,,,,,,,,,,,,,,,,,,,,,,,,,,,,,,,,,,,,,,
,,,,,969945,001,2024-06-17_09h54.27.305,experiment,2024.1.5,Win32,59.88023952,65abf2d64c8491a1bb904917,667045947eb812cbdacbf325,66704d31324eb1dc5ca970aa,,,,,,,,,,,,,,,,,,,,,,,,,,,,,,,,,,,,,,,,,,,949.234,952.4985,3.296666972,3.187,0,10,10,20,1,song_indices/LetsGetItOn_MarvinGaye.csv,,,,,,,,,,,,,,,,,,,,,,,,,,,,,,,,,,,,,,,,,,,,,,,
,,,,,969945,001,2024-06-17_09h54.27.305,experiment,2024.1.5,Win32,59.88023952,65abf2d64c8491a1bb904917,667045947eb812cbdacbf325,66704d31324eb1dc5ca970aa,,,,,,,,,,,,,,,,,,,,,,,,,,,,,,,,,,,952.5021,958.6297,0,0,0,0,1,SoundStimuli/UnbreakMyHeart_ToniBraxton_Original5S.wav,,,,,,,,,,,,,,,,,,,,,,,,,,,,,,,,,,,,,,,,,,,,,,,,,,,,,,,,,
,,,,,969945,001,2024-06-17_09h54.27.305,experiment,2024.1.5,Win32,59.88023952,65abf2d64c8491a1bb904917,667045947eb812cbdacbf325,66704d31324eb1dc5ca970aa,,,,,,,,,,,,,,,,,,,,,,,,,,,,,,,,,,,958.7182,962.7232,0,1,1,1,1,SoundStimuli/UnbreakMyHeart_ToniBraxton_Cover5S.wav,,,,,,,,,,,,,,,,,,,,,,,,,,,,,,,,,,,,,,,,,,,,,,,,,,,,,,,,,
,,,,,969945,001,2024-06-17_09h54.27.305,experiment,2024.1.5,Win32,59.88023952,65abf2d64c8491a1bb904917,667045947eb812cbdacbf325,66704d31324eb1dc5ca970aa,,,,,,,,,,,,,,,,,,,,,,,,,,,,,,,,,,,,,,,,,,,962.7238,964.573,4.63666687,1.7746,0,11,11,16,1,song_indices/UnbreakMyHeart_ToniBraxton.csv,,,,,,,,,,,,,,,,,,,,,,,,,,,,,,,,,,,,,,,,,,,,,,,
,,,,,969945,001,2024-06-17_09h54.27.305,experiment,2024.1.5,Win32,59.88023952,65abf2d64c8491a1bb904917,667045947eb812cbdacbf325,66704d31324eb1dc5ca970aa,,,,,,,,,,,,,,,,,,,,,,,,,,,,,,,,,,,964.5765,970.699,0,0,0,0,1,SoundStimuli/ComeAndGetYourLove_Redbone_Original5S.wav,,,,,,,,,,,,,,,,,,,,,,,,,,,,,,,,,,,,,,,,,,,,,,,,,,,,,,,,,
,,,,,969945,001,2024-06-17_09h54.27.305,experiment,2024.1.5,Win32,59.88023952,65abf2d64c8491a1bb904917,667045947eb812cbdacbf325,66704d31324eb1dc5ca970aa,,,,,,,,,,,,,,,,,,,,,,,,,,,,,,,,,,,970.767,977.8366,0,1,1,1,1,SoundStimuli/ComeAndGetYourLove_Redbone_Cover5S.wav,,,,,,,,,,,,,,,,,,,,,,,,,,,,,,,,,,,,,,,,,,,,,,,,,,,,,,,,,
,,,,,969945,001,2024-06-17_09h54.27.305,experiment,2024.1.5,Win32,59.88023952,65abf2d64c8491a1bb904917,667045947eb812cbdacbf325,66704d31324eb1dc5ca970aa,,,,,,,,,,,,,,,,,,,,,,,,,,,,,,,,,,,,,,,,,,,977.8381,980.1751,4.503333537,2.255,0,12,12,22,1,song_indices/ComeAndGetYourLove_Redbone.csv,,,,,,,,,,,,,,,,,,,,,,,,,,,,,,,,,,,,,,,,,,,,,,,
,,,,,969945,001,2024-06-17_09h54.27.305,experiment,2024.1.5,Win32,59.88023952,65abf2d64c8491a1bb904917,667045947eb812cbdacbf325,66704d31324eb1dc5ca970aa,,,,,,,,,,,,,,,,,,,,,,,,,,,,,,,,,,,980.1798,987.7073,0,0,0,1,1,SoundStimuli/TikTok_Kesha_Cover5S.wav,,,,,,,,,,,,,,,,,,,,,,,,,,,,,,,,,,,,,,,,,,,,,,,,,,,,,,,,,
,,,,,969945,001,2024-06-17_09h54.27.305,experiment,2024.1.5,Win32,59.88023952,65abf2d64c8491a1bb904917,667045947eb812cbdacbf325,66704d31324eb1dc5ca970aa,,,,,,,,,,,,,,,,,,,,,,,,,,,,,,,,,,,987.7801,993.9841,0,1,1,0,1,SoundStimuli/TikTok_Kesha_Original5S.wav,,,,,,,,,,,,,,,,,,,,,,,,,,,,,,,,,,,,,,,,,,,,,,,,,,,,,,,,,
,,,,,969945,001,2024-06-17_09h54.27.305,experiment,2024.1.5,Win32,59.88023952,65abf2d64c8491a1bb904917,667045947eb812cbdacbf325,66704d31324eb1dc5ca970aa,,,,,,,,,,,,,,,,,,,,,,,,,,,,,,,,,,,,,,,,,,,993.9844,994.6548,5.110000102,0.6342,0,13,13,3,1,song_indices/TikTok_Kesha.csv,,,,,,,,,,,,,,,,,,,,,,,,,,,,,,,,,,,,,,,,,,,,,,,
,,,,,969945,001,2024-06-17_09h54.27.305,experiment,2024.1.5,Win32,59.88023952,65abf2d64c8491a1bb904917,667045947eb812cbdacbf325,66704d31324eb1dc5ca970aa,,,,,,,,,,,,,,,,,,,,,,,,,,,,,,,,,,,994.6582,1000.615,0,0,0,0,1,SoundStimuli/Respect_ArethaFranklin_Original5S.wav,,,,,,,,,,,,,,,,,,,,,,,,,,,,,,,,,,,,,,,,,,,,,,,,,,,,,,,,,
,,,,,969945,001,2024-06-17_09h54.27.305,experiment,2024.1.5,Win32,59.88023952,65abf2d64c8491a1bb904917,667045947eb812cbdacbf325,66704d31324eb1dc5ca970aa,,,,,,,,,,,,,,,,,,,,,,,,,,,,,,,,,,,1000.6446,1006.7,0,1,1,1,1,SoundStimuli/Respect_ArethaFranklin_Cover5S.wav,,,,,,,,,,,,,,,,,,,,,,,,,,,,,,,,,,,,,,,,,,,,,,,,,,,,,,,,,
,,,,,969945,001,2024-06-17_09h54.27.305,experiment,2024.1.5,Win32,59.88023952,65abf2d64c8491a1bb904917,667045947eb812cbdacbf325,66704d31324eb1dc5ca970aa,,,,,,,,,,,,,,,,,,,,,,,,,,,,,,,,,,,,,,,,,,,1006.7,1013.3323,3.176666768,6.613,0,14,14,0,1,song_indices/Respect_ArethaFranklin.csv,,,,,,,,,,,,,,,,,,,,,,,,,,,,,,,,,,,,,,,,,,,,,,,
,,,,,969945,001,2024-06-17_09h54.27.305,experiment,2024.1.5,Win32,59.88023952,65abf2d64c8491a1bb904917,667045947eb812cbdacbf325,66704d31324eb1dc5ca970aa,,,,,,,,,,,,,,,,,,,,,,,,,,,,,,,,,,,1013.3342,1018.8506,0,0,0,1,1,SoundStimuli/LeFreak_Chic_Cover5S.wav,,,,,,,,,,,,,,,,,,,,,,,,,,,,,,,,,,,,,,,,,,,,,,,,,,,,,,,,,
,,,,,969945,001,2024-06-17_09h54.27.305,experiment,2024.1.5,Win32,59.88023952,65abf2d64c8491a1bb904917,667045947eb812cbdacbf325,66704d31324eb1dc5ca970aa,,,,,,,,,,,,,,,,,,,,,,,,,,,,,,,,,,,1018.8661,1024.886,0,1,1,0,1,SoundStimuli/LeFreak_Chic_Original5S.wav,,,,,,,,,,,,,,,,,,,,,,,,,,,,,,,,,,,,,,,,,,,,,,,,,,,,,,,,,
,,,,,969945,001,2024-06-17_09h54.27.305,experiment,2024.1.5,Win32,59.88023952,65abf2d64c8491a1bb904917,667045947eb812cbdacbf325,66704d31324eb1dc5ca970aa,,,,,,,,,,,,,,,,,,,,,,,,,,,,,,,,,,,,,,,,,,,1024.8863,1026.4192,4.676666768,1.5136,0,15,15,11,1,song_indices/LeFreak_Chic.csv,,,,,,,,,,,,,,,,,,,,,,,,,,,,,,,,,,,,,,,,,,,,,,,
,,,,,969945,001,2024-06-17_09h54.27.305,experiment,2024.1.5,Win32,59.88023952,65abf2d64c8491a1bb904917,667045947eb812cbdacbf325,66704d31324eb1dc5ca970aa,,,,,,,,,,,,,,,,,,,,,,,,,,,,,,,,,,,1026.4244,1032.5063,0,0,0,0,1,SoundStimuli/Weak_SWV_Original5S.wav,,,,,,,,,,,,,,,,,,,,,,,,,,,,,,,,,,,,,,,,,,,,,,,,,,,,,,,,,
,,,,,969945,001,2024-06-17_09h54.27.305,experiment,2024.1.5,Win32,59.88023952,65abf2d64c8491a1bb904917,667045947eb812cbdacbf325,66704d31324eb1dc5ca970aa,,,,,,,,,,,,,,,,,,,,,,,,,,,,,,,,,,,1032.5277,1039.0015,0,1,1,1,1,SoundStimuli/Weak_SWV_Cover5S.wav,,,,,,,,,,,,,,,,,,,,,,,,,,,,,,,,,,,,,,,,,,,,,,,,,,,,,,,,,
,,,,,969945,001,2024-06-17_09h54.27.305,experiment,2024.1.5,Win32,59.88023952,65abf2d64c8491a1bb904917,667045947eb812cbdacbf325,66704d31324eb1dc5ca970aa,,,,,,,,,,,,,,,,,,,,,,,,,,,,,,,,,,,,,,,,,,,1039.0016,1041.1696,4.789999898,2.1403,0,16,16,6,1,song_indices/Weak_SWV.csv,,,,,,,,,,,,,,,,,,,,,,,,,,,,,,,,,,,,,,,,,,,,,,,
,,,,,969945,001,2024-06-17_09h54.27.305,experiment,2024.1.5,Win32,59.88023952,65abf2d64c8491a1bb904917,667045947eb812cbdacbf325,66704d31324eb1dc5ca970aa,,,,,,,,,,,,,,,,,,,,,,,,,,,,,,,,,,,1041.1722,1048.4444,0,0,0,1,1,SoundStimuli/FlashdanceWhatAFeeling_IreneCara_Cover5S.wav,,,,,,,,,,,,,,,,,,,,,,,,,,,,,,,,,,,,,,,,,,,,,,,,,,,,,,,,,
,,,,,969945,001,2024-06-17_09h54.27.305,experiment,2024.1.5,Win32,59.88023952,65abf2d64c8491a1bb904917,667045947eb812cbdacbf325,66704d31324eb1dc5ca970aa,,,,,,,,,,,,,,,,,,,,,,,,,,,,,,,,,,,1048.4768,1054.8735,0,1,1,0,1,SoundStimuli/FlashdanceWhatAFeeling_IreneCara_Original5S.wav,,,,,,,,,,,,,,,,,,,,,,,,,,,,,,,,,,,,,,,,,,,,,,,,,,,,,,,,,
,,,,,969945,001,2024-06-17_09h54.27.305,experiment,2024.1.5,Win32,59.88023952,65abf2d64c8491a1bb904917,667045947eb812cbdacbf325,66704d31324eb1dc5ca970aa,,,,,,,,,,,,,,,,,,,,,,,,,,,,,,,,,,,,,,,,,,,1054.8737,1056.007,5.673333232,1.0739,0,17,17,18,1,song_indices/FlashdanceWhatAFeeling_IreneCara.csv,,,,,,,,,,,,,,,,,,,,,,,,,,,,,,,,,,,,,,,,,,,,,,,
,,,,,969945,001,2024-06-17_09h54.27.305,experiment,2024.1.5,Win32,59.88023952,65abf2d64c8491a1bb904917,667045947eb812cbdacbf325,66704d31324eb1dc5ca970aa,,,,,,,,,,,,,,,,,,,,,,,,,,,,,,,,,,,1056.0101,1062.759,0,0,0,0,1,SoundStimuli/BlurredLines_RobinThicke_Original5S.wav,,,,,,,,,,,,,,,,,,,,,,,,,,,,,,,,,,,,,,,,,,,,,,,,,,,,,,,,,
,,,,,969945,001,2024-06-17_09h54.27.305,experiment,2024.1.5,Win32,59.88023952,65abf2d64c8491a1bb904917,667045947eb812cbdacbf325,66704d31324eb1dc5ca970aa,,,,,,,,,,,,,,,,,,,,,,,,,,,,,,,,,,,1062.7756,1069.8617,0,1,1,1,1,SoundStimuli/BlurredLines_RobinThicke_Cover5S.wav,,,,,,,,,,,,,,,,,,,,,,,,,,,,,,,,,,,,,,,,,,,,,,,,,,,,,,,,,
,,,,,969945,001,2024-06-17_09h54.27.305,experiment,2024.1.5,Win32,59.88023952,65abf2d64c8491a1bb904917,667045947eb812cbdacbf325,66704d31324eb1dc5ca970aa,,,,,,,,,,,,,,,,,,,,,,,,,,,,,,,,,,,,,,,,,,,1069.8624,1072.789,6.956666565,2.8902,0,18,18,9,1,song_indices/BlurredLines_RobinThicke.csv,,,,,,,,,,,,,,,,,,,,,,,,,,,,,,,,,,,,,,,,,,,,,,,
,,,,,969945,001,2024-06-17_09h54.27.305,experiment,2024.1.5,Win32,59.88023952,65abf2d64c8491a1bb904917,667045947eb812cbdacbf325,66704d31324eb1dc5ca970aa,,,,,,,,,,,,,,,,,,,,,,,,,,,,,,,,,,,1072.7904,1080.2321,0,0,0,0,1,SoundStimuli/Kiss_Prince_Original5S.wav,,,,,,,,,,,,,,,,,,,,,,,,,,,,,,,,,,,,,,,,,,,,,,,,,,,,,,,,,
,,,,,969945,001,2024-06-17_09h54.27.305,experiment,2024.1.5,Win32,59.88023952,65abf2d64c8491a1bb904917,667045947eb812cbdacbf325,66704d31324eb1dc5ca970aa,,,,,,,,,,,,,,,,,,,,,,,,,,,,,,,,,,,1080.2516,1086.5168,0,1,1,1,1,SoundStimuli/Kiss_Prince_Cover5S.wav,,,,,,,,,,,,,,,,,,,,,,,,,,,,,,,,,,,,,,,,,,,,,,,,,,,,,,,,,
,,,,,969945,001,2024-06-17_09h54.27.305,experiment,2024.1.5,Win32,59.88023952,65abf2d64c8491a1bb904917,667045947eb812cbdacbf325,66704d31324eb1dc5ca970aa,,,,,,,,,,,,,,,,,,,,,,,,,,,,,,,,,,,,,,,,,,,1086.5172,1088.7256,3.576666768,2.1927,0,19,19,14,1,song_indices/Kiss_Prince.csv,,,,,,,,,,,,,,,,,,,,,,,,,,,,,,,,,,,,,,,,,,,,,,,
,,,,,969945,001,2024-06-17_09h54.27.305,experiment,2024.1.5,Win32,59.88023952,65abf2d64c8491a1bb904917,667045947eb812cbdacbf325,66704d31324eb1dc5ca970aa,,,,,,,,,,,,,,,,,,,,,,,,,,,,,,,,,,,1088.7266,1094.777,0,0,0,0,1,SoundStimuli/HowDoILive_LeAnnRimes_Original5S.wav,,,,,,,,,,,,,,,,,,,,,,,,,,,,,,,,,,,,,,,,,,,,,,,,,,,,,,,,,
,,,,,969945,001,2024-06-17_09h54.27.305,experiment,2024.1.5,Win32,59.88023952,65abf2d64c8491a1bb904917,667045947eb812cbdacbf325,66704d31324eb1dc5ca970aa,,,,,,,,,,,,,,,,,,,,,,,,,,,,,,,,,,,1094.7919,1100.2546,0,1,1,1,1,SoundStimuli/HowDoILive_LeAnnRimes_Cover5S.wav,,,,,,,,,,,,,,,,,,,,,,,,,,,,,,,,,,,,,,,,,,,,,,,,,,,,,,,,,
,,,,,969945,001,2024-06-17_09h54.27.305,experiment,2024.1.5,Win32,59.88023952,65abf2d64c8491a1bb904917,667045947eb812cbdacbf325,66704d31324eb1dc5ca970aa,,,,,,,,,,,,,,,,,,,,,,,,,,,,,,,,,,,,,,,,,,,1100.2549,1102.0208,6.456666565,1.736,0,20,20,17,1,song_indices/HowDoILive_LeAnnRimes.csv,,,,,,,,,,,,,,,,,,,,,,,,,,,,,,,,,,,,,,,,,,,,,,,
,,,,,969945,001,2024-06-17_09h54.27.305,experiment,2024.1.5,Win32,59.88023952,65abf2d64c8491a1bb904917,667045947eb812cbdacbf325,66704d31324eb1dc5ca970aa,,,,,,,,,,,,,,,,,,,,,,,,,,,,,,,,,,,1102.0228,1107.3307,0,0,0,1,1,SoundStimuli/Superstition_StevieWonder_Cover5S.wav,,,,,,,,,,,,,,,,,,,,,,,,,,,,,,,,,,,,,,,,,,,,,,,,,,,,,,,,,
,,,,,969945,001,2024-06-17_09h54.27.305,experiment,2024.1.5,Win32,59.88023952,65abf2d64c8491a1bb904917,667045947eb812cbdacbf325,66704d31324eb1dc5ca970aa,,,,,,,,,,,,,,,,,,,,,,,,,,,,,,,,,,,1107.3459,1113.4925,0,1,1,0,1,SoundStimuli/Superstition_StevieWonder_Original5S.wav,,,,,,,,,,,,,,,,,,,,,,,,,,,,,,,,,,,,,,,,,,,,,,,,,,,,,,,,,
,,,,,969945,001,2024-06-17_09h54.27.305,experiment,2024.1.5,Win32,59.88023952,65abf2d64c8491a1bb904917,667045947eb812cbdacbf325,66704d31324eb1dc5ca970aa,,,,,,,,,,,,,,,,,,,,,,,,,,,,,,,,,,,,,,,,,,,1113.4933,1114.3537,3.363333639,0.841,0,21,21,15,1,song_indices/Superstition_StevieWonder.csv,,,,,,,,,,,,,,,,,,,,,,,,,,,,,,,,,,,,,,,,,,,,,,,
,,,,,969945,001,2024-06-17_09h54.27.305,experiment,2024.1.5,Win32,59.88023952,65abf2d64c8491a1bb904917,667045947eb812cbdacbf325,66704d31324eb1dc5ca970aa,,,,,,,,,,,,,,,,,,,,,,,,,,,,,,,,,,,1114.3547,1120.5525,0,0,0,0,1,SoundStimuli/SaveYourTears_TheWeekndArianaGrande_Original5S.wav,,,,,,,,,,,,,,,,,,,,,,,,,,,,,,,,,,,,,,,,,,,,,,,,,,,,,,,,,
,,,,,969945,001,2024-06-17_09h54.27.305,experiment,2024.1.5,Win32,59.88023952,65abf2d64c8491a1bb904917,667045947eb812cbdacbf325,66704d31324eb1dc5ca970aa,,,,,,,,,,,,,,,,,,,,,,,,,,,,,,,,,,,1120.5675,1126.4701,0,1,1,1,1,SoundStimuli/SaveYourTears_TheWeekndArianaGrande_Cover5S.wav,,,,,,,,,,,,,,,,,,,,,,,,,,,,,,,,,,,,,,,,,,,,,,,,,,,,,,,,,
,,,,,969945,001,2024-06-17_09h54.27.305,experiment,2024.1.5,Win32,59.88023952,65abf2d64c8491a1bb904917,667045947eb812cbdacbf325,66704d31324eb1dc5ca970aa,,,,,,,,,,,,,,,,,,,,,,,,,,,,,,,,,,,,,,,,,,,1126.4704,1127.6711,4.723333232,1.1739,0,22,22,12,1,song_indices/SaveYourTears_TheWeekndArianaGrande.csv,,,,,,,,,,,,,,,,,,,,,,,,,,,,,,,,,,,,,,,,,,,,,,,
,,,,,969945,001,2024-06-17_09h54.27.305,experiment,2024.1.5,Win32,59.88023952,65abf2d64c8491a1bb904917,667045947eb812cbdacbf325,66704d31324eb1dc5ca970aa,,,,,,,,,,,,,,,,,,,,,,,,,,,,,,,,,,,1127.6722,1134.6816,0,0,0,0,1,SoundStimuli/PokerFace_LadyGaga_Original5S.wav,,,,,,,,,,,,,,,,,,,,,,,,,,,,,,,,,,,,,,,,,,,,,,,,,,,,,,,,,
,,,,,969945,001,2024-06-17_09h54.27.305,experiment,2024.1.5,Win32,59.88023952,65abf2d64c8491a1bb904917,667045947eb812cbdacbf325,66704d31324eb1dc5ca970aa,,,,,,,,,,,,,,,,,,,,,,,,,,,,,,,,,,,1134.6976,1141.5336,0,1,1,1,1,SoundStimuli/PokerFace_LadyGaga_Cover5S.wav,,,,,,,,,,,,,,,,,,,,,,,,,,,,,,,,,,,,,,,,,,,,,,,,,,,,,,,,,
,,,,,969945,001,2024-06-17_09h54.27.305,experiment,2024.1.5,Win32,59.88023952,65abf2d64c8491a1bb904917,667045947eb812cbdacbf325,66704d31324eb1dc5ca970aa,,,,,,,,,,,,,,,,,,,,,,,,,,,,,,,,,,,,,,,,,,,1141.5342,1142.4579,2.816666667,0.8909,0,23,23,23,1,song_indices/PokerFace_LadyGaga.csv,,,,,,,,,,,,,,,,,,,,,,,,,,,,,,,,,,,,,,,,,,,,,,,
,,,,,969945,001,2024-06-17_09h54.27.305,experiment,2024.1.5,Win32,59.88023952,65abf2d64c8491a1bb904917,667045947eb812cbdacbf325,66704d31324eb1dc5ca970aa,,,,,,,,,,,,,,,,,,,,,,,,,,,,,,,,,,,,,,,,,,,,,,,,,,,,,1142.4582,1142.4586,,,,0,2,2,2,1,choose_song_b3.csv,,,,,,,,,,,,,,,,,,,,,,,,,,,,,,,,,,,,
,,,,,969945,001,2024-06-17_09h54.27.305,experiment,2024.1.5,Win32,59.88023952,65abf2d64c8491a1bb904917,667045947eb812cbdacbf325,66704d31324eb1dc5ca970aa,,,,,,,,,,,,,,,,,,,,,,,,,,,,,,,,,,,,,,,,,,,,,,,,,,,,,,,,,,,,,,,,52,Item 2,Not a musician,Item 3,Spotify and Apple music,3,6,"Driving, exercising",Often,Sometimes,Rarely,Sometimes,Rarely,Rarely,Rarely,Sometimes,Often,Often,Always,Often,Sometimes,Often,Always,Sometimes,Hip Hop,R&B,Country,No,I listen to music everyday. ,0,0,0,0,1,,
,,,,,969945,001,2024-06-17_09h54.27.305,experiment,2024.1.5,Win32,59.88023952,65abf2d64c8491a1bb904917,667045947eb812cbdacbf325,66704d31324eb1dc5ca970aa,,,,,,,,,,,,,,,,,,,,,,,,,,,,,,,,,,,,,,,,,,,,,,,,,,,,,,,,,,,,,,,,,,,,,,,,,,,,,,,,,,,,,,,,,,,,,,,,,,1533.2998,1533.6847
