welcome.started,welcome.stopped,space_to_continue.keys,space_to_continue.rt,space_to_continue.duration,participant,session,date,expName,psychopyVersion,OS,frameRate,PROLIFIC_PID,STUDY_ID,SESSION_ID,consent.consent,consent.consent_recontact,consent_check.started,consent_check.stopped,calibration_ready.started,calibration_ready.stopped,cal_ready.keys,cal_ready.rt,cal_ready.duration,calibration.started,calibration.stopped,mouse.x,mouse.y,mouse.leftButton,mouse.midButton,mouse.rightButton,mouse.time,mouse.clicked_name,move_on.keys,move_on.rt,move_on.duration,instructions.started,instructions.stopped,next.keys,next.rt,next.duration,practice_trial.started,practice_trial.stopped,practice_slider.response,practice_slider.rt,ready.started,ready.stopped,key_resp.keys,key_resp.rt,key_resp.duration,play_sound.started,play_sound.stopped,trials.thisRepN,trials.thisTrialN,trials.thisN,trials.thisIndex,trials.ran,orig_or_cover,rating.started,rating.stopped,slider.response,slider.rt,songs.thisRepN,songs.thisTrialN,songs.thisN,songs.thisIndex,songs.ran,song_id,short_break.started,short_break.stopped,space_to_move_on.keys,space_to_move_on.rt,space_to_move_on.duration,blocks.thisRepN,blocks.thisTrialN,blocks.thisN,blocks.thisIndex,blocks.ran,block,survey.age,survey.musician,survey.music_making,survey.listen_time,survey.medium,survey.music_seeking,survey.music_choice,survey.activities,survey.question1.Jazz,survey.question1.Latin,survey.question1.A cappella,survey.question1.Country,survey.question1.Folk/indie,survey.question1.Classic rock,survey.question1.Metal,survey.question1.Electronic (EDM),survey.question1.Pop,survey.question1.R&B,survey.question1.Ambient,survey.question1.Disco,survey.question1.Classical,survey.question1.Reggae,survey.question1.Hip hop,survey.question1.Alternative rock,survey.other_genres,survey.genres_ranked.text1,survey.genres_ranked.text2,survey.genres_ranked.text3,survey.habit_change,survey.habits,experiment.thisRepN,experiment.thisTrialN,experiment.thisN,experiment.thisIndex,experiment.ran,goodbye.started,goodbye.stopped
0.0002,2.0708,space,2.0464,,982727,001,2024-06-17_09h53.37.808,experiment,2024.1.5,Win32,59.88023952,66563e4da8bbe2b119755a50,667045947eb812cbdacbf325,66704dce3a476df4203072c2,,,,,,,,,,,,,,,,,,,,,,,,,,,,,,,,,,,,,,,,,,,,,,,,,,,,,,,,,,,,,,,,,,,,,,,,,,,,,,,,,,,,,,,,,,,,,,,,,,,,,
,,,,,982727,001,2024-06-17_09h53.37.808,experiment,2024.1.5,Win32,59.88023952,66563e4da8bbe2b119755a50,667045947eb812cbdacbf325,66704dce3a476df4203072c2,yes,yes,,,,,,,,,,,,,,,,,,,,,,,,,,,,,,,,,,,,,,,,,,,,,,,,,,,,,,,,,,,,,,,,,,,,,,,,,,,,,,,,,,,,,,,,,,,,,,,,,,,
,,,,,982727,001,2024-06-17_09h53.37.808,experiment,2024.1.5,Win32,59.88023952,66563e4da8bbe2b119755a50,667045947eb812cbdacbf325,66704dce3a476df4203072c2,,,13.3875,13.3876,,,,,,,,,,,,,,,,,,,,,,,,,,,,,,,,,,,,,,,,,,,,,,,,,,,,,,,,,,,,,,,,,,,,,,,,,,,,,,,,,,,,,,,,,,,,,,,,,
,,,,,982727,001,2024-06-17_09h53.37.808,experiment,2024.1.5,Win32,59.88023952,66563e4da8bbe2b119755a50,667045947eb812cbdacbf325,66704dce3a476df4203072c2,,,,,13.3886,19.1062,space,5.6923,,19.1064,47.3875,"[0.03333333333333333,-0.022916666666666665,0.06805555555555555]","[-0.42986111111111114,-0.41597222222222224,-0.3736111111111111]","[1,1,1]","[0,0,0]","[0,0,0]","[16.85740000003576,25.026600000023855,25.80560000002385]",[],right,18.2435,,47.4052,62.9539,space,15.5261,,62.9543,82.5577,4.020833333,19.5785,82.5584,84.1379,space,1.552,,84.1571,90.6619,0,0,0,0,1,SoundStimuli/Dreams_FleetwoodMac_Original5S.wav,,,,,,,,,,,,,,,,,,,,,,,,,,,,,,,,,,,,,,,,,,,,,,,,,,,,,,,,,,
,,,,,982727,001,2024-06-17_09h53.37.808,experiment,2024.1.5,Win32,59.88023952,66563e4da8bbe2b119755a50,667045947eb812cbdacbf325,66704dce3a476df4203072c2,,,,,,,,,,,,,,,,,,,,,,,,,,,,,,,,,,,,90.6624,98.4903,0,1,1,1,1,SoundStimuli/Dreams_FleetwoodMac_Cover5S.wav,,,,,,,,,,,,,,,,,,,,,,,,,,,,,,,,,,,,,,,,,,,,,,,,,,,,,,,,,,
,,,,,982727,001,2024-06-17_09h53.37.808,experiment,2024.1.5,Win32,59.88023952,66563e4da8bbe2b119755a50,667045947eb812cbdacbf325,66704dce3a476df4203072c2,,,,,,,,,,,,,,,,,,,,,,,,,,,,,,,,,,,,,,,,,,,,98.4991,100.6765,3.3625,2.1721,0,0,0,1,1,song_indices/Dreams_FleetwoodMac.csv,,,,,,,,,,,,,,,,,,,,,,,,,,,,,,,,,,,,,,,,,,,,,,,,
,,,,,982727,001,2024-06-17_09h53.37.808,experiment,2024.1.5,Win32,59.88023952,66563e4da8bbe2b119755a50,667045947eb812cbdacbf325,66704dce3a476df4203072c2,,,,,,,,,,,,,,,,,,,,,,,,,,,,,,,,,,,,100.6782,105.9832,0,0,0,1,1,SoundStimuli/Superstition_StevieWonder_Cover5S.wav,,,,,,,,,,,,,,,,,,,,,,,,,,,,,,,,,,,,,,,,,,,,,,,,,,,,,,,,,,
,,,,,982727,001,2024-06-17_09h53.37.808,experiment,2024.1.5,Win32,59.88023952,66563e4da8bbe2b119755a50,667045947eb812cbdacbf325,66704dce3a476df4203072c2,,,,,,,,,,,,,,,,,,,,,,,,,,,,,,,,,,,,105.9917,112.122,0,1,1,0,1,SoundStimuli/Superstition_StevieWonder_Original5S.wav,,,,,,,,,,,,,,,,,,,,,,,,,,,,,,,,,,,,,,,,,,,,,,,,,,,,,,,,,,
,,,,,982727,001,2024-06-17_09h53.37.808,experiment,2024.1.5,Win32,59.88023952,66563e4da8bbe2b119755a50,667045947eb812cbdacbf325,66704dce3a476df4203072c2,,,,,,,,,,,,,,,,,,,,,,,,,,,,,,,,,,,,,,,,,,,,112.1222,113.4411,2.425,1.3029,0,1,1,15,1,song_indices/Superstition_StevieWonder.csv,,,,,,,,,,,,,,,,,,,,,,,,,,,,,,,,,,,,,,,,,,,,,,,,
,,,,,982727,001,2024-06-17_09h53.37.808,experiment,2024.1.5,Win32,59.88023952,66563e4da8bbe2b119755a50,667045947eb812cbdacbf325,66704dce3a476df4203072c2,,,,,,,,,,,,,,,,,,,,,,,,,,,,,,,,,,,,113.4425,120.6813,0,0,0,0,1,SoundStimuli/SomebodyThatIUsedtoKnow_Gotye_Original5S.wav,,,,,,,,,,,,,,,,,,,,,,,,,,,,,,,,,,,,,,,,,,,,,,,,,,,,,,,,,,
,,,,,982727,001,2024-06-17_09h53.37.808,experiment,2024.1.5,Win32,59.88023952,66563e4da8bbe2b119755a50,667045947eb812cbdacbf325,66704dce3a476df4203072c2,,,,,,,,,,,,,,,,,,,,,,,,,,,,,,,,,,,,120.6953,127.5002,0,1,1,1,1,SoundStimuli/SomebodyThatIUsedtoKnow_Gotye_Cover5S.wav,,,,,,,,,,,,,,,,,,,,,,,,,,,,,,,,,,,,,,,,,,,,,,,,,,,,,,,,,,
,,,,,982727,001,2024-06-17_09h53.37.808,experiment,2024.1.5,Win32,59.88023952,66563e4da8bbe2b119755a50,667045947eb812cbdacbf325,66704dce3a476df4203072c2,,,,,,,,,,,,,,,,,,,,,,,,,,,,,,,,,,,,,,,,,,,,127.5003,128.7851,5.983333333,1.275,0,2,2,7,1,song_indices/SomebodyThatIUsedtoKnow_Gotye.csv,,,,,,,,,,,,,,,,,,,,,,,,,,,,,,,,,,,,,,,,,,,,,,,,
,,,,,982727,001,2024-06-17_09h53.37.808,experiment,2024.1.5,Win32,59.88023952,66563e4da8bbe2b119755a50,667045947eb812cbdacbf325,66704dce3a476df4203072c2,,,,,,,,,,,,,,,,,,,,,,,,,,,,,,,,,,,,128.7858,135.1806,0,0,0,0,1,SoundStimuli/FlashdanceWhatAFeeling_IreneCara_Original5S.wav,,,,,,,,,,,,,,,,,,,,,,,,,,,,,,,,,,,,,,,,,,,,,,,,,,,,,,,,,,
,,,,,982727,001,2024-06-17_09h53.37.808,experiment,2024.1.5,Win32,59.88023952,66563e4da8bbe2b119755a50,667045947eb812cbdacbf325,66704dce3a476df4203072c2,,,,,,,,,,,,,,,,,,,,,,,,,,,,,,,,,,,,135.2024,142.4881,0,1,1,1,1,SoundStimuli/FlashdanceWhatAFeeling_IreneCara_Cover5S.wav,,,,,,,,,,,,,,,,,,,,,,,,,,,,,,,,,,,,,,,,,,,,,,,,,,,,,,,,,,
,,,,,982727,001,2024-06-17_09h53.37.808,experiment,2024.1.5,Win32,59.88023952,66563e4da8bbe2b119755a50,667045947eb812cbdacbf325,66704dce3a476df4203072c2,,,,,,,,,,,,,,,,,,,,,,,,,,,,,,,,,,,,,,,,,,,,142.4884,143.5268,6.995833333,1.0294,0,3,3,18,1,song_indices/FlashdanceWhatAFeeling_IreneCara.csv,,,,,,,,,,,,,,,,,,,,,,,,,,,,,,,,,,,,,,,,,,,,,,,,
,,,,,982727,001,2024-06-17_09h53.37.808,experiment,2024.1.5,Win32,59.88023952,66563e4da8bbe2b119755a50,667045947eb812cbdacbf325,66704dce3a476df4203072c2,,,,,,,,,,,,,,,,,,,,,,,,,,,,,,,,,,,,143.5277,150.5129,0,0,0,1,1,SoundStimuli/Dilemma_NellyKellyRowland_Cover5S.wav,,,,,,,,,,,,,,,,,,,,,,,,,,,,,,,,,,,,,,,,,,,,,,,,,,,,,,,,,,
,,,,,982727,001,2024-06-17_09h53.37.808,experiment,2024.1.5,Win32,59.88023952,66563e4da8bbe2b119755a50,667045947eb812cbdacbf325,66704dce3a476df4203072c2,,,,,,,,,,,,,,,,,,,,,,,,,,,,,,,,,,,,150.5215,156.7197,0,1,1,0,1,SoundStimuli/Dilemma_NellyKellyRowland_Original5S.wav,,,,,,,,,,,,,,,,,,,,,,,,,,,,,,,,,,,,,,,,,,,,,,,,,,,,,,,,,,
,,,,,982727,001,2024-06-17_09h53.37.808,experiment,2024.1.5,Win32,59.88023952,66563e4da8bbe2b119755a50,667045947eb812cbdacbf325,66704dce3a476df4203072c2,,,,,,,,,,,,,,,,,,,,,,,,,,,,,,,,,,,,,,,,,,,,156.7201,158.0376,1.025,1.2996,0,4,4,2,1,song_indices/Dilemma_NellyKellyRowland.csv,,,,,,,,,,,,,,,,,,,,,,,,,,,,,,,,,,,,,,,,,,,,,,,,
,,,,,982727,001,2024-06-17_09h53.37.808,experiment,2024.1.5,Win32,59.88023952,66563e4da8bbe2b119755a50,667045947eb812cbdacbf325,66704dce3a476df4203072c2,,,,,,,,,,,,,,,,,,,,,,,,,,,,,,,,,,,,158.0392,164.0461,0,0,0,1,1,SoundStimuli/TheSign_AceOfBase_Cover5S.wav,,,,,,,,,,,,,,,,,,,,,,,,,,,,,,,,,,,,,,,,,,,,,,,,,,,,,,,,,,
,,,,,982727,001,2024-06-17_09h53.37.808,experiment,2024.1.5,Win32,59.88023952,66563e4da8bbe2b119755a50,667045947eb812cbdacbf325,66704dce3a476df4203072c2,,,,,,,,,,,,,,,,,,,,,,,,,,,,,,,,,,,,164.0664,170.2466,0,1,1,0,1,SoundStimuli/TheSign_AceOfBase_Original5S.wav,,,,,,,,,,,,,,,,,,,,,,,,,,,,,,,,,,,,,,,,,,,,,,,,,,,,,,,,,,
,,,,,982727,001,2024-06-17_09h53.37.808,experiment,2024.1.5,Win32,59.88023952,66563e4da8bbe2b119755a50,667045947eb812cbdacbf325,66704dce3a476df4203072c2,,,,,,,,,,,,,,,,,,,,,,,,,,,,,,,,,,,,,,,,,,,,170.2467,170.9016,4.908333333,0.633,0,5,5,5,1,song_indices/TheSign_AceOfBase.csv,,,,,,,,,,,,,,,,,,,,,,,,,,,,,,,,,,,,,,,,,,,,,,,,
,,,,,982727,001,2024-06-17_09h53.37.808,experiment,2024.1.5,Win32,59.88023952,66563e4da8bbe2b119755a50,667045947eb812cbdacbf325,66704dce3a476df4203072c2,,,,,,,,,,,,,,,,,,,,,,,,,,,,,,,,,,,,170.9022,176.9251,0,0,0,0,1,SoundStimuli/HowDoILive_LeAnnRimes_Original5S.wav,,,,,,,,,,,,,,,,,,,,,,,,,,,,,,,,,,,,,,,,,,,,,,,,,,,,,,,,,,
,,,,,982727,001,2024-06-17_09h53.37.808,experiment,2024.1.5,Win32,59.88023952,66563e4da8bbe2b119755a50,667045947eb812cbdacbf325,66704dce3a476df4203072c2,,,,,,,,,,,,,,,,,,,,,,,,,,,,,,,,,,,,176.9446,182.4306,0,1,1,1,1,SoundStimuli/HowDoILive_LeAnnRimes_Cover5S.wav,,,,,,,,,,,,,,,,,,,,,,,,,,,,,,,,,,,,,,,,,,,,,,,,,,,,,,,,,,
,,,,,982727,001,2024-06-17_09h53.37.808,experiment,2024.1.5,Win32,59.88023952,66563e4da8bbe2b119755a50,667045947eb812cbdacbf325,66704dce3a476df4203072c2,,,,,,,,,,,,,,,,,,,,,,,,,,,,,,,,,,,,,,,,,,,,182.431,184.1707,5.054166667,1.7295,0,6,6,17,1,song_indices/HowDoILive_LeAnnRimes.csv,,,,,,,,,,,,,,,,,,,,,,,,,,,,,,,,,,,,,,,,,,,,,,,,
,,,,,982727,001,2024-06-17_09h53.37.808,experiment,2024.1.5,Win32,59.88023952,66563e4da8bbe2b119755a50,667045947eb812cbdacbf325,66704dce3a476df4203072c2,,,,,,,,,,,,,,,,,,,,,,,,,,,,,,,,,,,,184.1718,189.3056,0,0,0,1,1,SoundStimuli/JoyToTheWorld_ThreeDogNight_Cover5S.wav,,,,,,,,,,,,,,,,,,,,,,,,,,,,,,,,,,,,,,,,,,,,,,,,,,,,,,,,,,
,,,,,982727,001,2024-06-17_09h53.37.808,experiment,2024.1.5,Win32,59.88023952,66563e4da8bbe2b119755a50,667045947eb812cbdacbf325,66704dce3a476df4203072c2,,,,,,,,,,,,,,,,,,,,,,,,,,,,,,,,,,,,189.3261,195.4315,0,1,1,0,1,SoundStimuli/JoyToTheWorld_ThreeDogNight_Original5S.wav,,,,,,,,,,,,,,,,,,,,,,,,,,,,,,,,,,,,,,,,,,,,,,,,,,,,,,,,,,
,,,,,982727,001,2024-06-17_09h53.37.808,experiment,2024.1.5,Win32,59.88023952,66563e4da8bbe2b119755a50,667045947eb812cbdacbf325,66704dce3a476df4203072c2,,,,,,,,,,,,,,,,,,,,,,,,,,,,,,,,,,,,,,,,,,,,195.4318,196.1628,4.070833333,0.7224,0,7,7,8,1,song_indices/JoyToTheWorld_ThreeDogNight.csv,,,,,,,,,,,,,,,,,,,,,,,,,,,,,,,,,,,,,,,,,,,,,,,,
,,,,,982727,001,2024-06-17_09h53.37.808,experiment,2024.1.5,Win32,59.88023952,66563e4da8bbe2b119755a50,667045947eb812cbdacbf325,66704dce3a476df4203072c2,,,,,,,,,,,,,,,,,,,,,,,,,,,,,,,,,,,,196.1643,202.2517,0,0,0,0,1,SoundStimuli/YouLightUpMyLife_DebbyBoone_Original5S.wav,,,,,,,,,,,,,,,,,,,,,,,,,,,,,,,,,,,,,,,,,,,,,,,,,,,,,,,,,,
,,,,,982727,001,2024-06-17_09h53.37.808,experiment,2024.1.5,Win32,59.88023952,66563e4da8bbe2b119755a50,667045947eb812cbdacbf325,66704dce3a476df4203072c2,,,,,,,,,,,,,,,,,,,,,,,,,,,,,,,,,,,,202.2625,208.7089,0,1,1,1,1,SoundStimuli/YouLightUpMyLife_DebbyBoone_Cover5S.wav,,,,,,,,,,,,,,,,,,,,,,,,,,,,,,,,,,,,,,,,,,,,,,,,,,,,,,,,,,
,,,,,982727,001,2024-06-17_09h53.37.808,experiment,2024.1.5,Win32,59.88023952,66563e4da8bbe2b119755a50,667045947eb812cbdacbf325,66704dce3a476df4203072c2,,,,,,,,,,,,,,,,,,,,,,,,,,,,,,,,,,,,,,,,,,,,208.7094,210.0527,6.041666667,1.3336,0,8,8,4,1,song_indices/YouLightUpMyLife_DebbyBoone.csv,,,,,,,,,,,,,,,,,,,,,,,,,,,,,,,,,,,,,,,,,,,,,,,,
,,,,,982727,001,2024-06-17_09h53.37.808,experiment,2024.1.5,Win32,59.88023952,66563e4da8bbe2b119755a50,667045947eb812cbdacbf325,66704dce3a476df4203072c2,,,,,,,,,,,,,,,,,,,,,,,,,,,,,,,,,,,,210.0533,216.1501,0,0,0,0,1,SoundStimuli/ComeAndGetYourLove_Redbone_Original5S.wav,,,,,,,,,,,,,,,,,,,,,,,,,,,,,,,,,,,,,,,,,,,,,,,,,,,,,,,,,,
,,,,,982727,001,2024-06-17_09h53.37.808,experiment,2024.1.5,Win32,59.88023952,66563e4da8bbe2b119755a50,667045947eb812cbdacbf325,66704dce3a476df4203072c2,,,,,,,,,,,,,,,,,,,,,,,,,,,,,,,,,,,,216.1593,223.219,0,1,1,1,1,SoundStimuli/ComeAndGetYourLove_Redbone_Cover5S.wav,,,,,,,,,,,,,,,,,,,,,,,,,,,,,,,,,,,,,,,,,,,,,,,,,,,,,,,,,,
,,,,,982727,001,2024-06-17_09h53.37.808,experiment,2024.1.5,Win32,59.88023952,66563e4da8bbe2b119755a50,667045947eb812cbdacbf325,66704dce3a476df4203072c2,,,,,,,,,,,,,,,,,,,,,,,,,,,,,,,,,,,,,,,,,,,,223.2192,224.0418,2.979166667,0.8011,0,9,9,22,1,song_indices/ComeAndGetYourLove_Redbone.csv,,,,,,,,,,,,,,,,,,,,,,,,,,,,,,,,,,,,,,,,,,,,,,,,
,,,,,982727,001,2024-06-17_09h53.37.808,experiment,2024.1.5,Win32,59.88023952,66563e4da8bbe2b119755a50,667045947eb812cbdacbf325,66704dce3a476df4203072c2,,,,,,,,,,,,,,,,,,,,,,,,,,,,,,,,,,,,224.0425,230.1159,0,0,0,0,1,SoundStimuli/Weak_SWV_Original5S.wav,,,,,,,,,,,,,,,,,,,,,,,,,,,,,,,,,,,,,,,,,,,,,,,,,,,,,,,,,,
,,,,,982727,001,2024-06-17_09h53.37.808,experiment,2024.1.5,Win32,59.88023952,66563e4da8bbe2b119755a50,667045947eb812cbdacbf325,66704dce3a476df4203072c2,,,,,,,,,,,,,,,,,,,,,,,,,,,,,,,,,,,,230.1252,236.6056,0,1,1,1,1,SoundStimuli/Weak_SWV_Cover5S.wav,,,,,,,,,,,,,,,,,,,,,,,,,,,,,,,,,,,,,,,,,,,,,,,,,,,,,,,,,,
,,,,,982727,001,2024-06-17_09h53.37.808,experiment,2024.1.5,Win32,59.88023952,66563e4da8bbe2b119755a50,667045947eb812cbdacbf325,66704dce3a476df4203072c2,,,,,,,,,,,,,,,,,,,,,,,,,,,,,,,,,,,,,,,,,,,,236.6061,238.2407,1.1125,1.6097,0,10,10,6,1,song_indices/Weak_SWV.csv,,,,,,,,,,,,,,,,,,,,,,,,,,,,,,,,,,,,,,,,,,,,,,,,
,,,,,982727,001,2024-06-17_09h53.37.808,experiment,2024.1.5,Win32,59.88023952,66563e4da8bbe2b119755a50,667045947eb812cbdacbf325,66704dce3a476df4203072c2,,,,,,,,,,,,,,,,,,,,,,,,,,,,,,,,,,,,238.2415,245.6653,0,0,0,0,1,SoundStimuli/Kiss_Prince_Original5S.wav,,,,,,,,,,,,,,,,,,,,,,,,,,,,,,,,,,,,,,,,,,,,,,,,,,,,,,,,,,
,,,,,982727,001,2024-06-17_09h53.37.808,experiment,2024.1.5,Win32,59.88023952,66563e4da8bbe2b119755a50,667045947eb812cbdacbf325,66704dce3a476df4203072c2,,,,,,,,,,,,,,,,,,,,,,,,,,,,,,,,,,,,245.6872,251.9723,0,1,1,1,1,SoundStimuli/Kiss_Prince_Cover5S.wav,,,,,,,,,,,,,,,,,,,,,,,,,,,,,,,,,,,,,,,,,,,,,,,,,,,,,,,,,,
,,,,,982727,001,2024-06-17_09h53.37.808,experiment,2024.1.5,Win32,59.88023952,66563e4da8bbe2b119755a50,667045947eb812cbdacbf325,66704dce3a476df4203072c2,,,,,,,,,,,,,,,,,,,,,,,,,,,,,,,,,,,,,,,,,,,,251.9725,253.4733,1.045833333,1.4757,0,11,11,14,1,song_indices/Kiss_Prince.csv,,,,,,,,,,,,,,,,,,,,,,,,,,,,,,,,,,,,,,,,,,,,,,,,
,,,,,982727,001,2024-06-17_09h53.37.808,experiment,2024.1.5,Win32,59.88023952,66563e4da8bbe2b119755a50,667045947eb812cbdacbf325,66704dce3a476df4203072c2,,,,,,,,,,,,,,,,,,,,,,,,,,,,,,,,,,,,253.4741,259.3967,0,0,0,0,1,SoundStimuli/Respect_ArethaFranklin_Original5S.wav,,,,,,,,,,,,,,,,,,,,,,,,,,,,,,,,,,,,,,,,,,,,,,,,,,,,,,,,,,
,,,,,982727,001,2024-06-17_09h53.37.808,experiment,2024.1.5,Win32,59.88023952,66563e4da8bbe2b119755a50,667045947eb812cbdacbf325,66704dce3a476df4203072c2,,,,,,,,,,,,,,,,,,,,,,,,,,,,,,,,,,,,259.4157,265.4864,0,1,1,1,1,SoundStimuli/Respect_ArethaFranklin_Cover5S.wav,,,,,,,,,,,,,,,,,,,,,,,,,,,,,,,,,,,,,,,,,,,,,,,,,,,,,,,,,,
,,,,,982727,001,2024-06-17_09h53.37.808,experiment,2024.1.5,Win32,59.88023952,66563e4da8bbe2b119755a50,667045947eb812cbdacbf325,66704dce3a476df4203072c2,,,,,,,,,,,,,,,,,,,,,,,,,,,,,,,,,,,,,,,,,,,,265.4865,266.0202,1.083333333,0.522,0,12,12,0,1,song_indices/Respect_ArethaFranklin.csv,,,,,,,,,,,,,,,,,,,,,,,,,,,,,,,,,,,,,,,,,,,,,,,,
,,,,,982727,001,2024-06-17_09h53.37.808,experiment,2024.1.5,Win32,59.88023952,66563e4da8bbe2b119755a50,667045947eb812cbdacbf325,66704dce3a476df4203072c2,,,,,,,,,,,,,,,,,,,,,,,,,,,,,,,,,,,,266.0215,272.7779,0,0,0,0,1,SoundStimuli/BlurredLines_RobinThicke_Original5S.wav,,,,,,,,,,,,,,,,,,,,,,,,,,,,,,,,,,,,,,,,,,,,,,,,,,,,,,,,,,
,,,,,982727,001,2024-06-17_09h53.37.808,experiment,2024.1.5,Win32,59.88023952,66563e4da8bbe2b119755a50,667045947eb812cbdacbf325,66704dce3a476df4203072c2,,,,,,,,,,,,,,,,,,,,,,,,,,,,,,,,,,,,272.7874,279.8858,0,1,1,1,1,SoundStimuli/BlurredLines_RobinThicke_Cover5S.wav,,,,,,,,,,,,,,,,,,,,,,,,,,,,,,,,,,,,,,,,,,,,,,,,,,,,,,,,,,
,,,,,982727,001,2024-06-17_09h53.37.808,experiment,2024.1.5,Win32,59.88023952,66563e4da8bbe2b119755a50,667045947eb812cbdacbf325,66704dce3a476df4203072c2,,,,,,,,,,,,,,,,,,,,,,,,,,,,,,,,,,,,,,,,,,,,279.8863,281.3866,4.9875,1.4774,0,13,13,9,1,song_indices/BlurredLines_RobinThicke.csv,,,,,,,,,,,,,,,,,,,,,,,,,,,,,,,,,,,,,,,,,,,,,,,,
,,,,,982727,001,2024-06-17_09h53.37.808,experiment,2024.1.5,Win32,59.88023952,66563e4da8bbe2b119755a50,667045947eb812cbdacbf325,66704dce3a476df4203072c2,,,,,,,,,,,,,,,,,,,,,,,,,,,,,,,,,,,,281.3874,288.2276,0,0,0,1,1,SoundStimuli/PokerFace_LadyGaga_Cover5S.wav,,,,,,,,,,,,,,,,,,,,,,,,,,,,,,,,,,,,,,,,,,,,,,,,,,,,,,,,,,
,,,,,982727,001,2024-06-17_09h53.37.808,experiment,2024.1.5,Win32,59.88023952,66563e4da8bbe2b119755a50,667045947eb812cbdacbf325,66704dce3a476df4203072c2,,,,,,,,,,,,,,,,,,,,,,,,,,,,,,,,,,,,288.2435,295.264,0,1,1,0,1,SoundStimuli/PokerFace_LadyGaga_Original5S.wav,,,,,,,,,,,,,,,,,,,,,,,,,,,,,,,,,,,,,,,,,,,,,,,,,,,,,,,,,,
,,,,,982727,001,2024-06-17_09h53.37.808,experiment,2024.1.5,Win32,59.88023952,66563e4da8bbe2b119755a50,667045947eb812cbdacbf325,66704dce3a476df4203072c2,,,,,,,,,,,,,,,,,,,,,,,,,,,,,,,,,,,,,,,,,,,,295.2642,297.0035,4.870833333,1.7165,0,14,14,23,1,song_indices/PokerFace_LadyGaga.csv,,,,,,,,,,,,,,,,,,,,,,,,,,,,,,,,,,,,,,,,,,,,,,,,
,,,,,982727,001,2024-06-17_09h53.37.808,experiment,2024.1.5,Win32,59.88023952,66563e4da8bbe2b119755a50,667045947eb812cbdacbf325,66704dce3a476df4203072c2,,,,,,,,,,,,,,,,,,,,,,,,,,,,,,,,,,,,297.004,304.5282,0,0,0,1,1,SoundStimuli/TikTok_Kesha_Cover5S.wav,,,,,,,,,,,,,,,,,,,,,,,,,,,,,,,,,,,,,,,,,,,,,,,,,,,,,,,,,,
,,,,,982727,001,2024-06-17_09h53.37.808,experiment,2024.1.5,Win32,59.88023952,66563e4da8bbe2b119755a50,667045947eb812cbdacbf325,66704dce3a476df4203072c2,,,,,,,,,,,,,,,,,,,,,,,,,,,,,,,,,,,,304.5369,310.7517,0,1,1,0,1,SoundStimuli/TikTok_Kesha_Original5S.wav,,,,,,,,,,,,,,,,,,,,,,,,,,,,,,,,,,,,,,,,,,,,,,,,,,,,,,,,,,
,,,,,982727,001,2024-06-17_09h53.37.808,experiment,2024.1.5,Win32,59.88023952,66563e4da8bbe2b119755a50,667045947eb812cbdacbf325,66704dce3a476df4203072c2,,,,,,,,,,,,,,,,,,,,,,,,,,,,,,,,,,,,,,,,,,,,310.752,312.0207,1.966666667,1.2557,0,15,15,3,1,song_indices/TikTok_Kesha.csv,,,,,,,,,,,,,,,,,,,,,,,,,,,,,,,,,,,,,,,,,,,,,,,,
,,,,,982727,001,2024-06-17_09h53.37.808,experiment,2024.1.5,Win32,59.88023952,66563e4da8bbe2b119755a50,667045947eb812cbdacbf325,66704dce3a476df4203072c2,,,,,,,,,,,,,,,,,,,,,,,,,,,,,,,,,,,,312.022,317.8925,0,0,0,1,1,SoundStimuli/SaveYourTears_TheWeekndArianaGrande_Cover5S.wav,,,,,,,,,,,,,,,,,,,,,,,,,,,,,,,,,,,,,,,,,,,,,,,,,,,,,,,,,,
,,,,,982727,001,2024-06-17_09h53.37.808,experiment,2024.1.5,Win32,59.88023952,66563e4da8bbe2b119755a50,667045947eb812cbdacbf325,66704dce3a476df4203072c2,,,,,,,,,,,,,,,,,,,,,,,,,,,,,,,,,,,,317.9069,324.0996,0,1,1,0,1,SoundStimuli/SaveYourTears_TheWeekndArianaGrande_Original5S.wav,,,,,,,,,,,,,,,,,,,,,,,,,,,,,,,,,,,,,,,,,,,,,,,,,,,,,,,,,,
,,,,,982727,001,2024-06-17_09h53.37.808,experiment,2024.1.5,Win32,59.88023952,66563e4da8bbe2b119755a50,667045947eb812cbdacbf325,66704dce3a476df4203072c2,,,,,,,,,,,,,,,,,,,,,,,,,,,,,,,,,,,,,,,,,,,,324.0999,324.818,1.45,0.7072,0,16,16,12,1,song_indices/SaveYourTears_TheWeekndArianaGrande.csv,,,,,,,,,,,,,,,,,,,,,,,,,,,,,,,,,,,,,,,,,,,,,,,,
,,,,,982727,001,2024-06-17_09h53.37.808,experiment,2024.1.5,Win32,59.88023952,66563e4da8bbe2b119755a50,667045947eb812cbdacbf325,66704dce3a476df4203072c2,,,,,,,,,,,,,,,,,,,,,,,,,,,,,,,,,,,,324.8191,330.3394,0,0,0,1,1,SoundStimuli/LeFreak_Chic_Cover5S.wav,,,,,,,,,,,,,,,,,,,,,,,,,,,,,,,,,,,,,,,,,,,,,,,,,,,,,,,,,,
,,,,,982727,001,2024-06-17_09h53.37.808,experiment,2024.1.5,Win32,59.88023952,66563e4da8bbe2b119755a50,667045947eb812cbdacbf325,66704dce3a476df4203072c2,,,,,,,,,,,,,,,,,,,,,,,,,,,,,,,,,,,,330.3541,336.379,0,1,1,0,1,SoundStimuli/LeFreak_Chic_Original5S.wav,,,,,,,,,,,,,,,,,,,,,,,,,,,,,,,,,,,,,,,,,,,,,,,,,,,,,,,,,,
,,,,,982727,001,2024-06-17_09h53.37.808,experiment,2024.1.5,Win32,59.88023952,66563e4da8bbe2b119755a50,667045947eb812cbdacbf325,66704dce3a476df4203072c2,,,,,,,,,,,,,,,,,,,,,,,,,,,,,,,,,,,,,,,,,,,,336.3793,339.1989,5.245833333,2.8042,0,17,17,11,1,song_indices/LeFreak_Chic.csv,,,,,,,,,,,,,,,,,,,,,,,,,,,,,,,,,,,,,,,,,,,,,,,,
,,,,,982727,001,2024-06-17_09h53.37.808,experiment,2024.1.5,Win32,59.88023952,66563e4da8bbe2b119755a50,667045947eb812cbdacbf325,66704dce3a476df4203072c2,,,,,,,,,,,,,,,,,,,,,,,,,,,,,,,,,,,,339.2003,345.6892,0,0,0,0,1,SoundStimuli/BlindingLights_TheWeeknd_Original5S.wav,,,,,,,,,,,,,,,,,,,,,,,,,,,,,,,,,,,,,,,,,,,,,,,,,,,,,,,,,,
,,,,,982727,001,2024-06-17_09h53.37.808,experiment,2024.1.5,Win32,59.88023952,66563e4da8bbe2b119755a50,667045947eb812cbdacbf325,66704dce3a476df4203072c2,,,,,,,,,,,,,,,,,,,,,,,,,,,,,,,,,,,,345.7062,352.5096,0,1,1,1,1,SoundStimuli/BlindingLights_TheWeeknd_Cover5S.wav,,,,,,,,,,,,,,,,,,,,,,,,,,,,,,,,,,,,,,,,,,,,,,,,,,,,,,,,,,
,,,,,982727,001,2024-06-17_09h53.37.808,experiment,2024.1.5,Win32,59.88023952,66563e4da8bbe2b119755a50,667045947eb812cbdacbf325,66704dce3a476df4203072c2,,,,,,,,,,,,,,,,,,,,,,,,,,,,,,,,,,,,,,,,,,,,352.5099,353.7156,4.845833333,1.1832,0,18,18,21,1,song_indices/BlindingLights_TheWeeknd.csv,,,,,,,,,,,,,,,,,,,,,,,,,,,,,,,,,,,,,,,,,,,,,,,,
,,,,,982727,001,2024-06-17_09h53.37.808,experiment,2024.1.5,Win32,59.88023952,66563e4da8bbe2b119755a50,667045947eb812cbdacbf325,66704dce3a476df4203072c2,,,,,,,,,,,,,,,,,,,,,,,,,,,,,,,,,,,,353.717,359.721,0,0,0,0,1,SoundStimuli/Levitating_DuaLipa_Original5S.wav,,,,,,,,,,,,,,,,,,,,,,,,,,,,,,,,,,,,,,,,,,,,,,,,,,,,,,,,,,
,,,,,982727,001,2024-06-17_09h53.37.808,experiment,2024.1.5,Win32,59.88023952,66563e4da8bbe2b119755a50,667045947eb812cbdacbf325,66704dce3a476df4203072c2,,,,,,,,,,,,,,,,,,,,,,,,,,,,,,,,,,,,359.7325,365.4438,0,1,1,1,1,SoundStimuli/Levitating_DuaLipa_Cover5S.wav,,,,,,,,,,,,,,,,,,,,,,,,,,,,,,,,,,,,,,,,,,,,,,,,,,,,,,,,,,
,,,,,982727,001,2024-06-17_09h53.37.808,experiment,2024.1.5,Win32,59.88023952,66563e4da8bbe2b119755a50,667045947eb812cbdacbf325,66704dce3a476df4203072c2,,,,,,,,,,,,,,,,,,,,,,,,,,,,,,,,,,,,,,,,,,,,365.4443,366.9785,1.0375,1.5174,0,19,19,10,1,song_indices/Levitating_DuaLipa.csv,,,,,,,,,,,,,,,,,,,,,,,,,,,,,,,,,,,,,,,,,,,,,,,,
,,,,,982727,001,2024-06-17_09h53.37.808,experiment,2024.1.5,Win32,59.88023952,66563e4da8bbe2b119755a50,667045947eb812cbdacbf325,66704dce3a476df4203072c2,,,,,,,,,,,,,,,,,,,,,,,,,,,,,,,,,,,,366.9802,373.0352,0,0,0,0,1,SoundStimuli/TossinAndTurnin_BobbyLewis_Original5S.wav,,,,,,,,,,,,,,,,,,,,,,,,,,,,,,,,,,,,,,,,,,,,,,,,,,,,,,,,,,
,,,,,982727,001,2024-06-17_09h53.37.808,experiment,2024.1.5,Win32,59.88023952,66563e4da8bbe2b119755a50,667045947eb812cbdacbf325,66704dce3a476df4203072c2,,,,,,,,,,,,,,,,,,,,,,,,,,,,,,,,,,,,373.044,379.1583,0,1,1,1,1,SoundStimuli/TossinAndTurnin_BobbyLewis_Cover5S.wav,,,,,,,,,,,,,,,,,,,,,,,,,,,,,,,,,,,,,,,,,,,,,,,,,,,,,,,,,,
,,,,,982727,001,2024-06-17_09h53.37.808,experiment,2024.1.5,Win32,59.88023952,66563e4da8bbe2b119755a50,667045947eb812cbdacbf325,66704dce3a476df4203072c2,,,,,,,,,,,,,,,,,,,,,,,,,,,,,,,,,,,,,,,,,,,,379.1586,382.0828,1.041666667,2.9147,0,20,20,13,1,song_indices/TossinAndTurnin_BobbyLewis.csv,,,,,,,,,,,,,,,,,,,,,,,,,,,,,,,,,,,,,,,,,,,,,,,,
,,,,,982727,001,2024-06-17_09h53.37.808,experiment,2024.1.5,Win32,59.88023952,66563e4da8bbe2b119755a50,667045947eb812cbdacbf325,66704dce3a476df4203072c2,,,,,,,,,,,,,,,,,,,,,,,,,,,,,,,,,,,,382.0841,388.001,0,0,0,1,1,SoundStimuli/Irreplaceable_Beyonce_Cover5S.wav,,,,,,,,,,,,,,,,,,,,,,,,,,,,,,,,,,,,,,,,,,,,,,,,,,,,,,,,,,
,,,,,982727,001,2024-06-17_09h53.37.808,experiment,2024.1.5,Win32,59.88023952,66563e4da8bbe2b119755a50,667045947eb812cbdacbf325,66704dce3a476df4203072c2,,,,,,,,,,,,,,,,,,,,,,,,,,,,,,,,,,,,388.0095,393.8748,0,1,1,0,1,SoundStimuli/Irreplaceable_Beyonce_Original5S.wav,,,,,,,,,,,,,,,,,,,,,,,,,,,,,,,,,,,,,,,,,,,,,,,,,,,,,,,,,,
,,,,,982727,001,2024-06-17_09h53.37.808,experiment,2024.1.5,Win32,59.88023952,66563e4da8bbe2b119755a50,667045947eb812cbdacbf325,66704dce3a476df4203072c2,,,,,,,,,,,,,,,,,,,,,,,,,,,,,,,,,,,,,,,,,,,,393.8754,396.7272,3.966666667,2.8296,0,21,21,19,1,song_indices/Irreplaceable_Beyonce.csv,,,,,,,,,,,,,,,,,,,,,,,,,,,,,,,,,,,,,,,,,,,,,,,,
,,,,,982727,001,2024-06-17_09h53.37.808,experiment,2024.1.5,Win32,59.88023952,66563e4da8bbe2b119755a50,667045947eb812cbdacbf325,66704dce3a476df4203072c2,,,,,,,,,,,,,,,,,,,,,,,,,,,,,,,,,,,,396.7288,402.8338,0,0,0,0,1,SoundStimuli/UnbreakMyHeart_ToniBraxton_Original5S.wav,,,,,,,,,,,,,,,,,,,,,,,,,,,,,,,,,,,,,,,,,,,,,,,,,,,,,,,,,,
,,,,,982727,001,2024-06-17_09h53.37.808,experiment,2024.1.5,Win32,59.88023952,66563e4da8bbe2b119755a50,667045947eb812cbdacbf325,66704dce3a476df4203072c2,,,,,,,,,,,,,,,,,,,,,,,,,,,,,,,,,,,,402.8471,406.8214,0,1,1,1,1,SoundStimuli/UnbreakMyHeart_ToniBraxton_Cover5S.wav,,,,,,,,,,,,,,,,,,,,,,,,,,,,,,,,,,,,,,,,,,,,,,,,,,,,,,,,,,
,,,,,982727,001,2024-06-17_09h53.37.808,experiment,2024.1.5,Win32,59.88023952,66563e4da8bbe2b119755a50,667045947eb812cbdacbf325,66704dce3a476df4203072c2,,,,,,,,,,,,,,,,,,,,,,,,,,,,,,,,,,,,,,,,,,,,406.8217,412.761,1.05,5.9204,0,22,22,16,1,song_indices/UnbreakMyHeart_ToniBraxton.csv,,,,,,,,,,,,,,,,,,,,,,,,,,,,,,,,,,,,,,,,,,,,,,,,
,,,,,982727,001,2024-06-17_09h53.37.808,experiment,2024.1.5,Win32,59.88023952,66563e4da8bbe2b119755a50,667045947eb812cbdacbf325,66704dce3a476df4203072c2,,,,,,,,,,,,,,,,,,,,,,,,,,,,,,,,,,,,412.7627,419.068,0,0,0,0,1,SoundStimuli/LetsGetItOn_MarvinGaye_Original5S.wav,,,,,,,,,,,,,,,,,,,,,,,,,,,,,,,,,,,,,,,,,,,,,,,,,,,,,,,,,,
,,,,,982727,001,2024-06-17_09h53.37.808,experiment,2024.1.5,Win32,59.88023952,66563e4da8bbe2b119755a50,667045947eb812cbdacbf325,66704dce3a476df4203072c2,,,,,,,,,,,,,,,,,,,,,,,,,,,,,,,,,,,,419.0842,425.7252,0,1,1,1,1,SoundStimuli/LetsGetItOn_MarvinGaye_Cover5S.wav,,,,,,,,,,,,,,,,,,,,,,,,,,,,,,,,,,,,,,,,,,,,,,,,,,,,,,,,,,
,,,,,982727,001,2024-06-17_09h53.37.808,experiment,2024.1.5,Win32,59.88023952,66563e4da8bbe2b119755a50,667045947eb812cbdacbf325,66704dce3a476df4203072c2,,,,,,,,,,,,,,,,,,,,,,,,,,,,,,,,,,,,,,,,,,,,425.7256,433.033,1.191666667,7.2935,0,23,23,20,1,song_indices/LetsGetItOn_MarvinGaye.csv,,,,,,,,,,,,,,,,,,,,,,,,,,,,,,,,,,,,,,,,,,,,,,,,
,,,,,982727,001,2024-06-17_09h53.37.808,experiment,2024.1.5,Win32,59.88023952,66563e4da8bbe2b119755a50,667045947eb812cbdacbf325,66704dce3a476df4203072c2,,,,,,,,,,,,,,,,,,,,,,,,,,,,,,,,,,,,,,,,,,,,,,,,,,,,,,433.0339,436.2702,space,3.2039,,0,0,0,2,1,choose_song_b3.csv,,,,,,,,,,,,,,,,,,,,,,,,,,,,,,,,,,,,,
,,,,,982727,001,2024-06-17_09h53.37.808,experiment,2024.1.5,Win32,59.88023952,66563e4da8bbe2b119755a50,667045947eb812cbdacbf325,66704dce3a476df4203072c2,,,,,,,,,,,,,,,,,,,,,,,,,,,,,,,,,,,,436.282,442.3435,0,0,0,1,1,SoundStimuli/RockWithYou_MichaelJackson_Cover5S.wav,,,,,,,,,,,,,,,,,,,,,,,,,,,,,,,,,,,,,,,,,,,,,,,,,,,,,,,,,,
,,,,,982727,001,2024-06-17_09h53.37.808,experiment,2024.1.5,Win32,59.88023952,66563e4da8bbe2b119755a50,667045947eb812cbdacbf325,66704dce3a476df4203072c2,,,,,,,,,,,,,,,,,,,,,,,,,,,,,,,,,,,,442.3562,448.6662,0,1,1,0,1,SoundStimuli/RockWithYou_MichaelJackson_Original5S.wav,,,,,,,,,,,,,,,,,,,,,,,,,,,,,,,,,,,,,,,,,,,,,,,,,,,,,,,,,,
,,,,,982727,001,2024-06-17_09h53.37.808,experiment,2024.1.5,Win32,59.88023952,66563e4da8bbe2b119755a50,667045947eb812cbdacbf325,66704dce3a476df4203072c2,,,,,,,,,,,,,,,,,,,,,,,,,,,,,,,,,,,,,,,,,,,,448.6663,450.4451,2.516666667,1.7698,0,0,0,16,1,song_indices/RockWithYou_MichaelJackson.csv,,,,,,,,,,,,,,,,,,,,,,,,,,,,,,,,,,,,,,,,,,,,,,,,
,,,,,982727,001,2024-06-17_09h53.37.808,experiment,2024.1.5,Win32,59.88023952,66563e4da8bbe2b119755a50,667045947eb812cbdacbf325,66704dce3a476df4203072c2,,,,,,,,,,,,,,,,,,,,,,,,,,,,,,,,,,,,450.4457,456.5082,0,0,0,0,1,SoundStimuli/GetUrFreakOn_MissyElliot_Original5S.wav,,,,,,,,,,,,,,,,,,,,,,,,,,,,,,,,,,,,,,,,,,,,,,,,,,,,,,,,,,
,,,,,982727,001,2024-06-17_09h53.37.808,experiment,2024.1.5,Win32,59.88023952,66563e4da8bbe2b119755a50,667045947eb812cbdacbf325,66704dce3a476df4203072c2,,,,,,,,,,,,,,,,,,,,,,,,,,,,,,,,,,,,456.5167,463.0988,0,1,1,1,1,SoundStimuli/GetUrFreakOn_MissyElliot_Cover5S.wav,,,,,,,,,,,,,,,,,,,,,,,,,,,,,,,,,,,,,,,,,,,,,,,,,,,,,,,,,,
,,,,,982727,001,2024-06-17_09h53.37.808,experiment,2024.1.5,Win32,59.88023952,66563e4da8bbe2b119755a50,667045947eb812cbdacbf325,66704dce3a476df4203072c2,,,,,,,,,,,,,,,,,,,,,,,,,,,,,,,,,,,,,,,,,,,,463.099,466.1807,4.216666667,3.0654,0,1,1,18,1,song_indices/GetUrFreakOn_MissyElliot.csv,,,,,,,,,,,,,,,,,,,,,,,,,,,,,,,,,,,,,,,,,,,,,,,,
,,,,,982727,001,2024-06-17_09h53.37.808,experiment,2024.1.5,Win32,59.88023952,66563e4da8bbe2b119755a50,667045947eb812cbdacbf325,66704dce3a476df4203072c2,,,,,,,,,,,,,,,,,,,,,,,,,,,,,,,,,,,,466.1812,472.4421,0,0,0,0,1,SoundStimuli/ItsAllInTheGame_TommyEdwards_Original5S.wav,,,,,,,,,,,,,,,,,,,,,,,,,,,,,,,,,,,,,,,,,,,,,,,,,,,,,,,,,,
,,,,,982727,001,2024-06-17_09h53.37.808,experiment,2024.1.5,Win32,59.88023952,66563e4da8bbe2b119755a50,667045947eb812cbdacbf325,66704dce3a476df4203072c2,,,,,,,,,,,,,,,,,,,,,,,,,,,,,,,,,,,,472.4573,478.6818,0,1,1,1,1,SoundStimuli/ItsAllInTheGame_TommyEdwards_Cover5S.wav,,,,,,,,,,,,,,,,,,,,,,,,,,,,,,,,,,,,,,,,,,,,,,,,,,,,,,,,,,
,,,,,982727,001,2024-06-17_09h53.37.808,experiment,2024.1.5,Win32,59.88023952,66563e4da8bbe2b119755a50,667045947eb812cbdacbf325,66704dce3a476df4203072c2,,,,,,,,,,,,,,,,,,,,,,,,,,,,,,,,,,,,,,,,,,,,478.6823,480.6793,4.666666667,1.9876,0,2,2,13,1,song_indices/ItsAllInTheGame_TommyEdwards.csv,,,,,,,,,,,,,,,,,,,,,,,,,,,,,,,,,,,,,,,,,,,,,,,,
,,,,,982727,001,2024-06-17_09h53.37.808,experiment,2024.1.5,Win32,59.88023952,66563e4da8bbe2b119755a50,667045947eb812cbdacbf325,66704dce3a476df4203072c2,,,,,,,,,,,,,,,,,,,,,,,,,,,,,,,,,,,,480.6799,486.9573,0,0,0,0,1,SoundStimuli/HeyYa_Outkast_Original5S.wav,,,,,,,,,,,,,,,,,,,,,,,,,,,,,,,,,,,,,,,,,,,,,,,,,,,,,,,,,,
,,,,,982727,001,2024-06-17_09h53.37.808,experiment,2024.1.5,Win32,59.88023952,66563e4da8bbe2b119755a50,667045947eb812cbdacbf325,66704dce3a476df4203072c2,,,,,,,,,,,,,,,,,,,,,,,,,,,,,,,,,,,,486.9696,495.8836,0,1,1,1,1,SoundStimuli/HeyYa_Outkast_Cover5S.wav,,,,,,,,,,,,,,,,,,,,,,,,,,,,,,,,,,,,,,,,,,,,,,,,,,,,,,,,,,
,,,,,982727,001,2024-06-17_09h53.37.808,experiment,2024.1.5,Win32,59.88023952,66563e4da8bbe2b119755a50,667045947eb812cbdacbf325,66704dce3a476df4203072c2,,,,,,,,,,,,,,,,,,,,,,,,,,,,,,,,,,,,,,,,,,,,495.8839,496.7511,2.216666667,0.8512,0,3,3,22,1,song_indices/HeyYa_Outkast.csv,,,,,,,,,,,,,,,,,,,,,,,,,,,,,,,,,,,,,,,,,,,,,,,,
,,,,,982727,001,2024-06-17_09h53.37.808,experiment,2024.1.5,Win32,59.88023952,66563e4da8bbe2b119755a50,667045947eb812cbdacbf325,66704dce3a476df4203072c2,,,,,,,,,,,,,,,,,,,,,,,,,,,,,,,,,,,,496.7524,504.1094,0,0,0,0,1,SoundStimuli/Happy_PharellWilliams_Original5S.wav,,,,,,,,,,,,,,,,,,,,,,,,,,,,,,,,,,,,,,,,,,,,,,,,,,,,,,,,,,
,,,,,982727,001,2024-06-17_09h53.37.808,experiment,2024.1.5,Win32,59.88023952,66563e4da8bbe2b119755a50,667045947eb812cbdacbf325,66704dce3a476df4203072c2,,,,,,,,,,,,,,,,,,,,,,,,,,,,,,,,,,,,504.1306,511.4956,0,1,1,1,1,SoundStimuli/Happy_PharellWilliams_Cover5S.wav,,,,,,,,,,,,,,,,,,,,,,,,,,,,,,,,,,,,,,,,,,,,,,,,,,,,,,,,,,
,,,,,982727,001,2024-06-17_09h53.37.808,experiment,2024.1.5,Win32,59.88023952,66563e4da8bbe2b119755a50,667045947eb812cbdacbf325,66704dce3a476df4203072c2,,,,,,,,,,,,,,,,,,,,,,,,,,,,,,,,,,,,,,,,,,,,511.4957,512.1519,6.2125,0.6461,0,4,4,7,1,song_indices/Happy_PharellWilliams.csv,,,,,,,,,,,,,,,,,,,,,,,,,,,,,,,,,,,,,,,,,,,,,,,,
,,,,,982727,001,2024-06-17_09h53.37.808,experiment,2024.1.5,Win32,59.88023952,66563e4da8bbe2b119755a50,667045947eb812cbdacbf325,66704dce3a476df4203072c2,,,,,,,,,,,,,,,,,,,,,,,,,,,,,,,,,,,,512.1531,518.2746,0,0,0,1,1,SoundStimuli/EyeOfTheTiger_Survivor_Cover5S.wav,,,,,,,,,,,,,,,,,,,,,,,,,,,,,,,,,,,,,,,,,,,,,,,,,,,,,,,,,,
,,,,,982727,001,2024-06-17_09h53.37.808,experiment,2024.1.5,Win32,59.88023952,66563e4da8bbe2b119755a50,667045947eb812cbdacbf325,66704dce3a476df4203072c2,,,,,,,,,,,,,,,,,,,,,,,,,,,,,,,,,,,,518.2841,524.1808,0,1,1,0,1,SoundStimuli/EyeOfTheTiger_Survivor_Original5S.wav,,,,,,,,,,,,,,,,,,,,,,,,,,,,,,,,,,,,,,,,,,,,,,,,,,,,,,,,,,
,,,,,982727,001,2024-06-17_09h53.37.808,experiment,2024.1.5,Win32,59.88023952,66563e4da8bbe2b119755a50,667045947eb812cbdacbf325,66704dce3a476df4203072c2,,,,,,,,,,,,,,,,,,,,,,,,,,,,,,,,,,,,,,,,,,,,524.1812,533.4073,5.508333333,9.1978,0,5,5,11,1,song_indices/EyeOfTheTiger_Survivor.csv,,,,,,,,,,,,,,,,,,,,,,,,,,,,,,,,,,,,,,,,,,,,,,,,
,,,,,982727,001,2024-06-17_09h53.37.808,experiment,2024.1.5,Win32,59.88023952,66563e4da8bbe2b119755a50,667045947eb812cbdacbf325,66704dce3a476df4203072c2,,,,,,,,,,,,,,,,,,,,,,,,,,,,,,,,,,,,533.4092,539.7977,0,0,0,0,1,SoundStimuli/IWillAlwaysLoveYou_WhitneyHouston_Original5S.wav,,,,,,,,,,,,,,,,,,,,,,,,,,,,,,,,,,,,,,,,,,,,,,,,,,,,,,,,,,
,,,,,982727,001,2024-06-17_09h53.37.808,experiment,2024.1.5,Win32,59.88023952,66563e4da8bbe2b119755a50,667045947eb812cbdacbf325,66704dce3a476df4203072c2,,,,,,,,,,,,,,,,,,,,,,,,,,,,,,,,,,,,539.8074,545.6537,0,1,1,1,1,SoundStimuli/IWillAlwaysLoveYou_WhitneyHouston_Cover5S.wav,,,,,,,,,,,,,,,,,,,,,,,,,,,,,,,,,,,,,,,,,,,,,,,,,,,,,,,,,,
,,,,,982727,001,2024-06-17_09h53.37.808,experiment,2024.1.5,Win32,59.88023952,66563e4da8bbe2b119755a50,667045947eb812cbdacbf325,66704dce3a476df4203072c2,,,,,,,,,,,,,,,,,,,,,,,,,,,,,,,,,,,,,,,,,,,,545.654,598.7108,6.983333333,53.0386,0,6,6,10,1,song_indices/IWillAlwaysLoveYou_WhitneyHouston.csv,,,,,,,,,,,,,,,,,,,,,,,,,,,,,,,,,,,,,,,,,,,,,,,,
,,,,,982727,001,2024-06-17_09h53.37.808,experiment,2024.1.5,Win32,59.88023952,66563e4da8bbe2b119755a50,667045947eb812cbdacbf325,66704dce3a476df4203072c2,,,,,,,,,,,,,,,,,,,,,,,,,,,,,,,,,,,,598.7121,604.9342,0,0,0,0,1,SoundStimuli/TheBattleOfNewOrleans_JohnnyHorton_Original5S.wav,,,,,,,,,,,,,,,,,,,,,,,,,,,,,,,,,,,,,,,,,,,,,,,,,,,,,,,,,,
,,,,,982727,001,2024-06-17_09h53.37.808,experiment,2024.1.5,Win32,59.88023952,66563e4da8bbe2b119755a50,667045947eb812cbdacbf325,66704dce3a476df4203072c2,,,,,,,,,,,,,,,,,,,,,,,,,,,,,,,,,,,,604.9489,612.926,0,1,1,1,1,SoundStimuli/TheBattleOfNewOrleans_JohnnyHorton_Cover5S.wav,,,,,,,,,,,,,,,,,,,,,,,,,,,,,,,,,,,,,,,,,,,,,,,,,,,,,,,,,,
,,,,,982727,001,2024-06-17_09h53.37.808,experiment,2024.1.5,Win32,59.88023952,66563e4da8bbe2b119755a50,667045947eb812cbdacbf325,66704dce3a476df4203072c2,,,,,,,,,,,,,,,,,,,,,,,,,,,,,,,,,,,,,,,,,,,,612.9265,613.7811,1.1375,0.8322,0,7,7,4,1,song_indices/TheBattleOfNewOrleans_JohnnyHorton.csv,,,,,,,,,,,,,,,,,,,,,,,,,,,,,,,,,,,,,,,,,,,,,,,,
,,,,,982727,001,2024-06-17_09h53.37.808,experiment,2024.1.5,Win32,59.88023952,66563e4da8bbe2b119755a50,667045947eb812cbdacbf325,66704dce3a476df4203072c2,,,,,,,,,,,,,,,,,,,,,,,,,,,,,,,,,,,,613.782,620.1169,0,0,0,1,1,SoundStimuli/Stronger_KanyeWest_Cover5S.wav,,,,,,,,,,,,,,,,,,,,,,,,,,,,,,,,,,,,,,,,,,,,,,,,,,,,,,,,,,
,,,,,982727,001,2024-06-17_09h53.37.808,experiment,2024.1.5,Win32,59.88023952,66563e4da8bbe2b119755a50,667045947eb812cbdacbf325,66704dce3a476df4203072c2,,,,,,,,,,,,,,,,,,,,,,,,,,,,,,,,,,,,620.1268,626.1904,0,1,1,0,1,SoundStimuli/Stronger_KanyeWest_Original5S.wav,,,,,,,,,,,,,,,,,,,,,,,,,,,,,,,,,,,,,,,,,,,,,,,,,,,,,,,,,,
,,,,,982727,001,2024-06-17_09h53.37.808,experiment,2024.1.5,Win32,59.88023952,66563e4da8bbe2b119755a50,667045947eb812cbdacbf325,66704dce3a476df4203072c2,,,,,,,,,,,,,,,,,,,,,,,,,,,,,,,,,,,,,,,,,,,,626.1907,627.7251,1.020833333,1.5191,0,8,8,9,1,song_indices/Stronger_KanyeWest.csv,,,,,,,,,,,,,,,,,,,,,,,,,,,,,,,,,,,,,,,,,,,,,,,,
,,,,,982727,001,2024-06-17_09h53.37.808,experiment,2024.1.5,Win32,59.88023952,66563e4da8bbe2b119755a50,667045947eb812cbdacbf325,66704dce3a476df4203072c2,,,,,,,,,,,,,,,,,,,,,,,,,,,,,,,,,,,,627.7271,633.4982,0,0,0,1,1,SoundStimuli/SmellsLikeTeenSpirit_Nirvana_Cover5S.wav,,,,,,,,,,,,,,,,,,,,,,,,,,,,,,,,,,,,,,,,,,,,,,,,,,,,,,,,,,
,,,,,982727,001,2024-06-17_09h53.37.808,experiment,2024.1.5,Win32,59.88023952,66563e4da8bbe2b119755a50,667045947eb812cbdacbf325,66704dce3a476df4203072c2,,,,,,,,,,,,,,,,,,,,,,,,,,,,,,,,,,,,633.5124,639.7147,0,1,1,0,1,SoundStimuli/SmellsLikeTeenSpirit_Nirvana_Original5S.wav,,,,,,,,,,,,,,,,,,,,,,,,,,,,,,,,,,,,,,,,,,,,,,,,,,,,,,,,,,
,,,,,982727,001,2024-06-17_09h53.37.808,experiment,2024.1.5,Win32,59.88023952,66563e4da8bbe2b119755a50,667045947eb812cbdacbf325,66704dce3a476df4203072c2,,,,,,,,,,,,,,,,,,,,,,,,,,,,,,,,,,,,,,,,,,,,639.7149,641.106,5.991666667,1.3712,0,9,9,8,1,song_indices/SmellsLikeTeenSpirit_Nirvana.csv,,,,,,,,,,,,,,,,,,,,,,,,,,,,,,,,,,,,,,,,,,,,,,,,
,,,,,982727,001,2024-06-17_09h53.37.808,experiment,2024.1.5,Win32,59.88023952,66563e4da8bbe2b119755a50,667045947eb812cbdacbf325,66704dce3a476df4203072c2,,,,,,,,,,,,,,,,,,,,,,,,,,,,,,,,,,,,641.1084,648.264,0,0,0,1,1,SoundStimuli/IWalkTheLine_JohnnyCash_Cover5S.wav,,,,,,,,,,,,,,,,,,,,,,,,,,,,,,,,,,,,,,,,,,,,,,,,,,,,,,,,,,
,,,,,982727,001,2024-06-17_09h53.37.808,experiment,2024.1.5,Win32,59.88023952,66563e4da8bbe2b119755a50,667045947eb812cbdacbf325,66704dce3a476df4203072c2,,,,,,,,,,,,,,,,,,,,,,,,,,,,,,,,,,,,648.2851,654.2704,0,1,1,0,1,SoundStimuli/IWalkTheLine_JohnnyCash_Original5S.wav,,,,,,,,,,,,,,,,,,,,,,,,,,,,,,,,,,,,,,,,,,,,,,,,,,,,,,,,,,
,,,,,982727,001,2024-06-17_09h53.37.808,experiment,2024.1.5,Win32,59.88023952,66563e4da8bbe2b119755a50,667045947eb812cbdacbf325,66704dce3a476df4203072c2,,,,,,,,,,,,,,,,,,,,,,,,,,,,,,,,,,,,,,,,,,,,654.2707,656.0428,1.054166667,1.7558,0,10,10,17,1,song_indices/IWalkTheLine_JohnnyCash.csv,,,,,,,,,,,,,,,,,,,,,,,,,,,,,,,,,,,,,,,,,,,,,,,,
,,,,,982727,001,2024-06-17_09h53.37.808,experiment,2024.1.5,Win32,59.88023952,66563e4da8bbe2b119755a50,667045947eb812cbdacbf325,66704dce3a476df4203072c2,,,,,,,,,,,,,,,,,,,,,,,,,,,,,,,,,,,,656.0438,662.262,0,0,0,1,1,SoundStimuli/NoOne_AliciaKeys_Cover5S.wav,,,,,,,,,,,,,,,,,,,,,,,,,,,,,,,,,,,,,,,,,,,,,,,,,,,,,,,,,,
,,,,,982727,001,2024-06-17_09h53.37.808,experiment,2024.1.5,Win32,59.88023952,66563e4da8bbe2b119755a50,667045947eb812cbdacbf325,66704dce3a476df4203072c2,,,,,,,,,,,,,,,,,,,,,,,,,,,,,,,,,,,,662.2708,670.0045,0,1,1,0,1,SoundStimuli/NoOne_AliciaKeys_Original5S.wav,,,,,,,,,,,,,,,,,,,,,,,,,,,,,,,,,,,,,,,,,,,,,,,,,,,,,,,,,,
,,,,,982727,001,2024-06-17_09h53.37.808,experiment,2024.1.5,Win32,59.88023952,66563e4da8bbe2b119755a50,667045947eb812cbdacbf325,66704dce3a476df4203072c2,,,,,,,,,,,,,,,,,,,,,,,,,,,,,,,,,,,,,,,,,,,,670.0048,672.0153,2.808333333,1.9897,0,11,11,19,1,song_indices/NoOne_AliciaKeys.csv,,,,,,,,,,,,,,,,,,,,,,,,,,,,,,,,,,,,,,,,,,,,,,,,
,,,,,982727,001,2024-06-17_09h53.37.808,experiment,2024.1.5,Win32,59.88023952,66563e4da8bbe2b119755a50,667045947eb812cbdacbf325,66704dce3a476df4203072c2,,,,,,,,,,,,,,,,,,,,,,,,,,,,,,,,,,,,672.0158,678.1795,0,0,0,0,1,SoundStimuli/Fallin_AliciaKeys_Original5S.wav,,,,,,,,,,,,,,,,,,,,,,,,,,,,,,,,,,,,,,,,,,,,,,,,,,,,,,,,,,
,,,,,982727,001,2024-06-17_09h53.37.808,experiment,2024.1.5,Win32,59.88023952,66563e4da8bbe2b119755a50,667045947eb812cbdacbf325,66704dce3a476df4203072c2,,,,,,,,,,,,,,,,,,,,,,,,,,,,,,,,,,,,678.2008,684.6364,0,1,1,1,1,SoundStimuli/Fallin_AliciaKeys_Cover5S.wav,,,,,,,,,,,,,,,,,,,,,,,,,,,,,,,,,,,,,,,,,,,,,,,,,,,,,,,,,,
,,,,,982727,001,2024-06-17_09h53.37.808,experiment,2024.1.5,Win32,59.88023952,66563e4da8bbe2b119755a50,667045947eb812cbdacbf325,66704dce3a476df4203072c2,,,,,,,,,,,,,,,,,,,,,,,,,,,,,,,,,,,,,,,,,,,,684.6369,685.6372,5.916666667,0.9716,0,12,12,12,1,song_indices/Fallin_AliciaKeys.csv,,,,,,,,,,,,,,,,,,,,,,,,,,,,,,,,,,,,,,,,,,,,,,,,
,,,,,982727,001,2024-06-17_09h53.37.808,experiment,2024.1.5,Win32,59.88023952,66563e4da8bbe2b119755a50,667045947eb812cbdacbf325,66704dce3a476df4203072c2,,,,,,,,,,,,,,,,,,,,,,,,,,,,,,,,,,,,685.6377,691.5768,0,0,0,1,1,SoundStimuli/TheBoyIsMine_BrandyMonica_Cover5S.wav,,,,,,,,,,,,,,,,,,,,,,,,,,,,,,,,,,,,,,,,,,,,,,,,,,,,,,,,,,
,,,,,982727,001,2024-06-17_09h53.37.808,experiment,2024.1.5,Win32,59.88023952,66563e4da8bbe2b119755a50,667045947eb812cbdacbf325,66704dce3a476df4203072c2,,,,,,,,,,,,,,,,,,,,,,,,,,,,,,,,,,,,691.5871,697.8004,0,1,1,0,1,SoundStimuli/TheBoyIsMine_BrandyMonica_Original5S.wav,,,,,,,,,,,,,,,,,,,,,,,,,,,,,,,,,,,,,,,,,,,,,,,,,,,,,,,,,,
,,,,,982727,001,2024-06-17_09h53.37.808,experiment,2024.1.5,Win32,59.88023952,66563e4da8bbe2b119755a50,667045947eb812cbdacbf325,66704dce3a476df4203072c2,,,,,,,,,,,,,,,,,,,,,,,,,,,,,,,,,,,,,,,,,,,,697.8006,699.0371,4.008333333,1.2224,0,13,13,6,1,song_indices/TheBoyIsMine_BrandyMonica.csv,,,,,,,,,,,,,,,,,,,,,,,,,,,,,,,,,,,,,,,,,,,,,,,,
,,,,,982727,001,2024-06-17_09h53.37.808,experiment,2024.1.5,Win32,59.88023952,66563e4da8bbe2b119755a50,667045947eb812cbdacbf325,66704dce3a476df4203072c2,,,,,,,,,,,,,,,,,,,,,,,,,,,,,,,,,,,,699.0382,705.3919,0,0,0,1,1,SoundStimuli/GoodGollyMissMolly_LittleRichard_Cover5S.wav,,,,,,,,,,,,,,,,,,,,,,,,,,,,,,,,,,,,,,,,,,,,,,,,,,,,,,,,,,
,,,,,982727,001,2024-06-17_09h53.37.808,experiment,2024.1.5,Win32,59.88023952,66563e4da8bbe2b119755a50,667045947eb812cbdacbf325,66704dce3a476df4203072c2,,,,,,,,,,,,,,,,,,,,,,,,,,,,,,,,,,,,705.4084,711.4649,0,1,1,0,1,SoundStimuli/GoodGollyMissMolly_LittleRichard_Original5S.wav,,,,,,,,,,,,,,,,,,,,,,,,,,,,,,,,,,,,,,,,,,,,,,,,,,,,,,,,,,
,,,,,982727,001,2024-06-17_09h53.37.808,experiment,2024.1.5,Win32,59.88023952,66563e4da8bbe2b119755a50,667045947eb812cbdacbf325,66704dce3a476df4203072c2,,,,,,,,,,,,,,,,,,,,,,,,,,,,,,,,,,,,,,,,,,,,711.4652,712.95,2.866666667,1.4682,0,14,14,0,1,song_indices/GoodGollyMissMolly_LittleRichard.csv,,,,,,,,,,,,,,,,,,,,,,,,,,,,,,,,,,,,,,,,,,,,,,,,
,,,,,982727,001,2024-06-17_09h53.37.808,experiment,2024.1.5,Win32,59.88023952,66563e4da8bbe2b119755a50,667045947eb812cbdacbf325,66704dce3a476df4203072c2,,,,,,,,,,,,,,,,,,,,,,,,,,,,,,,,,,,,712.9515,718.6396,0,0,0,1,1,SoundStimuli/BetteDavisEyes_KimCarnes_Cover5S.wav,,,,,,,,,,,,,,,,,,,,,,,,,,,,,,,,,,,,,,,,,,,,,,,,,,,,,,,,,,
,,,,,982727,001,2024-06-17_09h53.37.808,experiment,2024.1.5,Win32,59.88023952,66563e4da8bbe2b119755a50,667045947eb812cbdacbf325,66704dce3a476df4203072c2,,,,,,,,,,,,,,,,,,,,,,,,,,,,,,,,,,,,718.6486,724.8582,0,1,1,0,1,SoundStimuli/BetteDavisEyes_KimCarnes_Original5S.wav,,,,,,,,,,,,,,,,,,,,,,,,,,,,,,,,,,,,,,,,,,,,,,,,,,,,,,,,,,
,,,,,982727,001,2024-06-17_09h53.37.808,experiment,2024.1.5,Win32,59.88023952,66563e4da8bbe2b119755a50,667045947eb812cbdacbf325,66704dce3a476df4203072c2,,,,,,,,,,,,,,,,,,,,,,,,,,,,,,,,,,,,,,,,,,,,724.8584,725.8137,4.166666667,0.9389,0,15,15,5,1,song_indices/BetteDavisEyes_KimCarnes.csv,,,,,,,,,,,,,,,,,,,,,,,,,,,,,,,,,,,,,,,,,,,,,,,,
,,,,,982727,001,2024-06-17_09h53.37.808,experiment,2024.1.5,Win32,59.88023952,66563e4da8bbe2b119755a50,667045947eb812cbdacbf325,66704dce3a476df4203072c2,,,,,,,,,,,,,,,,,,,,,,,,,,,,,,,,,,,,725.8153,732.2877,0,0,0,0,1,SoundStimuli/ShapeofYou_EdSheeran_Original5S.wav,,,,,,,,,,,,,,,,,,,,,,,,,,,,,,,,,,,,,,,,,,,,,,,,,,,,,,,,,,
,,,,,982727,001,2024-06-17_09h53.37.808,experiment,2024.1.5,Win32,59.88023952,66563e4da8bbe2b119755a50,667045947eb812cbdacbf325,66704dce3a476df4203072c2,,,,,,,,,,,,,,,,,,,,,,,,,,,,,,,,,,,,732.3089,738.6063,0,1,1,1,1,SoundStimuli/ShapeofYou_EdSheeran_Cover5S.wav,,,,,,,,,,,,,,,,,,,,,,,,,,,,,,,,,,,,,,,,,,,,,,,,,,,,,,,,,,
,,,,,982727,001,2024-06-17_09h53.37.808,experiment,2024.1.5,Win32,59.88023952,66563e4da8bbe2b119755a50,667045947eb812cbdacbf325,66704dce3a476df4203072c2,,,,,,,,,,,,,,,,,,,,,,,,,,,,,,,,,,,,,,,,,,,,738.6065,739.4114,3.408333333,0.7836,0,16,16,21,1,song_indices/ShapeofYou_EdSheeran.csv,,,,,,,,,,,,,,,,,,,,,,,,,,,,,,,,,,,,,,,,,,,,,,,,
,,,,,982727,001,2024-06-17_09h53.37.808,experiment,2024.1.5,Win32,59.88023952,66563e4da8bbe2b119755a50,667045947eb812cbdacbf325,66704dce3a476df4203072c2,,,,,,,,,,,,,,,,,,,,,,,,,,,,,,,,,,,,739.4121,746.1524,0,0,0,0,1,SoundStimuli/PartyRockAnthem_LMFAO_Original5S.wav,,,,,,,,,,,,,,,,,,,,,,,,,,,,,,,,,,,,,,,,,,,,,,,,,,,,,,,,,,
,,,,,982727,001,2024-06-17_09h53.37.808,experiment,2024.1.5,Win32,59.88023952,66563e4da8bbe2b119755a50,667045947eb812cbdacbf325,66704dce3a476df4203072c2,,,,,,,,,,,,,,,,,,,,,,,,,,,,,,,,,,,,746.1654,752.943,0,1,1,1,1,SoundStimuli/PartyRockAnthem_LMFAO_Cover5S.wav,,,,,,,,,,,,,,,,,,,,,,,,,,,,,,,,,,,,,,,,,,,,,,,,,,,,,,,,,,
,,,,,982727,001,2024-06-17_09h53.37.808,experiment,2024.1.5,Win32,59.88023952,66563e4da8bbe2b119755a50,667045947eb812cbdacbf325,66704dce3a476df4203072c2,,,,,,,,,,,,,,,,,,,,,,,,,,,,,,,,,,,,,,,,,,,,752.9432,755.3791,2.329166667,2.4154,0,17,17,2,1,song_indices/PartyRockAnthem_LMFAO.csv,,,,,,,,,,,,,,,,,,,,,,,,,,,,,,,,,,,,,,,,,,,,,,,,
,,,,,982727,001,2024-06-17_09h53.37.808,experiment,2024.1.5,Win32,59.88023952,66563e4da8bbe2b119755a50,667045947eb812cbdacbf325,66704dce3a476df4203072c2,,,,,,,,,,,,,,,,,,,,,,,,,,,,,,,,,,,,755.38,761.4017,0,0,0,1,1,SoundStimuli/StandByMe_BenEKing_Cover5S.wav,,,,,,,,,,,,,,,,,,,,,,,,,,,,,,,,,,,,,,,,,,,,,,,,,,,,,,,,,,
,,,,,982727,001,2024-06-17_09h53.37.808,experiment,2024.1.5,Win32,59.88023952,66563e4da8bbe2b119755a50,667045947eb812cbdacbf325,66704dce3a476df4203072c2,,,,,,,,,,,,,,,,,,,,,,,,,,,,,,,,,,,,761.4104,767.3249,0,1,1,0,1,SoundStimuli/StandByMe_BenEKing_Original5S.wav,,,,,,,,,,,,,,,,,,,,,,,,,,,,,,,,,,,,,,,,,,,,,,,,,,,,,,,,,,
,,,,,982727,001,2024-06-17_09h53.37.808,experiment,2024.1.5,Win32,59.88023952,66563e4da8bbe2b119755a50,667045947eb812cbdacbf325,66704dce3a476df4203072c2,,,,,,,,,,,,,,,,,,,,,,,,,,,,,,,,,,,,,,,,,,,,767.3252,770.9287,4.016666667,3.5878,0,18,18,1,1,song_indices/StandByMe_BenEKing.csv,,,,,,,,,,,,,,,,,,,,,,,,,,,,,,,,,,,,,,,,,,,,,,,,
,,,,,982727,001,2024-06-17_09h53.37.808,experiment,2024.1.5,Win32,59.88023952,66563e4da8bbe2b119755a50,667045947eb812cbdacbf325,66704dce3a476df4203072c2,,,,,,,,,,,,,,,,,,,,,,,,,,,,,,,,,,,,770.93,777.0356,0,0,0,0,1,SoundStimuli/GimmeShelter_RollingStones_Original5S.wav,,,,,,,,,,,,,,,,,,,,,,,,,,,,,,,,,,,,,,,,,,,,,,,,,,,,,,,,,,
,,,,,982727,001,2024-06-17_09h53.37.808,experiment,2024.1.5,Win32,59.88023952,66563e4da8bbe2b119755a50,667045947eb812cbdacbf325,66704dce3a476df4203072c2,,,,,,,,,,,,,,,,,,,,,,,,,,,,,,,,,,,,777.0567,783.2884,0,1,1,1,1,SoundStimuli/GimmeShelter_RollingStones_Cover5S.wav,,,,,,,,,,,,,,,,,,,,,,,,,,,,,,,,,,,,,,,,,,,,,,,,,,,,,,,,,,
,,,,,982727,001,2024-06-17_09h53.37.808,experiment,2024.1.5,Win32,59.88023952,66563e4da8bbe2b119755a50,667045947eb812cbdacbf325,66704dce3a476df4203072c2,,,,,,,,,,,,,,,,,,,,,,,,,,,,,,,,,,,,,,,,,,,,783.2888,783.8591,3.391666667,0.546,0,19,19,20,1,song_indices/GimmeShelter_RollingStones.csv,,,,,,,,,,,,,,,,,,,,,,,,,,,,,,,,,,,,,,,,,,,,,,,,
,,,,,982727,001,2024-06-17_09h53.37.808,experiment,2024.1.5,Win32,59.88023952,66563e4da8bbe2b119755a50,667045947eb812cbdacbf325,66704dce3a476df4203072c2,,,,,,,,,,,,,,,,,,,,,,,,,,,,,,,,,,,,783.8597,790.8668,0,0,0,1,1,SoundStimuli/UptownFunk_MarkRonson_Cover5S.wav,,,,,,,,,,,,,,,,,,,,,,,,,,,,,,,,,,,,,,,,,,,,,,,,,,,,,,,,,,
,,,,,982727,001,2024-06-17_09h53.37.808,experiment,2024.1.5,Win32,59.88023952,66563e4da8bbe2b119755a50,667045947eb812cbdacbf325,66704dce3a476df4203072c2,,,,,,,,,,,,,,,,,,,,,,,,,,,,,,,,,,,,790.8751,798.1079,0,1,1,0,1,SoundStimuli/UptownFunk_MarkRonson_Original5S.wav,,,,,,,,,,,,,,,,,,,,,,,,,,,,,,,,,,,,,,,,,,,,,,,,,,,,,,,,,,
,,,,,982727,001,2024-06-17_09h53.37.808,experiment,2024.1.5,Win32,59.88023952,66563e4da8bbe2b119755a50,667045947eb812cbdacbf325,66704dce3a476df4203072c2,,,,,,,,,,,,,,,,,,,,,,,,,,,,,,,,,,,,,,,,,,,,798.1085,799.0423,5.045833333,0.9086,0,20,20,15,1,song_indices/UptownFunk_MarkRonson.csv,,,,,,,,,,,,,,,,,,,,,,,,,,,,,,,,,,,,,,,,,,,,,,,,
,,,,,982727,001,2024-06-17_09h53.37.808,experiment,2024.1.5,Win32,59.88023952,66563e4da8bbe2b119755a50,667045947eb812cbdacbf325,66704dce3a476df4203072c2,,,,,,,,,,,,,,,,,,,,,,,,,,,,,,,,,,,,799.0431,809.2867,0,0,0,1,1,SoundStimuli/CrazyInLove_BeyonceFtJayZ_Cover5S.wav,,,,,,,,,,,,,,,,,,,,,,,,,,,,,,,,,,,,,,,,,,,,,,,,,,,,,,,,,,
,,,,,982727,001,2024-06-17_09h53.37.808,experiment,2024.1.5,Win32,59.88023952,66563e4da8bbe2b119755a50,667045947eb812cbdacbf325,66704dce3a476df4203072c2,,,,,,,,,,,,,,,,,,,,,,,,,,,,,,,,,,,,809.3094,815.8437,0,1,1,0,1,SoundStimuli/CrazyInLove_BeyonceFtJayZ_Original5S.wav,,,,,,,,,,,,,,,,,,,,,,,,,,,,,,,,,,,,,,,,,,,,,,,,,,,,,,,,,,
,,,,,982727,001,2024-06-17_09h53.37.808,experiment,2024.1.5,Win32,59.88023952,66563e4da8bbe2b119755a50,667045947eb812cbdacbf325,66704dce3a476df4203072c2,,,,,,,,,,,,,,,,,,,,,,,,,,,,,,,,,,,,,,,,,,,,815.844,816.578,1.954166667,0.713,0,21,21,3,1,song_indices/CrazyInLove_BeyonceFtJayZ.csv,,,,,,,,,,,,,,,,,,,,,,,,,,,,,,,,,,,,,,,,,,,,,,,,
,,,,,982727,001,2024-06-17_09h53.37.808,experiment,2024.1.5,Win32,59.88023952,66563e4da8bbe2b119755a50,667045947eb812cbdacbf325,66704dce3a476df4203072c2,,,,,,,,,,,,,,,,,,,,,,,,,,,,,,,,,,,,816.5788,822.7848,0,0,0,0,1,SoundStimuli/NoScrubs_TLC_Original5S.wav,,,,,,,,,,,,,,,,,,,,,,,,,,,,,,,,,,,,,,,,,,,,,,,,,,,,,,,,,,
,,,,,982727,001,2024-06-17_09h53.37.808,experiment,2024.1.5,Win32,59.88023952,66563e4da8bbe2b119755a50,667045947eb812cbdacbf325,66704dce3a476df4203072c2,,,,,,,,,,,,,,,,,,,,,,,,,,,,,,,,,,,,822.8049,828.9414,0,1,1,1,1,SoundStimuli/NoScrubs_TLC_Cover5S.wav,,,,,,,,,,,,,,,,,,,,,,,,,,,,,,,,,,,,,,,,,,,,,,,,,,,,,,,,,,
,,,,,982727,001,2024-06-17_09h53.37.808,experiment,2024.1.5,Win32,59.88023952,66563e4da8bbe2b119755a50,667045947eb812cbdacbf325,66704dce3a476df4203072c2,,,,,,,,,,,,,,,,,,,,,,,,,,,,,,,,,,,,,,,,,,,,828.9415,830.9267,4.841666667,1.9658,0,22,22,14,1,song_indices/NoScrubs_TLC.csv,,,,,,,,,,,,,,,,,,,,,,,,,,,,,,,,,,,,,,,,,,,,,,,,
,,,,,982727,001,2024-06-17_09h53.37.808,experiment,2024.1.5,Win32,59.88023952,66563e4da8bbe2b119755a50,667045947eb812cbdacbf325,66704dce3a476df4203072c2,,,,,,,,,,,,,,,,,,,,,,,,,,,,,,,,,,,,,,,,,,,,,,,,,,,,,,830.9268,834.2685,space,3.3187,,0,1,1,1,1,choose_song_b2.csv,,,,,,,,,,,,,,,,,,,,,,,,,,,,,,,,,,,,,
,,,,,982727,001,2024-06-17_09h53.37.808,experiment,2024.1.5,Win32,59.88023952,66563e4da8bbe2b119755a50,667045947eb812cbdacbf325,66704dce3a476df4203072c2,,,,,,,,,,,,,,,,,,,,,,,,,,,,,,,,,,,,834.2696,840.3034,0,0,0,0,1,SoundStimuli/AnotherOneBitesTheDust_Queen_Original5S.wav,,,,,,,,,,,,,,,,,,,,,,,,,,,,,,,,,,,,,,,,,,,,,,,,,,,,,,,,,,
,,,,,982727,001,2024-06-17_09h53.37.808,experiment,2024.1.5,Win32,59.88023952,66563e4da8bbe2b119755a50,667045947eb812cbdacbf325,66704dce3a476df4203072c2,,,,,,,,,,,,,,,,,,,,,,,,,,,,,,,,,,,,840.3246,848.4453,0,1,1,1,1,SoundStimuli/AnotherOneBitesTheDust_Queen_Cover5S.wav,,,,,,,,,,,,,,,,,,,,,,,,,,,,,,,,,,,,,,,,,,,,,,,,,,,,,,,,,,
,,,,,982727,001,2024-06-17_09h53.37.808,experiment,2024.1.5,Win32,59.88023952,66563e4da8bbe2b119755a50,667045947eb812cbdacbf325,66704dce3a476df4203072c2,,,,,,,,,,,,,,,,,,,,,,,,,,,,,,,,,,,,,,,,,,,,848.4455,849.1972,1.070833333,0.7424,0,0,0,9,1,song_indices/AnotherOneBitesTheDust_Queen.csv,,,,,,,,,,,,,,,,,,,,,,,,,,,,,,,,,,,,,,,,,,,,,,,,
,,,,,982727,001,2024-06-17_09h53.37.808,experiment,2024.1.5,Win32,59.88023952,66563e4da8bbe2b119755a50,667045947eb812cbdacbf325,66704dce3a476df4203072c2,,,,,,,,,,,,,,,,,,,,,,,,,,,,,,,,,,,,849.1985,856.0365,0,0,0,1,1,SoundStimuli/IWannaDanceWithSomebody_WhitneyHouston_Cover5S.wav,,,,,,,,,,,,,,,,,,,,,,,,,,,,,,,,,,,,,,,,,,,,,,,,,,,,,,,,,,
,,,,,982727,001,2024-06-17_09h53.37.808,experiment,2024.1.5,Win32,59.88023952,66563e4da8bbe2b119755a50,667045947eb812cbdacbf325,66704dce3a476df4203072c2,,,,,,,,,,,,,,,,,,,,,,,,,,,,,,,,,,,,856.0451,861.6428,0,1,1,0,1,SoundStimuli/IWannaDanceWithSomebody_WhitneyHouston_Original5S.wav,,,,,,,,,,,,,,,,,,,,,,,,,,,,,,,,,,,,,,,,,,,,,,,,,,,,,,,,,,
,,,,,982727,001,2024-06-17_09h53.37.808,experiment,2024.1.5,Win32,59.88023952,66563e4da8bbe2b119755a50,667045947eb812cbdacbf325,66704dce3a476df4203072c2,,,,,,,,,,,,,,,,,,,,,,,,,,,,,,,,,,,,,,,,,,,,861.6431,863.8072,2.958333333,2.1493,0,1,1,13,1,song_indices/IWannaDanceWithSomebody_WhitneyHouston.csv,,,,,,,,,,,,,,,,,,,,,,,,,,,,,,,,,,,,,,,,,,,,,,,,
,,,,,982727,001,2024-06-17_09h53.37.808,experiment,2024.1.5,Win32,59.88023952,66563e4da8bbe2b119755a50,667045947eb812cbdacbf325,66704dce3a476df4203072c2,,,,,,,,,,,,,,,,,,,,,,,,,,,,,,,,,,,,863.8078,867.866,0,0,0,1,1,SoundStimuli/BohemianRhapsody_Queen_Cover5S.wav,,,,,,,,,,,,,,,,,,,,,,,,,,,,,,,,,,,,,,,,,,,,,,,,,,,,,,,,,,
,,,,,982727,001,2024-06-17_09h53.37.808,experiment,2024.1.5,Win32,59.88023952,66563e4da8bbe2b119755a50,667045947eb812cbdacbf325,66704dce3a476df4203072c2,,,,,,,,,,,,,,,,,,,,,,,,,,,,,,,,,,,,867.8759,873.8393,0,1,1,0,1,SoundStimuli/BohemianRhapsody_Queen_Original5S.wav,,,,,,,,,,,,,,,,,,,,,,,,,,,,,,,,,,,,,,,,,,,,,,,,,,,,,,,,,,
,,,,,982727,001,2024-06-17_09h53.37.808,experiment,2024.1.5,Win32,59.88023952,66563e4da8bbe2b119755a50,667045947eb812cbdacbf325,66704dce3a476df4203072c2,,,,,,,,,,,,,,,,,,,,,,,,,,,,,,,,,,,,,,,,,,,,873.8397,874.8404,2.195833333,0.9767,0,2,2,18,1,song_indices/BohemianRhapsody_Queen.csv,,,,,,,,,,,,,,,,,,,,,,,,,,,,,,,,,,,,,,,,,,,,,,,,
,,,,,982727,001,2024-06-17_09h53.37.808,experiment,2024.1.5,Win32,59.88023952,66563e4da8bbe2b119755a50,667045947eb812cbdacbf325,66704dce3a476df4203072c2,,,,,,,,,,,,,,,,,,,,,,,,,,,,,,,,,,,,874.8412,882.3323,0,0,0,1,1,SoundStimuli/BadDay_DanielPowter_Cover5S.wav,,,,,,,,,,,,,,,,,,,,,,,,,,,,,,,,,,,,,,,,,,,,,,,,,,,,,,,,,,
,,,,,982727,001,2024-06-17_09h53.37.808,experiment,2024.1.5,Win32,59.88023952,66563e4da8bbe2b119755a50,667045947eb812cbdacbf325,66704dce3a476df4203072c2,,,,,,,,,,,,,,,,,,,,,,,,,,,,,,,,,,,,882.354,888.8052,0,1,1,0,1,SoundStimuli/BadDay_DanielPowter_Original5S.wav,,,,,,,,,,,,,,,,,,,,,,,,,,,,,,,,,,,,,,,,,,,,,,,,,,,,,,,,,,
,,,,,982727,001,2024-06-17_09h53.37.808,experiment,2024.1.5,Win32,59.88023952,66563e4da8bbe2b119755a50,667045947eb812cbdacbf325,66704dce3a476df4203072c2,,,,,,,,,,,,,,,,,,,,,,,,,,,,,,,,,,,,,,,,,,,,888.8053,889.9233,5.625,1.1033,0,3,3,22,1,song_indices/BadDay_DanielPowter.csv,,,,,,,,,,,,,,,,,,,,,,,,,,,,,,,,,,,,,,,,,,,,,,,,
,,,,,982727,001,2024-06-17_09h53.37.808,experiment,2024.1.5,Win32,59.88023952,66563e4da8bbe2b119755a50,667045947eb812cbdacbf325,66704dce3a476df4203072c2,,,,,,,,,,,,,,,,,,,,,,,,,,,,,,,,,,,,889.9242,895.7627,0,0,0,1,1,SoundStimuli/StayinAlive_BeeGees_Cover5S.wav,,,,,,,,,,,,,,,,,,,,,,,,,,,,,,,,,,,,,,,,,,,,,,,,,,,,,,,,,,
,,,,,982727,001,2024-06-17_09h53.37.808,experiment,2024.1.5,Win32,59.88023952,66563e4da8bbe2b119755a50,667045947eb812cbdacbf325,66704dce3a476df4203072c2,,,,,,,,,,,,,,,,,,,,,,,,,,,,,,,,,,,,895.7732,901.7861,0,1,1,0,1,SoundStimuli/StayinAlive_BeeGees_Original5S.wav,,,,,,,,,,,,,,,,,,,,,,,,,,,,,,,,,,,,,,,,,,,,,,,,,,,,,,,,,,
,,,,,982727,001,2024-06-17_09h53.37.808,experiment,2024.1.5,Win32,59.88023952,66563e4da8bbe2b119755a50,667045947eb812cbdacbf325,66704dce3a476df4203072c2,,,,,,,,,,,,,,,,,,,,,,,,,,,,,,,,,,,,,,,,,,,,901.7863,902.3864,3.945833333,0.5694,0,4,4,2,1,song_indices/StayinAlive_BeeGees.csv,,,,,,,,,,,,,,,,,,,,,,,,,,,,,,,,,,,,,,,,,,,,,,,,
,,,,,982727,001,2024-06-17_09h53.37.808,experiment,2024.1.5,Win32,59.88023952,66563e4da8bbe2b119755a50,667045947eb812cbdacbf325,66704dce3a476df4203072c2,,,,,,,,,,,,,,,,,,,,,,,,,,,,,,,,,,,,902.387,908.4601,0,0,0,0,1,SoundStimuli/IllMakeLoveToYou_BoyzIIMen_Original5S.wav,,,,,,,,,,,,,,,,,,,,,,,,,,,,,,,,,,,,,,,,,,,,,,,,,,,,,,,,,,
,,,,,982727,001,2024-06-17_09h53.37.808,experiment,2024.1.5,Win32,59.88023952,66563e4da8bbe2b119755a50,667045947eb812cbdacbf325,66704dce3a476df4203072c2,,,,,,,,,,,,,,,,,,,,,,,,,,,,,,,,,,,,908.478,914.4457,0,1,1,1,1,SoundStimuli/IllMakeLoveToYou_BoyzIIMen_Cover5S.wav,,,,,,,,,,,,,,,,,,,,,,,,,,,,,,,,,,,,,,,,,,,,,,,,,,,,,,,,,,
,,,,,982727,001,2024-06-17_09h53.37.808,experiment,2024.1.5,Win32,59.88023952,66563e4da8bbe2b119755a50,667045947eb812cbdacbf325,66704dce3a476df4203072c2,,,,,,,,,,,,,,,,,,,,,,,,,,,,,,,,,,,,,,,,,,,,914.4458,915.3172,2.975,0.8536,0,5,5,6,1,song_indices/IllMakeLoveToYou_BoyzIIMen.csv,,,,,,,,,,,,,,,,,,,,,,,,,,,,,,,,,,,,,,,,,,,,,,,,
,,,,,982727,001,2024-06-17_09h53.37.808,experiment,2024.1.5,Win32,59.88023952,66563e4da8bbe2b119755a50,667045947eb812cbdacbf325,66704dce3a476df4203072c2,,,,,,,,,,,,,,,,,,,,,,,,,,,,,,,,,,,,915.3181,921.457,0,0,0,0,1,SoundStimuli/LikeARollingStone_BobDylan_Original5S.wav,,,,,,,,,,,,,,,,,,,,,,,,,,,,,,,,,,,,,,,,,,,,,,,,,,,,,,,,,,
,,,,,982727,001,2024-06-17_09h53.37.808,experiment,2024.1.5,Win32,59.88023952,66563e4da8bbe2b119755a50,667045947eb812cbdacbf325,66704dce3a476df4203072c2,,,,,,,,,,,,,,,,,,,,,,,,,,,,,,,,,,,,921.4772,925.8787,0,1,1,1,1,SoundStimuli/LikeARollingStone_BobDylan_Cover5S.wav,,,,,,,,,,,,,,,,,,,,,,,,,,,,,,,,,,,,,,,,,,,,,,,,,,,,,,,,,,
,,,,,982727,001,2024-06-17_09h53.37.808,experiment,2024.1.5,Win32,59.88023952,66563e4da8bbe2b119755a50,667045947eb812cbdacbf325,66704dce3a476df4203072c2,,,,,,,,,,,,,,,,,,,,,,,,,,,,,,,,,,,,,,,,,,,,925.8792,928.2308,4.675,2.3245,0,6,6,12,1,song_indices/LikeARollingStone_BobDylan.csv,,,,,,,,,,,,,,,,,,,,,,,,,,,,,,,,,,,,,,,,,,,,,,,,
,,,,,982727,001,2024-06-17_09h53.37.808,experiment,2024.1.5,Win32,59.88023952,66563e4da8bbe2b119755a50,667045947eb812cbdacbf325,66704dce3a476df4203072c2,,,,,,,,,,,,,,,,,,,,,,,,,,,,,,,,,,,,928.2313,935.8893,0,0,0,1,1,SoundStimuli/LivinOnAPrayer_BonJovi_Cover5S.wav,,,,,,,,,,,,,,,,,,,,,,,,,,,,,,,,,,,,,,,,,,,,,,,,,,,,,,,,,,
,,,,,982727,001,2024-06-17_09h53.37.808,experiment,2024.1.5,Win32,59.88023952,66563e4da8bbe2b119755a50,667045947eb812cbdacbf325,66704dce3a476df4203072c2,,,,,,,,,,,,,,,,,,,,,,,,,,,,,,,,,,,,935.9102,942.1624,0,1,1,0,1,SoundStimuli/LivinOnAPrayer_BonJovi_Original5S.wav,,,,,,,,,,,,,,,,,,,,,,,,,,,,,,,,,,,,,,,,,,,,,,,,,,,,,,,,,,
,,,,,982727,001,2024-06-17_09h53.37.808,experiment,2024.1.5,Win32,59.88023952,66563e4da8bbe2b119755a50,667045947eb812cbdacbf325,66704dce3a476df4203072c2,,,,,,,,,,,,,,,,,,,,,,,,,,,,,,,,,,,,,,,,,,,,942.1627,943.5428,1.104166667,1.3644,0,7,7,16,1,song_indices/LivinOnAPrayer_BonJovi.csv,,,,,,,,,,,,,,,,,,,,,,,,,,,,,,,,,,,,,,,,,,,,,,,,
,,,,,982727,001,2024-06-17_09h53.37.808,experiment,2024.1.5,Win32,59.88023952,66563e4da8bbe2b119755a50,667045947eb812cbdacbf325,66704dce3a476df4203072c2,,,,,,,,,,,,,,,,,,,,,,,,,,,,,,,,,,,,943.5434,949.7208,0,0,0,0,1,SoundStimuli/LikeAPrayer_Madonna_Original5S.wav,,,,,,,,,,,,,,,,,,,,,,,,,,,,,,,,,,,,,,,,,,,,,,,,,,,,,,,,,,
,,,,,982727,001,2024-06-17_09h53.37.808,experiment,2024.1.5,Win32,59.88023952,66563e4da8bbe2b119755a50,667045947eb812cbdacbf325,66704dce3a476df4203072c2,,,,,,,,,,,,,,,,,,,,,,,,,,,,,,,,,,,,949.736,955.9443,0,1,1,1,1,SoundStimuli/LikeAPrayer_Madonna_Cover5S.wav,,,,,,,,,,,,,,,,,,,,,,,,,,,,,,,,,,,,,,,,,,,,,,,,,,,,,,,,,,
,,,,,982727,001,2024-06-17_09h53.37.808,experiment,2024.1.5,Win32,59.88023952,66563e4da8bbe2b119755a50,667045947eb812cbdacbf325,66704dce3a476df4203072c2,,,,,,,,,,,,,,,,,,,,,,,,,,,,,,,,,,,,,,,,,,,,955.9447,956.9115,5.4125,0.9414,0,8,8,7,1,song_indices/LikeAPrayer_Madonna.csv,,,,,,,,,,,,,,,,,,,,,,,,,,,,,,,,,,,,,,,,,,,,,,,,
,,,,,982727,001,2024-06-17_09h53.37.808,experiment,2024.1.5,Win32,59.88023952,66563e4da8bbe2b119755a50,667045947eb812cbdacbf325,66704dce3a476df4203072c2,,,,,,,,,,,,,,,,,,,,,,,,,,,,,,,,,,,,956.9121,965.1543,0,0,0,1,1,SoundStimuli/Perfect_EdSheeran_Cover5S.wav,,,,,,,,,,,,,,,,,,,,,,,,,,,,,,,,,,,,,,,,,,,,,,,,,,,,,,,,,,
,,,,,982727,001,2024-06-17_09h53.37.808,experiment,2024.1.5,Win32,59.88023952,66563e4da8bbe2b119755a50,667045947eb812cbdacbf325,66704dce3a476df4203072c2,,,,,,,,,,,,,,,,,,,,,,,,,,,,,,,,,,,,965.1746,974.0306,0,1,1,0,1,SoundStimuli/Perfect_EdSheeran_Original5S.wav,,,,,,,,,,,,,,,,,,,,,,,,,,,,,,,,,,,,,,,,,,,,,,,,,,,,,,,,,,
,,,,,982727,001,2024-06-17_09h53.37.808,experiment,2024.1.5,Win32,59.88023952,66563e4da8bbe2b119755a50,667045947eb812cbdacbf325,66704dce3a476df4203072c2,,,,,,,,,,,,,,,,,,,,,,,,,,,,,,,,,,,,,,,,,,,,974.0309,974.9308,6.8375,0.8756,0,9,9,0,1,song_indices/Perfect_EdSheeran.csv,,,,,,,,,,,,,,,,,,,,,,,,,,,,,,,,,,,,,,,,,,,,,,,,
,,,,,982727,001,2024-06-17_09h53.37.808,experiment,2024.1.5,Win32,59.88023952,66563e4da8bbe2b119755a50,667045947eb812cbdacbf325,66704dce3a476df4203072c2,,,,,,,,,,,,,,,,,,,,,,,,,,,,,,,,,,,,974.9313,983.2065,0,0,0,1,1,SoundStimuli/Mood_24kGoldnianndior_Cover5S.wav,,,,,,,,,,,,,,,,,,,,,,,,,,,,,,,,,,,,,,,,,,,,,,,,,,,,,,,,,,
,,,,,982727,001,2024-06-17_09h53.37.808,experiment,2024.1.5,Win32,59.88023952,66563e4da8bbe2b119755a50,667045947eb812cbdacbf325,66704dce3a476df4203072c2,,,,,,,,,,,,,,,,,,,,,,,,,,,,,,,,,,,,983.2192,989.5142,0,1,1,0,1,SoundStimuli/Mood_24kGoldnianndior_Original5S.wav,,,,,,,,,,,,,,,,,,,,,,,,,,,,,,,,,,,,,,,,,,,,,,,,,,,,,,,,,,
,,,,,982727,001,2024-06-17_09h53.37.808,experiment,2024.1.5,Win32,59.88023952,66563e4da8bbe2b119755a50,667045947eb812cbdacbf325,66704dce3a476df4203072c2,,,,,,,,,,,,,,,,,,,,,,,,,,,,,,,,,,,,,,,,,,,,989.5144,990.2742,2.9125,0.7511,0,10,10,5,1,song_indices/Mood_24kGoldnianndior.csv,,,,,,,,,,,,,,,,,,,,,,,,,,,,,,,,,,,,,,,,,,,,,,,,
,,,,,982727,001,2024-06-17_09h53.37.808,experiment,2024.1.5,Win32,59.88023952,66563e4da8bbe2b119755a50,667045947eb812cbdacbf325,66704dce3a476df4203072c2,,,,,,,,,,,,,,,,,,,,,,,,,,,,,,,,,,,,990.2748,996.404,0,0,0,0,1,SoundStimuli/StrawberryFieldsForever_TheBeatles_Original5S.wav,,,,,,,,,,,,,,,,,,,,,,,,,,,,,,,,,,,,,,,,,,,,,,,,,,,,,,,,,,
,,,,,982727,001,2024-06-17_09h53.37.808,experiment,2024.1.5,Win32,59.88023952,66563e4da8bbe2b119755a50,667045947eb812cbdacbf325,66704dce3a476df4203072c2,,,,,,,,,,,,,,,,,,,,,,,,,,,,,,,,,,,,996.412,1003.4286,0,1,1,1,1,SoundStimuli/StrawberryFieldsForever_TheBeatles_Cover5S.wav,,,,,,,,,,,,,,,,,,,,,,,,,,,,,,,,,,,,,,,,,,,,,,,,,,,,,,,,,,
,,,,,982727,001,2024-06-17_09h53.37.808,experiment,2024.1.5,Win32,59.88023952,66563e4da8bbe2b119755a50,667045947eb812cbdacbf325,66704dce3a476df4203072c2,,,,,,,,,,,,,,,,,,,,,,,,,,,,,,,,,,,,,,,,,,,,1003.4292,1004.6572,1.4125,1.2183,0,11,11,14,1,song_indices/StrawberryFieldsForever_TheBeatles.csv,,,,,,,,,,,,,,,,,,,,,,,,,,,,,,,,,,,,,,,,,,,,,,,,
,,,,,982727,001,2024-06-17_09h53.37.808,experiment,2024.1.5,Win32,59.88023952,66563e4da8bbe2b119755a50,667045947eb812cbdacbf325,66704dce3a476df4203072c2,,,,,,,,,,,,,,,,,,,,,,,,,,,,,,,,,,,,1004.6576,1010.9869,0,0,0,0,1,SoundStimuli/EndlessLove_DianaRossLionelRichie_Original5S.wav,,,,,,,,,,,,,,,,,,,,,,,,,,,,,,,,,,,,,,,,,,,,,,,,,,,,,,,,,,
,,,,,982727,001,2024-06-17_09h53.37.808,experiment,2024.1.5,Win32,59.88023952,66563e4da8bbe2b119755a50,667045947eb812cbdacbf325,66704dce3a476df4203072c2,,,,,,,,,,,,,,,,,,,,,,,,,,,,,,,,,,,,1011.0028,1018.4944,0,1,1,1,1,SoundStimuli/EndlessLove_DianaRossLionelRichie_Cover5S.wav,,,,,,,,,,,,,,,,,,,,,,,,,,,,,,,,,,,,,,,,,,,,,,,,,,,,,,,,,,
,,,,,982727,001,2024-06-17_09h53.37.808,experiment,2024.1.5,Win32,59.88023952,66563e4da8bbe2b119755a50,667045947eb812cbdacbf325,66704dce3a476df4203072c2,,,,,,,,,,,,,,,,,,,,,,,,,,,,,,,,,,,,,,,,,,,,1018.4948,1019.9243,6.970833333,1.4116,0,12,12,3,1,song_indices/EndlessLove_DianaRossLionelRichie.csv,,,,,,,,,,,,,,,,,,,,,,,,,,,,,,,,,,,,,,,,,,,,,,,,
,,,,,982727,001,2024-06-17_09h53.37.808,experiment,2024.1.5,Win32,59.88023952,66563e4da8bbe2b119755a50,667045947eb812cbdacbf325,66704dce3a476df4203072c2,,,,,,,,,,,,,,,,,,,,,,,,,,,,,,,,,,,,1019.9249,1026.0526,0,0,0,0,1,SoundStimuli/MackTheKnife_BobbyDarin_Original5S.wav,,,,,,,,,,,,,,,,,,,,,,,,,,,,,,,,,,,,,,,,,,,,,,,,,,,,,,,,,,
,,,,,982727,001,2024-06-17_09h53.37.808,experiment,2024.1.5,Win32,59.88023952,66563e4da8bbe2b119755a50,667045947eb812cbdacbf325,66704dce3a476df4203072c2,,,,,,,,,,,,,,,,,,,,,,,,,,,,,,,,,,,,1026.0678,1032.3262,0,1,1,1,1,SoundStimuli/MackTheKnife_BobbyDarin_Cover5S.wav,,,,,,,,,,,,,,,,,,,,,,,,,,,,,,,,,,,,,,,,,,,,,,,,,,,,,,,,,,
,,,,,982727,001,2024-06-17_09h53.37.808,experiment,2024.1.5,Win32,59.88023952,66563e4da8bbe2b119755a50,667045947eb812cbdacbf325,66704dce3a476df4203072c2,,,,,,,,,,,,,,,,,,,,,,,,,,,,,,,,,,,,,,,,,,,,1032.3267,1033.9609,1.279166667,1.6117,0,13,13,21,1,song_indices/MackTheKnife_BobbyDarin.csv,,,,,,,,,,,,,,,,,,,,,,,,,,,,,,,,,,,,,,,,,,,,,,,,
,,,,,982727,001,2024-06-17_09h53.37.808,experiment,2024.1.5,Win32,59.88023952,66563e4da8bbe2b119755a50,667045947eb812cbdacbf325,66704dce3a476df4203072c2,,,,,,,,,,,,,,,,,,,,,,,,,,,,,,,,,,,,1033.9613,1040.8187,0,0,0,1,1,SoundStimuli/GodOnlyKnows_TheBeachBoys_Cover5S.wav,,,,,,,,,,,,,,,,,,,,,,,,,,,,,,,,,,,,,,,,,,,,,,,,,,,,,,,,,,
,,,,,982727,001,2024-06-17_09h53.37.808,experiment,2024.1.5,Win32,59.88023952,66563e4da8bbe2b119755a50,667045947eb812cbdacbf325,66704dce3a476df4203072c2,,,,,,,,,,,,,,,,,,,,,,,,,,,,,,,,,,,,1040.8396,1047.0756,0,1,1,0,1,SoundStimuli/GodOnlyKnows_TheBeachBoys_Original5S.wav,,,,,,,,,,,,,,,,,,,,,,,,,,,,,,,,,,,,,,,,,,,,,,,,,,,,,,,,,,
,,,,,982727,001,2024-06-17_09h53.37.808,experiment,2024.1.5,Win32,59.88023952,66563e4da8bbe2b119755a50,667045947eb812cbdacbf325,66704dce3a476df4203072c2,,,,,,,,,,,,,,,,,,,,,,,,,,,,,,,,,,,,,,,,,,,,1047.0759,1047.8758,4.091666667,0.7755,0,14,14,8,1,song_indices/GodOnlyKnows_TheBeachBoys.csv,,,,,,,,,,,,,,,,,,,,,,,,,,,,,,,,,,,,,,,,,,,,,,,,
,,,,,982727,001,2024-06-17_09h53.37.808,experiment,2024.1.5,Win32,59.88023952,66563e4da8bbe2b119755a50,667045947eb812cbdacbf325,66704dce3a476df4203072c2,,,,,,,,,,,,,,,,,,,,,,,,,,,,,,,,,,,,1047.8774,1054.5833,0,0,0,1,1,SoundStimuli/BridgeOverTroubledWater_SimonAndGarfunkel_Cover5S.wav,,,,,,,,,,,,,,,,,,,,,,,,,,,,,,,,,,,,,,,,,,,,,,,,,,,,,,,,,,
,,,,,982727,001,2024-06-17_09h53.37.808,experiment,2024.1.5,Win32,59.88023952,66563e4da8bbe2b119755a50,667045947eb812cbdacbf325,66704dce3a476df4203072c2,,,,,,,,,,,,,,,,,,,,,,,,,,,,,,,,,,,,1054.605,1060.9194,0,1,1,0,1,SoundStimuli/BridgeOverTroubledWater_SimonAndGarfunkel_Original5S.wav,,,,,,,,,,,,,,,,,,,,,,,,,,,,,,,,,,,,,,,,,,,,,,,,,,,,,,,,,,
,,,,,982727,001,2024-06-17_09h53.37.808,experiment,2024.1.5,Win32,59.88023952,66563e4da8bbe2b119755a50,667045947eb812cbdacbf325,66704dce3a476df4203072c2,,,,,,,,,,,,,,,,,,,,,,,,,,,,,,,,,,,,,,,,,,,,1060.9195,1061.4751,3.254166667,0.5443,0,15,15,1,1,song_indices/BridgeOverTroubledWater_SimonAndGarfunkel.csv,,,,,,,,,,,,,,,,,,,,,,,,,,,,,,,,,,,,,,,,,,,,,,,,
,,,,,982727,001,2024-06-17_09h53.37.808,experiment,2024.1.5,Win32,59.88023952,66563e4da8bbe2b119755a50,667045947eb812cbdacbf325,66704dce3a476df4203072c2,,,,,,,,,,,,,,,,,,,,,,,,,,,,,,,,,,,,1061.4761,1067.264,0,0,0,0,1,SoundStimuli/IWantToHoldYourHand_TheBeatles_Original5S.wav,,,,,,,,,,,,,,,,,,,,,,,,,,,,,,,,,,,,,,,,,,,,,,,,,,,,,,,,,,
,,,,,982727,001,2024-06-17_09h53.37.808,experiment,2024.1.5,Win32,59.88023952,66563e4da8bbe2b119755a50,667045947eb812cbdacbf325,66704dce3a476df4203072c2,,,,,,,,,,,,,,,,,,,,,,,,,,,,,,,,,,,,1067.2797,1073.3035,0,1,1,1,1,SoundStimuli/IWantToHoldYourHand_TheBeatles_Cover5S.wav,,,,,,,,,,,,,,,,,,,,,,,,,,,,,,,,,,,,,,,,,,,,,,,,,,,,,,,,,,
,,,,,982727,001,2024-06-17_09h53.37.808,experiment,2024.1.5,Win32,59.88023952,66563e4da8bbe2b119755a50,667045947eb812cbdacbf325,66704dce3a476df4203072c2,,,,,,,,,,,,,,,,,,,,,,,,,,,,,,,,,,,,,,,,,,,,1073.3038,1075.4053,1.75,2.0767,0,16,16,19,1,song_indices/IWantToHoldYourHand_TheBeatles.csv,,,,,,,,,,,,,,,,,,,,,,,,,,,,,,,,,,,,,,,,,,,,,,,,
,,,,,982727,001,2024-06-17_09h53.37.808,experiment,2024.1.5,Win32,59.88023952,66563e4da8bbe2b119755a50,667045947eb812cbdacbf325,66704dce3a476df4203072c2,,,,,,,,,,,,,,,,,,,,,,,,,,,,,,,,,,,,1075.406,1081.5287,0,0,0,1,1,SoundStimuli/Smooth_SantanaRobThomas_Cover5S.wav,,,,,,,,,,,,,,,,,,,,,,,,,,,,,,,,,,,,,,,,,,,,,,,,,,,,,,,,,,
,,,,,982727,001,2024-06-17_09h53.37.808,experiment,2024.1.5,Win32,59.88023952,66563e4da8bbe2b119755a50,667045947eb812cbdacbf325,66704dce3a476df4203072c2,,,,,,,,,,,,,,,,,,,,,,,,,,,,,,,,,,,,1081.5396,1087.752,0,1,1,0,1,SoundStimuli/Smooth_SantanaRobThomas_Original5S.wav,,,,,,,,,,,,,,,,,,,,,,,,,,,,,,,,,,,,,,,,,,,,,,,,,,,,,,,,,,
,,,,,982727,001,2024-06-17_09h53.37.808,experiment,2024.1.5,Win32,59.88023952,66563e4da8bbe2b119755a50,667045947eb812cbdacbf325,66704dce3a476df4203072c2,,,,,,,,,,,,,,,,,,,,,,,,,,,,,,,,,,,,,,,,,,,,1087.7523,1088.5529,5.9125,0.7848,0,17,17,4,1,song_indices/Smooth_SantanaRobThomas.csv,,,,,,,,,,,,,,,,,,,,,,,,,,,,,,,,,,,,,,,,,,,,,,,,
,,,,,982727,001,2024-06-17_09h53.37.808,experiment,2024.1.5,Win32,59.88023952,66563e4da8bbe2b119755a50,667045947eb812cbdacbf325,66704dce3a476df4203072c2,,,,,,,,,,,,,,,,,,,,,,,,,,,,,,,,,,,,1088.5544,1095.1435,0,0,0,1,1,SoundStimuli/Despacito_LuisFonsiDaddyYankee_Cover5S.wav,,,,,,,,,,,,,,,,,,,,,,,,,,,,,,,,,,,,,,,,,,,,,,,,,,,,,,,,,,
,,,,,982727,001,2024-06-17_09h53.37.808,experiment,2024.1.5,Win32,59.88023952,66563e4da8bbe2b119755a50,667045947eb812cbdacbf325,66704dce3a476df4203072c2,,,,,,,,,,,,,,,,,,,,,,,,,,,,,,,,,,,,1095.1589,1101.7002,0,1,1,0,1,SoundStimuli/Despacito_LuisFonsiDaddyYankee_Original5S.wav,,,,,,,,,,,,,,,,,,,,,,,,,,,,,,,,,,,,,,,,,,,,,,,,,,,,,,,,,,
,,,,,982727,001,2024-06-17_09h53.37.808,experiment,2024.1.5,Win32,59.88023952,66563e4da8bbe2b119755a50,667045947eb812cbdacbf325,66704dce3a476df4203072c2,,,,,,,,,,,,,,,,,,,,,,,,,,,,,,,,,,,,,,,,,,,,1101.7005,1102.6684,5.05,0.9503,0,18,18,11,1,song_indices/Despacito_LuisFonsiDaddyYankee.csv,,,,,,,,,,,,,,,,,,,,,,,,,,,,,,,,,,,,,,,,,,,,,,,,
,,,,,982727,001,2024-06-17_09h53.37.808,experiment,2024.1.5,Win32,59.88023952,66563e4da8bbe2b119755a50,667045947eb812cbdacbf325,66704dce3a476df4203072c2,,,,,,,,,,,,,,,,,,,,,,,,,,,,,,,,,,,,1102.6703,1108.7078,0,0,0,0,1,SoundStimuli/AChangeIsGonnaCome_SamCooke_Original5S.wav,,,,,,,,,,,,,,,,,,,,,,,,,,,,,,,,,,,,,,,,,,,,,,,,,,,,,,,,,,
,,,,,982727,001,2024-06-17_09h53.37.808,experiment,2024.1.5,Win32,59.88023952,66563e4da8bbe2b119755a50,667045947eb812cbdacbf325,66704dce3a476df4203072c2,,,,,,,,,,,,,,,,,,,,,,,,,,,,,,,,,,,,1108.7169,1113.4296,0,1,1,1,1,SoundStimuli/AChangeIsGonnaCome_SamCooke_Cover5S.wav,,,,,,,,,,,,,,,,,,,,,,,,,,,,,,,,,,,,,,,,,,,,,,,,,,,,,,,,,,
,,,,,982727,001,2024-06-17_09h53.37.808,experiment,2024.1.5,Win32,59.88023952,66563e4da8bbe2b119755a50,667045947eb812cbdacbf325,66704dce3a476df4203072c2,,,,,,,,,,,,,,,,,,,,,,,,,,,,,,,,,,,,,,,,,,,,1113.4299,1115.344,4.445833333,1.8999,0,19,19,17,1,song_indices/AChangeIsGonnaCome_SamCooke.csv,,,,,,,,,,,,,,,,,,,,,,,,,,,,,,,,,,,,,,,,,,,,,,,,
,,,,,982727,001,2024-06-17_09h53.37.808,experiment,2024.1.5,Win32,59.88023952,66563e4da8bbe2b119755a50,667045947eb812cbdacbf325,66704dce3a476df4203072c2,,,,,,,,,,,,,,,,,,,,,,,,,,,,,,,,,,,,1115.3446,1123.9412,0,0,0,1,1,SoundStimuli/HeatWaves_GlassAnimals_Cover5S.wav,,,,,,,,,,,,,,,,,,,,,,,,,,,,,,,,,,,,,,,,,,,,,,,,,,,,,,,,,,
,,,,,982727,001,2024-06-17_09h53.37.808,experiment,2024.1.5,Win32,59.88023952,66563e4da8bbe2b119755a50,667045947eb812cbdacbf325,66704dce3a476df4203072c2,,,,,,,,,,,,,,,,,,,,,,,,,,,,,,,,,,,,1123.9623,1130.0643,0,1,1,0,1,SoundStimuli/HeatWaves_GlassAnimals_Original5S.wav,,,,,,,,,,,,,,,,,,,,,,,,,,,,,,,,,,,,,,,,,,,,,,,,,,,,,,,,,,
,,,,,982727,001,2024-06-17_09h53.37.808,experiment,2024.1.5,Win32,59.88023952,66563e4da8bbe2b119755a50,667045947eb812cbdacbf325,66704dce3a476df4203072c2,,,,,,,,,,,,,,,,,,,,,,,,,,,,,,,,,,,,,,,,,,,,1130.0648,1131.0483,4.520833333,0.9541,0,20,20,10,1,song_indices/HeatWaves_GlassAnimals.csv,,,,,,,,,,,,,,,,,,,,,,,,,,,,,,,,,,,,,,,,,,,,,,,,
,,,,,982727,001,2024-06-17_09h53.37.808,experiment,2024.1.5,Win32,59.88023952,66563e4da8bbe2b119755a50,667045947eb812cbdacbf325,66704dce3a476df4203072c2,,,,,,,,,,,,,,,,,,,,,,,,,,,,,,,,,,,,1131.0489,1138.7072,0,0,0,1,1,SoundStimuli/MyGirl_TheTemptations_Cover5S.wav,,,,,,,,,,,,,,,,,,,,,,,,,,,,,,,,,,,,,,,,,,,,,,,,,,,,,,,,,,
,,,,,982727,001,2024-06-17_09h53.37.808,experiment,2024.1.5,Win32,59.88023952,66563e4da8bbe2b119755a50,667045947eb812cbdacbf325,66704dce3a476df4203072c2,,,,,,,,,,,,,,,,,,,,,,,,,,,,,,,,,,,,1138.7307,1145.1135,0,1,1,0,1,SoundStimuli/MyGirl_TheTemptations_Original5S.wav,,,,,,,,,,,,,,,,,,,,,,,,,,,,,,,,,,,,,,,,,,,,,,,,,,,,,,,,,,
,,,,,982727,001,2024-06-17_09h53.37.808,experiment,2024.1.5,Win32,59.88023952,66563e4da8bbe2b119755a50,667045947eb812cbdacbf325,66704dce3a476df4203072c2,,,,,,,,,,,,,,,,,,,,,,,,,,,,,,,,,,,,,,,,,,,,1145.1136,1146.2982,2.995833333,1.1727,0,21,21,15,1,song_indices/MyGirl_TheTemptations.csv,,,,,,,,,,,,,,,,,,,,,,,,,,,,,,,,,,,,,,,,,,,,,,,,
,,,,,982727,001,2024-06-17_09h53.37.808,experiment,2024.1.5,Win32,59.88023952,66563e4da8bbe2b119755a50,667045947eb812cbdacbf325,66704dce3a476df4203072c2,,,,,,,,,,,,,,,,,,,,,,,,,,,,,,,,,,,,1146.299,1152.8052,0,0,0,1,1,SoundStimuli/OldTownRoad_LilNasX_Cover5S.wav,,,,,,,,,,,,,,,,,,,,,,,,,,,,,,,,,,,,,,,,,,,,,,,,,,,,,,,,,,
,,,,,982727,001,2024-06-17_09h53.37.808,experiment,2024.1.5,Win32,59.88023952,66563e4da8bbe2b119755a50,667045947eb812cbdacbf325,66704dce3a476df4203072c2,,,,,,,,,,,,,,,,,,,,,,,,,,,,,,,,,,,,1152.816,1160.1805,0,1,1,0,1,SoundStimuli/OldTownRoad_LilNasX_Original5S.wav,,,,,,,,,,,,,,,,,,,,,,,,,,,,,,,,,,,,,,,,,,,,,,,,,,,,,,,,,,
,,,,,982727,001,2024-06-17_09h53.37.808,experiment,2024.1.5,Win32,59.88023952,66563e4da8bbe2b119755a50,667045947eb812cbdacbf325,66704dce3a476df4203072c2,,,,,,,,,,,,,,,,,,,,,,,,,,,,,,,,,,,,,,,,,,,,1160.1808,1162.2319,5.825,2.0254,0,22,22,20,1,song_indices/OldTownRoad_LilNasX.csv,,,,,,,,,,,,,,,,,,,,,,,,,,,,,,,,,,,,,,,,,,,,,,,,
,,,,,982727,001,2024-06-17_09h53.37.808,experiment,2024.1.5,Win32,59.88023952,66563e4da8bbe2b119755a50,667045947eb812cbdacbf325,66704dce3a476df4203072c2,,,,,,,,,,,,,,,,,,,,,,,,,,,,,,,,,,,,,,,,,,,,,,,,,,,,,,1162.2319,1162.2319,,,,0,2,2,0,1,choose_song_b1.csv,,,,,,,,,,,,,,,,,,,,,,,,,,,,,,,,,,,,,
,,,,,982727,001,2024-06-17_09h53.37.808,experiment,2024.1.5,Win32,59.88023952,66563e4da8bbe2b119755a50,667045947eb812cbdacbf325,66704dce3a476df4203072c2,,,,,,,,,,,,,,,,,,,,,,,,,,,,,,,,,,,,,,,,,,,,,,,,,,,,,,,,,,,,,,,,,34,Item 2,not a musician,Item 6,"Radio, YouTube, Amazon Music, Spotify",4,5,"Working, driving, house work, relaxing, hanging out with friends/family",Never,Never,Never,Often,Never,Sometimes,Sometimes,Rarely,Often,Often,Never,Never,Never,Never,Often,Often,nothing else I can think of,Country,Rock/Alternative Rock,Pop/R&B,Yes,"Used to listen to only country, then added pop/r&b as I got older, then added rock/alt. rock. Now I listen to all three genres in one day",0,0,0,0,1,,
,,,,,982727,001,2024-06-17_09h53.37.808,experiment,2024.1.5,Win32,59.88023952,66563e4da8bbe2b119755a50,667045947eb812cbdacbf325,66704dce3a476df4203072c2,,,,,,,,,,,,,,,,,,,,,,,,,,,,,,,,,,,,,,,,,,,,,,,,,,,,,,,,,,,,,,,,,,,,,,,,,,,,,,,,,,,,,,,,,,,,,,,,,,,,1374.4041,1376.3452
