welcome.started,welcome.stopped,space_to_continue.keys,space_to_continue.rt,space_to_continue.duration,participant,session,date,expName,psychopyVersion,OS,frameRate,PROLIFIC_PID,STUDY_ID,SESSION_ID,consent.consent,consent.consent_recontact,consent_check.started,consent_check.stopped,calibration_ready.started,calibration_ready.stopped,cal_ready.keys,cal_ready.rt,cal_ready.duration,calibration.started,calibration.stopped,mouse.x,mouse.y,mouse.leftButton,mouse.midButton,mouse.rightButton,mouse.time,mouse.clicked_name,move_on.keys,move_on.rt,move_on.duration,run_cal.thisRepN,run_cal.thisTrialN,run_cal.thisN,run_cal.thisIndex,run_cal.ran,emotion_training_ready.started,emotion_training_ready.stopped,training_move_on.keys,training_move_on.rt,training_move_on.duration,examples.started,examples.stopped,emotion_scale.started,emotion_scale.stopped,scale_next.keys,scale_next.rt,scale_next.duration,instructions.started,instructions.stopped,next.keys,next.rt,next.duration,practice_task.started,practice_task.stopped,mouse_rating_2.x,mouse_rating_2.y,mouse_rating_2.leftButton,mouse_rating_2.midButton,mouse_rating_2.rightButton,mouse_rating_2.time,mouse_rating_2.clicked_name,ready.started,ready.stopped,key_resp.keys,key_resp.rt,key_resp.duration,set_group.started,set_group.stopped,task.started,task.stopped,mouse_rating.x,mouse_rating.y,mouse_rating.leftButton,mouse_rating.midButton,mouse_rating.rightButton,mouse_rating.time,mouse_rating.clicked_name,trials.thisRepN,trials.thisTrialN,trials.thisN,trials.thisIndex,trials.ran,clip,short_break.started,short_break.stopped,space_to_move_on.keys,space_to_move_on.rt,space_to_move_on.duration,instruction_reminder.started,instruction_reminder.stopped,reminder_move_on.keys,reminder_move_on.rt,reminder_move_on.duration,blocks.thisRepN,blocks.thisTrialN,blocks.thisN,blocks.thisIndex,blocks.ran,block,post_survey.age,post_survey.musician,post_survey.music_making,post_survey.listen_time,post_survey.medium,post_survey.music_seeking,post_survey.music_choice,post_survey.activities,post_survey.question1.A cappella,post_survey.question1.Classical,post_survey.question1.Ambient,post_survey.question1.Metal,post_survey.question1.Latin,post_survey.question1.Country,post_survey.question1.Folk/indie,post_survey.question1.Electronic (EDM),post_survey.question1.Jazz,post_survey.question1.Alternative rock,post_survey.question1.Reggae,post_survey.question1.Pop,post_survey.question1.R&B,post_survey.question1.Classic rock,post_survey.question1.Hip hop,post_survey.question1.Disco,post_survey.genres_ranked.text1,post_survey.genres_ranked.text2,post_survey.genres_ranked.text3,post_survey.habit_change,post_survey.habits,show_exp.thisRepN,show_exp.thisTrialN,show_exp.thisN,show_exp.thisIndex,show_exp.ran,goodbye.started,goodbye.stopped
0.0002,2.8036,space,2.7875,,039938,001,2024-07-12_18h37.41.995,experiment,2024.1.5,Win32,60.06006006,6648bb202df5a337b816e22a,6691931c2c63981b064e1f0c,6691b017573e8f0890449c6a,,,,,,,,,,,,,,,,,,,,,,,,,,,,,,,,,,,,,,,,,,,,,,,,,,,,,,,,,,,,,,,,,,,,,,,,,,,,,,,,,,,,,,,,,,,,,,,,,,,,,,,,,,,,,,,,,,,,,,,,,,,,,,
,,,,,039938,001,2024-07-12_18h37.41.995,experiment,2024.1.5,Win32,60.06006006,6648bb202df5a337b816e22a,6691931c2c63981b064e1f0c,6691b017573e8f0890449c6a,yes,yes,,,,,,,,,,,,,,,,,,,,,,,,,,,,,,,,,,,,,,,,,,,,,,,,,,,,,,,,,,,,,,,,,,,,,,,,,,,,,,,,,,,,,,,,,,,,,,,,,,,,,,,,,,,,,,,,,,,,,,,,,,,,
,,,,,039938,001,2024-07-12_18h37.41.995,experiment,2024.1.5,Win32,60.06006006,6648bb202df5a337b816e22a,6691931c2c63981b064e1f0c,6691b017573e8f0890449c6a,,,77.011,77.0113,,,,,,,,,,,,,,,,,,,,,,,,,,,,,,,,,,,,,,,,,,,,,,,,,,,,,,,,,,,,,,,,,,,,,,,,,,,,,,,,,,,,,,,,,,,,,,,,,,,,,,,,,,,,,,,,,,,,,,,,,,
,,,,,039938,001,2024-07-12_18h37.41.995,experiment,2024.1.5,Win32,60.06006006,6648bb202df5a337b816e22a,6691931c2c63981b064e1f0c,6691b017573e8f0890449c6a,,,,,77.0149,90.551,space,13.5224,,90.561,130.442,"[-0.0234375,-0.0234375,-0.020833333333333332,-0.020833333333333332,0.01171875]","[-0.4166666666666667,-0.4166666666666667,-0.4153645833333333,-0.4153645833333333,-0.4348958333333333]","[1,1,1,1,1]","[0,0,0,0,0]","[0,0,0,0,0]","[7.41129999971389,13.724199999809258,16.133599999904632,16.600199999809263,19.33069999980927]","[""play_button""]",y,38.8577,,0,0,0,0,1,,,,,,,,,,,,,,,,,,,,,,,,,,,,,,,,,,,,,,,,,,,,,,,,,,,,,,,,,,,,,,,,,,,,,,,,,,,,,,,,,,,,,,,,,,,,,,,,,,,,
,,,,,039938,001,2024-07-12_18h37.41.995,experiment,2024.1.5,Win32,60.06006006,6648bb202df5a337b816e22a,6691931c2c63981b064e1f0c,6691b017573e8f0890449c6a,,,,,,,,,,,,,,,,,,,,,,,,,,,130.4427,166.0065,space,35.5318,,166.0067,286.0218,286.022,309.7803,right,20.2238,,309.7804,319.3704,space,9.5501,,319.3705,333.307,-0.229166667,-0.260416667,1,0,0,7.9265,compass_2,333.3073,334.9591,space,1.6441,,334.9591,334.9681,335.0004,348.2467,-0.16796875,-0.178385417,1,0,0,7.2319,compass,0,0,0,19,1,SoundStimuli/LetsGetItOn_MarvinGaye_Cover5S.wav,,,,,,,,,,,,,,,,,,,,,,,,,,,,,,,,,,,,,,,,,,,,,,,,,,,,
,,,,,039938,001,2024-07-12_18h37.41.995,experiment,2024.1.5,Win32,60.06006006,6648bb202df5a337b816e22a,6691931c2c63981b064e1f0c,6691b017573e8f0890449c6a,,,,,,,,,,,,,,,,,,,,,,,,,,,,,,,,,,,,,,,,,,,,,,,,,,,,,,,,,,,,348.2561,358.2312,-0.188802083,0.196614583,1,0,0,3.9585,compass,0,1,1,16,1,SoundStimuli/BohemianRhapsody_Queen_Original5S.wav,,,,,,,,,,,,,,,,,,,,,,,,,,,,,,,,,,,,,,,,,,,,,,,,,,,,
,,,,,039938,001,2024-07-12_18h37.41.995,experiment,2024.1.5,Win32,60.06006006,6648bb202df5a337b816e22a,6691931c2c63981b064e1f0c,6691b017573e8f0890449c6a,,,,,,,,,,,,,,,,,,,,,,,,,,,,,,,,,,,,,,,,,,,,,,,,,,,,,,,,,,,,358.2408,364.7962,-0.178385417,-0.173177083,1,0,0,0.5497,compass,0,2,2,2,1,SoundStimuli/Mood_24kGoldnianndior_Cover5S.wav,,,,,,,,,,,,,,,,,,,,,,,,,,,,,,,,,,,,,,,,,,,,,,,,,,,,
,,,,,039938,001,2024-07-12_18h37.41.995,experiment,2024.1.5,Win32,60.06006006,6648bb202df5a337b816e22a,6691931c2c63981b064e1f0c,6691b017573e8f0890449c6a,,,,,,,,,,,,,,,,,,,,,,,,,,,,,,,,,,,,,,,,,,,,,,,,,,,,,,,,,,,,364.8052,372.0558,0.208333333,-0.2109375,1,0,0,1.2494,compass,0,3,3,17,1,SoundStimuli/Fallin_AliciaKeys_Original5S.wav,,,,,,,,,,,,,,,,,,,,,,,,,,,,,,,,,,,,,,,,,,,,,,,,,,,,
,,,,,039938,001,2024-07-12_18h37.41.995,experiment,2024.1.5,Win32,60.06006006,6648bb202df5a337b816e22a,6691931c2c63981b064e1f0c,6691b017573e8f0890449c6a,,,,,,,,,,,,,,,,,,,,,,,,,,,,,,,,,,,,,,,,,,,,,,,,,,,,,,,,,,,,372.0653,383.4608,0.178385417,0.17578125,1,0,0,5.395,compass,0,4,4,7,1,SoundStimuli/NoOne_AliciaKeys_Cover5S.wav,,,,,,,,,,,,,,,,,,,,,,,,,,,,,,,,,,,,,,,,,,,,,,,,,,,,
,,,,,039938,001,2024-07-12_18h37.41.995,experiment,2024.1.5,Win32,60.06006006,6648bb202df5a337b816e22a,6691931c2c63981b064e1f0c,6691b017573e8f0890449c6a,,,,,,,,,,,,,,,,,,,,,,,,,,,,,,,,,,,,,,,,,,,,,,,,,,,,,,,,,,,,383.4698,392.0977,-0.1953125,-0.165364583,1,0,0,2.6262,compass,0,5,5,10,1,SoundStimuli/BadDay_DanielPowter_Cover5S.wav,,,,,,,,,,,,,,,,,,,,,,,,,,,,,,,,,,,,,,,,,,,,,,,,,,,,
,,,,,039938,001,2024-07-12_18h37.41.995,experiment,2024.1.5,Win32,60.06006006,6648bb202df5a337b816e22a,6691931c2c63981b064e1f0c,6691b017573e8f0890449c6a,,,,,,,,,,,,,,,,,,,,,,,,,,,,,,,,,,,,,,,,,,,,,,,,,,,,,,,,,,,,392.1068,399.5067,0.16015625,0.192708333,1,0,0,1.3945,compass,0,6,6,11,1,SoundStimuli/Superstition_StevieWonder_Cover5S.wav,,,,,,,,,,,,,,,,,,,,,,,,,,,,,,,,,,,,,,,,,,,,,,,,,,,,
,,,,,039938,001,2024-07-12_18h37.41.995,experiment,2024.1.5,Win32,60.06006006,6648bb202df5a337b816e22a,6691931c2c63981b064e1f0c,6691b017573e8f0890449c6a,,,,,,,,,,,,,,,,,,,,,,,,,,,,,,,,,,,,,,,,,,,,,,,,,,,,,,,,,,,,399.5156,406.7877,-0.184895833,0.166666667,1,0,0,1.2659,compass,0,7,7,3,1,SoundStimuli/NoScrubs_TLC_Original5S.wav,,,,,,,,,,,,,,,,,,,,,,,,,,,,,,,,,,,,,,,,,,,,,,,,,,,,
,,,,,039938,001,2024-07-12_18h37.41.995,experiment,2024.1.5,Win32,60.06006006,6648bb202df5a337b816e22a,6691931c2c63981b064e1f0c,6691b017573e8f0890449c6a,,,,,,,,,,,,,,,,,,,,,,,,,,,,,,,,,,,,,,,,,,,,,,,,,,,,,,,,,,,,406.7957,413.4795,-0.118489583,0.173177083,1,0,0,0.6648,compass,0,8,8,13,1,SoundStimuli/GodOnlyKnows_TheBeachBoys_Cover5S.wav,,,,,,,,,,,,,,,,,,,,,,,,,,,,,,,,,,,,,,,,,,,,,,,,,,,,
,,,,,039938,001,2024-07-12_18h37.41.995,experiment,2024.1.5,Win32,60.06006006,6648bb202df5a337b816e22a,6691931c2c63981b064e1f0c,6691b017573e8f0890449c6a,,,,,,,,,,,,,,,,,,,,,,,,,,,,,,,,,,,,,,,,,,,,,,,,,,,,,,,,,,,,413.4882,423.9159,0.21484375,0.197916667,1,0,0,4.4235,compass,0,9,9,33,1,SoundStimuli/StandByMe_BenEKing_Cover5S.wav,,,,,,,,,,,,,,,,,,,,,,,,,,,,,,,,,,,,,,,,,,,,,,,,,,,,
,,,,,039938,001,2024-07-12_18h37.41.995,experiment,2024.1.5,Win32,60.06006006,6648bb202df5a337b816e22a,6691931c2c63981b064e1f0c,6691b017573e8f0890449c6a,,,,,,,,,,,,,,,,,,,,,,,,,,,,,,,,,,,,,,,,,,,,,,,,,,,,,,,,,,,,423.9255,435.3925,0.14453125,-0.182291667,1,0,0,5.4604,compass,0,10,10,20,1,SoundStimuli/HeyYa_Outkast_Cover5S.wav,,,,,,,,,,,,,,,,,,,,,,,,,,,,,,,,,,,,,,,,,,,,,,,,,,,,
,,,,,039938,001,2024-07-12_18h37.41.995,experiment,2024.1.5,Win32,60.06006006,6648bb202df5a337b816e22a,6691931c2c63981b064e1f0c,6691b017573e8f0890449c6a,,,,,,,,,,,,,,,,,,,,,,,,,,,,,,,,,,,,,,,,,,,,,,,,,,,,,,,,,,,,435.4015,442.1692,0.122395833,0.203125,1,0,0,0.7501,compass,0,11,11,1,1,SoundStimuli/Stronger_KanyeWest_Original5S.wav,,,,,,,,,,,,,,,,,,,,,,,,,,,,,,,,,,,,,,,,,,,,,,,,,,,,
,,,,,039938,001,2024-07-12_18h37.41.995,experiment,2024.1.5,Win32,60.06006006,6648bb202df5a337b816e22a,6691931c2c63981b064e1f0c,6691b017573e8f0890449c6a,,,,,,,,,,,,,,,,,,,,,,,,,,,,,,,,,,,,,,,,,,,,,,,,,,,,,,,,,,,,442.1779,448.596,0.307291667,0.322916667,1,0,0,0.4166,compass,0,12,12,22,1,SoundStimuli/RockWithYou_MichaelJackson_Original5S.wav,,,,,,,,,,,,,,,,,,,,,,,,,,,,,,,,,,,,,,,,,,,,,,,,,,,,
,,,,,039938,001,2024-07-12_18h37.41.995,experiment,2024.1.5,Win32,60.06006006,6648bb202df5a337b816e22a,6691931c2c63981b064e1f0c,6691b017573e8f0890449c6a,,,,,,,,,,,,,,,,,,,,,,,,,,,,,,,,,,,,,,,,,,,,,,,,,,,,,,,,,,,,448.6047,455.0355,0.307291667,0.296875,1,0,0,0.4287,compass,0,13,13,0,1,SoundStimuli/StayinAlive_BeeGees_Original5S.wav,,,,,,,,,,,,,,,,,,,,,,,,,,,,,,,,,,,,,,,,,,,,,,,,,,,,
,,,,,039938,001,2024-07-12_18h37.41.995,experiment,2024.1.5,Win32,60.06006006,6648bb202df5a337b816e22a,6691931c2c63981b064e1f0c,6691b017573e8f0890449c6a,,,,,,,,,,,,,,,,,,,,,,,,,,,,,,,,,,,,,,,,,,,,,,,,,,,,,,,,,,,,455.0445,465.9912,-0.1015625,-0.119791667,1,0,0,4.9413,compass,0,14,14,21,1,SoundStimuli/GoodGollyMissMolly_LittleRichard_Cover5S.wav,,,,,,,,,,,,,,,,,,,,,,,,,,,,,,,,,,,,,,,,,,,,,,,,,,,,
,,,,,039938,001,2024-07-12_18h37.41.995,experiment,2024.1.5,Win32,60.06006006,6648bb202df5a337b816e22a,6691931c2c63981b064e1f0c,6691b017573e8f0890449c6a,,,,,,,,,,,,,,,,,,,,,,,,,,,,,,,,,,,,,,,,,,,,,,,,,,,,,,,,,,,,466.0011,473.0885,0.278645833,0.26171875,1,0,0,1.0834,compass,0,15,15,30,1,SoundStimuli/PokerFace_LadyGaga_Original5S.wav,,,,,,,,,,,,,,,,,,,,,,,,,,,,,,,,,,,,,,,,,,,,,,,,,,,,
,,,,,039938,001,2024-07-12_18h37.41.995,experiment,2024.1.5,Win32,60.06006006,6648bb202df5a337b816e22a,6691931c2c63981b064e1f0c,6691b017573e8f0890449c6a,,,,,,,,,,,,,,,,,,,,,,,,,,,,,,,,,,,,,,,,,,,,,,,,,,,,,,,,,,,,473.0975,480.1812,0.243489583,0.252604167,1,0,0,1.066,compass,0,16,16,14,1,SoundStimuli/BlindingLights_TheWeeknd_Original5S.wav,,,,,,,,,,,,,,,,,,,,,,,,,,,,,,,,,,,,,,,,,,,,,,,,,,,,
,,,,,039938,001,2024-07-12_18h37.41.995,experiment,2024.1.5,Win32,60.06006006,6648bb202df5a337b816e22a,6691931c2c63981b064e1f0c,6691b017573e8f0890449c6a,,,,,,,,,,,,,,,,,,,,,,,,,,,,,,,,,,,,,,,,,,,,,,,,,,,,,,,,,,,,480.1906,490.4543,-0.135416667,-0.0859375,1,0,0,4.2623,compass,0,17,17,18,1,SoundStimuli/AnotherOneBitesTheDust_Queen_Original5S.wav,,,,,,,,,,,,,,,,,,,,,,,,,,,,,,,,,,,,,,,,,,,,,,,,,,,,
,,,,,039938,001,2024-07-12_18h37.41.995,experiment,2024.1.5,Win32,60.06006006,6648bb202df5a337b816e22a,6691931c2c63981b064e1f0c,6691b017573e8f0890449c6a,,,,,,,,,,,,,,,,,,,,,,,,,,,,,,,,,,,,,,,,,,,,,,,,,,,,,,,,,,,,490.4635,502.7754,0.092447917,-0.092447917,1,0,0,6.2941,compass,0,18,18,23,1,SoundStimuli/StrawberryFieldsForever_TheBeatles_Original5S.wav,,,,,,,,,,,,,,,,,,,,,,,,,,,,,,,,,,,,,,,,,,,,,,,,,,,,
,,,,,039938,001,2024-07-12_18h37.41.995,experiment,2024.1.5,Win32,60.06006006,6648bb202df5a337b816e22a,6691931c2c63981b064e1f0c,6691b017573e8f0890449c6a,,,,,,,,,,,,,,,,,,,,,,,,,,,,,,,,,,,,,,,,,,,,,,,,,,,,,,,,,,,,502.7847,511.4133,0.272135417,-0.15234375,1,0,0,2.611,compass,0,19,19,12,1,SoundStimuli/IWillAlwaysLoveYou_WhitneyHouston_Cover5S.wav,,,,,,,,,,,,,,,,,,,,,,,,,,,,,,,,,,,,,,,,,,,,,,,,,,,,
,,,,,039938,001,2024-07-12_18h37.41.995,experiment,2024.1.5,Win32,60.06006006,6648bb202df5a337b816e22a,6691931c2c63981b064e1f0c,6691b017573e8f0890449c6a,,,,,,,,,,,,,,,,,,,,,,,,,,,,,,,,,,,,,,,,,,,,,,,,,,,,,,,,,,,,511.423,525.3029,0.157552083,-0.09765625,1,0,0,7.8759,compass,0,20,20,9,1,SoundStimuli/Despacito_LuisFonsiDaddyYankee_Cover5S.wav,,,,,,,,,,,,,,,,,,,,,,,,,,,,,,,,,,,,,,,,,,,,,,,,,,,,
,,,,,039938,001,2024-07-12_18h37.41.995,experiment,2024.1.5,Win32,60.06006006,6648bb202df5a337b816e22a,6691931c2c63981b064e1f0c,6691b017573e8f0890449c6a,,,,,,,,,,,,,,,,,,,,,,,,,,,,,,,,,,,,,,,,,,,,,,,,,,,,,,,,,,,,525.3122,531.7917,0.25390625,0.259114583,1,0,0,0.4619,compass,0,21,21,8,1,SoundStimuli/LikeAPrayer_Madonna_Original5S.wav,,,,,,,,,,,,,,,,,,,,,,,,,,,,,,,,,,,,,,,,,,,,,,,,,,,,
,,,,,039938,001,2024-07-12_18h37.41.995,experiment,2024.1.5,Win32,60.06006006,6648bb202df5a337b816e22a,6691931c2c63981b064e1f0c,6691b017573e8f0890449c6a,,,,,,,,,,,,,,,,,,,,,,,,,,,,,,,,,,,,,,,,,,,,,,,,,,,,,,,,,,,,531.8008,550.7734,0.19140625,-0.091145833,1,0,0,12.9662,compass,0,22,22,34,1,SoundStimuli/AChangeIsGonnaCome_SamCooke_Cover5S.wav,,,,,,,,,,,,,,,,,,,,,,,,,,,,,,,,,,,,,,,,,,,,,,,,,,,,
,,,,,039938,001,2024-07-12_18h37.41.995,experiment,2024.1.5,Win32,60.06006006,6648bb202df5a337b816e22a,6691931c2c63981b064e1f0c,6691b017573e8f0890449c6a,,,,,,,,,,,,,,,,,,,,,,,,,,,,,,,,,,,,,,,,,,,,,,,,,,,,,,,,,,,,550.7827,557.2497,0.259114583,0.235677083,1,0,0,0.4617,compass,0,23,23,4,1,SoundStimuli/GetUrFreakOn_MissyElliot_Original5S.wav,,,,,,,,,,,,,,,,,,,,,,,,,,,,,,,,,,,,,,,,,,,,,,,,,,,,
,,,,,039938,001,2024-07-12_18h37.41.995,experiment,2024.1.5,Win32,60.06006006,6648bb202df5a337b816e22a,6691931c2c63981b064e1f0c,6691b017573e8f0890449c6a,,,,,,,,,,,,,,,,,,,,,,,,,,,,,,,,,,,,,,,,,,,,,,,,,,,,,,,,,,,,557.2594,564.2817,0.278645833,0.209635417,1,0,0,1.0173,compass,0,24,24,24,1,SoundStimuli/UptownFunk_MarkRonson_Original5S.wav,,,,,,,,,,,,,,,,,,,,,,,,,,,,,,,,,,,,,,,,,,,,,,,,,,,,
,,,,,039938,001,2024-07-12_18h37.41.995,experiment,2024.1.5,Win32,60.06006006,6648bb202df5a337b816e22a,6691931c2c63981b064e1f0c,6691b017573e8f0890449c6a,,,,,,,,,,,,,,,,,,,,,,,,,,,,,,,,,,,,,,,,,,,,,,,,,,,,,,,,,,,,564.2905,572.5895,0.279947917,-0.076822917,1,0,0,2.2981,compass,0,25,25,28,1,SoundStimuli/ComeAndGetYourLove_Redbone_Original5S.wav,,,,,,,,,,,,,,,,,,,,,,,,,,,,,,,,,,,,,,,,,,,,,,,,,,,,
,,,,,039938,001,2024-07-12_18h37.41.995,experiment,2024.1.5,Win32,60.06006006,6648bb202df5a337b816e22a,6691931c2c63981b064e1f0c,6691b017573e8f0890449c6a,,,,,,,,,,,,,,,,,,,,,,,,,,,,,,,,,,,,,,,,,,,,,,,,,,,,,,,,,,,,572.5989,579.7822,-0.23046875,0.23046875,1,0,0,1.166,compass,0,26,26,32,1,SoundStimuli/HeatWaves_GlassAnimals_Original5S.wav,,,,,,,,,,,,,,,,,,,,,,,,,,,,,,,,,,,,,,,,,,,,,,,,,,,,
,,,,,039938,001,2024-07-12_18h37.41.995,experiment,2024.1.5,Win32,60.06006006,6648bb202df5a337b816e22a,6691931c2c63981b064e1f0c,6691b017573e8f0890449c6a,,,,,,,,,,,,,,,,,,,,,,,,,,,,,,,,,,,,,,,,,,,,,,,,,,,,,,,,,,,,579.7915,587.8573,-0.192708333,-0.213541667,1,0,0,2.065,compass,0,27,27,31,1,SoundStimuli/TheBattleOfNewOrleans_JohnnyHorton_Cover5S.wav,,,,,,,,,,,,,,,,,,,,,,,,,,,,,,,,,,,,,,,,,,,,,,,,,,,,
,,,,,039938,001,2024-07-12_18h37.41.995,experiment,2024.1.5,Win32,60.06006006,6648bb202df5a337b816e22a,6691931c2c63981b064e1f0c,6691b017573e8f0890449c6a,,,,,,,,,,,,,,,,,,,,,,,,,,,,,,,,,,,,,,,,,,,,,,,,,,,,,,,,,,,,587.8665,599.2915,0.2109375,-0.134114583,1,0,0,5.4239,compass,0,28,28,15,1,SoundStimuli/TikTok_Kesha_Cover5S.wav,,,,,,,,,,,,,,,,,,,,,,,,,,,,,,,,,,,,,,,,,,,,,,,,,,,,
,,,,,039938,001,2024-07-12_18h37.41.995,experiment,2024.1.5,Win32,60.06006006,6648bb202df5a337b816e22a,6691931c2c63981b064e1f0c,6691b017573e8f0890449c6a,,,,,,,,,,,,,,,,,,,,,,,,,,,,,,,,,,,,,,,,,,,,,,,,,,,,,,,,,,,,599.3,615.9132,-0.157552083,-0.108072917,1,0,0,10.607,compass,0,29,29,25,1,SoundStimuli/Respect_ArethaFranklin_Original5S.wav,,,,,,,,,,,,,,,,,,,,,,,,,,,,,,,,,,,,,,,,,,,,,,,,,,,,
,,,,,039938,001,2024-07-12_18h37.41.995,experiment,2024.1.5,Win32,60.06006006,6648bb202df5a337b816e22a,6691931c2c63981b064e1f0c,6691b017573e8f0890449c6a,,,,,,,,,,,,,,,,,,,,,,,,,,,,,,,,,,,,,,,,,,,,,,,,,,,,,,,,,,,,615.9233,622.4234,0.221354167,-0.223958333,1,0,0,0.4838,compass,0,30,30,5,1,SoundStimuli/MyGirl_TheTemptations_Original5S.wav,,,,,,,,,,,,,,,,,,,,,,,,,,,,,,,,,,,,,,,,,,,,,,,,,,,,
,,,,,039938,001,2024-07-12_18h37.41.995,experiment,2024.1.5,Win32,60.06006006,6648bb202df5a337b816e22a,6691931c2c63981b064e1f0c,6691b017573e8f0890449c6a,,,,,,,,,,,,,,,,,,,,,,,,,,,,,,,,,,,,,,,,,,,,,,,,,,,,,,,,,,,,622.4321,629.295,0.201822917,0.186197917,1,0,0,0.8443,compass,0,31,31,27,1,SoundStimuli/ShapeofYou_EdSheeran_Original5S.wav,,,,,,,,,,,,,,,,,,,,,,,,,,,,,,,,,,,,,,,,,,,,,,,,,,,,
,,,,,039938,001,2024-07-12_18h37.41.995,experiment,2024.1.5,Win32,60.06006006,6648bb202df5a337b816e22a,6691931c2c63981b064e1f0c,6691b017573e8f0890449c6a,,,,,,,,,,,,,,,,,,,,,,,,,,,,,,,,,,,,,,,,,,,,,,,,,,,,,,,,,,,,629.3036,637.7366,0.178385417,-0.184895833,1,0,0,2.431,compass,0,32,32,26,1,SoundStimuli/LivinOnAPrayer_BonJovi_Cover5S.wav,,,,,,,,,,,,,,,,,,,,,,,,,,,,,,,,,,,,,,,,,,,,,,,,,,,,
,,,,,039938,001,2024-07-12_18h37.41.995,experiment,2024.1.5,Win32,60.06006006,6648bb202df5a337b816e22a,6691931c2c63981b064e1f0c,6691b017573e8f0890449c6a,,,,,,,,,,,,,,,,,,,,,,,,,,,,,,,,,,,,,,,,,,,,,,,,,,,,,,,,,,,,637.7462,646.7612,0.209635417,0.16015625,1,0,0,3.01,compass,0,33,33,29,1,SoundStimuli/OldTownRoad_LilNasX_Original5S.wav,,,,,,,,,,,,,,,,,,,,,,,,,,,,,,,,,,,,,,,,,,,,,,,,,,,,
,,,,,039938,001,2024-07-12_18h37.41.995,experiment,2024.1.5,Win32,60.06006006,6648bb202df5a337b816e22a,6691931c2c63981b064e1f0c,6691b017573e8f0890449c6a,,,,,,,,,,,,,,,,,,,,,,,,,,,,,,,,,,,,,,,,,,,,,,,,,,,,,,,,,,,,646.7702,654.9028,0.19140625,0.26953125,1,0,0,2.1267,compass,0,34,34,6,1,SoundStimuli/Levitating_DuaLipa_Cover5S.wav,,,,,,,,,,,,,,,,,,,,,,,,,,,,,,,,,,,,,,,,,,,,,,,,,,,,
,,,,,039938,001,2024-07-12_18h37.41.995,experiment,2024.1.5,Win32,60.06006006,6648bb202df5a337b816e22a,6691931c2c63981b064e1f0c,6691b017573e8f0890449c6a,,,,,,,,,,,,,,,,,,,,,,,,,,,,,,,,,,,,,,,,,,,,,,,,,,,,,,,,,,,,,,,,,,,,,,,,,,,654.9038,658.7156,space,3.7829,,658.7158,677.4194,right,18.6821,,0,0,0,0,1,block_order/blockA.xlsx,,,,,,,,,,,,,,,,,,,,,,,,,,,,,,,,,,,,
,,,,,039938,001,2024-07-12_18h37.41.995,experiment,2024.1.5,Win32,60.06006006,6648bb202df5a337b816e22a,6691931c2c63981b064e1f0c,6691b017573e8f0890449c6a,,,,,,,,,,,,,,,,,,,,,,,,,,,,,,,,,,,,,,,,,,,,,,,,,,,,,,,,,,,,677.4397,691.4545,-0.127604167,-0.196614583,1,0,0,8.0077,compass,0,0,0,16,1,SoundStimuli/ItsAllInTheGame_TommyEdwards_Cover5S.wav,,,,,,,,,,,,,,,,,,,,,,,,,,,,,,,,,,,,,,,,,,,,,,,,,,,,
,,,,,039938,001,2024-07-12_18h37.41.995,experiment,2024.1.5,Win32,60.06006006,6648bb202df5a337b816e22a,6691931c2c63981b064e1f0c,6691b017573e8f0890449c6a,,,,,,,,,,,,,,,,,,,,,,,,,,,,,,,,,,,,,,,,,,,,,,,,,,,,,,,,,,,,691.4633,710.8517,-0.208333333,0.19921875,1,0,0,13.3701,compass,0,1,1,1,1,SoundStimuli/Smooth_SantanaRobThomas_Original5S.wav,,,,,,,,,,,,,,,,,,,,,,,,,,,,,,,,,,,,,,,,,,,,,,,,,,,,
,,,,,039938,001,2024-07-12_18h37.41.995,experiment,2024.1.5,Win32,60.06006006,6648bb202df5a337b816e22a,6691931c2c63981b064e1f0c,6691b017573e8f0890449c6a,,,,,,,,,,,,,,,,,,,,,,,,,,,,,,,,,,,,,,,,,,,,,,,,,,,,,,,,,,,,710.8607,719.0387,-0.154947917,-0.127604167,1,0,0,2.1761,compass,0,2,2,7,1,SoundStimuli/MackTheKnife_BobbyDarin_Cover5S.wav,,,,,,,,,,,,,,,,,,,,,,,,,,,,,,,,,,,,,,,,,,,,,,,,,,,,
,,,,,039938,001,2024-07-12_18h37.41.995,experiment,2024.1.5,Win32,60.06006006,6648bb202df5a337b816e22a,6691931c2c63981b064e1f0c,6691b017573e8f0890449c6a,,,,,,,,,,,,,,,,,,,,,,,,,,,,,,,,,,,,,,,,,,,,,,,,,,,,,,,,,,,,719.0481,731.6646,-0.127604167,-0.184895833,1,0,0,6.6107,compass,0,3,3,24,1,SoundStimuli/Kiss_Prince_Cover5S.wav,,,,,,,,,,,,,,,,,,,,,,,,,,,,,,,,,,,,,,,,,,,,,,,,,,,,
,,,,,039938,001,2024-07-12_18h37.41.995,experiment,2024.1.5,Win32,60.06006006,6648bb202df5a337b816e22a,6691931c2c63981b064e1f0c,6691b017573e8f0890449c6a,,,,,,,,,,,,,,,,,,,,,,,,,,,,,,,,,,,,,,,,,,,,,,,,,,,,,,,,,,,,731.6733,739.5348,-0.138020833,-0.169270833,1,0,0,1.8437,compass,0,4,4,34,1,SoundStimuli/Irreplaceable_Beyonce_Cover5S.wav,,,,,,,,,,,,,,,,,,,,,,,,,,,,,,,,,,,,,,,,,,,,,,,,,,,,
,,,,,039938,001,2024-07-12_18h37.41.995,experiment,2024.1.5,Win32,60.06006006,6648bb202df5a337b816e22a,6691931c2c63981b064e1f0c,6691b017573e8f0890449c6a,,,,,,,,,,,,,,,,,,,,,,,,,,,,,,,,,,,,,,,,,,,,,,,,,,,,,,,,,,,,739.5435,746.1333,0.157552083,0.140625,1,0,0,0.5825,compass,0,5,5,26,1,SoundStimuli/TheSign_AceOfBase_Cover5S.wav,,,,,,,,,,,,,,,,,,,,,,,,,,,,,,,,,,,,,,,,,,,,,,,,,,,,
,,,,,039938,001,2024-07-12_18h37.41.995,experiment,2024.1.5,Win32,60.06006006,6648bb202df5a337b816e22a,6691931c2c63981b064e1f0c,6691b017573e8f0890449c6a,,,,,,,,,,,,,,,,,,,,,,,,,,,,,,,,,,,,,,,,,,,,,,,,,,,,,,,,,,,,746.1423,758.721,-0.13671875,0.122395833,1,0,0,6.5605,compass,0,6,6,32,1,SoundStimuli/Dilemma_NellyKellyRowland_Cover5S.wav,,,,,,,,,,,,,,,,,,,,,,,,,,,,,,,,,,,,,,,,,,,,,,,,,,,,
,,,,,039938,001,2024-07-12_18h37.41.995,experiment,2024.1.5,Win32,60.06006006,6648bb202df5a337b816e22a,6691931c2c63981b064e1f0c,6691b017573e8f0890449c6a,,,,,,,,,,,,,,,,,,,,,,,,,,,,,,,,,,,,,,,,,,,,,,,,,,,,,,,,,,,,758.7302,771.2581,-0.200520833,0.180989583,1,0,0,6.5274,compass,0,7,7,12,1,SoundStimuli/UnbreakMyHeart_ToniBraxton_Original5S.wav,,,,,,,,,,,,,,,,,,,,,,,,,,,,,,,,,,,,,,,,,,,,,,,,,,,,
,,,,,039938,001,2024-07-12_18h37.41.995,experiment,2024.1.5,Win32,60.06006006,6648bb202df5a337b816e22a,6691931c2c63981b064e1f0c,6691b017573e8f0890449c6a,,,,,,,,,,,,,,,,,,,,,,,,,,,,,,,,,,,,,,,,,,,,,,,,,,,,,,,,,,,,771.267,781.5099,0.182291667,-0.23828125,1,0,0,4.2251,compass,0,8,8,8,1,SoundStimuli/EndlessLove_DianaRossLionelRichie_Cover5S.wav,,,,,,,,,,,,,,,,,,,,,,,,,,,,,,,,,,,,,,,,,,,,,,,,,,,,
,,,,,039938,001,2024-07-12_18h37.41.995,experiment,2024.1.5,Win32,60.06006006,6648bb202df5a337b816e22a,6691931c2c63981b064e1f0c,6691b017573e8f0890449c6a,,,,,,,,,,,,,,,,,,,,,,,,,,,,,,,,,,,,,,,,,,,,,,,,,,,,,,,,,,,,781.519,803.1433,-0.165364583,-0.119791667,1,0,0,15.6186,compass,0,9,9,30,1,SoundStimuli/SomebodyThatIUsedtoKnow_Gotye_Original5S.wav,,,,,,,,,,,,,,,,,,,,,,,,,,,,,,,,,,,,,,,,,,,,,,,,,,,,
,,,,,039938,001,2024-07-12_18h37.41.995,experiment,2024.1.5,Win32,60.06006006,6648bb202df5a337b816e22a,6691931c2c63981b064e1f0c,6691b017573e8f0890449c6a,,,,,,,,,,,,,,,,,,,,,,,,,,,,,,,,,,,,,,,,,,,,,,,,,,,,,,,,,,,,803.1525,810.1692,-0.115885417,-0.100260417,1,0,0,1.0157,compass,0,10,10,21,1,SoundStimuli/BridgeOverTroubledWater_SimonAndGarfunkel_Original5S.wav,,,,,,,,,,,,,,,,,,,,,,,,,,,,,,,,,,,,,,,,,,,,,,,,,,,,
,,,,,039938,001,2024-07-12_18h37.41.995,experiment,2024.1.5,Win32,60.06006006,6648bb202df5a337b816e22a,6691931c2c63981b064e1f0c,6691b017573e8f0890449c6a,,,,,,,,,,,,,,,,,,,,,,,,,,,,,,,,,,,,,,,,,,,,,,,,,,,,,,,,,,,,810.1777,816.6581,-0.140625,-0.188802083,1,0,0,0.4783,compass,0,11,11,6,1,SoundStimuli/SaveYourTears_TheWeekndArianaGrande_Cover5S.wav,,,,,,,,,,,,,,,,,,,,,,,,,,,,,,,,,,,,,,,,,,,,,,,,,,,,
,,,,,039938,001,2024-07-12_18h37.41.995,experiment,2024.1.5,Win32,60.06006006,6648bb202df5a337b816e22a,6691931c2c63981b064e1f0c,6691b017573e8f0890449c6a,,,,,,,,,,,,,,,,,,,,,,,,,,,,,,,,,,,,,,,,,,,,,,,,,,,,,,,,,,,,816.6667,825.3331,-0.151041667,-0.130208333,1,0,0,2.6641,compass,0,12,12,29,1,SoundStimuli/BetteDavisEyes_KimCarnes_Original5S.wav,,,,,,,,,,,,,,,,,,,,,,,,,,,,,,,,,,,,,,,,,,,,,,,,,,,,
,,,,,039938,001,2024-07-12_18h37.41.995,experiment,2024.1.5,Win32,60.06006006,6648bb202df5a337b816e22a,6691931c2c63981b064e1f0c,6691b017573e8f0890449c6a,,,,,,,,,,,,,,,,,,,,,,,,,,,,,,,,,,,,,,,,,,,,,,,,,,,,,,,,,,,,825.3424,834.141,-0.157552083,0.143229167,1,0,0,2.7931,compass,0,13,13,33,1,SoundStimuli/TheBoyIsMine_BrandyMonica_Original5S.wav,,,,,,,,,,,,,,,,,,,,,,,,,,,,,,,,,,,,,,,,,,,,,,,,,,,,
,,,,,039938,001,2024-07-12_18h37.41.995,experiment,2024.1.5,Win32,60.06006006,6648bb202df5a337b816e22a,6691931c2c63981b064e1f0c,6691b017573e8f0890449c6a,,,,,,,,,,,,,,,,,,,,,,,,,,,,,,,,,,,,,,,,,,,,,,,,,,,,,,,,,,,,834.1505,842.1997,-0.178385417,0.188802083,1,0,0,2.0478,compass,0,14,14,14,1,SoundStimuli/LikeARollingStone_BobDylan_Original5S.wav,,,,,,,,,,,,,,,,,,,,,,,,,,,,,,,,,,,,,,,,,,,,,,,,,,,,
,,,,,039938,001,2024-07-12_18h37.41.995,experiment,2024.1.5,Win32,60.06006006,6648bb202df5a337b816e22a,6691931c2c63981b064e1f0c,6691b017573e8f0890449c6a,,,,,,,,,,,,,,,,,,,,,,,,,,,,,,,,,,,,,,,,,,,,,,,,,,,,,,,,,,,,842.2097,851.8956,-0.178385417,0.188802083,1,0,0,3.6645,compass,0,15,15,0,1,SoundStimuli/GimmeShelter_RollingStones_Original5S.wav,,,,,,,,,,,,,,,,,,,,,,,,,,,,,,,,,,,,,,,,,,,,,,,,,,,,
,,,,,039938,001,2024-07-12_18h37.41.995,experiment,2024.1.5,Win32,60.06006006,6648bb202df5a337b816e22a,6691931c2c63981b064e1f0c,6691b017573e8f0890449c6a,,,,,,,,,,,,,,,,,,,,,,,,,,,,,,,,,,,,,,,,,,,,,,,,,,,,,,,,,,,,851.9047,861.6684,0.188802083,-0.14453125,1,0,0,3.7471,compass,0,16,16,11,1,SoundStimuli/BlurredLines_RobinThicke_Cover5S.wav,,,,,,,,,,,,,,,,,,,,,,,,,,,,,,,,,,,,,,,,,,,,,,,,,,,,
,,,,,039938,001,2024-07-12_18h37.41.995,experiment,2024.1.5,Win32,60.06006006,6648bb202df5a337b816e22a,6691931c2c63981b064e1f0c,6691b017573e8f0890449c6a,,,,,,,,,,,,,,,,,,,,,,,,,,,,,,,,,,,,,,,,,,,,,,,,,,,,,,,,,,,,861.6776,868.2952,0.234375,0.223958333,1,0,0,0.5999,compass,0,17,17,13,1,SoundStimuli/Perfect_EdSheeran_Cover5S.wav,,,,,,,,,,,,,,,,,,,,,,,,,,,,,,,,,,,,,,,,,,,,,,,,,,,,
,,,,,039938,001,2024-07-12_18h37.41.995,experiment,2024.1.5,Win32,60.06006006,6648bb202df5a337b816e22a,6691931c2c63981b064e1f0c,6691b017573e8f0890449c6a,,,,,,,,,,,,,,,,,,,,,,,,,,,,,,,,,,,,,,,,,,,,,,,,,,,,,,,,,,,,868.304,877.0688,-0.154947917,0.217447917,1,0,0,2.7473,compass,0,18,18,9,1,SoundStimuli/HowDoILive_LeAnnRimes_Cover5S.wav,,,,,,,,,,,,,,,,,,,,,,,,,,,,,,,,,,,,,,,,,,,,,,,,,,,,
,,,,,039938,001,2024-07-12_18h37.41.995,experiment,2024.1.5,Win32,60.06006006,6648bb202df5a337b816e22a,6691931c2c63981b064e1f0c,6691b017573e8f0890449c6a,,,,,,,,,,,,,,,,,,,,,,,,,,,,,,,,,,,,,,,,,,,,,,,,,,,,,,,,,,,,877.0782,883.8626,0.317708333,0.30859375,1,0,0,0.7663,compass,0,19,19,22,1,SoundStimuli/Happy_PharellWilliams_Original5S.wav,,,,,,,,,,,,,,,,,,,,,,,,,,,,,,,,,,,,,,,,,,,,,,,,,,,,
,,,,,039938,001,2024-07-12_18h37.41.995,experiment,2024.1.5,Win32,60.06006006,6648bb202df5a337b816e22a,6691931c2c63981b064e1f0c,6691b017573e8f0890449c6a,,,,,,,,,,,,,,,,,,,,,,,,,,,,,,,,,,,,,,,,,,,,,,,,,,,,,,,,,,,,883.8712,893.1158,-0.078125,-0.10546875,1,0,0,3.2429,compass,0,20,20,15,1,SoundStimuli/CrazyInLove_BeyonceFtJayZ_Cover5S.wav,,,,,,,,,,,,,,,,,,,,,,,,,,,,,,,,,,,,,,,,,,,,,,,,,,,,
,,,,,039938,001,2024-07-12_18h37.41.995,experiment,2024.1.5,Win32,60.06006006,6648bb202df5a337b816e22a,6691931c2c63981b064e1f0c,6691b017573e8f0890449c6a,,,,,,,,,,,,,,,,,,,,,,,,,,,,,,,,,,,,,,,,,,,,,,,,,,,,,,,,,,,,893.1252,899.4432,0.278645833,0.287760417,1,0,0,0.3127,compass,0,21,21,17,1,SoundStimuli/IWannaDanceWithSomebody_WhitneyHouston_Original5S.wav,,,,,,,,,,,,,,,,,,,,,,,,,,,,,,,,,,,,,,,,,,,,,,,,,,,,
,,,,,039938,001,2024-07-12_18h37.41.995,experiment,2024.1.5,Win32,60.06006006,6648bb202df5a337b816e22a,6691931c2c63981b064e1f0c,6691b017573e8f0890449c6a,,,,,,,,,,,,,,,,,,,,,,,,,,,,,,,,,,,,,,,,,,,,,,,,,,,,,,,,,,,,899.4517,906.0192,0.278645833,0.287760417,1,0,0,0.5619,compass,0,22,22,28,1,SoundStimuli/IWantToHoldYourHand_TheBeatles_Original5S.wav,,,,,,,,,,,,,,,,,,,,,,,,,,,,,,,,,,,,,,,,,,,,,,,,,,,,
,,,,,039938,001,2024-07-12_18h37.41.995,experiment,2024.1.5,Win32,60.06006006,6648bb202df5a337b816e22a,6691931c2c63981b064e1f0c,6691b017573e8f0890449c6a,,,,,,,,,,,,,,,,,,,,,,,,,,,,,,,,,,,,,,,,,,,,,,,,,,,,,,,,,,,,906.0278,914.3827,0.161458333,0.19140625,1,0,0,2.3479,compass,0,23,23,20,1,SoundStimuli/FlashdanceWhatAFeeling_IreneCara_Original5S.wav,,,,,,,,,,,,,,,,,,,,,,,,,,,,,,,,,,,,,,,,,,,,,,,,,,,,
,,,,,039938,001,2024-07-12_18h37.41.995,experiment,2024.1.5,Win32,60.06006006,6648bb202df5a337b816e22a,6691931c2c63981b064e1f0c,6691b017573e8f0890449c6a,,,,,,,,,,,,,,,,,,,,,,,,,,,,,,,,,,,,,,,,,,,,,,,,,,,,,,,,,,,,914.3916,921.8581,0.1171875,0.140625,1,0,0,1.4488,compass,0,24,24,31,1,SoundStimuli/TossinAndTurnin_BobbyLewis_Original5S.wav,,,,,,,,,,,,,,,,,,,,,,,,,,,,,,,,,,,,,,,,,,,,,,,,,,,,
,,,,,039938,001,2024-07-12_18h37.41.995,experiment,2024.1.5,Win32,60.06006006,6648bb202df5a337b816e22a,6691931c2c63981b064e1f0c,6691b017573e8f0890449c6a,,,,,,,,,,,,,,,,,,,,,,,,,,,,,,,,,,,,,,,,,,,,,,,,,,,,,,,,,,,,921.8674,929.2678,0.138020833,-0.22265625,1,0,0,1.3832,compass,0,25,25,25,1,SoundStimuli/IllMakeLoveToYou_BoyzIIMen_Cover5S.wav,,,,,,,,,,,,,,,,,,,,,,,,,,,,,,,,,,,,,,,,,,,,,,,,,,,,
,,,,,039938,001,2024-07-12_18h37.41.995,experiment,2024.1.5,Win32,60.06006006,6648bb202df5a337b816e22a,6691931c2c63981b064e1f0c,6691b017573e8f0890449c6a,,,,,,,,,,,,,,,,,,,,,,,,,,,,,,,,,,,,,,,,,,,,,,,,,,,,,,,,,,,,929.2765,936.0276,-0.1953125,0.14453125,1,0,0,0.75,compass,0,26,26,2,1,SoundStimuli/SmellsLikeTeenSpirit_Nirvana_Original5S.wav,,,,,,,,,,,,,,,,,,,,,,,,,,,,,,,,,,,,,,,,,,,,,,,,,,,,
,,,,,039938,001,2024-07-12_18h37.41.995,experiment,2024.1.5,Win32,60.06006006,6648bb202df5a337b816e22a,6691931c2c63981b064e1f0c,6691b017573e8f0890449c6a,,,,,,,,,,,,,,,,,,,,,,,,,,,,,,,,,,,,,,,,,,,,,,,,,,,,,,,,,,,,936.0369,953.1561,-0.096354167,-0.088541667,1,0,0,11.118,compass,0,27,27,27,1,SoundStimuli/EyeOfTheTiger_Survivor_Cover5S.wav,,,,,,,,,,,,,,,,,,,,,,,,,,,,,,,,,,,,,,,,,,,,,,,,,,,,
,,,,,039938,001,2024-07-12_18h37.41.995,experiment,2024.1.5,Win32,60.06006006,6648bb202df5a337b816e22a,6691931c2c63981b064e1f0c,6691b017573e8f0890449c6a,,,,,,,,,,,,,,,,,,,,,,,,,,,,,,,,,,,,,,,,,,,,,,,,,,,,,,,,,,,,953.1661,962.6856,-0.076822917,-0.0859375,1,0,0,3.5187,compass,0,28,28,4,1,SoundStimuli/Dreams_FleetwoodMac_Original5S.wav,,,,,,,,,,,,,,,,,,,,,,,,,,,,,,,,,,,,,,,,,,,,,,,,,,,,
,,,,,039938,001,2024-07-12_18h37.41.995,experiment,2024.1.5,Win32,60.06006006,6648bb202df5a337b816e22a,6691931c2c63981b064e1f0c,6691b017573e8f0890449c6a,,,,,,,,,,,,,,,,,,,,,,,,,,,,,,,,,,,,,,,,,,,,,,,,,,,,,,,,,,,,962.6946,971.138,-0.1796875,0.111979167,1,0,0,2.4268,compass,0,29,29,5,1,SoundStimuli/JoyToTheWorld_ThreeDogNight_Original5S.wav,,,,,,,,,,,,,,,,,,,,,,,,,,,,,,,,,,,,,,,,,,,,,,,,,,,,
,,,,,039938,001,2024-07-12_18h37.41.995,experiment,2024.1.5,Win32,60.06006006,6648bb202df5a337b816e22a,6691931c2c63981b064e1f0c,6691b017573e8f0890449c6a,,,,,,,,,,,,,,,,,,,,,,,,,,,,,,,,,,,,,,,,,,,,,,,,,,,,,,,,,,,,971.1477,979.9791,0.140625,-0.2109375,1,0,0,2.8267,compass,0,30,30,18,1,SoundStimuli/Weak_SWV_Cover5S.wav,,,,,,,,,,,,,,,,,,,,,,,,,,,,,,,,,,,,,,,,,,,,,,,,,,,,
,,,,,039938,001,2024-07-12_18h37.41.995,experiment,2024.1.5,Win32,60.06006006,6648bb202df5a337b816e22a,6691931c2c63981b064e1f0c,6691b017573e8f0890449c6a,,,,,,,,,,,,,,,,,,,,,,,,,,,,,,,,,,,,,,,,,,,,,,,,,,,,,,,,,,,,979.9886,988.3587,0.127604167,-0.223958333,1,0,0,2.3647,compass,0,31,31,19,1,SoundStimuli/YouLightUpMyLife_DebbyBoone_Original5S.wav,,,,,,,,,,,,,,,,,,,,,,,,,,,,,,,,,,,,,,,,,,,,,,,,,,,,
,,,,,039938,001,2024-07-12_18h37.41.995,experiment,2024.1.5,Win32,60.06006006,6648bb202df5a337b816e22a,6691931c2c63981b064e1f0c,6691b017573e8f0890449c6a,,,,,,,,,,,,,,,,,,,,,,,,,,,,,,,,,,,,,,,,,,,,,,,,,,,,,,,,,,,,988.368,995.2303,0.14453125,0.165364583,1,0,0,0.8445,compass,0,32,32,10,1,SoundStimuli/LeFreak_Chic_Cover5S.wav,,,,,,,,,,,,,,,,,,,,,,,,,,,,,,,,,,,,,,,,,,,,,,,,,,,,
,,,,,039938,001,2024-07-12_18h37.41.995,experiment,2024.1.5,Win32,60.06006006,6648bb202df5a337b816e22a,6691931c2c63981b064e1f0c,6691b017573e8f0890449c6a,,,,,,,,,,,,,,,,,,,,,,,,,,,,,,,,,,,,,,,,,,,,,,,,,,,,,,,,,,,,995.239,1001.5623,0.17578125,-0.221354167,1,0,0,0.317,compass,0,33,33,23,1,SoundStimuli/IWalkTheLine_JohnnyCash_Original5S.wav,,,,,,,,,,,,,,,,,,,,,,,,,,,,,,,,,,,,,,,,,,,,,,,,,,,,
,,,,,039938,001,2024-07-12_18h37.41.995,experiment,2024.1.5,Win32,60.06006006,6648bb202df5a337b816e22a,6691931c2c63981b064e1f0c,6691b017573e8f0890449c6a,,,,,,,,,,,,,,,,,,,,,,,,,,,,,,,,,,,,,,,,,,,,,,,,,,,,,,,,,,,,1001.5708,1008.039,0.3046875,0.294270833,1,0,0,0.467,compass,0,34,34,3,1,SoundStimuli/PartyRockAnthem_LMFAO_Original5S.wav,,,,,,,,,,,,,,,,,,,,,,,,,,,,,,,,,,,,,,,,,,,,,,,,,,,,
,,,,,039938,001,2024-07-12_18h37.41.995,experiment,2024.1.5,Win32,60.06006006,6648bb202df5a337b816e22a,6691931c2c63981b064e1f0c,6691b017573e8f0890449c6a,,,,,,,,,,,,,,,,,,,,,,,,,,,,,,,,,,,,,,,,,,,,,,,,,,,,,,,,,,,,,,,,,,,,,,,,,,,1008.0392,1014.7775,space,6.722,,1014.7776,1024.4012,right,9.59,,0,1,1,1,1,block_order/blockD.xlsx,,,,,,,,,,,,,,,,,,,,,,,,,,,,,,,,,,,,
,,,,,039938,001,2024-07-12_18h37.41.995,experiment,2024.1.5,Win32,60.06006006,6648bb202df5a337b816e22a,6691931c2c63981b064e1f0c,6691b017573e8f0890449c6a,,,,,,,,,,,,,,,,,,,,,,,,,,,,,,,,,,,,,,,,,,,,,,,,,,,,,,,,,,,,1024.4162,1030.6665,0.28515625,0.302083333,1,0,0,0.2333,compass,0,0,0,15,1,SoundStimuli/TikTok_Kesha_Original5S.wav,,,,,,,,,,,,,,,,,,,,,,,,,,,,,,,,,,,,,,,,,,,,,,,,,,,,
,,,,,039938,001,2024-07-12_18h37.41.995,experiment,2024.1.5,Win32,60.06006006,6648bb202df5a337b816e22a,6691931c2c63981b064e1f0c,6691b017573e8f0890449c6a,,,,,,,,,,,,,,,,,,,,,,,,,,,,,,,,,,,,,,,,,,,,,,,,,,,,,,,,,,,,1030.6752,1037.9428,-0.122395833,-0.115885417,1,0,0,1.2495,compass,0,1,1,2,1,SoundStimuli/Mood_24kGoldnianndior_Original5S.wav,,,,,,,,,,,,,,,,,,,,,,,,,,,,,,,,,,,,,,,,,,,,,,,,,,,,
,,,,,039938,001,2024-07-12_18h37.41.995,experiment,2024.1.5,Win32,60.06006006,6648bb202df5a337b816e22a,6691931c2c63981b064e1f0c,6691b017573e8f0890449c6a,,,,,,,,,,,,,,,,,,,,,,,,,,,,,,,,,,,,,,,,,,,,,,,,,,,,,,,,,,,,1037.9517,1044.5358,0.298177083,0.296875,1,0,0,0.5664,compass,0,2,2,24,1,SoundStimuli/UptownFunk_MarkRonson_Cover5S.wav,,,,,,,,,,,,,,,,,,,,,,,,,,,,,,,,,,,,,,,,,,,,,,,,,,,,
,,,,,039938,001,2024-07-12_18h37.41.995,experiment,2024.1.5,Win32,60.06006006,6648bb202df5a337b816e22a,6691931c2c63981b064e1f0c,6691b017573e8f0890449c6a,,,,,,,,,,,,,,,,,,,,,,,,,,,,,,,,,,,,,,,,,,,,,,,,,,,,,,,,,,,,1044.5444,1052.012,0.217447917,-0.17578125,1,0,0,1.4494,compass,0,3,3,22,1,SoundStimuli/RockWithYou_MichaelJackson_Cover5S.wav,,,,,,,,,,,,,,,,,,,,,,,,,,,,,,,,,,,,,,,,,,,,,,,,,,,,
,,,,,039938,001,2024-07-12_18h37.41.995,experiment,2024.1.5,Win32,60.06006006,6648bb202df5a337b816e22a,6691931c2c63981b064e1f0c,6691b017573e8f0890449c6a,,,,,,,,,,,,,,,,,,,,,,,,,,,,,,,,,,,,,,,,,,,,,,,,,,,,,,,,,,,,1052.021,1061.4981,0.076822917,-0.08984375,1,0,0,3.4593,compass,0,4,4,32,1,SoundStimuli/HeatWaves_GlassAnimals_Cover5S.wav,,,,,,,,,,,,,,,,,,,,,,,,,,,,,,,,,,,,,,,,,,,,,,,,,,,,
,,,,,039938,001,2024-07-12_18h37.41.995,experiment,2024.1.5,Win32,60.06006006,6648bb202df5a337b816e22a,6691931c2c63981b064e1f0c,6691b017573e8f0890449c6a,,,,,,,,,,,,,,,,,,,,,,,,,,,,,,,,,,,,,,,,,,,,,,,,,,,,,,,,,,,,1061.507,1068.1624,-0.204427083,0.21875,1,0,0,0.65,compass,0,5,5,25,1,SoundStimuli/Respect_ArethaFranklin_Cover5S.wav,,,,,,,,,,,,,,,,,,,,,,,,,,,,,,,,,,,,,,,,,,,,,,,,,,,,
,,,,,039938,001,2024-07-12_18h37.41.995,experiment,2024.1.5,Win32,60.06006006,6648bb202df5a337b816e22a,6691931c2c63981b064e1f0c,6691b017573e8f0890449c6a,,,,,,,,,,,,,,,,,,,,,,,,,,,,,,,,,,,,,,,,,,,,,,,,,,,,,,,,,,,,1068.1711,1078.4025,0.192708333,0.225260417,1,0,0,4.2294,compass,0,6,6,26,1,SoundStimuli/LivinOnAPrayer_BonJovi_Original5S.wav,,,,,,,,,,,,,,,,,,,,,,,,,,,,,,,,,,,,,,,,,,,,,,,,,,,,
,,,,,039938,001,2024-07-12_18h37.41.995,experiment,2024.1.5,Win32,60.06006006,6648bb202df5a337b816e22a,6691931c2c63981b064e1f0c,6691b017573e8f0890449c6a,,,,,,,,,,,,,,,,,,,,,,,,,,,,,,,,,,,,,,,,,,,,,,,,,,,,,,,,,,,,1078.4114,1087.5053,-0.134114583,-0.143229167,1,0,0,3.0925,compass,0,7,7,1,1,SoundStimuli/Stronger_KanyeWest_Cover5S.wav,,,,,,,,,,,,,,,,,,,,,,,,,,,,,,,,,,,,,,,,,,,,,,,,,,,,
,,,,,039938,001,2024-07-12_18h37.41.995,experiment,2024.1.5,Win32,60.06006006,6648bb202df5a337b816e22a,6691931c2c63981b064e1f0c,6691b017573e8f0890449c6a,,,,,,,,,,,,,,,,,,,,,,,,,,,,,,,,,,,,,,,,,,,,,,,,,,,,,,,,,,,,1087.5148,1099.6814,-0.265625,0.213541667,1,0,0,6.161,compass,0,8,8,30,1,SoundStimuli/PokerFace_LadyGaga_Cover5S.wav,,,,,,,,,,,,,,,,,,,,,,,,,,,,,,,,,,,,,,,,,,,,,,,,,,,,
,,,,,039938,001,2024-07-12_18h37.41.995,experiment,2024.1.5,Win32,60.06006006,6648bb202df5a337b816e22a,6691931c2c63981b064e1f0c,6691b017573e8f0890449c6a,,,,,,,,,,,,,,,,,,,,,,,,,,,,,,,,,,,,,,,,,,,,,,,,,,,,,,,,,,,,1099.6903,1111.5529,-0.115885417,-0.20703125,1,0,0,5.8451,compass,0,9,9,33,1,SoundStimuli/StandByMe_BenEKing_Original5S.wav,,,,,,,,,,,,,,,,,,,,,,,,,,,,,,,,,,,,,,,,,,,,,,,,,,,,
,,,,,039938,001,2024-07-12_18h37.41.995,experiment,2024.1.5,Win32,60.06006006,6648bb202df5a337b816e22a,6691931c2c63981b064e1f0c,6691b017573e8f0890449c6a,,,,,,,,,,,,,,,,,,,,,,,,,,,,,,,,,,,,,,,,,,,,,,,,,,,,,,,,,,,,1111.5617,1122.254,0.115885417,-0.184895833,1,0,0,4.6743,compass,0,10,10,27,1,SoundStimuli/ShapeofYou_EdSheeran_Cover5S.wav,,,,,,,,,,,,,,,,,,,,,,,,,,,,,,,,,,,,,,,,,,,,,,,,,,,,
,,,,,039938,001,2024-07-12_18h37.41.995,experiment,2024.1.5,Win32,60.06006006,6648bb202df5a337b816e22a,6691931c2c63981b064e1f0c,6691b017573e8f0890449c6a,,,,,,,,,,,,,,,,,,,,,,,,,,,,,,,,,,,,,,,,,,,,,,,,,,,,,,,,,,,,1122.2635,1129.1687,-0.125,-0.143229167,1,0,0,0.9,compass,0,11,11,13,1,SoundStimuli/GodOnlyKnows_TheBeachBoys_Original5S.wav,,,,,,,,,,,,,,,,,,,,,,,,,,,,,,,,,,,,,,,,,,,,,,,,,,,,
,,,,,039938,001,2024-07-12_18h37.41.995,experiment,2024.1.5,Win32,60.06006006,6648bb202df5a337b816e22a,6691931c2c63981b064e1f0c,6691b017573e8f0890449c6a,,,,,,,,,,,,,,,,,,,,,,,,,,,,,,,,,,,,,,,,,,,,,,,,,,,,,,,,,,,,1129.1772,1138.9708,-0.07421875,-0.096354167,1,0,0,3.7755,compass,0,12,12,12,1,SoundStimuli/IWillAlwaysLoveYou_WhitneyHouston_Original5S.wav,,,,,,,,,,,,,,,,,,,,,,,,,,,,,,,,,,,,,,,,,,,,,,,,,,,,
,,,,,039938,001,2024-07-12_18h37.41.995,experiment,2024.1.5,Win32,60.06006006,6648bb202df5a337b816e22a,6691931c2c63981b064e1f0c,6691b017573e8f0890449c6a,,,,,,,,,,,,,,,,,,,,,,,,,,,,,,,,,,,,,,,,,,,,,,,,,,,,,,,,,,,,1138.9807,1147.5793,0.041666667,0.084635417,1,0,0,2.598,compass,0,13,13,8,1,SoundStimuli/LikeAPrayer_Madonna_Cover5S.wav,,,,,,,,,,,,,,,,,,,,,,,,,,,,,,,,,,,,,,,,,,,,,,,,,,,,
,,,,,039938,001,2024-07-12_18h37.41.995,experiment,2024.1.5,Win32,60.06006006,6648bb202df5a337b816e22a,6691931c2c63981b064e1f0c,6691b017573e8f0890449c6a,,,,,,,,,,,,,,,,,,,,,,,,,,,,,,,,,,,,,,,,,,,,,,,,,,,,,,,,,,,,1147.5888,1154.5223,-0.166666667,-0.18359375,1,0,0,0.9282,compass,0,14,14,3,1,SoundStimuli/NoScrubs_TLC_Cover5S.wav,,,,,,,,,,,,,,,,,,,,,,,,,,,,,,,,,,,,,,,,,,,,,,,,,,,,
,,,,,039938,001,2024-07-12_18h37.41.995,experiment,2024.1.5,Win32,60.06006006,6648bb202df5a337b816e22a,6691931c2c63981b064e1f0c,6691b017573e8f0890449c6a,,,,,,,,,,,,,,,,,,,,,,,,,,,,,,,,,,,,,,,,,,,,,,,,,,,,,,,,,,,,1154.5309,1162.2522,-0.166666667,-0.12890625,1,0,0,1.7156,compass,0,15,15,16,1,SoundStimuli/BohemianRhapsody_Queen_Cover5S.wav,,,,,,,,,,,,,,,,,,,,,,,,,,,,,,,,,,,,,,,,,,,,,,,,,,,,
,,,,,039938,001,2024-07-12_18h37.41.995,experiment,2024.1.5,Win32,60.06006006,6648bb202df5a337b816e22a,6691931c2c63981b064e1f0c,6691b017573e8f0890449c6a,,,,,,,,,,,,,,,,,,,,,,,,,,,,,,,,,,,,,,,,,,,,,,,,,,,,,,,,,,,,1162.2611,1170.639,-0.135416667,-0.130208333,1,0,0,2.3597,compass,0,16,16,7,1,SoundStimuli/NoOne_AliciaKeys_Original5S.wav,,,,,,,,,,,,,,,,,,,,,,,,,,,,,,,,,,,,,,,,,,,,,,,,,,,,
,,,,,039938,001,2024-07-12_18h37.41.995,experiment,2024.1.5,Win32,60.06006006,6648bb202df5a337b816e22a,6691931c2c63981b064e1f0c,6691b017573e8f0890449c6a,,,,,,,,,,,,,,,,,,,,,,,,,,,,,,,,,,,,,,,,,,,,,,,,,,,,,,,,,,,,1170.649,1177.9032,-0.149739583,-0.134114583,1,0,0,1.2483,compass,0,17,17,9,1,SoundStimuli/Despacito_LuisFonsiDaddyYankee_Original5S.wav,,,,,,,,,,,,,,,,,,,,,,,,,,,,,,,,,,,,,,,,,,,,,,,,,,,,
,,,,,039938,001,2024-07-12_18h37.41.995,experiment,2024.1.5,Win32,60.06006006,6648bb202df5a337b816e22a,6691931c2c63981b064e1f0c,6691b017573e8f0890449c6a,,,,,,,,,,,,,,,,,,,,,,,,,,,,,,,,,,,,,,,,,,,,,,,,,,,,,,,,,,,,1177.9121,1186.3903,0.09375,-0.106770833,1,0,0,2.4597,compass,0,18,18,17,1,SoundStimuli/Fallin_AliciaKeys_Cover5S.wav,,,,,,,,,,,,,,,,,,,,,,,,,,,,,,,,,,,,,,,,,,,,,,,,,,,,
,,,,,039938,001,2024-07-12_18h37.41.995,experiment,2024.1.5,Win32,60.06006006,6648bb202df5a337b816e22a,6691931c2c63981b064e1f0c,6691b017573e8f0890449c6a,,,,,,,,,,,,,,,,,,,,,,,,,,,,,,,,,,,,,,,,,,,,,,,,,,,,,,,,,,,,1186.3997,1194.0498,0.07421875,0.063802083,1,0,0,1.6466,compass,0,19,19,4,1,SoundStimuli/GetUrFreakOn_MissyElliot_Cover5S.wav,,,,,,,,,,,,,,,,,,,,,,,,,,,,,,,,,,,,,,,,,,,,,,,,,,,,
,,,,,039938,001,2024-07-12_18h37.41.995,experiment,2024.1.5,Win32,60.06006006,6648bb202df5a337b816e22a,6691931c2c63981b064e1f0c,6691b017573e8f0890449c6a,,,,,,,,,,,,,,,,,,,,,,,,,,,,,,,,,,,,,,,,,,,,,,,,,,,,,,,,,,,,1194.0592,1204.1607,0.061197917,0.053385417,1,0,0,4.1007,compass,0,20,20,6,1,SoundStimuli/Levitating_DuaLipa_Original5S.wav,,,,,,,,,,,,,,,,,,,,,,,,,,,,,,,,,,,,,,,,,,,,,,,,,,,,
,,,,,039938,001,2024-07-12_18h37.41.995,experiment,2024.1.5,Win32,60.06006006,6648bb202df5a337b816e22a,6691931c2c63981b064e1f0c,6691b017573e8f0890449c6a,,,,,,,,,,,,,,,,,,,,,,,,,,,,,,,,,,,,,,,,,,,,,,,,,,,,,,,,,,,,1204.1696,1216.3935,-0.109375,0.05859375,1,0,0,6.2227,compass,0,21,21,11,1,SoundStimuli/Superstition_StevieWonder_Original5S.wav,,,,,,,,,,,,,,,,,,,,,,,,,,,,,,,,,,,,,,,,,,,,,,,,,,,,
,,,,,039938,001,2024-07-12_18h37.41.995,experiment,2024.1.5,Win32,60.06006006,6648bb202df5a337b816e22a,6691931c2c63981b064e1f0c,6691b017573e8f0890449c6a,,,,,,,,,,,,,,,,,,,,,,,,,,,,,,,,,,,,,,,,,,,,,,,,,,,,,,,,,,,,1216.4026,1230.9005,-0.102864583,-0.071614583,1,0,0,8.4942,compass,0,22,22,5,1,SoundStimuli/MyGirl_TheTemptations_Cover5S.wav,,,,,,,,,,,,,,,,,,,,,,,,,,,,,,,,,,,,,,,,,,,,,,,,,,,,
,,,,,039938,001,2024-07-12_18h37.41.995,experiment,2024.1.5,Win32,60.06006006,6648bb202df5a337b816e22a,6691931c2c63981b064e1f0c,6691b017573e8f0890449c6a,,,,,,,,,,,,,,,,,,,,,,,,,,,,,,,,,,,,,,,,,,,,,,,,,,,,,,,,,,,,1230.9094,1237.3282,-0.166666667,0.118489583,1,0,0,0.4003,compass,0,23,23,23,1,SoundStimuli/StrawberryFieldsForever_TheBeatles_Cover5S.wav,,,,,,,,,,,,,,,,,,,,,,,,,,,,,,,,,,,,,,,,,,,,,,,,,,,,
,,,,,039938,001,2024-07-12_18h37.41.995,experiment,2024.1.5,Win32,60.06006006,6648bb202df5a337b816e22a,6691931c2c63981b064e1f0c,6691b017573e8f0890449c6a,,,,,,,,,,,,,,,,,,,,,,,,,,,,,,,,,,,,,,,,,,,,,,,,,,,,,,,,,,,,1237.3358,1245.6311,-0.134114583,0.13671875,1,0,0,2.2932,compass,0,24,24,34,1,SoundStimuli/AChangeIsGonnaCome_SamCooke_Original5S.wav,,,,,,,,,,,,,,,,,,,,,,,,,,,,,,,,,,,,,,,,,,,,,,,,,,,,
,,,,,039938,001,2024-07-12_18h37.41.995,experiment,2024.1.5,Win32,60.06006006,6648bb202df5a337b816e22a,6691931c2c63981b064e1f0c,6691b017573e8f0890449c6a,,,,,,,,,,,,,,,,,,,,,,,,,,,,,,,,,,,,,,,,,,,,,,,,,,,,,,,,,,,,1245.6402,1261.7038,-0.138020833,-0.15625,1,0,0,10.0572,compass,0,25,25,29,1,SoundStimuli/OldTownRoad_LilNasX_Cover5S.wav,,,,,,,,,,,,,,,,,,,,,,,,,,,,,,,,,,,,,,,,,,,,,,,,,,,,
,,,,,039938,001,2024-07-12_18h37.41.995,experiment,2024.1.5,Win32,60.06006006,6648bb202df5a337b816e22a,6691931c2c63981b064e1f0c,6691b017573e8f0890449c6a,,,,,,,,,,,,,,,,,,,,,,,,,,,,,,,,,,,,,,,,,,,,,,,,,,,,,,,,,,,,1261.7128,1280.2651,-0.0703125,0.0625,1,0,0,12.551,compass,0,26,26,14,1,SoundStimuli/BlindingLights_TheWeeknd_Cover5S.wav,,,,,,,,,,,,,,,,,,,,,,,,,,,,,,,,,,,,,,,,,,,,,,,,,,,,
,,,,,039938,001,2024-07-12_18h37.41.995,experiment,2024.1.5,Win32,60.06006006,6648bb202df5a337b816e22a,6691931c2c63981b064e1f0c,6691b017573e8f0890449c6a,,,,,,,,,,,,,,,,,,,,,,,,,,,,,,,,,,,,,,,,,,,,,,,,,,,,,,,,,,,,1280.2741,1288.8387,0.037760417,-0.0390625,1,0,0,2.5439,compass,0,27,27,19,1,SoundStimuli/LetsGetItOn_MarvinGaye_Original5S.wav,,,,,,,,,,,,,,,,,,,,,,,,,,,,,,,,,,,,,,,,,,,,,,,,,,,,
,,,,,039938,001,2024-07-12_18h37.41.995,experiment,2024.1.5,Win32,60.06006006,6648bb202df5a337b816e22a,6691931c2c63981b064e1f0c,6691b017573e8f0890449c6a,,,,,,,,,,,,,,,,,,,,,,,,,,,,,,,,,,,,,,,,,,,,,,,,,,,,,,,,,,,,1288.8482,1295.6359,0.23046875,0.204427083,1,0,0,0.7827,compass,0,28,28,20,1,SoundStimuli/HeyYa_Outkast_Original5S.wav,,,,,,,,,,,,,,,,,,,,,,,,,,,,,,,,,,,,,,,,,,,,,,,,,,,,
,,,,,039938,001,2024-07-12_18h37.41.995,experiment,2024.1.5,Win32,60.06006006,6648bb202df5a337b816e22a,6691931c2c63981b064e1f0c,6691b017573e8f0890449c6a,,,,,,,,,,,,,,,,,,,,,,,,,,,,,,,,,,,,,,,,,,,,,,,,,,,,,,,,,,,,1295.6446,1305.3433,0.05078125,0.061197917,1,0,0,3.6803,compass,0,29,29,28,1,SoundStimuli/ComeAndGetYourLove_Redbone_Cover5S.wav,,,,,,,,,,,,,,,,,,,,,,,,,,,,,,,,,,,,,,,,,,,,,,,,,,,,
,,,,,039938,001,2024-07-12_18h37.41.995,experiment,2024.1.5,Win32,60.06006006,6648bb202df5a337b816e22a,6691931c2c63981b064e1f0c,6691b017573e8f0890449c6a,,,,,,,,,,,,,,,,,,,,,,,,,,,,,,,,,,,,,,,,,,,,,,,,,,,,,,,,,,,,1305.3521,1316.7485,-0.061197917,0.076822917,1,0,0,5.3787,compass,0,30,30,0,1,SoundStimuli/StayinAlive_BeeGees_Cover5S.wav,,,,,,,,,,,,,,,,,,,,,,,,,,,,,,,,,,,,,,,,,,,,,,,,,,,,
,,,,,039938,001,2024-07-12_18h37.41.995,experiment,2024.1.5,Win32,60.06006006,6648bb202df5a337b816e22a,6691931c2c63981b064e1f0c,6691b017573e8f0890449c6a,,,,,,,,,,,,,,,,,,,,,,,,,,,,,,,,,,,,,,,,,,,,,,,,,,,,,,,,,,,,1316.7579,1326.1845,0.08203125,0.0703125,1,0,0,3.4253,compass,0,31,31,21,1,SoundStimuli/GoodGollyMissMolly_LittleRichard_Original5S.wav,,,,,,,,,,,,,,,,,,,,,,,,,,,,,,,,,,,,,,,,,,,,,,,,,,,,
,,,,,039938,001,2024-07-12_18h37.41.995,experiment,2024.1.5,Win32,60.06006006,6648bb202df5a337b816e22a,6691931c2c63981b064e1f0c,6691b017573e8f0890449c6a,,,,,,,,,,,,,,,,,,,,,,,,,,,,,,,,,,,,,,,,,,,,,,,,,,,,,,,,,,,,1326.1942,1332.6776,-0.048177083,-0.03515625,1,0,0,0.4823,compass,0,32,32,18,1,SoundStimuli/AnotherOneBitesTheDust_Queen_Cover5S.wav,,,,,,,,,,,,,,,,,,,,,,,,,,,,,,,,,,,,,,,,,,,,,,,,,,,,
,,,,,039938,001,2024-07-12_18h37.41.995,experiment,2024.1.5,Win32,60.06006006,6648bb202df5a337b816e22a,6691931c2c63981b064e1f0c,6691b017573e8f0890449c6a,,,,,,,,,,,,,,,,,,,,,,,,,,,,,,,,,,,,,,,,,,,,,,,,,,,,,,,,,,,,1332.6864,1339.7873,-0.21875,-0.217447917,1,0,0,1.0949,compass,0,33,33,10,1,SoundStimuli/BadDay_DanielPowter_Original5S.wav,,,,,,,,,,,,,,,,,,,,,,,,,,,,,,,,,,,,,,,,,,,,,,,,,,,,
,,,,,039938,001,2024-07-12_18h37.41.995,experiment,2024.1.5,Win32,60.06006006,6648bb202df5a337b816e22a,6691931c2c63981b064e1f0c,6691b017573e8f0890449c6a,,,,,,,,,,,,,,,,,,,,,,,,,,,,,,,,,,,,,,,,,,,,,,,,,,,,,,,,,,,,1339.7965,1349.4611,0.102864583,-0.190104167,1,0,0,3.6579,compass,0,34,34,31,1,SoundStimuli/TheBattleOfNewOrleans_JohnnyHorton_Original5S.wav,,,,,,,,,,,,,,,,,,,,,,,,,,,,,,,,,,,,,,,,,,,,,,,,,,,,
,,,,,039938,001,2024-07-12_18h37.41.995,experiment,2024.1.5,Win32,60.06006006,6648bb202df5a337b816e22a,6691931c2c63981b064e1f0c,6691b017573e8f0890449c6a,,,,,,,,,,,,,,,,,,,,,,,,,,,,,,,,,,,,,,,,,,,,,,,,,,,,,,,,,,,,,,,,,,,,,,,,,,,1349.4615,1380.8961,space,31.4142,,1380.8962,1390.8241,right,9.9069,,0,2,2,2,1,block_order/blockC.xlsx,,,,,,,,,,,,,,,,,,,,,,,,,,,,,,,,,,,,
,,,,,039938,001,2024-07-12_18h37.41.995,experiment,2024.1.5,Win32,60.06006006,6648bb202df5a337b816e22a,6691931c2c63981b064e1f0c,6691b017573e8f0890449c6a,,,,,,,,,,,,,,,,,,,,,,,,,,,,,,,,,,,,,,,,,,,,,,,,,,,,,,,,,,,,1390.8389,1400.0417,0.134114583,0.139322917,1,0,0,3.1901,compass,0,0,0,13,1,SoundStimuli/Perfect_EdSheeran_Original5S.wav,,,,,,,,,,,,,,,,,,,,,,,,,,,,,,,,,,,,,,,,,,,,,,,,,,,,
,,,,,039938,001,2024-07-12_18h37.41.995,experiment,2024.1.5,Win32,60.06006006,6648bb202df5a337b816e22a,6691931c2c63981b064e1f0c,6691b017573e8f0890449c6a,,,,,,,,,,,,,,,,,,,,,,,,,,,,,,,,,,,,,,,,,,,,,,,,,,,,,,,,,,,,1400.0421,1409.3188,0.127604167,-0.115885417,1,0,0,3.2599,compass,0,1,1,8,1,SoundStimuli/EndlessLove_DianaRossLionelRichie_Original5S.wav,,,,,,,,,,,,,,,,,,,,,,,,,,,,,,,,,,,,,,,,,,,,,,,,,,,,
,,,,,039938,001,2024-07-12_18h37.41.995,experiment,2024.1.5,Win32,60.06006006,6648bb202df5a337b816e22a,6691931c2c63981b064e1f0c,6691b017573e8f0890449c6a,,,,,,,,,,,,,,,,,,,,,,,,,,,,,,,,,,,,,,,,,,,,,,,,,,,,,,,,,,,,1409.3279,1415.8164,0.171875,-0.200520833,1,0,0,0.4873,compass,0,2,2,25,1,SoundStimuli/IllMakeLoveToYou_BoyzIIMen_Original5S.wav,,,,,,,,,,,,,,,,,,,,,,,,,,,,,,,,,,,,,,,,,,,,,,,,,,,,
,,,,,039938,001,2024-07-12_18h37.41.995,experiment,2024.1.5,Win32,60.06006006,6648bb202df5a337b816e22a,6691931c2c63981b064e1f0c,6691b017573e8f0890449c6a,,,,,,,,,,,,,,,,,,,,,,,,,,,,,,,,,,,,,,,,,,,,,,,,,,,,,,,,,,,,1415.8248,1426.9841,0.05078125,-0.0546875,1,0,0,5.1405,compass,0,3,3,7,1,SoundStimuli/MackTheKnife_BobbyDarin_Original5S.wav,,,,,,,,,,,,,,,,,,,,,,,,,,,,,,,,,,,,,,,,,,,,,,,,,,,,
,,,,,039938,001,2024-07-12_18h37.41.995,experiment,2024.1.5,Win32,60.06006006,6648bb202df5a337b816e22a,6691931c2c63981b064e1f0c,6691b017573e8f0890449c6a,,,,,,,,,,,,,,,,,,,,,,,,,,,,,,,,,,,,,,,,,,,,,,,,,,,,,,,,,,,,1426.9941,1434.2941,0.041666667,0.037760417,1,0,0,1.2993,compass,0,4,4,22,1,SoundStimuli/Happy_PharellWilliams_Cover5S.wav,,,,,,,,,,,,,,,,,,,,,,,,,,,,,,,,,,,,,,,,,,,,,,,,,,,,
,,,,,039938,001,2024-07-12_18h37.41.995,experiment,2024.1.5,Win32,60.06006006,6648bb202df5a337b816e22a,6691931c2c63981b064e1f0c,6691b017573e8f0890449c6a,,,,,,,,,,,,,,,,,,,,,,,,,,,,,,,,,,,,,,,,,,,,,,,,,,,,,,,,,,,,1434.3028,1443.6176,0.069010417,0.059895833,1,0,0,3.3094,compass,0,5,5,4,1,SoundStimuli/Dreams_FleetwoodMac_Cover5S.wav,,,,,,,,,,,,,,,,,,,,,,,,,,,,,,,,,,,,,,,,,,,,,,,,,,,,
,,,,,039938,001,2024-07-12_18h37.41.995,experiment,2024.1.5,Win32,60.06006006,6648bb202df5a337b816e22a,6691931c2c63981b064e1f0c,6691b017573e8f0890449c6a,,,,,,,,,,,,,,,,,,,,,,,,,,,,,,,,,,,,,,,,,,,,,,,,,,,,,,,,,,,,1443.6268,1450.8936,-0.07421875,0.052083333,1,0,0,1.2613,compass,0,6,6,12,1,SoundStimuli/UnbreakMyHeart_ToniBraxton_Cover5S.wav,,,,,,,,,,,,,,,,,,,,,,,,,,,,,,,,,,,,,,,,,,,,,,,,,,,,
,,,,,039938,001,2024-07-12_18h37.41.995,experiment,2024.1.5,Win32,60.06006006,6648bb202df5a337b816e22a,6691931c2c63981b064e1f0c,6691b017573e8f0890449c6a,,,,,,,,,,,,,,,,,,,,,,,,,,,,,,,,,,,,,,,,,,,,,,,,,,,,,,,,,,,,1450.9023,1458.3741,0.067708333,-0.0859375,1,0,0,1.47,compass,0,7,7,18,1,SoundStimuli/Weak_SWV_Original5S.wav,,,,,,,,,,,,,,,,,,,,,,,,,,,,,,,,,,,,,,,,,,,,,,,,,,,,
,,,,,039938,001,2024-07-12_18h37.41.995,experiment,2024.1.5,Win32,60.06006006,6648bb202df5a337b816e22a,6691931c2c63981b064e1f0c,6691b017573e8f0890449c6a,,,,,,,,,,,,,,,,,,,,,,,,,,,,,,,,,,,,,,,,,,,,,,,,,,,,,,,,,,,,1458.3835,1466.4473,-0.078125,-0.111979167,1,0,0,2.0465,compass,0,8,8,23,1,SoundStimuli/IWalkTheLine_JohnnyCash_Cover5S.wav,,,,,,,,,,,,,,,,,,,,,,,,,,,,,,,,,,,,,,,,,,,,,,,,,,,,
,,,,,039938,001,2024-07-12_18h37.41.995,experiment,2024.1.5,Win32,60.06006006,6648bb202df5a337b816e22a,6691931c2c63981b064e1f0c,6691b017573e8f0890449c6a,,,,,,,,,,,,,,,,,,,,,,,,,,,,,,,,,,,,,,,,,,,,,,,,,,,,,,,,,,,,1466.4563,1473.7207,-0.201822917,0.166666667,1,0,0,1.2445,compass,0,9,9,5,1,SoundStimuli/JoyToTheWorld_ThreeDogNight_Cover5S.wav,,,,,,,,,,,,,,,,,,,,,,,,,,,,,,,,,,,,,,,,,,,,,,,,,,,,
,,,,,039938,001,2024-07-12_18h37.41.995,experiment,2024.1.5,Win32,60.06006006,6648bb202df5a337b816e22a,6691931c2c63981b064e1f0c,6691b017573e8f0890449c6a,,,,,,,,,,,,,,,,,,,,,,,,,,,,,,,,,,,,,,,,,,,,,,,,,,,,,,,,,,,,1473.7294,1482.6294,-0.165364583,0.147135417,1,0,0,2.8937,compass,0,10,10,15,1,SoundStimuli/CrazyInLove_BeyonceFtJayZ_Original5S.wav,,,,,,,,,,,,,,,,,,,,,,,,,,,,,,,,,,,,,,,,,,,,,,,,,,,,
,,,,,039938,001,2024-07-12_18h37.41.995,experiment,2024.1.5,Win32,60.06006006,6648bb202df5a337b816e22a,6691931c2c63981b064e1f0c,6691b017573e8f0890449c6a,,,,,,,,,,,,,,,,,,,,,,,,,,,,,,,,,,,,,,,,,,,,,,,,,,,,,,,,,,,,1482.6393,1490.5425,-0.13671875,-0.162760417,1,0,0,1.882,compass,0,11,11,20,1,SoundStimuli/FlashdanceWhatAFeeling_IreneCara_Cover5S.wav,,,,,,,,,,,,,,,,,,,,,,,,,,,,,,,,,,,,,,,,,,,,,,,,,,,,
,,,,,039938,001,2024-07-12_18h37.41.995,experiment,2024.1.5,Win32,60.06006006,6648bb202df5a337b816e22a,6691931c2c63981b064e1f0c,6691b017573e8f0890449c6a,,,,,,,,,,,,,,,,,,,,,,,,,,,,,,,,,,,,,,,,,,,,,,,,,,,,,,,,,,,,1490.5512,1498.3796,0.100260417,-0.138020833,1,0,0,1.8268,compass,0,12,12,28,1,SoundStimuli/IWantToHoldYourHand_TheBeatles_Cover5S.wav,,,,,,,,,,,,,,,,,,,,,,,,,,,,,,,,,,,,,,,,,,,,,,,,,,,,
,,,,,039938,001,2024-07-12_18h37.41.995,experiment,2024.1.5,Win32,60.06006006,6648bb202df5a337b816e22a,6691931c2c63981b064e1f0c,6691b017573e8f0890449c6a,,,,,,,,,,,,,,,,,,,,,,,,,,,,,,,,,,,,,,,,,,,,,,,,,,,,,,,,,,,,1498.3891,1505.6221,0.063802083,-0.0859375,1,0,0,1.2275,compass,0,13,13,16,1,SoundStimuli/ItsAllInTheGame_TommyEdwards_Original5S.wav,,,,,,,,,,,,,,,,,,,,,,,,,,,,,,,,,,,,,,,,,,,,,,,,,,,,
,,,,,039938,001,2024-07-12_18h37.41.995,experiment,2024.1.5,Win32,60.06006006,6648bb202df5a337b816e22a,6691931c2c63981b064e1f0c,6691b017573e8f0890449c6a,,,,,,,,,,,,,,,,,,,,,,,,,,,,,,,,,,,,,,,,,,,,,,,,,,,,,,,,,,,,1505.6312,1512.9985,0.201822917,0.2109375,1,0,0,1.3608,compass,0,14,14,27,1,SoundStimuli/EyeOfTheTiger_Survivor_Original5S.wav,,,,,,,,,,,,,,,,,,,,,,,,,,,,,,,,,,,,,,,,,,,,,,,,,,,,
,,,,,039938,001,2024-07-12_18h37.41.995,experiment,2024.1.5,Win32,60.06006006,6648bb202df5a337b816e22a,6691931c2c63981b064e1f0c,6691b017573e8f0890449c6a,,,,,,,,,,,,,,,,,,,,,,,,,,,,,,,,,,,,,,,,,,,,,,,,,,,,,,,,,,,,1513.0079,1519.9797,-0.182291667,0.221354167,1,0,0,0.966,compass,0,15,15,30,1,SoundStimuli/SomebodyThatIUsedtoKnow_Gotye_Cover5S.wav,,,,,,,,,,,,,,,,,,,,,,,,,,,,,,,,,,,,,,,,,,,,,,,,,,,,
,,,,,039938,001,2024-07-12_18h37.41.995,experiment,2024.1.5,Win32,60.06006006,6648bb202df5a337b816e22a,6691931c2c63981b064e1f0c,6691b017573e8f0890449c6a,,,,,,,,,,,,,,,,,,,,,,,,,,,,,,,,,,,,,,,,,,,,,,,,,,,,,,,,,,,,1519.9898,1526.59,-0.147135417,-0.15625,1,0,0,0.5834,compass,0,16,16,9,1,SoundStimuli/HowDoILive_LeAnnRimes_Original5S.wav,,,,,,,,,,,,,,,,,,,,,,,,,,,,,,,,,,,,,,,,,,,,,,,,,,,,
,,,,,039938,001,2024-07-12_18h37.41.995,experiment,2024.1.5,Win32,60.06006006,6648bb202df5a337b816e22a,6691931c2c63981b064e1f0c,6691b017573e8f0890449c6a,,,,,,,,,,,,,,,,,,,,,,,,,,,,,,,,,,,,,,,,,,,,,,,,,,,,,,,,,,,,1526.5989,1533.3996,-0.145833333,0.1328125,1,0,0,0.7876,compass,0,17,17,2,1,SoundStimuli/SmellsLikeTeenSpirit_Nirvana_Cover5S.wav,,,,,,,,,,,,,,,,,,,,,,,,,,,,,,,,,,,,,,,,,,,,,,,,,,,,
,,,,,039938,001,2024-07-12_18h37.41.995,experiment,2024.1.5,Win32,60.06006006,6648bb202df5a337b816e22a,6691931c2c63981b064e1f0c,6691b017573e8f0890449c6a,,,,,,,,,,,,,,,,,,,,,,,,,,,,,,,,,,,,,,,,,,,,,,,,,,,,,,,,,,,,1533.4087,1540.3592,0.083333333,0.05859375,1,0,0,0.933,compass,0,18,18,10,1,SoundStimuli/LeFreak_Chic_Original5S.wav,,,,,,,,,,,,,,,,,,,,,,,,,,,,,,,,,,,,,,,,,,,,,,,,,,,,
,,,,,039938,001,2024-07-12_18h37.41.995,experiment,2024.1.5,Win32,60.06006006,6648bb202df5a337b816e22a,6691931c2c63981b064e1f0c,6691b017573e8f0890449c6a,,,,,,,,,,,,,,,,,,,,,,,,,,,,,,,,,,,,,,,,,,,,,,,,,,,,,,,,,,,,1540.3678,1547.531,0.08984375,-0.080729167,1,0,0,1.1616,compass,0,19,19,32,1,SoundStimuli/Dilemma_NellyKellyRowland_Original5S.wav,,,,,,,,,,,,,,,,,,,,,,,,,,,,,,,,,,,,,,,,,,,,,,,,,,,,
,,,,,039938,001,2024-07-12_18h37.41.995,experiment,2024.1.5,Win32,60.06006006,6648bb202df5a337b816e22a,6691931c2c63981b064e1f0c,6691b017573e8f0890449c6a,,,,,,,,,,,,,,,,,,,,,,,,,,,,,,,,,,,,,,,,,,,,,,,,,,,,,,,,,,,,1547.5401,1556.2428,0.055989583,0.044270833,1,0,0,2.6973,compass,0,20,20,24,1,SoundStimuli/Kiss_Prince_Original5S.wav,,,,,,,,,,,,,,,,,,,,,,,,,,,,,,,,,,,,,,,,,,,,,,,,,,,,
,,,,,039938,001,2024-07-12_18h37.41.995,experiment,2024.1.5,Win32,60.06006006,6648bb202df5a337b816e22a,6691931c2c63981b064e1f0c,6691b017573e8f0890449c6a,,,,,,,,,,,,,,,,,,,,,,,,,,,,,,,,,,,,,,,,,,,,,,,,,,,,,,,,,,,,1556.2519,1562.6821,-0.171875,0.18359375,1,0,0,0.4117,compass,0,21,21,6,1,SoundStimuli/SaveYourTears_TheWeekndArianaGrande_Original5S.wav,,,,,,,,,,,,,,,,,,,,,,,,,,,,,,,,,,,,,,,,,,,,,,,,,,,,
,,,,,039938,001,2024-07-12_18h37.41.995,experiment,2024.1.5,Win32,60.06006006,6648bb202df5a337b816e22a,6691931c2c63981b064e1f0c,6691b017573e8f0890449c6a,,,,,,,,,,,,,,,,,,,,,,,,,,,,,,,,,,,,,,,,,,,,,,,,,,,,,,,,,,,,1562.6914,1572.4391,-0.130208333,0.115885417,1,0,0,3.7421,compass,0,22,22,26,1,SoundStimuli/TheSign_AceOfBase_Original5S.wav,,,,,,,,,,,,,,,,,,,,,,,,,,,,,,,,,,,,,,,,,,,,,,,,,,,,
,,,,,039938,001,2024-07-12_18h37.41.995,experiment,2024.1.5,Win32,60.06006006,6648bb202df5a337b816e22a,6691931c2c63981b064e1f0c,6691b017573e8f0890449c6a,,,,,,,,,,,,,,,,,,,,,,,,,,,,,,,,,,,,,,,,,,,,,,,,,,,,,,,,,,,,1572.4485,1579.9317,-0.111979167,-0.126302083,1,0,0,1.4775,compass,0,23,23,17,1,SoundStimuli/IWannaDanceWithSomebody_WhitneyHouston_Cover5S.wav,,,,,,,,,,,,,,,,,,,,,,,,,,,,,,,,,,,,,,,,,,,,,,,,,,,,
,,,,,039938,001,2024-07-12_18h37.41.995,experiment,2024.1.5,Win32,60.06006006,6648bb202df5a337b816e22a,6691931c2c63981b064e1f0c,6691b017573e8f0890449c6a,,,,,,,,,,,,,,,,,,,,,,,,,,,,,,,,,,,,,,,,,,,,,,,,,,,,,,,,,,,,1579.9407,1587.5241,-0.135416667,-0.102864583,1,0,0,1.5814,compass,0,24,24,21,1,SoundStimuli/BridgeOverTroubledWater_SimonAndGarfunkel_Cover5S.wav,,,,,,,,,,,,,,,,,,,,,,,,,,,,,,,,,,,,,,,,,,,,,,,,,,,,
,,,,,039938,001,2024-07-12_18h37.41.995,experiment,2024.1.5,Win32,60.06006006,6648bb202df5a337b816e22a,6691931c2c63981b064e1f0c,6691b017573e8f0890449c6a,,,,,,,,,,,,,,,,,,,,,,,,,,,,,,,,,,,,,,,,,,,,,,,,,,,,,,,,,,,,1587.5332,1594.3888,-0.177083333,0.192708333,1,0,0,0.8496,compass,0,25,25,33,1,SoundStimuli/TheBoyIsMine_BrandyMonica_Cover5S.wav,,,,,,,,,,,,,,,,,,,,,,,,,,,,,,,,,,,,,,,,,,,,,,,,,,,,
,,,,,039938,001,2024-07-12_18h37.41.995,experiment,2024.1.5,Win32,60.06006006,6648bb202df5a337b816e22a,6691931c2c63981b064e1f0c,6691b017573e8f0890449c6a,,,,,,,,,,,,,,,,,,,,,,,,,,,,,,,,,,,,,,,,,,,,,,,,,,,,,,,,,,,,1594.3975,1601.4986,0.092447917,0.078125,1,0,0,1.0994,compass,0,26,26,31,1,SoundStimuli/TossinAndTurnin_BobbyLewis_Cover5S.wav,,,,,,,,,,,,,,,,,,,,,,,,,,,,,,,,,,,,,,,,,,,,,,,,,,,,
,,,,,039938,001,2024-07-12_18h37.41.995,experiment,2024.1.5,Win32,60.06006006,6648bb202df5a337b816e22a,6691931c2c63981b064e1f0c,6691b017573e8f0890449c6a,,,,,,,,,,,,,,,,,,,,,,,,,,,,,,,,,,,,,,,,,,,,,,,,,,,,,,,,,,,,1601.5076,1608.1919,0.255208333,0.26953125,1,0,0,0.6666,compass,0,27,27,3,1,SoundStimuli/PartyRockAnthem_LMFAO_Cover5S.wav,,,,,,,,,,,,,,,,,,,,,,,,,,,,,,,,,,,,,,,,,,,,,,,,,,,,
,,,,,039938,001,2024-07-12_18h37.41.995,experiment,2024.1.5,Win32,60.06006006,6648bb202df5a337b816e22a,6691931c2c63981b064e1f0c,6691b017573e8f0890449c6a,,,,,,,,,,,,,,,,,,,,,,,,,,,,,,,,,,,,,,,,,,,,,,,,,,,,,,,,,,,,1608.2009,1616.8955,-0.201822917,0.203125,1,0,0,2.6932,compass,0,28,28,34,1,SoundStimuli/Irreplaceable_Beyonce_Original5S.wav,,,,,,,,,,,,,,,,,,,,,,,,,,,,,,,,,,,,,,,,,,,,,,,,,,,,
,,,,,039938,001,2024-07-12_18h37.41.995,experiment,2024.1.5,Win32,60.06006006,6648bb202df5a337b816e22a,6691931c2c63981b064e1f0c,6691b017573e8f0890449c6a,,,,,,,,,,,,,,,,,,,,,,,,,,,,,,,,,,,,,,,,,,,,,,,,,,,,,,,,,,,,1616.9051,1624.3092,0.21484375,0.1953125,1,0,0,1.4035,compass,0,29,29,11,1,SoundStimuli/BlurredLines_RobinThicke_Original5S.wav,,,,,,,,,,,,,,,,,,,,,,,,,,,,,,,,,,,,,,,,,,,,,,,,,,,,
,,,,,039938,001,2024-07-12_18h37.41.995,experiment,2024.1.5,Win32,60.06006006,6648bb202df5a337b816e22a,6691931c2c63981b064e1f0c,6691b017573e8f0890449c6a,,,,,,,,,,,,,,,,,,,,,,,,,,,,,,,,,,,,,,,,,,,,,,,,,,,,,,,,,,,,1624.3179,1632.8627,-0.076822917,0.049479167,1,0,0,2.5268,compass,0,30,30,29,1,SoundStimuli/BetteDavisEyes_KimCarnes_Cover5S.wav,,,,,,,,,,,,,,,,,,,,,,,,,,,,,,,,,,,,,,,,,,,,,,,,,,,,
,,,,,039938,001,2024-07-12_18h37.41.995,experiment,2024.1.5,Win32,60.06006006,6648bb202df5a337b816e22a,6691931c2c63981b064e1f0c,6691b017573e8f0890449c6a,,,,,,,,,,,,,,,,,,,,,,,,,,,,,,,,,,,,,,,,,,,,,,,,,,,,,,,,,,,,1632.8722,1639.6892,-0.19921875,-0.13671875,1,0,0,0.812,compass,0,31,31,14,1,SoundStimuli/LikeARollingStone_BobDylan_Cover5S.wav,,,,,,,,,,,,,,,,,,,,,,,,,,,,,,,,,,,,,,,,,,,,,,,,,,,,
,,,,,039938,001,2024-07-12_18h37.41.995,experiment,2024.1.5,Win32,60.06006006,6648bb202df5a337b816e22a,6691931c2c63981b064e1f0c,6691b017573e8f0890449c6a,,,,,,,,,,,,,,,,,,,,,,,,,,,,,,,,,,,,,,,,,,,,,,,,,,,,,,,,,,,,1639.6989,1648.4646,-0.102864583,0.098958333,1,0,0,2.7652,compass,0,32,32,1,1,SoundStimuli/Smooth_SantanaRobThomas_Cover5S.wav,,,,,,,,,,,,,,,,,,,,,,,,,,,,,,,,,,,,,,,,,,,,,,,,,,,,
,,,,,039938,001,2024-07-12_18h37.41.995,experiment,2024.1.5,Win32,60.06006006,6648bb202df5a337b816e22a,6691931c2c63981b064e1f0c,6691b017573e8f0890449c6a,,,,,,,,,,,,,,,,,,,,,,,,,,,,,,,,,,,,,,,,,,,,,,,,,,,,,,,,,,,,1648.4739,1656.3729,-0.169270833,0.19921875,1,0,0,1.8942,compass,0,33,33,0,1,SoundStimuli/GimmeShelter_RollingStones_Cover5S.wav,,,,,,,,,,,,,,,,,,,,,,,,,,,,,,,,,,,,,,,,,,,,,,,,,,,,
,,,,,039938,001,2024-07-12_18h37.41.995,experiment,2024.1.5,Win32,60.06006006,6648bb202df5a337b816e22a,6691931c2c63981b064e1f0c,6691b017573e8f0890449c6a,,,,,,,,,,,,,,,,,,,,,,,,,,,,,,,,,,,,,,,,,,,,,,,,,,,,,,,,,,,,1656.3825,1663.6655,0.079427083,-0.072916667,1,0,0,1.2825,compass,0,34,34,19,1,SoundStimuli/YouLightUpMyLife_DebbyBoone_Cover5S.wav,,,,,,,,,,,,,,,,,,,,,,,,,,,,,,,,,,,,,,,,,,,,,,,,,,,,
,,,,,039938,001,2024-07-12_18h37.41.995,experiment,2024.1.5,Win32,60.06006006,6648bb202df5a337b816e22a,6691931c2c63981b064e1f0c,6691b017573e8f0890449c6a,,,,,,,,,,,,,,,,,,,,,,,,,,,,,,,,,,,,,,,,,,,,,,,,,,,,,,,,,,,,,,,,,,,,,,,,,,,1663.6658,1663.666,,,,1663.666,1663.666,,,,0,3,3,3,1,block_order/blockB.xlsx,,,,,,,,,,,,,,,,,,,,,,,,,,,,,,,,,,,,
,,,,,039938,001,2024-07-12_18h37.41.995,experiment,2024.1.5,Win32,60.06006006,6648bb202df5a337b816e22a,6691931c2c63981b064e1f0c,6691b017573e8f0890449c6a,,,,,,,,,,,,,,,,,,,,,,,,,,,,,,,,,,,,,,,,,,,,,,,,,,,,,,,,,,,,,,,,,,,,,,,,,,,,,,,,,,,,,,,,,,,30,Item 2,Not a musician,Item 5,"Apple Music, Apple car play, YouTube, Radio",3,4,"I do activities such as: cleaning the house, driving, folding clothes, sitting outside, talking a walk, taking a shower, etc while listening to music.",Often,Rarely,Rarely,Never,Sometimes,Sometimes,Rarely,Rarely,Rarely,Sometimes,Often,Sometimes,Always,Rarely,Often,Rarely,R&B,Hip Hop,Reggae,"I've always listened to a variety of music because of my mother. I still listen to Journey and older R&B and soul groups. Growing up in my day we had MTV and Vh1 music to watch while getting ready for school, so that exposed us to more soft rock and pop artist. In middle school, I strictly listened to country music. Now I still listen to a variety of genres such as Alternative artist Lewis Capaldi. My favorite genre is still R&B. It is my most played playlist the I love to sing along to.","Overall, I feel as though I have an R&B soul, but I love and have been exposed to most if not all genres throughout my life. I was familiar with 90% of the songs played.",0,0,0,0,1,,
,,,,,039938,001,2024-07-12_18h37.41.995,experiment,2024.1.5,Win32,60.06006006,6648bb202df5a337b816e22a,6691931c2c63981b064e1f0c,6691b017573e8f0890449c6a,,,,,,,,,,,,,,,,,,,,,,,,,,,,,,,,,,,,,,,,,,,,,,,,,,,,,,,,,,,,,,,,,,,,,,,,,,,,,,,,,,,,,,,,,,,,,,,,,,,,,,,,,,,,,,,,,,,,,,,,,,,,,2840.1829,2842.5918
