welcome.started,welcome.stopped,space_to_continue.keys,space_to_continue.rt,space_to_continue.duration,participant,session,date,expName,psychopyVersion,OS,frameRate,PROLIFIC_PID,STUDY_ID,SESSION_ID,consent.consent,consent.consent_recontact,consent_check.started,consent_check.stopped,calibration_ready.started,calibration_ready.stopped,cal_ready.keys,cal_ready.rt,cal_ready.duration,calibration.started,calibration.stopped,mouse.x,mouse.y,mouse.leftButton,mouse.midButton,mouse.rightButton,mouse.time,mouse.clicked_name,move_on.keys,move_on.rt,move_on.duration,run_cal.thisRepN,run_cal.thisTrialN,run_cal.thisN,run_cal.thisIndex,run_cal.ran,emotion_training_ready.started,emotion_training_ready.stopped,training_move_on.keys,training_move_on.rt,training_move_on.duration,examples.started,examples.stopped,emotion_scale.started,emotion_scale.stopped,scale_next.keys,scale_next.rt,scale_next.duration,instructions.started,instructions.stopped,next.keys,next.rt,next.duration,practice_task.started,practice_task.stopped,mouse_rating_2.x,mouse_rating_2.y,mouse_rating_2.leftButton,mouse_rating_2.midButton,mouse_rating_2.rightButton,mouse_rating_2.time,mouse_rating_2.clicked_name,ready.started,ready.stopped,key_resp.keys,key_resp.rt,key_resp.duration,set_group.started,set_group.stopped,task.started,task.stopped,mouse_rating.x,mouse_rating.y,mouse_rating.leftButton,mouse_rating.midButton,mouse_rating.rightButton,mouse_rating.time,mouse_rating.clicked_name,trials.thisRepN,trials.thisTrialN,trials.thisN,trials.thisIndex,trials.ran,clip,short_break.started,short_break.stopped,space_to_move_on.keys,space_to_move_on.rt,space_to_move_on.duration,instruction_reminder.started,instruction_reminder.stopped,reminder_move_on.keys,reminder_move_on.rt,reminder_move_on.duration,blocks.thisRepN,blocks.thisTrialN,blocks.thisN,blocks.thisIndex,blocks.ran,block,post_survey.age,post_survey.musician,post_survey.music_making,post_survey.listen_time,post_survey.medium,post_survey.music_seeking,post_survey.music_choice,post_survey.activities,post_survey.question1.R&B,post_survey.question1.Latin,post_survey.question1.Hip hop,post_survey.question1.Country,post_survey.question1.Disco,post_survey.question1.Folk/indie,post_survey.question1.A cappella,post_survey.question1.Pop,post_survey.question1.Alternative rock,post_survey.question1.Jazz,post_survey.question1.Classic rock,post_survey.question1.Reggae,post_survey.question1.Electronic (EDM),post_survey.question1.Metal,post_survey.question1.Ambient,post_survey.question1.Classical,post_survey.other_genres,post_survey.genres_ranked.text1,post_survey.genres_ranked.text2,post_survey.genres_ranked.text3,post_survey.habits,post_survey.habit_change,show_exp.thisRepN,show_exp.thisTrialN,show_exp.thisN,show_exp.thisIndex,show_exp.ran,goodbye.started,goodbye.stopped
0.001,1.66,space,1.633,,051904,001,2024-07-12_15h38.05.727,experiment,2024.1.5,Win32,60.0240096,5c76616a7fafbd00114723f5,6691931c2c63981b064e1f0c,6691af91d17ef3c3c2635c8f,,,,,,,,,,,,,,,,,,,,,,,,,,,,,,,,,,,,,,,,,,,,,,,,,,,,,,,,,,,,,,,,,,,,,,,,,,,,,,,,,,,,,,,,,,,,,,,,,,,,,,,,,,,,,,,,,,,,,,,,,,,,,,,
,,,,,051904,001,2024-07-12_15h38.05.727,experiment,2024.1.5,Win32,60.0240096,5c76616a7fafbd00114723f5,6691931c2c63981b064e1f0c,6691af91d17ef3c3c2635c8f,yes,yes,,,,,,,,,,,,,,,,,,,,,,,,,,,,,,,,,,,,,,,,,,,,,,,,,,,,,,,,,,,,,,,,,,,,,,,,,,,,,,,,,,,,,,,,,,,,,,,,,,,,,,,,,,,,,,,,,,,,,,,,,,,,,
,,,,,051904,001,2024-07-12_15h38.05.727,experiment,2024.1.5,Win32,60.0240096,5c76616a7fafbd00114723f5,6691931c2c63981b064e1f0c,6691af91d17ef3c3c2635c8f,,,43.579,43.579,,,,,,,,,,,,,,,,,,,,,,,,,,,,,,,,,,,,,,,,,,,,,,,,,,,,,,,,,,,,,,,,,,,,,,,,,,,,,,,,,,,,,,,,,,,,,,,,,,,,,,,,,,,,,,,,,,,,,,,,,,,
,,,,,051904,001,2024-07-12_15h38.05.727,experiment,2024.1.5,Win32,60.0240096,5c76616a7fafbd00114723f5,6691931c2c63981b064e1f0c,6691af91d17ef3c3c2635c8f,,,,,43.58,45.993,space,2.39,,45.994,70.96,"[0.016666666666666666,-0.023148148148148147,0.3398148148148148,-0.025925925925925925]","[-0.3972222222222222,-0.41574074074074074,0.07962962962962963,-0.42592592592592593]","[1,1,1,1]","[0,0,0,0]","[0,0,0,0]","[2.1500000000000057,3.367999999999995,9.484000000000009,11.484000000000009]",[],y,23.943,,0,0,0,0,1,,,,,,,,,,,,,,,,,,,,,,,,,,,,,,,,,,,,,,,,,,,,,,,,,,,,,,,,,,,,,,,,,,,,,,,,,,,,,,,,,,,,,,,,,,,,,,,,,,,,,
,,,,,051904,001,2024-07-12_15h38.05.727,experiment,2024.1.5,Win32,60.0240096,5c76616a7fafbd00114723f5,6691931c2c63981b064e1f0c,6691af91d17ef3c3c2635c8f,,,,,,,,,,,,,,,,,,,,,,,,,,,70.961,85.576,space,14.581,,85.576,205.578,205.578,213.045,right,3.933,,213.045,217.678,space,4.6,,217.678,225.078,0.203703704,-0.064814815,1,0,0,1.384,compass_2,225.078,226.477,space,1.383,,226.477,226.477,226.494,232.977,-0.09537037,-0.164814815,1,0,0,0.482,compass,0,0,0,6,1,SoundStimuli/SaveYourTears_TheWeekndArianaGrande_Original5S.wav,,,,,,,,,,,,,,,,,,,,,,,,,,,,,,,,,,,,,,,,,,,,,,,,,,,,,
,,,,,051904,001,2024-07-12_15h38.05.727,experiment,2024.1.5,Win32,60.0240096,5c76616a7fafbd00114723f5,6691931c2c63981b064e1f0c,6691af91d17ef3c3c2635c8f,,,,,,,,,,,,,,,,,,,,,,,,,,,,,,,,,,,,,,,,,,,,,,,,,,,,,,,,,,,,232.978,239.294,0.161111111,0.249074074,1,0,0,0.299,compass,0,1,1,15,1,SoundStimuli/CrazyInLove_BeyonceFtJayZ_Original5S.wav,,,,,,,,,,,,,,,,,,,,,,,,,,,,,,,,,,,,,,,,,,,,,,,,,,,,,
,,,,,051904,001,2024-07-12_15h38.05.727,experiment,2024.1.5,Win32,60.0240096,5c76616a7fafbd00114723f5,6691931c2c63981b064e1f0c,6691af91d17ef3c3c2635c8f,,,,,,,,,,,,,,,,,,,,,,,,,,,,,,,,,,,,,,,,,,,,,,,,,,,,,,,,,,,,239.295,245.378,0.10462963,0.244444444,1,0,0,0.066,compass,0,2,2,5,1,SoundStimuli/JoyToTheWorld_ThreeDogNight_Cover5S.wav,,,,,,,,,,,,,,,,,,,,,,,,,,,,,,,,,,,,,,,,,,,,,,,,,,,,,
,,,,,051904,001,2024-07-12_15h38.05.727,experiment,2024.1.5,Win32,60.0240096,5c76616a7fafbd00114723f5,6691931c2c63981b064e1f0c,6691af91d17ef3c3c2635c8f,,,,,,,,,,,,,,,,,,,,,,,,,,,,,,,,,,,,,,,,,,,,,,,,,,,,,,,,,,,,245.378,251.71,-0.126851852,-0.17962963,1,0,0,0.316,compass,0,3,3,21,1,SoundStimuli/BridgeOverTroubledWater_SimonAndGarfunkel_Cover5S.wav,,,,,,,,,,,,,,,,,,,,,,,,,,,,,,,,,,,,,,,,,,,,,,,,,,,,,
,,,,,051904,001,2024-07-12_15h38.05.727,experiment,2024.1.5,Win32,60.0240096,5c76616a7fafbd00114723f5,6691931c2c63981b064e1f0c,6691af91d17ef3c3c2635c8f,,,,,,,,,,,,,,,,,,,,,,,,,,,,,,,,,,,,,,,,,,,,,,,,,,,,,,,,,,,,251.711,257.979,0.103703704,0.182407407,1,0,0,0.252,compass,0,4,4,31,1,SoundStimuli/TossinAndTurnin_BobbyLewis_Cover5S.wav,,,,,,,,,,,,,,,,,,,,,,,,,,,,,,,,,,,,,,,,,,,,,,,,,,,,,
,,,,,051904,001,2024-07-12_15h38.05.727,experiment,2024.1.5,Win32,60.0240096,5c76616a7fafbd00114723f5,6691931c2c63981b064e1f0c,6691af91d17ef3c3c2635c8f,,,,,,,,,,,,,,,,,,,,,,,,,,,,,,,,,,,,,,,,,,,,,,,,,,,,,,,,,,,,257.979,266.561,-0.140740741,0.206481481,1,0,0,2.567,compass,0,5,5,30,1,SoundStimuli/SomebodyThatIUsedtoKnow_Gotye_Cover5S.wav,,,,,,,,,,,,,,,,,,,,,,,,,,,,,,,,,,,,,,,,,,,,,,,,,,,,,
,,,,,051904,001,2024-07-12_15h38.05.727,experiment,2024.1.5,Win32,60.0240096,5c76616a7fafbd00114723f5,6691931c2c63981b064e1f0c,6691af91d17ef3c3c2635c8f,,,,,,,,,,,,,,,,,,,,,,,,,,,,,,,,,,,,,,,,,,,,,,,,,,,,,,,,,,,,266.564,273.144,-0.131481481,-0.197222222,1,0,0,0.566,compass,0,6,6,1,1,SoundStimuli/Smooth_SantanaRobThomas_Cover5S.wav,,,,,,,,,,,,,,,,,,,,,,,,,,,,,,,,,,,,,,,,,,,,,,,,,,,,,
,,,,,051904,001,2024-07-12_15h38.05.727,experiment,2024.1.5,Win32,60.0240096,5c76616a7fafbd00114723f5,6691931c2c63981b064e1f0c,6691af91d17ef3c3c2635c8f,,,,,,,,,,,,,,,,,,,,,,,,,,,,,,,,,,,,,,,,,,,,,,,,,,,,,,,,,,,,273.145,280.161,-0.055555556,-0.256481481,1,0,0,1,compass,0,7,7,4,1,SoundStimuli/Dreams_FleetwoodMac_Cover5S.wav,,,,,,,,,,,,,,,,,,,,,,,,,,,,,,,,,,,,,,,,,,,,,,,,,,,,,
,,,,,051904,001,2024-07-12_15h38.05.727,experiment,2024.1.5,Win32,60.0240096,5c76616a7fafbd00114723f5,6691931c2c63981b064e1f0c,6691af91d17ef3c3c2635c8f,,,,,,,,,,,,,,,,,,,,,,,,,,,,,,,,,,,,,,,,,,,,,,,,,,,,,,,,,,,,280.161,286.411,-0.286111111,-0.276851852,1,0,0,0.233,compass,0,8,8,0,1,SoundStimuli/GimmeShelter_RollingStones_Cover5S.wav,,,,,,,,,,,,,,,,,,,,,,,,,,,,,,,,,,,,,,,,,,,,,,,,,,,,,
,,,,,051904,001,2024-07-12_15h38.05.727,experiment,2024.1.5,Win32,60.0240096,5c76616a7fafbd00114723f5,6691931c2c63981b064e1f0c,6691af91d17ef3c3c2635c8f,,,,,,,,,,,,,,,,,,,,,,,,,,,,,,,,,,,,,,,,,,,,,,,,,,,,,,,,,,,,286.411,293.679,0.082407407,-0.25,1,0,0,1.267,compass,0,9,9,7,1,SoundStimuli/MackTheKnife_BobbyDarin_Original5S.wav,,,,,,,,,,,,,,,,,,,,,,,,,,,,,,,,,,,,,,,,,,,,,,,,,,,,,
,,,,,051904,001,2024-07-12_15h38.05.727,experiment,2024.1.5,Win32,60.0240096,5c76616a7fafbd00114723f5,6691931c2c63981b064e1f0c,6691af91d17ef3c3c2635c8f,,,,,,,,,,,,,,,,,,,,,,,,,,,,,,,,,,,,,,,,,,,,,,,,,,,,,,,,,,,,293.68,301.161,0.065740741,0.065740741,1,0,0,1.467,compass,0,10,10,12,1,SoundStimuli/UnbreakMyHeart_ToniBraxton_Cover5S.wav,,,,,,,,,,,,,,,,,,,,,,,,,,,,,,,,,,,,,,,,,,,,,,,,,,,,,
,,,,,051904,001,2024-07-12_15h38.05.727,experiment,2024.1.5,Win32,60.0240096,5c76616a7fafbd00114723f5,6691931c2c63981b064e1f0c,6691af91d17ef3c3c2635c8f,,,,,,,,,,,,,,,,,,,,,,,,,,,,,,,,,,,,,,,,,,,,,,,,,,,,,,,,,,,,301.162,310.644,0.098148148,-0.231481481,1,0,0,3.466,compass,0,11,11,8,1,SoundStimuli/EndlessLove_DianaRossLionelRichie_Original5S.wav,,,,,,,,,,,,,,,,,,,,,,,,,,,,,,,,,,,,,,,,,,,,,,,,,,,,,
,,,,,051904,001,2024-07-12_15h38.05.727,experiment,2024.1.5,Win32,60.0240096,5c76616a7fafbd00114723f5,6691931c2c63981b064e1f0c,6691af91d17ef3c3c2635c8f,,,,,,,,,,,,,,,,,,,,,,,,,,,,,,,,,,,,,,,,,,,,,,,,,,,,,,,,,,,,310.645,316.928,0.22962963,-0.255555556,1,0,0,0.267,compass,0,12,12,32,1,SoundStimuli/Dilemma_NellyKellyRowland_Original5S.wav,,,,,,,,,,,,,,,,,,,,,,,,,,,,,,,,,,,,,,,,,,,,,,,,,,,,,
,,,,,051904,001,2024-07-12_15h38.05.727,experiment,2024.1.5,Win32,60.0240096,5c76616a7fafbd00114723f5,6691931c2c63981b064e1f0c,6691af91d17ef3c3c2635c8f,,,,,,,,,,,,,,,,,,,,,,,,,,,,,,,,,,,,,,,,,,,,,,,,,,,,,,,,,,,,316.928,324.678,0.046296296,-0.231481481,1,0,0,1.734,compass,0,13,13,23,1,SoundStimuli/IWalkTheLine_JohnnyCash_Cover5S.wav,,,,,,,,,,,,,,,,,,,,,,,,,,,,,,,,,,,,,,,,,,,,,,,,,,,,,
,,,,,051904,001,2024-07-12_15h38.05.727,experiment,2024.1.5,Win32,60.0240096,5c76616a7fafbd00114723f5,6691931c2c63981b064e1f0c,6691af91d17ef3c3c2635c8f,,,,,,,,,,,,,,,,,,,,,,,,,,,,,,,,,,,,,,,,,,,,,,,,,,,,,,,,,,,,324.678,331.379,-0.161111111,-0.211111111,1,0,0,0.7,compass,0,14,14,29,1,SoundStimuli/BetteDavisEyes_KimCarnes_Cover5S.wav,,,,,,,,,,,,,,,,,,,,,,,,,,,,,,,,,,,,,,,,,,,,,,,,,,,,,
,,,,,051904,001,2024-07-12_15h38.05.727,experiment,2024.1.5,Win32,60.0240096,5c76616a7fafbd00114723f5,6691931c2c63981b064e1f0c,6691af91d17ef3c3c2635c8f,,,,,,,,,,,,,,,,,,,,,,,,,,,,,,,,,,,,,,,,,,,,,,,,,,,,,,,,,,,,331.38,339.295,0.252777778,-0.226851852,1,0,0,1.899,compass,0,15,15,25,1,SoundStimuli/IllMakeLoveToYou_BoyzIIMen_Original5S.wav,,,,,,,,,,,,,,,,,,,,,,,,,,,,,,,,,,,,,,,,,,,,,,,,,,,,,
,,,,,051904,001,2024-07-12_15h38.05.727,experiment,2024.1.5,Win32,60.0240096,5c76616a7fafbd00114723f5,6691931c2c63981b064e1f0c,6691af91d17ef3c3c2635c8f,,,,,,,,,,,,,,,,,,,,,,,,,,,,,,,,,,,,,,,,,,,,,,,,,,,,,,,,,,,,339.295,345.628,0.185185185,0.239814815,1,0,0,0.317,compass,0,16,16,11,1,SoundStimuli/BlurredLines_RobinThicke_Original5S.wav,,,,,,,,,,,,,,,,,,,,,,,,,,,,,,,,,,,,,,,,,,,,,,,,,,,,,
,,,,,051904,001,2024-07-12_15h38.05.727,experiment,2024.1.5,Win32,60.0240096,5c76616a7fafbd00114723f5,6691931c2c63981b064e1f0c,6691af91d17ef3c3c2635c8f,,,,,,,,,,,,,,,,,,,,,,,,,,,,,,,,,,,,,,,,,,,,,,,,,,,,,,,,,,,,345.628,352.262,0.20462963,0.285185185,1,0,0,0.634,compass,0,17,17,22,1,SoundStimuli/Happy_PharellWilliams_Cover5S.wav,,,,,,,,,,,,,,,,,,,,,,,,,,,,,,,,,,,,,,,,,,,,,,,,,,,,,
,,,,,051904,001,2024-07-12_15h38.05.727,experiment,2024.1.5,Win32,60.0240096,5c76616a7fafbd00114723f5,6691931c2c63981b064e1f0c,6691af91d17ef3c3c2635c8f,,,,,,,,,,,,,,,,,,,,,,,,,,,,,,,,,,,,,,,,,,,,,,,,,,,,,,,,,,,,352.263,359.228,0.081481481,-0.192592593,1,0,0,0.95,compass,0,18,18,19,1,SoundStimuli/YouLightUpMyLife_DebbyBoone_Cover5S.wav,,,,,,,,,,,,,,,,,,,,,,,,,,,,,,,,,,,,,,,,,,,,,,,,,,,,,
,,,,,051904,001,2024-07-12_15h38.05.727,experiment,2024.1.5,Win32,60.0240096,5c76616a7fafbd00114723f5,6691931c2c63981b064e1f0c,6691af91d17ef3c3c2635c8f,,,,,,,,,,,,,,,,,,,,,,,,,,,,,,,,,,,,,,,,,,,,,,,,,,,,,,,,,,,,359.229,365.646,-0.121296296,-0.115740741,1,0,0,0.4,compass,0,19,19,33,1,SoundStimuli/TheBoyIsMine_BrandyMonica_Cover5S.wav,,,,,,,,,,,,,,,,,,,,,,,,,,,,,,,,,,,,,,,,,,,,,,,,,,,,,
,,,,,051904,001,2024-07-12_15h38.05.727,experiment,2024.1.5,Win32,60.0240096,5c76616a7fafbd00114723f5,6691931c2c63981b064e1f0c,6691af91d17ef3c3c2635c8f,,,,,,,,,,,,,,,,,,,,,,,,,,,,,,,,,,,,,,,,,,,,,,,,,,,,,,,,,,,,365.647,372.111,0.165740741,-0.169444444,1,0,0,0.449,compass,0,20,20,17,1,SoundStimuli/IWannaDanceWithSomebody_WhitneyHouston_Cover5S.wav,,,,,,,,,,,,,,,,,,,,,,,,,,,,,,,,,,,,,,,,,,,,,,,,,,,,,
,,,,,051904,001,2024-07-12_15h38.05.727,experiment,2024.1.5,Win32,60.0240096,5c76616a7fafbd00114723f5,6691931c2c63981b064e1f0c,6691af91d17ef3c3c2635c8f,,,,,,,,,,,,,,,,,,,,,,,,,,,,,,,,,,,,,,,,,,,,,,,,,,,,,,,,,,,,372.112,380.045,0.156481481,-0.152777778,1,0,0,1.916,compass,0,21,21,18,1,SoundStimuli/Weak_SWV_Original5S.wav,,,,,,,,,,,,,,,,,,,,,,,,,,,,,,,,,,,,,,,,,,,,,,,,,,,,,
,,,,,051904,001,2024-07-12_15h38.05.727,experiment,2024.1.5,Win32,60.0240096,5c76616a7fafbd00114723f5,6691931c2c63981b064e1f0c,6691af91d17ef3c3c2635c8f,,,,,,,,,,,,,,,,,,,,,,,,,,,,,,,,,,,,,,,,,,,,,,,,,,,,,,,,,,,,380.045,387.929,0.109259259,0.149074074,1,0,0,1.868,compass,0,22,22,26,1,SoundStimuli/TheSign_AceOfBase_Original5S.wav,,,,,,,,,,,,,,,,,,,,,,,,,,,,,,,,,,,,,,,,,,,,,,,,,,,,,
,,,,,051904,001,2024-07-12_15h38.05.727,experiment,2024.1.5,Win32,60.0240096,5c76616a7fafbd00114723f5,6691931c2c63981b064e1f0c,6691af91d17ef3c3c2635c8f,,,,,,,,,,,,,,,,,,,,,,,,,,,,,,,,,,,,,,,,,,,,,,,,,,,,,,,,,,,,387.929,397.247,0.247222222,-0.168518519,1,0,0,3.316,compass,0,23,23,28,1,SoundStimuli/IWantToHoldYourHand_TheBeatles_Cover5S.wav,,,,,,,,,,,,,,,,,,,,,,,,,,,,,,,,,,,,,,,,,,,,,,,,,,,,,
,,,,,051904,001,2024-07-12_15h38.05.727,experiment,2024.1.5,Win32,60.0240096,5c76616a7fafbd00114723f5,6691931c2c63981b064e1f0c,6691af91d17ef3c3c2635c8f,,,,,,,,,,,,,,,,,,,,,,,,,,,,,,,,,,,,,,,,,,,,,,,,,,,,,,,,,,,,397.249,403.511,0.196296296,0.176851852,1,0,0,0.25,compass,0,24,24,10,1,SoundStimuli/LeFreak_Chic_Original5S.wav,,,,,,,,,,,,,,,,,,,,,,,,,,,,,,,,,,,,,,,,,,,,,,,,,,,,,
,,,,,051904,001,2024-07-12_15h38.05.727,experiment,2024.1.5,Win32,60.0240096,5c76616a7fafbd00114723f5,6691931c2c63981b064e1f0c,6691af91d17ef3c3c2635c8f,,,,,,,,,,,,,,,,,,,,,,,,,,,,,,,,,,,,,,,,,,,,,,,,,,,,,,,,,,,,403.512,410.762,0.144444444,-0.192592593,1,0,0,1.233,compass,0,25,25,13,1,SoundStimuli/Perfect_EdSheeran_Original5S.wav,,,,,,,,,,,,,,,,,,,,,,,,,,,,,,,,,,,,,,,,,,,,,,,,,,,,,
,,,,,051904,001,2024-07-12_15h38.05.727,experiment,2024.1.5,Win32,60.0240096,5c76616a7fafbd00114723f5,6691931c2c63981b064e1f0c,6691af91d17ef3c3c2635c8f,,,,,,,,,,,,,,,,,,,,,,,,,,,,,,,,,,,,,,,,,,,,,,,,,,,,,,,,,,,,410.762,420.862,-0.175925926,-0.146296296,1,0,0,4.084,compass,0,26,26,34,1,SoundStimuli/Irreplaceable_Beyonce_Original5S.wav,,,,,,,,,,,,,,,,,,,,,,,,,,,,,,,,,,,,,,,,,,,,,,,,,,,,,
,,,,,051904,001,2024-07-12_15h38.05.727,experiment,2024.1.5,Win32,60.0240096,5c76616a7fafbd00114723f5,6691931c2c63981b064e1f0c,6691af91d17ef3c3c2635c8f,,,,,,,,,,,,,,,,,,,,,,,,,,,,,,,,,,,,,,,,,,,,,,,,,,,,,,,,,,,,420.863,428.878,0.062962963,-0.150925926,1,0,0,2,compass,0,27,27,16,1,SoundStimuli/ItsAllInTheGame_TommyEdwards_Original5S.wav,,,,,,,,,,,,,,,,,,,,,,,,,,,,,,,,,,,,,,,,,,,,,,,,,,,,,
,,,,,051904,001,2024-07-12_15h38.05.727,experiment,2024.1.5,Win32,60.0240096,5c76616a7fafbd00114723f5,6691931c2c63981b064e1f0c,6691af91d17ef3c3c2635c8f,,,,,,,,,,,,,,,,,,,,,,,,,,,,,,,,,,,,,,,,,,,,,,,,,,,,,,,,,,,,428.879,439.446,-0.112037037,-0.171296296,1,0,0,4.566,compass,0,28,28,14,1,SoundStimuli/LikeARollingStone_BobDylan_Cover5S.wav,,,,,,,,,,,,,,,,,,,,,,,,,,,,,,,,,,,,,,,,,,,,,,,,,,,,,
,,,,,051904,001,2024-07-12_15h38.05.727,experiment,2024.1.5,Win32,60.0240096,5c76616a7fafbd00114723f5,6691931c2c63981b064e1f0c,6691af91d17ef3c3c2635c8f,,,,,,,,,,,,,,,,,,,,,,,,,,,,,,,,,,,,,,,,,,,,,,,,,,,,,,,,,,,,439.449,446.346,0.096296296,0.161111111,1,0,0,0.883,compass,0,29,29,20,1,SoundStimuli/FlashdanceWhatAFeeling_IreneCara_Cover5S.wav,,,,,,,,,,,,,,,,,,,,,,,,,,,,,,,,,,,,,,,,,,,,,,,,,,,,,
,,,,,051904,001,2024-07-12_15h38.05.727,experiment,2024.1.5,Win32,60.0240096,5c76616a7fafbd00114723f5,6691931c2c63981b064e1f0c,6691af91d17ef3c3c2635c8f,,,,,,,,,,,,,,,,,,,,,,,,,,,,,,,,,,,,,,,,,,,,,,,,,,,,,,,,,,,,446.346,453.179,-0.113888889,-0.103703704,1,0,0,0.818,compass,0,30,30,9,1,SoundStimuli/HowDoILive_LeAnnRimes_Original5S.wav,,,,,,,,,,,,,,,,,,,,,,,,,,,,,,,,,,,,,,,,,,,,,,,,,,,,,
,,,,,051904,001,2024-07-12_15h38.05.727,experiment,2024.1.5,Win32,60.0240096,5c76616a7fafbd00114723f5,6691931c2c63981b064e1f0c,6691af91d17ef3c3c2635c8f,,,,,,,,,,,,,,,,,,,,,,,,,,,,,,,,,,,,,,,,,,,,,,,,,,,,,,,,,,,,453.18,463.429,0.206481481,0.147222222,1,0,0,4.234,compass,0,31,31,24,1,SoundStimuli/Kiss_Prince_Original5S.wav,,,,,,,,,,,,,,,,,,,,,,,,,,,,,,,,,,,,,,,,,,,,,,,,,,,,,
,,,,,051904,001,2024-07-12_15h38.05.727,experiment,2024.1.5,Win32,60.0240096,5c76616a7fafbd00114723f5,6691931c2c63981b064e1f0c,6691af91d17ef3c3c2635c8f,,,,,,,,,,,,,,,,,,,,,,,,,,,,,,,,,,,,,,,,,,,,,,,,,,,,,,,,,,,,463.429,471.213,0.178703704,0.159259259,1,0,0,1.784,compass,0,32,32,3,1,SoundStimuli/PartyRockAnthem_LMFAO_Cover5S.wav,,,,,,,,,,,,,,,,,,,,,,,,,,,,,,,,,,,,,,,,,,,,,,,,,,,,,
,,,,,051904,001,2024-07-12_15h38.05.727,experiment,2024.1.5,Win32,60.0240096,5c76616a7fafbd00114723f5,6691931c2c63981b064e1f0c,6691af91d17ef3c3c2635c8f,,,,,,,,,,,,,,,,,,,,,,,,,,,,,,,,,,,,,,,,,,,,,,,,,,,,,,,,,,,,471.215,479.078,0.22962963,0.22962963,1,0,0,1.849,compass,0,33,33,27,1,SoundStimuli/EyeOfTheTiger_Survivor_Original5S.wav,,,,,,,,,,,,,,,,,,,,,,,,,,,,,,,,,,,,,,,,,,,,,,,,,,,,,
,,,,,051904,001,2024-07-12_15h38.05.727,experiment,2024.1.5,Win32,60.0240096,5c76616a7fafbd00114723f5,6691931c2c63981b064e1f0c,6691af91d17ef3c3c2635c8f,,,,,,,,,,,,,,,,,,,,,,,,,,,,,,,,,,,,,,,,,,,,,,,,,,,,,,,,,,,,479.079,485.629,-0.208333333,0.210185185,1,0,0,0.55,compass,0,34,34,2,1,SoundStimuli/SmellsLikeTeenSpirit_Nirvana_Cover5S.wav,,,,,,,,,,,,,,,,,,,,,,,,,,,,,,,,,,,,,,,,,,,,,,,,,,,,,
,,,,,051904,001,2024-07-12_15h38.05.727,experiment,2024.1.5,Win32,60.0240096,5c76616a7fafbd00114723f5,6691931c2c63981b064e1f0c,6691af91d17ef3c3c2635c8f,,,,,,,,,,,,,,,,,,,,,,,,,,,,,,,,,,,,,,,,,,,,,,,,,,,,,,,,,,,,,,,,,,,,,,,,,,,485.629,507.496,space,21.846,,507.497,511.479,right,3.956,,0,0,0,0,1,block_order/blockB.xlsx,,,,,,,,,,,,,,,,,,,,,,,,,,,,,,,,,,,,,
,,,,,051904,001,2024-07-12_15h38.05.727,experiment,2024.1.5,Win32,60.0240096,5c76616a7fafbd00114723f5,6691931c2c63981b064e1f0c,6691af91d17ef3c3c2635c8f,,,,,,,,,,,,,,,,,,,,,,,,,,,,,,,,,,,,,,,,,,,,,,,,,,,,,,,,,,,,511.491,518.462,0.174074074,0.197222222,1,0,0,0.966,compass,0,0,0,14,1,SoundStimuli/BlindingLights_TheWeeknd_Original5S.wav,,,,,,,,,,,,,,,,,,,,,,,,,,,,,,,,,,,,,,,,,,,,,,,,,,,,,
,,,,,051904,001,2024-07-12_15h38.05.727,experiment,2024.1.5,Win32,60.0240096,5c76616a7fafbd00114723f5,6691931c2c63981b064e1f0c,6691af91d17ef3c3c2635c8f,,,,,,,,,,,,,,,,,,,,,,,,,,,,,,,,,,,,,,,,,,,,,,,,,,,,,,,,,,,,518.463,525.245,0.237037037,0.189814815,1,0,0,0.766,compass,0,1,1,28,1,SoundStimuli/ComeAndGetYourLove_Redbone_Original5S.wav,,,,,,,,,,,,,,,,,,,,,,,,,,,,,,,,,,,,,,,,,,,,,,,,,,,,,
,,,,,051904,001,2024-07-12_15h38.05.727,experiment,2024.1.5,Win32,60.0240096,5c76616a7fafbd00114723f5,6691931c2c63981b064e1f0c,6691af91d17ef3c3c2635c8f,,,,,,,,,,,,,,,,,,,,,,,,,,,,,,,,,,,,,,,,,,,,,,,,,,,,,,,,,,,,525.246,532.412,0.167592593,-0.20462963,1,0,0,1.15,compass,0,2,2,27,1,SoundStimuli/ShapeofYou_EdSheeran_Original5S.wav,,,,,,,,,,,,,,,,,,,,,,,,,,,,,,,,,,,,,,,,,,,,,,,,,,,,,
,,,,,051904,001,2024-07-12_15h38.05.727,experiment,2024.1.5,Win32,60.0240096,5c76616a7fafbd00114723f5,6691931c2c63981b064e1f0c,6691af91d17ef3c3c2635c8f,,,,,,,,,,,,,,,,,,,,,,,,,,,,,,,,,,,,,,,,,,,,,,,,,,,,,,,,,,,,532.413,539.963,0.085185185,-0.101851852,1,0,0,1.534,compass,0,3,3,33,1,SoundStimuli/StandByMe_BenEKing_Cover5S.wav,,,,,,,,,,,,,,,,,,,,,,,,,,,,,,,,,,,,,,,,,,,,,,,,,,,,,
,,,,,051904,001,2024-07-12_15h38.05.727,experiment,2024.1.5,Win32,60.0240096,5c76616a7fafbd00114723f5,6691931c2c63981b064e1f0c,6691af91d17ef3c3c2635c8f,,,,,,,,,,,,,,,,,,,,,,,,,,,,,,,,,,,,,,,,,,,,,,,,,,,,,,,,,,,,539.964,546.596,0.134259259,0.22962963,1,0,0,0.617,compass,0,4,4,24,1,SoundStimuli/UptownFunk_MarkRonson_Original5S.wav,,,,,,,,,,,,,,,,,,,,,,,,,,,,,,,,,,,,,,,,,,,,,,,,,,,,,
,,,,,051904,001,2024-07-12_15h38.05.727,experiment,2024.1.5,Win32,60.0240096,5c76616a7fafbd00114723f5,6691931c2c63981b064e1f0c,6691af91d17ef3c3c2635c8f,,,,,,,,,,,,,,,,,,,,,,,,,,,,,,,,,,,,,,,,,,,,,,,,,,,,,,,,,,,,546.596,553.746,0.187962963,-0.158333333,1,0,0,1.134,compass,0,5,5,31,1,SoundStimuli/TheBattleOfNewOrleans_JohnnyHorton_Cover5S.wav,,,,,,,,,,,,,,,,,,,,,,,,,,,,,,,,,,,,,,,,,,,,,,,,,,,,,
,,,,,051904,001,2024-07-12_15h38.05.727,experiment,2024.1.5,Win32,60.0240096,5c76616a7fafbd00114723f5,6691931c2c63981b064e1f0c,6691af91d17ef3c3c2635c8f,,,,,,,,,,,,,,,,,,,,,,,,,,,,,,,,,,,,,,,,,,,,,,,,,,,,,,,,,,,,553.747,563.329,0.216666667,-0.174074074,1,0,0,3.567,compass,0,6,6,2,1,SoundStimuli/Mood_24kGoldnianndior_Cover5S.wav,,,,,,,,,,,,,,,,,,,,,,,,,,,,,,,,,,,,,,,,,,,,,,,,,,,,,
,,,,,051904,001,2024-07-12_15h38.05.727,experiment,2024.1.5,Win32,60.0240096,5c76616a7fafbd00114723f5,6691931c2c63981b064e1f0c,6691af91d17ef3c3c2635c8f,,,,,,,,,,,,,,,,,,,,,,,,,,,,,,,,,,,,,,,,,,,,,,,,,,,,,,,,,,,,563.33,569.963,0.17037037,-0.125925926,1,0,0,0.617,compass,0,7,7,15,1,SoundStimuli/TikTok_Kesha_Cover5S.wav,,,,,,,,,,,,,,,,,,,,,,,,,,,,,,,,,,,,,,,,,,,,,,,,,,,,,
,,,,,051904,001,2024-07-12_15h38.05.727,experiment,2024.1.5,Win32,60.0240096,5c76616a7fafbd00114723f5,6691931c2c63981b064e1f0c,6691af91d17ef3c3c2635c8f,,,,,,,,,,,,,,,,,,,,,,,,,,,,,,,,,,,,,,,,,,,,,,,,,,,,,,,,,,,,569.965,576.929,0.223148148,-0.14537037,1,0,0,0.95,compass,0,8,8,23,1,SoundStimuli/StrawberryFieldsForever_TheBeatles_Original5S.wav,,,,,,,,,,,,,,,,,,,,,,,,,,,,,,,,,,,,,,,,,,,,,,,,,,,,,
,,,,,051904,001,2024-07-12_15h38.05.727,experiment,2024.1.5,Win32,60.0240096,5c76616a7fafbd00114723f5,6691931c2c63981b064e1f0c,6691af91d17ef3c3c2635c8f,,,,,,,,,,,,,,,,,,,,,,,,,,,,,,,,,,,,,,,,,,,,,,,,,,,,,,,,,,,,576.93,584.746,0.241666667,0.2,1,0,0,1.8,compass,0,9,9,30,1,SoundStimuli/PokerFace_LadyGaga_Original5S.wav,,,,,,,,,,,,,,,,,,,,,,,,,,,,,,,,,,,,,,,,,,,,,,,,,,,,,
,,,,,051904,001,2024-07-12_15h38.05.727,experiment,2024.1.5,Win32,60.0240096,5c76616a7fafbd00114723f5,6691931c2c63981b064e1f0c,6691af91d17ef3c3c2635c8f,,,,,,,,,,,,,,,,,,,,,,,,,,,,,,,,,,,,,,,,,,,,,,,,,,,,,,,,,,,,584.747,591.562,0.232407407,0.224074074,1,0,0,0.8,compass,0,10,10,5,1,SoundStimuli/MyGirl_TheTemptations_Original5S.wav,,,,,,,,,,,,,,,,,,,,,,,,,,,,,,,,,,,,,,,,,,,,,,,,,,,,,
,,,,,051904,001,2024-07-12_15h38.05.727,experiment,2024.1.5,Win32,60.0240096,5c76616a7fafbd00114723f5,6691931c2c63981b064e1f0c,6691af91d17ef3c3c2635c8f,,,,,,,,,,,,,,,,,,,,,,,,,,,,,,,,,,,,,,,,,,,,,,,,,,,,,,,,,,,,591.563,598.162,0.311111111,-0.041666667,1,0,0,0.599,compass,0,11,11,11,1,SoundStimuli/Superstition_StevieWonder_Cover5S.wav,,,,,,,,,,,,,,,,,,,,,,,,,,,,,,,,,,,,,,,,,,,,,,,,,,,,,
,,,,,051904,001,2024-07-12_15h38.05.727,experiment,2024.1.5,Win32,60.0240096,5c76616a7fafbd00114723f5,6691931c2c63981b064e1f0c,6691af91d17ef3c3c2635c8f,,,,,,,,,,,,,,,,,,,,,,,,,,,,,,,,,,,,,,,,,,,,,,,,,,,,,,,,,,,,598.162,604.781,0.142592593,0.319444444,1,0,0,0.617,compass,0,12,12,12,1,SoundStimuli/IWillAlwaysLoveYou_WhitneyHouston_Cover5S.wav,,,,,,,,,,,,,,,,,,,,,,,,,,,,,,,,,,,,,,,,,,,,,,,,,,,,,
,,,,,051904,001,2024-07-12_15h38.05.727,experiment,2024.1.5,Win32,60.0240096,5c76616a7fafbd00114723f5,6691931c2c63981b064e1f0c,6691af91d17ef3c3c2635c8f,,,,,,,,,,,,,,,,,,,,,,,,,,,,,,,,,,,,,,,,,,,,,,,,,,,,,,,,,,,,604.782,611.379,-0.066666667,0.334259259,1,0,0,0.583,compass,0,13,13,18,1,SoundStimuli/AnotherOneBitesTheDust_Queen_Original5S.wav,,,,,,,,,,,,,,,,,,,,,,,,,,,,,,,,,,,,,,,,,,,,,,,,,,,,,
,,,,,051904,001,2024-07-12_15h38.05.727,experiment,2024.1.5,Win32,60.0240096,5c76616a7fafbd00114723f5,6691931c2c63981b064e1f0c,6691af91d17ef3c3c2635c8f,,,,,,,,,,,,,,,,,,,,,,,,,,,,,,,,,,,,,,,,,,,,,,,,,,,,,,,,,,,,611.38,617.963,0.226851852,0.288888889,1,0,0,0.567,compass,0,14,14,7,1,SoundStimuli/NoOne_AliciaKeys_Cover5S.wav,,,,,,,,,,,,,,,,,,,,,,,,,,,,,,,,,,,,,,,,,,,,,,,,,,,,,
,,,,,051904,001,2024-07-12_15h38.05.727,experiment,2024.1.5,Win32,60.0240096,5c76616a7fafbd00114723f5,6691931c2c63981b064e1f0c,6691af91d17ef3c3c2635c8f,,,,,,,,,,,,,,,,,,,,,,,,,,,,,,,,,,,,,,,,,,,,,,,,,,,,,,,,,,,,617.964,624.347,0.196296296,-0.280555556,1,0,0,0.367,compass,0,15,15,19,1,SoundStimuli/LetsGetItOn_MarvinGaye_Cover5S.wav,,,,,,,,,,,,,,,,,,,,,,,,,,,,,,,,,,,,,,,,,,,,,,,,,,,,,
,,,,,051904,001,2024-07-12_15h38.05.727,experiment,2024.1.5,Win32,60.0240096,5c76616a7fafbd00114723f5,6691931c2c63981b064e1f0c,6691af91d17ef3c3c2635c8f,,,,,,,,,,,,,,,,,,,,,,,,,,,,,,,,,,,,,,,,,,,,,,,,,,,,,,,,,,,,624.347,631.08,-0.166666667,-0.317592593,1,0,0,0.717,compass,0,16,16,10,1,SoundStimuli/BadDay_DanielPowter_Cover5S.wav,,,,,,,,,,,,,,,,,,,,,,,,,,,,,,,,,,,,,,,,,,,,,,,,,,,,,
,,,,,051904,001,2024-07-12_15h38.05.727,experiment,2024.1.5,Win32,60.0240096,5c76616a7fafbd00114723f5,6691931c2c63981b064e1f0c,6691af91d17ef3c3c2635c8f,,,,,,,,,,,,,,,,,,,,,,,,,,,,,,,,,,,,,,,,,,,,,,,,,,,,,,,,,,,,631.081,638.347,0.092592593,-0.32037037,1,0,0,1.251,compass,0,17,17,20,1,SoundStimuli/HeyYa_Outkast_Cover5S.wav,,,,,,,,,,,,,,,,,,,,,,,,,,,,,,,,,,,,,,,,,,,,,,,,,,,,,
,,,,,051904,001,2024-07-12_15h38.05.727,experiment,2024.1.5,Win32,60.0240096,5c76616a7fafbd00114723f5,6691931c2c63981b064e1f0c,6691af91d17ef3c3c2635c8f,,,,,,,,,,,,,,,,,,,,,,,,,,,,,,,,,,,,,,,,,,,,,,,,,,,,,,,,,,,,638.348,645.864,0.002777778,0.351851852,1,0,0,0.249,compass,0,18,18,25,1,SoundStimuli/Respect_ArethaFranklin_Original5S.wav,,,,,,,,,,,,,,,,,,,,,,,,,,,,,,,,,,,,,,,,,,,,,,,,,,,,,
,,,,,051904,001,2024-07-12_15h38.05.727,experiment,2024.1.5,Win32,60.0240096,5c76616a7fafbd00114723f5,6691931c2c63981b064e1f0c,6691af91d17ef3c3c2635c8f,,,,,,,,,,,,,,,,,,,,,,,,,,,,,,,,,,,,,,,,,,,,,,,,,,,,,,,,,,,,645.864,653.729,0.092592593,0.301851852,1,0,0,1.85,compass,0,19,19,0,1,SoundStimuli/StayinAlive_BeeGees_Original5S.wav,,,,,,,,,,,,,,,,,,,,,,,,,,,,,,,,,,,,,,,,,,,,,,,,,,,,,
,,,,,051904,001,2024-07-12_15h38.05.727,experiment,2024.1.5,Win32,60.0240096,5c76616a7fafbd00114723f5,6691931c2c63981b064e1f0c,6691af91d17ef3c3c2635c8f,,,,,,,,,,,,,,,,,,,,,,,,,,,,,,,,,,,,,,,,,,,,,,,,,,,,,,,,,,,,653.729,660.113,0.189814815,0.330555556,1,0,0,0.384,compass,0,20,20,6,1,SoundStimuli/Levitating_DuaLipa_Cover5S.wav,,,,,,,,,,,,,,,,,,,,,,,,,,,,,,,,,,,,,,,,,,,,,,,,,,,,,
,,,,,051904,001,2024-07-12_15h38.05.727,experiment,2024.1.5,Win32,60.0240096,5c76616a7fafbd00114723f5,6691931c2c63981b064e1f0c,6691af91d17ef3c3c2635c8f,,,,,,,,,,,,,,,,,,,,,,,,,,,,,,,,,,,,,,,,,,,,,,,,,,,,,,,,,,,,660.114,666.446,0.263888889,0.284259259,1,0,0,0.316,compass,0,21,21,4,1,SoundStimuli/GetUrFreakOn_MissyElliot_Original5S.wav,,,,,,,,,,,,,,,,,,,,,,,,,,,,,,,,,,,,,,,,,,,,,,,,,,,,,
,,,,,051904,001,2024-07-12_15h38.05.727,experiment,2024.1.5,Win32,60.0240096,5c76616a7fafbd00114723f5,6691931c2c63981b064e1f0c,6691af91d17ef3c3c2635c8f,,,,,,,,,,,,,,,,,,,,,,,,,,,,,,,,,,,,,,,,,,,,,,,,,,,,,,,,,,,,666.447,673.131,0.114814815,-0.143518519,1,0,0,0.667,compass,0,22,22,32,1,SoundStimuli/HeatWaves_GlassAnimals_Original5S.wav,,,,,,,,,,,,,,,,,,,,,,,,,,,,,,,,,,,,,,,,,,,,,,,,,,,,,
,,,,,051904,001,2024-07-12_15h38.05.727,experiment,2024.1.5,Win32,60.0240096,5c76616a7fafbd00114723f5,6691931c2c63981b064e1f0c,6691af91d17ef3c3c2635c8f,,,,,,,,,,,,,,,,,,,,,,,,,,,,,,,,,,,,,,,,,,,,,,,,,,,,,,,,,,,,673.131,679.513,0.088888889,0.214814815,1,0,0,0.367,compass,0,23,23,29,1,SoundStimuli/OldTownRoad_LilNasX_Original5S.wav,,,,,,,,,,,,,,,,,,,,,,,,,,,,,,,,,,,,,,,,,,,,,,,,,,,,,
,,,,,051904,001,2024-07-12_15h38.05.727,experiment,2024.1.5,Win32,60.0240096,5c76616a7fafbd00114723f5,6691931c2c63981b064e1f0c,6691af91d17ef3c3c2635c8f,,,,,,,,,,,,,,,,,,,,,,,,,,,,,,,,,,,,,,,,,,,,,,,,,,,,,,,,,,,,679.513,685.846,-0.089814815,0.051851852,1,0,0,0.333,compass,0,24,24,3,1,SoundStimuli/NoScrubs_TLC_Original5S.wav,,,,,,,,,,,,,,,,,,,,,,,,,,,,,,,,,,,,,,,,,,,,,,,,,,,,,
,,,,,051904,001,2024-07-12_15h38.05.727,experiment,2024.1.5,Win32,60.0240096,5c76616a7fafbd00114723f5,6691931c2c63981b064e1f0c,6691af91d17ef3c3c2635c8f,,,,,,,,,,,,,,,,,,,,,,,,,,,,,,,,,,,,,,,,,,,,,,,,,,,,,,,,,,,,685.847,692.812,-0.033333333,-0.187962963,1,0,0,0.965,compass,0,25,25,17,1,SoundStimuli/Fallin_AliciaKeys_Original5S.wav,,,,,,,,,,,,,,,,,,,,,,,,,,,,,,,,,,,,,,,,,,,,,,,,,,,,,
,,,,,051904,001,2024-07-12_15h38.05.727,experiment,2024.1.5,Win32,60.0240096,5c76616a7fafbd00114723f5,6691931c2c63981b064e1f0c,6691af91d17ef3c3c2635c8f,,,,,,,,,,,,,,,,,,,,,,,,,,,,,,,,,,,,,,,,,,,,,,,,,,,,,,,,,,,,692.813,700.279,-0.057407407,-0.030555556,1,0,0,1.465,compass,0,26,26,26,1,SoundStimuli/LivinOnAPrayer_BonJovi_Cover5S.wav,,,,,,,,,,,,,,,,,,,,,,,,,,,,,,,,,,,,,,,,,,,,,,,,,,,,,
,,,,,051904,001,2024-07-12_15h38.05.727,experiment,2024.1.5,Win32,60.0240096,5c76616a7fafbd00114723f5,6691931c2c63981b064e1f0c,6691af91d17ef3c3c2635c8f,,,,,,,,,,,,,,,,,,,,,,,,,,,,,,,,,,,,,,,,,,,,,,,,,,,,,,,,,,,,700.28,706.68,0,0.212962963,1,0,0,0.399,compass,0,27,27,21,1,SoundStimuli/GoodGollyMissMolly_LittleRichard_Cover5S.wav,,,,,,,,,,,,,,,,,,,,,,,,,,,,,,,,,,,,,,,,,,,,,,,,,,,,,
,,,,,051904,001,2024-07-12_15h38.05.727,experiment,2024.1.5,Win32,60.0240096,5c76616a7fafbd00114723f5,6691931c2c63981b064e1f0c,6691af91d17ef3c3c2635c8f,,,,,,,,,,,,,,,,,,,,,,,,,,,,,,,,,,,,,,,,,,,,,,,,,,,,,,,,,,,,706.682,714.18,-0.037037037,0.178703704,1,0,0,1.484,compass,0,28,28,1,1,SoundStimuli/Stronger_KanyeWest_Original5S.wav,,,,,,,,,,,,,,,,,,,,,,,,,,,,,,,,,,,,,,,,,,,,,,,,,,,,,
,,,,,051904,001,2024-07-12_15h38.05.727,experiment,2024.1.5,Win32,60.0240096,5c76616a7fafbd00114723f5,6691931c2c63981b064e1f0c,6691af91d17ef3c3c2635c8f,,,,,,,,,,,,,,,,,,,,,,,,,,,,,,,,,,,,,,,,,,,,,,,,,,,,,,,,,,,,714.18,721.88,0.15462963,0.194444444,1,0,0,1.7,compass,0,29,29,9,1,SoundStimuli/Despacito_LuisFonsiDaddyYankee_Cover5S.wav,,,,,,,,,,,,,,,,,,,,,,,,,,,,,,,,,,,,,,,,,,,,,,,,,,,,,
,,,,,051904,001,2024-07-12_15h38.05.727,experiment,2024.1.5,Win32,60.0240096,5c76616a7fafbd00114723f5,6691931c2c63981b064e1f0c,6691af91d17ef3c3c2635c8f,,,,,,,,,,,,,,,,,,,,,,,,,,,,,,,,,,,,,,,,,,,,,,,,,,,,,,,,,,,,721.881,729.013,-0.184259259,0.273148148,1,0,0,1.117,compass,0,30,30,16,1,SoundStimuli/BohemianRhapsody_Queen_Original5S.wav,,,,,,,,,,,,,,,,,,,,,,,,,,,,,,,,,,,,,,,,,,,,,,,,,,,,,
,,,,,051904,001,2024-07-12_15h38.05.727,experiment,2024.1.5,Win32,60.0240096,5c76616a7fafbd00114723f5,6691931c2c63981b064e1f0c,6691af91d17ef3c3c2635c8f,,,,,,,,,,,,,,,,,,,,,,,,,,,,,,,,,,,,,,,,,,,,,,,,,,,,,,,,,,,,729.014,735.53,0.22962963,0.24537037,1,0,0,0.5,compass,0,31,31,8,1,SoundStimuli/LikeAPrayer_Madonna_Original5S.wav,,,,,,,,,,,,,,,,,,,,,,,,,,,,,,,,,,,,,,,,,,,,,,,,,,,,,
,,,,,051904,001,2024-07-12_15h38.05.727,experiment,2024.1.5,Win32,60.0240096,5c76616a7fafbd00114723f5,6691931c2c63981b064e1f0c,6691af91d17ef3c3c2635c8f,,,,,,,,,,,,,,,,,,,,,,,,,,,,,,,,,,,,,,,,,,,,,,,,,,,,,,,,,,,,735.531,741.931,-0.039814815,-0.123148148,1,0,0,0.383,compass,0,32,32,13,1,SoundStimuli/GodOnlyKnows_TheBeachBoys_Cover5S.wav,,,,,,,,,,,,,,,,,,,,,,,,,,,,,,,,,,,,,,,,,,,,,,,,,,,,,
,,,,,051904,001,2024-07-12_15h38.05.727,experiment,2024.1.5,Win32,60.0240096,5c76616a7fafbd00114723f5,6691931c2c63981b064e1f0c,6691af91d17ef3c3c2635c8f,,,,,,,,,,,,,,,,,,,,,,,,,,,,,,,,,,,,,,,,,,,,,,,,,,,,,,,,,,,,741.932,748.063,-0.024074074,0.189814815,1,0,0,0.117,compass,0,33,33,34,1,SoundStimuli/AChangeIsGonnaCome_SamCooke_Cover5S.wav,,,,,,,,,,,,,,,,,,,,,,,,,,,,,,,,,,,,,,,,,,,,,,,,,,,,,
,,,,,051904,001,2024-07-12_15h38.05.727,experiment,2024.1.5,Win32,60.0240096,5c76616a7fafbd00114723f5,6691931c2c63981b064e1f0c,6691af91d17ef3c3c2635c8f,,,,,,,,,,,,,,,,,,,,,,,,,,,,,,,,,,,,,,,,,,,,,,,,,,,,,,,,,,,,748.063,754.581,0.340740741,0.157407407,1,0,0,0.516,compass,0,34,34,22,1,SoundStimuli/RockWithYou_MichaelJackson_Original5S.wav,,,,,,,,,,,,,,,,,,,,,,,,,,,,,,,,,,,,,,,,,,,,,,,,,,,,,
,,,,,051904,001,2024-07-12_15h38.05.727,experiment,2024.1.5,Win32,60.0240096,5c76616a7fafbd00114723f5,6691931c2c63981b064e1f0c,6691af91d17ef3c3c2635c8f,,,,,,,,,,,,,,,,,,,,,,,,,,,,,,,,,,,,,,,,,,,,,,,,,,,,,,,,,,,,,,,,,,,,,,,,,,,754.581,756.047,space,1.447,,756.047,758.613,right,2.549,,0,1,1,1,1,block_order/blockA.xlsx,,,,,,,,,,,,,,,,,,,,,,,,,,,,,,,,,,,,,
,,,,,051904,001,2024-07-12_15h38.05.727,experiment,2024.1.5,Win32,60.0240096,5c76616a7fafbd00114723f5,6691931c2c63981b064e1f0c,6691af91d17ef3c3c2635c8f,,,,,,,,,,,,,,,,,,,,,,,,,,,,,,,,,,,,,,,,,,,,,,,,,,,,,,,,,,,,758.623,767.213,0.17037037,-0.172222222,1,0,0,2.583,compass,0,0,0,19,1,SoundStimuli/YouLightUpMyLife_DebbyBoone_Original5S.wav,,,,,,,,,,,,,,,,,,,,,,,,,,,,,,,,,,,,,,,,,,,,,,,,,,,,,
,,,,,051904,001,2024-07-12_15h38.05.727,experiment,2024.1.5,Win32,60.0240096,5c76616a7fafbd00114723f5,6691931c2c63981b064e1f0c,6691af91d17ef3c3c2635c8f,,,,,,,,,,,,,,,,,,,,,,,,,,,,,,,,,,,,,,,,,,,,,,,,,,,,,,,,,,,,767.214,773.514,0.343518519,0.342592593,1,0,0,0.283,compass,0,1,1,3,1,SoundStimuli/PartyRockAnthem_LMFAO_Original5S.wav,,,,,,,,,,,,,,,,,,,,,,,,,,,,,,,,,,,,,,,,,,,,,,,,,,,,,
,,,,,051904,001,2024-07-12_15h38.05.727,experiment,2024.1.5,Win32,60.0240096,5c76616a7fafbd00114723f5,6691931c2c63981b064e1f0c,6691af91d17ef3c3c2635c8f,,,,,,,,,,,,,,,,,,,,,,,,,,,,,,,,,,,,,,,,,,,,,,,,,,,,,,,,,,,,773.516,780.447,0.05462963,0.234259259,1,0,0,0.917,compass,0,2,2,1,1,SoundStimuli/Smooth_SantanaRobThomas_Original5S.wav,,,,,,,,,,,,,,,,,,,,,,,,,,,,,,,,,,,,,,,,,,,,,,,,,,,,,
,,,,,051904,001,2024-07-12_15h38.05.727,experiment,2024.1.5,Win32,60.0240096,5c76616a7fafbd00114723f5,6691931c2c63981b064e1f0c,6691af91d17ef3c3c2635c8f,,,,,,,,,,,,,,,,,,,,,,,,,,,,,,,,,,,,,,,,,,,,,,,,,,,,,,,,,,,,780.447,786.913,0.219444444,-0.038888889,1,0,0,0.45,compass,0,3,3,18,1,SoundStimuli/Weak_SWV_Cover5S.wav,,,,,,,,,,,,,,,,,,,,,,,,,,,,,,,,,,,,,,,,,,,,,,,,,,,,,
,,,,,051904,001,2024-07-12_15h38.05.727,experiment,2024.1.5,Win32,60.0240096,5c76616a7fafbd00114723f5,6691931c2c63981b064e1f0c,6691af91d17ef3c3c2635c8f,,,,,,,,,,,,,,,,,,,,,,,,,,,,,,,,,,,,,,,,,,,,,,,,,,,,,,,,,,,,786.913,793.997,0.197222222,0.072222222,1,0,0,1.083,compass,0,4,4,23,1,SoundStimuli/IWalkTheLine_JohnnyCash_Original5S.wav,,,,,,,,,,,,,,,,,,,,,,,,,,,,,,,,,,,,,,,,,,,,,,,,,,,,,
,,,,,051904,001,2024-07-12_15h38.05.727,experiment,2024.1.5,Win32,60.0240096,5c76616a7fafbd00114723f5,6691931c2c63981b064e1f0c,6691af91d17ef3c3c2635c8f,,,,,,,,,,,,,,,,,,,,,,,,,,,,,,,,,,,,,,,,,,,,,,,,,,,,,,,,,,,,793.998,800.613,0.19537037,0.021296296,1,0,0,0.6,compass,0,5,5,15,1,SoundStimuli/CrazyInLove_BeyonceFtJayZ_Cover5S.wav,,,,,,,,,,,,,,,,,,,,,,,,,,,,,,,,,,,,,,,,,,,,,,,,,,,,,
,,,,,051904,001,2024-07-12_15h38.05.727,experiment,2024.1.5,Win32,60.0240096,5c76616a7fafbd00114723f5,6691931c2c63981b064e1f0c,6691af91d17ef3c3c2635c8f,,,,,,,,,,,,,,,,,,,,,,,,,,,,,,,,,,,,,,,,,,,,,,,,,,,,,,,,,,,,800.614,807.03,-0.031481481,0.213888889,1,0,0,0.416,compass,0,6,6,5,1,SoundStimuli/JoyToTheWorld_ThreeDogNight_Original5S.wav,,,,,,,,,,,,,,,,,,,,,,,,,,,,,,,,,,,,,,,,,,,,,,,,,,,,,
,,,,,051904,001,2024-07-12_15h38.05.727,experiment,2024.1.5,Win32,60.0240096,5c76616a7fafbd00114723f5,6691931c2c63981b064e1f0c,6691af91d17ef3c3c2635c8f,,,,,,,,,,,,,,,,,,,,,,,,,,,,,,,,,,,,,,,,,,,,,,,,,,,,,,,,,,,,807.03,813.431,0.081481481,0.256481481,1,0,0,0.4,compass,0,7,7,24,1,SoundStimuli/Kiss_Prince_Cover5S.wav,,,,,,,,,,,,,,,,,,,,,,,,,,,,,,,,,,,,,,,,,,,,,,,,,,,,,
,,,,,051904,001,2024-07-12_15h38.05.727,experiment,2024.1.5,Win32,60.0240096,5c76616a7fafbd00114723f5,6691931c2c63981b064e1f0c,6691af91d17ef3c3c2635c8f,,,,,,,,,,,,,,,,,,,,,,,,,,,,,,,,,,,,,,,,,,,,,,,,,,,,,,,,,,,,813.433,819.68,0.033333333,0.339814815,1,0,0,0.233,compass,0,8,8,17,1,SoundStimuli/IWannaDanceWithSomebody_WhitneyHouston_Original5S.wav,,,,,,,,,,,,,,,,,,,,,,,,,,,,,,,,,,,,,,,,,,,,,,,,,,,,,
,,,,,051904,001,2024-07-12_15h38.05.727,experiment,2024.1.5,Win32,60.0240096,5c76616a7fafbd00114723f5,6691931c2c63981b064e1f0c,6691af91d17ef3c3c2635c8f,,,,,,,,,,,,,,,,,,,,,,,,,,,,,,,,,,,,,,,,,,,,,,,,,,,,,,,,,,,,819.681,826.147,-0.048148148,-0.160185185,1,0,0,0.45,compass,0,9,9,16,1,SoundStimuli/ItsAllInTheGame_TommyEdwards_Cover5S.wav,,,,,,,,,,,,,,,,,,,,,,,,,,,,,,,,,,,,,,,,,,,,,,,,,,,,,
,,,,,051904,001,2024-07-12_15h38.05.727,experiment,2024.1.5,Win32,60.0240096,5c76616a7fafbd00114723f5,6691931c2c63981b064e1f0c,6691af91d17ef3c3c2635c8f,,,,,,,,,,,,,,,,,,,,,,,,,,,,,,,,,,,,,,,,,,,,,,,,,,,,,,,,,,,,826.147,832.448,-0.106481481,-0.065740741,1,0,0,0.3,compass,0,10,10,34,1,SoundStimuli/Irreplaceable_Beyonce_Cover5S.wav,,,,,,,,,,,,,,,,,,,,,,,,,,,,,,,,,,,,,,,,,,,,,,,,,,,,,
,,,,,051904,001,2024-07-12_15h38.05.727,experiment,2024.1.5,Win32,60.0240096,5c76616a7fafbd00114723f5,6691931c2c63981b064e1f0c,6691af91d17ef3c3c2635c8f,,,,,,,,,,,,,,,,,,,,,,,,,,,,,,,,,,,,,,,,,,,,,,,,,,,,,,,,,,,,832.448,839.197,-0.105555556,-0.037037037,1,0,0,0.734,compass,0,11,11,30,1,SoundStimuli/SomebodyThatIUsedtoKnow_Gotye_Original5S.wav,,,,,,,,,,,,,,,,,,,,,,,,,,,,,,,,,,,,,,,,,,,,,,,,,,,,,
,,,,,051904,001,2024-07-12_15h38.05.727,experiment,2024.1.5,Win32,60.0240096,5c76616a7fafbd00114723f5,6691931c2c63981b064e1f0c,6691af91d17ef3c3c2635c8f,,,,,,,,,,,,,,,,,,,,,,,,,,,,,,,,,,,,,,,,,,,,,,,,,,,,,,,,,,,,839.197,846.281,0.169444444,0.048148148,1,0,0,1.082,compass,0,12,12,32,1,SoundStimuli/Dilemma_NellyKellyRowland_Cover5S.wav,,,,,,,,,,,,,,,,,,,,,,,,,,,,,,,,,,,,,,,,,,,,,,,,,,,,,
,,,,,051904,001,2024-07-12_15h38.05.727,experiment,2024.1.5,Win32,60.0240096,5c76616a7fafbd00114723f5,6691931c2c63981b064e1f0c,6691af91d17ef3c3c2635c8f,,,,,,,,,,,,,,,,,,,,,,,,,,,,,,,,,,,,,,,,,,,,,,,,,,,,,,,,,,,,846.282,853.214,0.200925926,0.212962963,1,0,0,0.916,compass,0,13,13,11,1,SoundStimuli/BlurredLines_RobinThicke_Cover5S.wav,,,,,,,,,,,,,,,,,,,,,,,,,,,,,,,,,,,,,,,,,,,,,,,,,,,,,
,,,,,051904,001,2024-07-12_15h38.05.727,experiment,2024.1.5,Win32,60.0240096,5c76616a7fafbd00114723f5,6691931c2c63981b064e1f0c,6691af91d17ef3c3c2635c8f,,,,,,,,,,,,,,,,,,,,,,,,,,,,,,,,,,,,,,,,,,,,,,,,,,,,,,,,,,,,853.214,859.364,0.134259259,0.216666667,1,0,0,0.133,compass,0,14,14,28,1,SoundStimuli/IWantToHoldYourHand_TheBeatles_Original5S.wav,,,,,,,,,,,,,,,,,,,,,,,,,,,,,,,,,,,,,,,,,,,,,,,,,,,,,
,,,,,051904,001,2024-07-12_15h38.05.727,experiment,2024.1.5,Win32,60.0240096,5c76616a7fafbd00114723f5,6691931c2c63981b064e1f0c,6691af91d17ef3c3c2635c8f,,,,,,,,,,,,,,,,,,,,,,,,,,,,,,,,,,,,,,,,,,,,,,,,,,,,,,,,,,,,859.365,865.88,-0.138888889,0.227777778,1,0,0,0.5,compass,0,15,15,2,1,SoundStimuli/SmellsLikeTeenSpirit_Nirvana_Original5S.wav,,,,,,,,,,,,,,,,,,,,,,,,,,,,,,,,,,,,,,,,,,,,,,,,,,,,,
,,,,,051904,001,2024-07-12_15h38.05.727,experiment,2024.1.5,Win32,60.0240096,5c76616a7fafbd00114723f5,6691931c2c63981b064e1f0c,6691af91d17ef3c3c2635c8f,,,,,,,,,,,,,,,,,,,,,,,,,,,,,,,,,,,,,,,,,,,,,,,,,,,,,,,,,,,,865.881,873.031,0.014814815,0.144444444,1,0,0,1.133,compass,0,16,16,14,1,SoundStimuli/LikeARollingStone_BobDylan_Original5S.wav,,,,,,,,,,,,,,,,,,,,,,,,,,,,,,,,,,,,,,,,,,,,,,,,,,,,,
,,,,,051904,001,2024-07-12_15h38.05.727,experiment,2024.1.5,Win32,60.0240096,5c76616a7fafbd00114723f5,6691931c2c63981b064e1f0c,6691af91d17ef3c3c2635c8f,,,,,,,,,,,,,,,,,,,,,,,,,,,,,,,,,,,,,,,,,,,,,,,,,,,,,,,,,,,,873.031,879.314,-0.074074074,-0.006481481,1,0,0,0.266,compass,0,17,17,9,1,SoundStimuli/HowDoILive_LeAnnRimes_Cover5S.wav,,,,,,,,,,,,,,,,,,,,,,,,,,,,,,,,,,,,,,,,,,,,,,,,,,,,,
,,,,,051904,001,2024-07-12_15h38.05.727,experiment,2024.1.5,Win32,60.0240096,5c76616a7fafbd00114723f5,6691931c2c63981b064e1f0c,6691af91d17ef3c3c2635c8f,,,,,,,,,,,,,,,,,,,,,,,,,,,,,,,,,,,,,,,,,,,,,,,,,,,,,,,,,,,,879.315,888.264,0.159259259,-0.02962963,1,0,0,2.934,compass,0,18,18,8,1,SoundStimuli/EndlessLove_DianaRossLionelRichie_Cover5S.wav,,,,,,,,,,,,,,,,,,,,,,,,,,,,,,,,,,,,,,,,,,,,,,,,,,,,,
,,,,,051904,001,2024-07-12_15h38.05.727,experiment,2024.1.5,Win32,60.0240096,5c76616a7fafbd00114723f5,6691931c2c63981b064e1f0c,6691af91d17ef3c3c2635c8f,,,,,,,,,,,,,,,,,,,,,,,,,,,,,,,,,,,,,,,,,,,,,,,,,,,,,,,,,,,,888.265,896.448,-0.153703704,-0.072222222,1,0,0,2.166,compass,0,19,19,33,1,SoundStimuli/TheBoyIsMine_BrandyMonica_Original5S.wav,,,,,,,,,,,,,,,,,,,,,,,,,,,,,,,,,,,,,,,,,,,,,,,,,,,,,
,,,,,051904,001,2024-07-12_15h38.05.727,experiment,2024.1.5,Win32,60.0240096,5c76616a7fafbd00114723f5,6691931c2c63981b064e1f0c,6691af91d17ef3c3c2635c8f,,,,,,,,,,,,,,,,,,,,,,,,,,,,,,,,,,,,,,,,,,,,,,,,,,,,,,,,,,,,896.448,902.814,-0.175925926,-0.167592593,1,0,0,0.351,compass,0,20,20,21,1,SoundStimuli/BridgeOverTroubledWater_SimonAndGarfunkel_Original5S.wav,,,,,,,,,,,,,,,,,,,,,,,,,,,,,,,,,,,,,,,,,,,,,,,,,,,,,
,,,,,051904,001,2024-07-12_15h38.05.727,experiment,2024.1.5,Win32,60.0240096,5c76616a7fafbd00114723f5,6691931c2c63981b064e1f0c,6691af91d17ef3c3c2635c8f,,,,,,,,,,,,,,,,,,,,,,,,,,,,,,,,,,,,,,,,,,,,,,,,,,,,,,,,,,,,902.815,909.831,0.162037037,0.164814815,1,0,0,1.001,compass,0,21,21,27,1,SoundStimuli/EyeOfTheTiger_Survivor_Cover5S.wav,,,,,,,,,,,,,,,,,,,,,,,,,,,,,,,,,,,,,,,,,,,,,,,,,,,,,
,,,,,051904,001,2024-07-12_15h38.05.727,experiment,2024.1.5,Win32,60.0240096,5c76616a7fafbd00114723f5,6691931c2c63981b064e1f0c,6691af91d17ef3c3c2635c8f,,,,,,,,,,,,,,,,,,,,,,,,,,,,,,,,,,,,,,,,,,,,,,,,,,,,,,,,,,,,909.832,916.581,0.146296296,0.019444444,1,0,0,0.734,compass,0,22,22,4,1,SoundStimuli/Dreams_FleetwoodMac_Original5S.wav,,,,,,,,,,,,,,,,,,,,,,,,,,,,,,,,,,,,,,,,,,,,,,,,,,,,,
,,,,,051904,001,2024-07-12_15h38.05.727,experiment,2024.1.5,Win32,60.0240096,5c76616a7fafbd00114723f5,6691931c2c63981b064e1f0c,6691af91d17ef3c3c2635c8f,,,,,,,,,,,,,,,,,,,,,,,,,,,,,,,,,,,,,,,,,,,,,,,,,,,,,,,,,,,,916.583,923.064,-0.099074074,-0.034259259,1,0,0,0.466,compass,0,23,23,6,1,SoundStimuli/SaveYourTears_TheWeekndArianaGrande_Cover5S.wav,,,,,,,,,,,,,,,,,,,,,,,,,,,,,,,,,,,,,,,,,,,,,,,,,,,,,
,,,,,051904,001,2024-07-12_15h38.05.727,experiment,2024.1.5,Win32,60.0240096,5c76616a7fafbd00114723f5,6691931c2c63981b064e1f0c,6691af91d17ef3c3c2635c8f,,,,,,,,,,,,,,,,,,,,,,,,,,,,,,,,,,,,,,,,,,,,,,,,,,,,,,,,,,,,923.065,929.747,0.317592593,0.328703704,1,0,0,0.666,compass,0,24,24,22,1,SoundStimuli/Happy_PharellWilliams_Original5S.wav,,,,,,,,,,,,,,,,,,,,,,,,,,,,,,,,,,,,,,,,,,,,,,,,,,,,,
,,,,,051904,001,2024-07-12_15h38.05.727,experiment,2024.1.5,Win32,60.0240096,5c76616a7fafbd00114723f5,6691931c2c63981b064e1f0c,6691af91d17ef3c3c2635c8f,,,,,,,,,,,,,,,,,,,,,,,,,,,,,,,,,,,,,,,,,,,,,,,,,,,,,,,,,,,,929.748,937.647,-0.251851852,0.316666667,1,0,0,1.883,compass,0,25,25,12,1,SoundStimuli/UnbreakMyHeart_ToniBraxton_Original5S.wav,,,,,,,,,,,,,,,,,,,,,,,,,,,,,,,,,,,,,,,,,,,,,,,,,,,,,
,,,,,051904,001,2024-07-12_15h38.05.727,experiment,2024.1.5,Win32,60.0240096,5c76616a7fafbd00114723f5,6691931c2c63981b064e1f0c,6691af91d17ef3c3c2635c8f,,,,,,,,,,,,,,,,,,,,,,,,,,,,,,,,,,,,,,,,,,,,,,,,,,,,,,,,,,,,937.648,943.98,-0.002777778,0.328703704,1,0,0,0.315,compass,0,26,26,31,1,SoundStimuli/TossinAndTurnin_BobbyLewis_Original5S.wav,,,,,,,,,,,,,,,,,,,,,,,,,,,,,,,,,,,,,,,,,,,,,,,,,,,,,
,,,,,051904,001,2024-07-12_15h38.05.727,experiment,2024.1.5,Win32,60.0240096,5c76616a7fafbd00114723f5,6691931c2c63981b064e1f0c,6691af91d17ef3c3c2635c8f,,,,,,,,,,,,,,,,,,,,,,,,,,,,,,,,,,,,,,,,,,,,,,,,,,,,,,,,,,,,943.981,950.848,0.080555556,-0.131481481,1,0,0,0.866,compass,0,27,27,25,1,SoundStimuli/IllMakeLoveToYou_BoyzIIMen_Cover5S.wav,,,,,,,,,,,,,,,,,,,,,,,,,,,,,,,,,,,,,,,,,,,,,,,,,,,,,
,,,,,051904,001,2024-07-12_15h38.05.727,experiment,2024.1.5,Win32,60.0240096,5c76616a7fafbd00114723f5,6691931c2c63981b064e1f0c,6691af91d17ef3c3c2635c8f,,,,,,,,,,,,,,,,,,,,,,,,,,,,,,,,,,,,,,,,,,,,,,,,,,,,,,,,,,,,950.85,958.082,0.051851852,0.196296296,1,0,0,1.217,compass,0,28,28,0,1,SoundStimuli/GimmeShelter_RollingStones_Original5S.wav,,,,,,,,,,,,,,,,,,,,,,,,,,,,,,,,,,,,,,,,,,,,,,,,,,,,,
,,,,,051904,001,2024-07-12_15h38.05.727,experiment,2024.1.5,Win32,60.0240096,5c76616a7fafbd00114723f5,6691931c2c63981b064e1f0c,6691af91d17ef3c3c2635c8f,,,,,,,,,,,,,,,,,,,,,,,,,,,,,,,,,,,,,,,,,,,,,,,,,,,,,,,,,,,,958.082,964.781,-0.02037037,-0.02037037,1,0,0,0.684,compass,0,29,29,7,1,SoundStimuli/MackTheKnife_BobbyDarin_Cover5S.wav,,,,,,,,,,,,,,,,,,,,,,,,,,,,,,,,,,,,,,,,,,,,,,,,,,,,,
,,,,,051904,001,2024-07-12_15h38.05.727,experiment,2024.1.5,Win32,60.0240096,5c76616a7fafbd00114723f5,6691931c2c63981b064e1f0c,6691af91d17ef3c3c2635c8f,,,,,,,,,,,,,,,,,,,,,,,,,,,,,,,,,,,,,,,,,,,,,,,,,,,,,,,,,,,,964.781,972.231,0.062962963,0.242592593,1,0,0,1.45,compass,0,30,30,20,1,SoundStimuli/FlashdanceWhatAFeeling_IreneCara_Original5S.wav,,,,,,,,,,,,,,,,,,,,,,,,,,,,,,,,,,,,,,,,,,,,,,,,,,,,,
,,,,,051904,001,2024-07-12_15h38.05.727,experiment,2024.1.5,Win32,60.0240096,5c76616a7fafbd00114723f5,6691931c2c63981b064e1f0c,6691af91d17ef3c3c2635c8f,,,,,,,,,,,,,,,,,,,,,,,,,,,,,,,,,,,,,,,,,,,,,,,,,,,,,,,,,,,,972.232,978.265,0.225925926,0.337962963,1,0,0,0.016,compass,0,31,31,10,1,SoundStimuli/LeFreak_Chic_Cover5S.wav,,,,,,,,,,,,,,,,,,,,,,,,,,,,,,,,,,,,,,,,,,,,,,,,,,,,,
,,,,,051904,001,2024-07-12_15h38.05.727,experiment,2024.1.5,Win32,60.0240096,5c76616a7fafbd00114723f5,6691931c2c63981b064e1f0c,6691af91d17ef3c3c2635c8f,,,,,,,,,,,,,,,,,,,,,,,,,,,,,,,,,,,,,,,,,,,,,,,,,,,,,,,,,,,,978.266,986.015,0.149074074,0.246296296,1,0,0,1.734,compass,0,32,32,13,1,SoundStimuli/Perfect_EdSheeran_Cover5S.wav,,,,,,,,,,,,,,,,,,,,,,,,,,,,,,,,,,,,,,,,,,,,,,,,,,,,,
,,,,,051904,001,2024-07-12_15h38.05.727,experiment,2024.1.5,Win32,60.0240096,5c76616a7fafbd00114723f5,6691931c2c63981b064e1f0c,6691af91d17ef3c3c2635c8f,,,,,,,,,,,,,,,,,,,,,,,,,,,,,,,,,,,,,,,,,,,,,,,,,,,,,,,,,,,,986.017,992.414,0.172222222,0.337962963,1,0,0,0.383,compass,0,33,33,26,1,SoundStimuli/TheSign_AceOfBase_Cover5S.wav,,,,,,,,,,,,,,,,,,,,,,,,,,,,,,,,,,,,,,,,,,,,,,,,,,,,,
,,,,,051904,001,2024-07-12_15h38.05.727,experiment,2024.1.5,Win32,60.0240096,5c76616a7fafbd00114723f5,6691931c2c63981b064e1f0c,6691af91d17ef3c3c2635c8f,,,,,,,,,,,,,,,,,,,,,,,,,,,,,,,,,,,,,,,,,,,,,,,,,,,,,,,,,,,,992.415,999.581,0.121296296,0.025,1,0,0,1.15,compass,0,34,34,29,1,SoundStimuli/BetteDavisEyes_KimCarnes_Original5S.wav,,,,,,,,,,,,,,,,,,,,,,,,,,,,,,,,,,,,,,,,,,,,,,,,,,,,,
,,,,,051904,001,2024-07-12_15h38.05.727,experiment,2024.1.5,Win32,60.0240096,5c76616a7fafbd00114723f5,6691931c2c63981b064e1f0c,6691af91d17ef3c3c2635c8f,,,,,,,,,,,,,,,,,,,,,,,,,,,,,,,,,,,,,,,,,,,,,,,,,,,,,,,,,,,,,,,,,,,,,,,,,,,999.581,1057.532,space,57.931,,1057.532,1078.999,right,21.444,,0,2,2,2,1,block_order/blockD.xlsx,,,,,,,,,,,,,,,,,,,,,,,,,,,,,,,,,,,,,
,,,,,051904,001,2024-07-12_15h38.05.727,experiment,2024.1.5,Win32,60.0240096,5c76616a7fafbd00114723f5,6691931c2c63981b064e1f0c,6691af91d17ef3c3c2635c8f,,,,,,,,,,,,,,,,,,,,,,,,,,,,,,,,,,,,,,,,,,,,,,,,,,,,,,,,,,,,1079.009,1085.565,0.008333333,0.333333333,1,0,0,0.55,compass,0,0,0,21,1,SoundStimuli/GoodGollyMissMolly_LittleRichard_Original5S.wav,,,,,,,,,,,,,,,,,,,,,,,,,,,,,,,,,,,,,,,,,,,,,,,,,,,,,
,,,,,051904,001,2024-07-12_15h38.05.727,experiment,2024.1.5,Win32,60.0240096,5c76616a7fafbd00114723f5,6691931c2c63981b064e1f0c,6691af91d17ef3c3c2635c8f,,,,,,,,,,,,,,,,,,,,,,,,,,,,,,,,,,,,,,,,,,,,,,,,,,,,,,,,,,,,1085.566,1091.998,0.197222222,0.305555556,1,0,0,0.416,compass,0,1,1,15,1,SoundStimuli/TikTok_Kesha_Original5S.wav,,,,,,,,,,,,,,,,,,,,,,,,,,,,,,,,,,,,,,,,,,,,,,,,,,,,,
,,,,,051904,001,2024-07-12_15h38.05.727,experiment,2024.1.5,Win32,60.0240096,5c76616a7fafbd00114723f5,6691931c2c63981b064e1f0c,6691af91d17ef3c3c2635c8f,,,,,,,,,,,,,,,,,,,,,,,,,,,,,,,,,,,,,,,,,,,,,,,,,,,,,,,,,,,,1091.999,1099.182,-0.042592593,0.198148148,1,0,0,1.167,compass,0,2,2,11,1,SoundStimuli/Superstition_StevieWonder_Original5S.wav,,,,,,,,,,,,,,,,,,,,,,,,,,,,,,,,,,,,,,,,,,,,,,,,,,,,,
,,,,,051904,001,2024-07-12_15h38.05.727,experiment,2024.1.5,Win32,60.0240096,5c76616a7fafbd00114723f5,6691931c2c63981b064e1f0c,6691af91d17ef3c3c2635c8f,,,,,,,,,,,,,,,,,,,,,,,,,,,,,,,,,,,,,,,,,,,,,,,,,,,,,,,,,,,,1099.182,1105.515,0.092592593,0.077777778,1,0,0,0.332,compass,0,3,3,17,1,SoundStimuli/Fallin_AliciaKeys_Cover5S.wav,,,,,,,,,,,,,,,,,,,,,,,,,,,,,,,,,,,,,,,,,,,,,,,,,,,,,
,,,,,051904,001,2024-07-12_15h38.05.727,experiment,2024.1.5,Win32,60.0240096,5c76616a7fafbd00114723f5,6691931c2c63981b064e1f0c,6691af91d17ef3c3c2635c8f,,,,,,,,,,,,,,,,,,,,,,,,,,,,,,,,,,,,,,,,,,,,,,,,,,,,,,,,,,,,1105.515,1113.032,0,0.001851852,1,0,0,1.517,compass,0,4,4,1,1,SoundStimuli/Stronger_KanyeWest_Cover5S.wav,,,,,,,,,,,,,,,,,,,,,,,,,,,,,,,,,,,,,,,,,,,,,,,,,,,,,
,,,,,051904,001,2024-07-12_15h38.05.727,experiment,2024.1.5,Win32,60.0240096,5c76616a7fafbd00114723f5,6691931c2c63981b064e1f0c,6691af91d17ef3c3c2635c8f,,,,,,,,,,,,,,,,,,,,,,,,,,,,,,,,,,,,,,,,,,,,,,,,,,,,,,,,,,,,1113.033,1120.916,-0.10462963,0.190740741,1,0,0,1.866,compass,0,5,5,16,1,SoundStimuli/BohemianRhapsody_Queen_Cover5S.wav,,,,,,,,,,,,,,,,,,,,,,,,,,,,,,,,,,,,,,,,,,,,,,,,,,,,,
,,,,,051904,001,2024-07-12_15h38.05.727,experiment,2024.1.5,Win32,60.0240096,5c76616a7fafbd00114723f5,6691931c2c63981b064e1f0c,6691af91d17ef3c3c2635c8f,,,,,,,,,,,,,,,,,,,,,,,,,,,,,,,,,,,,,,,,,,,,,,,,,,,,,,,,,,,,1120.918,1127.215,-0.071296296,-0.103703704,1,0,0,0.284,compass,0,6,6,33,1,SoundStimuli/StandByMe_BenEKing_Original5S.wav,,,,,,,,,,,,,,,,,,,,,,,,,,,,,,,,,,,,,,,,,,,,,,,,,,,,,
,,,,,051904,001,2024-07-12_15h38.05.727,experiment,2024.1.5,Win32,60.0240096,5c76616a7fafbd00114723f5,6691931c2c63981b064e1f0c,6691af91d17ef3c3c2635c8f,,,,,,,,,,,,,,,,,,,,,,,,,,,,,,,,,,,,,,,,,,,,,,,,,,,,,,,,,,,,1127.216,1133.865,0.086111111,0.327777778,1,0,0,0.633,compass,0,7,7,26,1,SoundStimuli/LivinOnAPrayer_BonJovi_Original5S.wav,,,,,,,,,,,,,,,,,,,,,,,,,,,,,,,,,,,,,,,,,,,,,,,,,,,,,
,,,,,051904,001,2024-07-12_15h38.05.727,experiment,2024.1.5,Win32,60.0240096,5c76616a7fafbd00114723f5,6691931c2c63981b064e1f0c,6691af91d17ef3c3c2635c8f,,,,,,,,,,,,,,,,,,,,,,,,,,,,,,,,,,,,,,,,,,,,,,,,,,,,,,,,,,,,1133.866,1140.332,0.080555556,0.227777778,1,0,0,0.466,compass,0,8,8,0,1,SoundStimuli/StayinAlive_BeeGees_Cover5S.wav,,,,,,,,,,,,,,,,,,,,,,,,,,,,,,,,,,,,,,,,,,,,,,,,,,,,,
,,,,,051904,001,2024-07-12_15h38.05.727,experiment,2024.1.5,Win32,60.0240096,5c76616a7fafbd00114723f5,6691931c2c63981b064e1f0c,6691af91d17ef3c3c2635c8f,,,,,,,,,,,,,,,,,,,,,,,,,,,,,,,,,,,,,,,,,,,,,,,,,,,,,,,,,,,,1140.333,1148.315,-0.00462963,0.148148148,1,0,0,1.966,compass,0,9,9,34,1,SoundStimuli/AChangeIsGonnaCome_SamCooke_Original5S.wav,,,,,,,,,,,,,,,,,,,,,,,,,,,,,,,,,,,,,,,,,,,,,,,,,,,,,
,,,,,051904,001,2024-07-12_15h38.05.727,experiment,2024.1.5,Win32,60.0240096,5c76616a7fafbd00114723f5,6691931c2c63981b064e1f0c,6691af91d17ef3c3c2635c8f,,,,,,,,,,,,,,,,,,,,,,,,,,,,,,,,,,,,,,,,,,,,,,,,,,,,,,,,,,,,1148.316,1154.916,0.000925926,0.063888889,1,0,0,0.584,compass,0,10,10,29,1,SoundStimuli/OldTownRoad_LilNasX_Cover5S.wav,,,,,,,,,,,,,,,,,,,,,,,,,,,,,,,,,,,,,,,,,,,,,,,,,,,,,
,,,,,051904,001,2024-07-12_15h38.05.727,experiment,2024.1.5,Win32,60.0240096,5c76616a7fafbd00114723f5,6691931c2c63981b064e1f0c,6691af91d17ef3c3c2635c8f,,,,,,,,,,,,,,,,,,,,,,,,,,,,,,,,,,,,,,,,,,,,,,,,,,,,,,,,,,,,1154.917,1161.548,0.148148148,0.197222222,1,0,0,0.617,compass,0,11,11,24,1,SoundStimuli/UptownFunk_MarkRonson_Cover5S.wav,,,,,,,,,,,,,,,,,,,,,,,,,,,,,,,,,,,,,,,,,,,,,,,,,,,,,
,,,,,051904,001,2024-07-12_15h38.05.727,experiment,2024.1.5,Win32,60.0240096,5c76616a7fafbd00114723f5,6691931c2c63981b064e1f0c,6691af91d17ef3c3c2635c8f,,,,,,,,,,,,,,,,,,,,,,,,,,,,,,,,,,,,,,,,,,,,,,,,,,,,,,,,,,,,1161.549,1167.981,0.076851852,0.123148148,1,0,0,0.432,compass,0,12,12,14,1,SoundStimuli/BlindingLights_TheWeeknd_Cover5S.wav,,,,,,,,,,,,,,,,,,,,,,,,,,,,,,,,,,,,,,,,,,,,,,,,,,,,,
,,,,,051904,001,2024-07-12_15h38.05.727,experiment,2024.1.5,Win32,60.0240096,5c76616a7fafbd00114723f5,6691931c2c63981b064e1f0c,6691af91d17ef3c3c2635c8f,,,,,,,,,,,,,,,,,,,,,,,,,,,,,,,,,,,,,,,,,,,,,,,,,,,,,,,,,,,,1167.982,1174.298,0.274074074,0.22037037,1,0,0,0.315,compass,0,13,13,20,1,SoundStimuli/HeyYa_Outkast_Original5S.wav,,,,,,,,,,,,,,,,,,,,,,,,,,,,,,,,,,,,,,,,,,,,,,,,,,,,,
,,,,,051904,001,2024-07-12_15h38.05.727,experiment,2024.1.5,Win32,60.0240096,5c76616a7fafbd00114723f5,6691931c2c63981b064e1f0c,6691af91d17ef3c3c2635c8f,,,,,,,,,,,,,,,,,,,,,,,,,,,,,,,,,,,,,,,,,,,,,,,,,,,,,,,,,,,,1174.299,1181.215,0.025,0.255555556,1,0,0,0.899,compass,0,14,14,2,1,SoundStimuli/Mood_24kGoldnianndior_Original5S.wav,,,,,,,,,,,,,,,,,,,,,,,,,,,,,,,,,,,,,,,,,,,,,,,,,,,,,
,,,,,051904,001,2024-07-12_15h38.05.727,experiment,2024.1.5,Win32,60.0240096,5c76616a7fafbd00114723f5,6691931c2c63981b064e1f0c,6691af91d17ef3c3c2635c8f,,,,,,,,,,,,,,,,,,,,,,,,,,,,,,,,,,,,,,,,,,,,,,,,,,,,,,,,,,,,1181.216,1188.316,0.025925926,0.094444444,1,0,0,1.098,compass,0,15,15,27,1,SoundStimuli/ShapeofYou_EdSheeran_Cover5S.wav,,,,,,,,,,,,,,,,,,,,,,,,,,,,,,,,,,,,,,,,,,,,,,,,,,,,,
,,,,,051904,001,2024-07-12_15h38.05.727,experiment,2024.1.5,Win32,60.0240096,5c76616a7fafbd00114723f5,6691931c2c63981b064e1f0c,6691af91d17ef3c3c2635c8f,,,,,,,,,,,,,,,,,,,,,,,,,,,,,,,,,,,,,,,,,,,,,,,,,,,,,,,,,,,,1188.317,1195.232,0.117592593,0.161111111,1,0,0,0.9,compass,0,16,16,9,1,SoundStimuli/Despacito_LuisFonsiDaddyYankee_Original5S.wav,,,,,,,,,,,,,,,,,,,,,,,,,,,,,,,,,,,,,,,,,,,,,,,,,,,,,
,,,,,051904,001,2024-07-12_15h38.05.727,experiment,2024.1.5,Win32,60.0240096,5c76616a7fafbd00114723f5,6691931c2c63981b064e1f0c,6691af91d17ef3c3c2635c8f,,,,,,,,,,,,,,,,,,,,,,,,,,,,,,,,,,,,,,,,,,,,,,,,,,,,,,,,,,,,1195.233,1201.799,0.20462963,0.114814815,1,0,0,0.55,compass,0,17,17,32,1,SoundStimuli/HeatWaves_GlassAnimals_Cover5S.wav,,,,,,,,,,,,,,,,,,,,,,,,,,,,,,,,,,,,,,,,,,,,,,,,,,,,,
,,,,,051904,001,2024-07-12_15h38.05.727,experiment,2024.1.5,Win32,60.0240096,5c76616a7fafbd00114723f5,6691931c2c63981b064e1f0c,6691af91d17ef3c3c2635c8f,,,,,,,,,,,,,,,,,,,,,,,,,,,,,,,,,,,,,,,,,,,,,,,,,,,,,,,,,,,,1201.799,1208.165,-0.140740741,0.037962963,1,0,0,0.35,compass,0,18,18,3,1,SoundStimuli/NoScrubs_TLC_Cover5S.wav,,,,,,,,,,,,,,,,,,,,,,,,,,,,,,,,,,,,,,,,,,,,,,,,,,,,,
,,,,,051904,001,2024-07-12_15h38.05.727,experiment,2024.1.5,Win32,60.0240096,5c76616a7fafbd00114723f5,6691931c2c63981b064e1f0c,6691af91d17ef3c3c2635c8f,,,,,,,,,,,,,,,,,,,,,,,,,,,,,,,,,,,,,,,,,,,,,,,,,,,,,,,,,,,,1208.165,1214.782,0.123148148,0.148148148,1,0,0,0.616,compass,0,19,19,4,1,SoundStimuli/GetUrFreakOn_MissyElliot_Cover5S.wav,,,,,,,,,,,,,,,,,,,,,,,,,,,,,,,,,,,,,,,,,,,,,,,,,,,,,
,,,,,051904,001,2024-07-12_15h38.05.727,experiment,2024.1.5,Win32,60.0240096,5c76616a7fafbd00114723f5,6691931c2c63981b064e1f0c,6691af91d17ef3c3c2635c8f,,,,,,,,,,,,,,,,,,,,,,,,,,,,,,,,,,,,,,,,,,,,,,,,,,,,,,,,,,,,1214.782,1229.066,-0.055555556,0.20462963,1,0,0,8.282,compass,0,20,20,23,1,SoundStimuli/StrawberryFieldsForever_TheBeatles_Cover5S.wav,,,,,,,,,,,,,,,,,,,,,,,,,,,,,,,,,,,,,,,,,,,,,,,,,,,,,
,,,,,051904,001,2024-07-12_15h38.05.727,experiment,2024.1.5,Win32,60.0240096,5c76616a7fafbd00114723f5,6691931c2c63981b064e1f0c,6691af91d17ef3c3c2635c8f,,,,,,,,,,,,,,,,,,,,,,,,,,,,,,,,,,,,,,,,,,,,,,,,,,,,,,,,,,,,1229.067,1236.366,0.127777778,0.087037037,1,0,0,1.284,compass,0,21,21,5,1,SoundStimuli/MyGirl_TheTemptations_Cover5S.wav,,,,,,,,,,,,,,,,,,,,,,,,,,,,,,,,,,,,,,,,,,,,,,,,,,,,,
,,,,,051904,001,2024-07-12_15h38.05.727,experiment,2024.1.5,Win32,60.0240096,5c76616a7fafbd00114723f5,6691931c2c63981b064e1f0c,6691af91d17ef3c3c2635c8f,,,,,,,,,,,,,,,,,,,,,,,,,,,,,,,,,,,,,,,,,,,,,,,,,,,,,,,,,,,,1236.367,1244.133,0.001851852,0.276851852,1,0,0,1.751,compass,0,22,22,25,1,SoundStimuli/Respect_ArethaFranklin_Cover5S.wav,,,,,,,,,,,,,,,,,,,,,,,,,,,,,,,,,,,,,,,,,,,,,,,,,,,,,
,,,,,051904,001,2024-07-12_15h38.05.727,experiment,2024.1.5,Win32,60.0240096,5c76616a7fafbd00114723f5,6691931c2c63981b064e1f0c,6691af91d17ef3c3c2635c8f,,,,,,,,,,,,,,,,,,,,,,,,,,,,,,,,,,,,,,,,,,,,,,,,,,,,,,,,,,,,1244.133,1252.833,-0.15462963,0.04537037,1,0,0,2.699,compass,0,23,23,13,1,SoundStimuli/GodOnlyKnows_TheBeachBoys_Original5S.wav,,,,,,,,,,,,,,,,,,,,,,,,,,,,,,,,,,,,,,,,,,,,,,,,,,,,,
,,,,,051904,001,2024-07-12_15h38.05.727,experiment,2024.1.5,Win32,60.0240096,5c76616a7fafbd00114723f5,6691931c2c63981b064e1f0c,6691af91d17ef3c3c2635c8f,,,,,,,,,,,,,,,,,,,,,,,,,,,,,,,,,,,,,,,,,,,,,,,,,,,,,,,,,,,,1252.834,1259.632,-0.041666667,0.237037037,1,0,0,0.783,compass,0,24,24,30,1,SoundStimuli/PokerFace_LadyGaga_Cover5S.wav,,,,,,,,,,,,,,,,,,,,,,,,,,,,,,,,,,,,,,,,,,,,,,,,,,,,,
,,,,,051904,001,2024-07-12_15h38.05.727,experiment,2024.1.5,Win32,60.0240096,5c76616a7fafbd00114723f5,6691931c2c63981b064e1f0c,6691af91d17ef3c3c2635c8f,,,,,,,,,,,,,,,,,,,,,,,,,,,,,,,,,,,,,,,,,,,,,,,,,,,,,,,,,,,,1259.634,1267.266,-0.062037037,-0.14537037,1,0,0,1.617,compass,0,25,25,18,1,SoundStimuli/AnotherOneBitesTheDust_Queen_Cover5S.wav,,,,,,,,,,,,,,,,,,,,,,,,,,,,,,,,,,,,,,,,,,,,,,,,,,,,,
,,,,,051904,001,2024-07-12_15h38.05.727,experiment,2024.1.5,Win32,60.0240096,5c76616a7fafbd00114723f5,6691931c2c63981b064e1f0c,6691af91d17ef3c3c2635c8f,,,,,,,,,,,,,,,,,,,,,,,,,,,,,,,,,,,,,,,,,,,,,,,,,,,,,,,,,,,,1267.267,1275.999,0.122222222,0.191666667,1,0,0,2.716,compass,0,26,26,8,1,SoundStimuli/LikeAPrayer_Madonna_Cover5S.wav,,,,,,,,,,,,,,,,,,,,,,,,,,,,,,,,,,,,,,,,,,,,,,,,,,,,,
,,,,,051904,001,2024-07-12_15h38.05.727,experiment,2024.1.5,Win32,60.0240096,5c76616a7fafbd00114723f5,6691931c2c63981b064e1f0c,6691af91d17ef3c3c2635c8f,,,,,,,,,,,,,,,,,,,,,,,,,,,,,,,,,,,,,,,,,,,,,,,,,,,,,,,,,,,,1276,1282.999,-0.037037037,0.257407407,1,0,0,0.983,compass,0,27,27,12,1,SoundStimuli/IWillAlwaysLoveYou_WhitneyHouston_Original5S.wav,,,,,,,,,,,,,,,,,,,,,,,,,,,,,,,,,,,,,,,,,,,,,,,,,,,,,
,,,,,051904,001,2024-07-12_15h38.05.727,experiment,2024.1.5,Win32,60.0240096,5c76616a7fafbd00114723f5,6691931c2c63981b064e1f0c,6691af91d17ef3c3c2635c8f,,,,,,,,,,,,,,,,,,,,,,,,,,,,,,,,,,,,,,,,,,,,,,,,,,,,,,,,,,,,1282.999,1289.601,0.264814815,0.07037037,1,0,0,0.6,compass,0,28,28,19,1,SoundStimuli/LetsGetItOn_MarvinGaye_Original5S.wav,,,,,,,,,,,,,,,,,,,,,,,,,,,,,,,,,,,,,,,,,,,,,,,,,,,,,
,,,,,051904,001,2024-07-12_15h38.05.727,experiment,2024.1.5,Win32,60.0240096,5c76616a7fafbd00114723f5,6691931c2c63981b064e1f0c,6691af91d17ef3c3c2635c8f,,,,,,,,,,,,,,,,,,,,,,,,,,,,,,,,,,,,,,,,,,,,,,,,,,,,,,,,,,,,1289.602,1297.216,0.077777778,0.053703704,1,0,0,1.599,compass,0,29,29,28,1,SoundStimuli/ComeAndGetYourLove_Redbone_Cover5S.wav,,,,,,,,,,,,,,,,,,,,,,,,,,,,,,,,,,,,,,,,,,,,,,,,,,,,,
,,,,,051904,001,2024-07-12_15h38.05.727,experiment,2024.1.5,Win32,60.0240096,5c76616a7fafbd00114723f5,6691931c2c63981b064e1f0c,6691af91d17ef3c3c2635c8f,,,,,,,,,,,,,,,,,,,,,,,,,,,,,,,,,,,,,,,,,,,,,,,,,,,,,,,,,,,,1297.216,1305.649,-0.133333333,0.193518519,1,0,0,2.433,compass,0,30,30,7,1,SoundStimuli/NoOne_AliciaKeys_Original5S.wav,,,,,,,,,,,,,,,,,,,,,,,,,,,,,,,,,,,,,,,,,,,,,,,,,,,,,
,,,,,051904,001,2024-07-12_15h38.05.727,experiment,2024.1.5,Win32,60.0240096,5c76616a7fafbd00114723f5,6691931c2c63981b064e1f0c,6691af91d17ef3c3c2635c8f,,,,,,,,,,,,,,,,,,,,,,,,,,,,,,,,,,,,,,,,,,,,,,,,,,,,,,,,,,,,1305.649,1312.65,0.133333333,0.162037037,1,0,0,1.001,compass,0,31,31,22,1,SoundStimuli/RockWithYou_MichaelJackson_Cover5S.wav,,,,,,,,,,,,,,,,,,,,,,,,,,,,,,,,,,,,,,,,,,,,,,,,,,,,,
,,,,,051904,001,2024-07-12_15h38.05.727,experiment,2024.1.5,Win32,60.0240096,5c76616a7fafbd00114723f5,6691931c2c63981b064e1f0c,6691af91d17ef3c3c2635c8f,,,,,,,,,,,,,,,,,,,,,,,,,,,,,,,,,,,,,,,,,,,,,,,,,,,,,,,,,,,,1312.65,1319.066,0.162037037,0.253703704,1,0,0,0.416,compass,0,32,32,6,1,SoundStimuli/Levitating_DuaLipa_Original5S.wav,,,,,,,,,,,,,,,,,,,,,,,,,,,,,,,,,,,,,,,,,,,,,,,,,,,,,
,,,,,051904,001,2024-07-12_15h38.05.727,experiment,2024.1.5,Win32,60.0240096,5c76616a7fafbd00114723f5,6691931c2c63981b064e1f0c,6691af91d17ef3c3c2635c8f,,,,,,,,,,,,,,,,,,,,,,,,,,,,,,,,,,,,,,,,,,,,,,,,,,,,,,,,,,,,1319.067,1325.616,-0.137962963,0.022222222,1,0,0,0.534,compass,0,33,33,10,1,SoundStimuli/BadDay_DanielPowter_Original5S.wav,,,,,,,,,,,,,,,,,,,,,,,,,,,,,,,,,,,,,,,,,,,,,,,,,,,,,
,,,,,051904,001,2024-07-12_15h38.05.727,experiment,2024.1.5,Win32,60.0240096,5c76616a7fafbd00114723f5,6691931c2c63981b064e1f0c,6691af91d17ef3c3c2635c8f,,,,,,,,,,,,,,,,,,,,,,,,,,,,,,,,,,,,,,,,,,,,,,,,,,,,,,,,,,,,1325.618,1331.983,0.044444444,0.221296296,1,0,0,0.351,compass,0,34,34,31,1,SoundStimuli/TheBattleOfNewOrleans_JohnnyHorton_Original5S.wav,,,,,,,,,,,,,,,,,,,,,,,,,,,,,,,,,,,,,,,,,,,,,,,,,,,,,
,,,,,051904,001,2024-07-12_15h38.05.727,experiment,2024.1.5,Win32,60.0240096,5c76616a7fafbd00114723f5,6691931c2c63981b064e1f0c,6691af91d17ef3c3c2635c8f,,,,,,,,,,,,,,,,,,,,,,,,,,,,,,,,,,,,,,,,,,,,,,,,,,,,,,,,,,,,,,,,,,,,,,,,,,,1331.983,1331.984,,,,1331.984,1331.984,,,,0,3,3,3,1,block_order/blockC.xlsx,,,,,,,,,,,,,,,,,,,,,,,,,,,,,,,,,,,,,
,,,,,051904,001,2024-07-12_15h38.05.727,experiment,2024.1.5,Win32,60.0240096,5c76616a7fafbd00114723f5,6691931c2c63981b064e1f0c,6691af91d17ef3c3c2635c8f,,,,,,,,,,,,,,,,,,,,,,,,,,,,,,,,,,,,,,,,,,,,,,,,,,,,,,,,,,,,,,,,,,,,,,,,,,,,,,,,,,,,,,,,,,,25,Item 2,Sing solo and in choir settings my whole life. Played violin for a year.,Item 4,Youtube and Spotify,2,6,"Doing chores, working out, playing games",Sometimes,Sometimes,Often,Rarely,Sometimes,Sometimes,Rarely,Always,Rarely,Rarely,Rarely,Rarely,Always,Sometimes,Rarely,Rarely,Kpop,EDM,Pop,Indie,"Most of my music listening is done when I'm working out. I rarely listen to music when I play games since I like to enjoy the original score as well. When I discover a song or album I really like, I'll have it on repeat for up to a month.","I rarely listened to music intentionally. I usually listened to the radio, but otherwise, listening to music was not an activity in itself for me. However, once I started tracking my music listening, I realized that I enjoyed seeking out new artists and genres to listen to.",0,0,0,0,1,,
,,,,,051904,001,2024-07-12_15h38.05.727,experiment,2024.1.5,Win32,60.0240096,5c76616a7fafbd00114723f5,6691931c2c63981b064e1f0c,6691af91d17ef3c3c2635c8f,,,,,,,,,,,,,,,,,,,,,,,,,,,,,,,,,,,,,,,,,,,,,,,,,,,,,,,,,,,,,,,,,,,,,,,,,,,,,,,,,,,,,,,,,,,,,,,,,,,,,,,,,,,,,,,,,,,,,,,,,,,,,,1860.715,1863.069
