welcome.started,welcome.stopped,space_to_continue.keys,space_to_continue.rt,space_to_continue.duration,participant,session,date,expName,psychopyVersion,OS,frameRate,PROLIFIC_PID,STUDY_ID,SESSION_ID,consent.consent,consent.consent_recontact,consent_check.started,consent_check.stopped,calibration_ready.started,calibration_ready.stopped,cal_ready.keys,cal_ready.rt,cal_ready.duration,calibration.started,calibration.stopped,mouse.x,mouse.y,mouse.leftButton,mouse.midButton,mouse.rightButton,mouse.time,mouse.clicked_name,move_on.keys,move_on.rt,move_on.duration,run_cal.thisRepN,run_cal.thisTrialN,run_cal.thisN,run_cal.thisIndex,run_cal.ran,emotion_training_ready.started,emotion_training_ready.stopped,training_move_on.keys,training_move_on.rt,training_move_on.duration,examples.started,examples.stopped,emotion_scale.started,emotion_scale.stopped,scale_next.keys,scale_next.rt,scale_next.duration,instructions.started,instructions.stopped,next.keys,next.rt,next.duration,practice_task.started,practice_task.stopped,mouse_rating_2.x,mouse_rating_2.y,mouse_rating_2.leftButton,mouse_rating_2.midButton,mouse_rating_2.rightButton,mouse_rating_2.time,mouse_rating_2.clicked_name,ready.started,ready.stopped,key_resp.keys,key_resp.rt,key_resp.duration,set_group.started,set_group.stopped,task.started,task.stopped,mouse_rating.x,mouse_rating.y,mouse_rating.leftButton,mouse_rating.midButton,mouse_rating.rightButton,mouse_rating.time,mouse_rating.clicked_name,trials.thisRepN,trials.thisTrialN,trials.thisN,trials.thisIndex,trials.ran,clip,short_break.started,short_break.stopped,space_to_move_on.keys,space_to_move_on.rt,space_to_move_on.duration,instruction_reminder.started,instruction_reminder.stopped,reminder_move_on.keys,reminder_move_on.rt,reminder_move_on.duration,blocks.thisRepN,blocks.thisTrialN,blocks.thisN,blocks.thisIndex,blocks.ran,block,post_survey.age,post_survey.musician,post_survey.music_making,post_survey.listen_time,post_survey.medium,post_survey.music_seeking,post_survey.music_choice,post_survey.activities,post_survey.question1.Metal,post_survey.question1.Classic rock,post_survey.question1.Reggae,post_survey.question1.Classical,post_survey.question1.Alternative rock,post_survey.question1.Folk/indie,post_survey.question1.Country,post_survey.question1.Pop,post_survey.question1.Disco,post_survey.question1.A cappella,post_survey.question1.Electronic (EDM),post_survey.question1.Hip hop,post_survey.question1.Ambient,post_survey.question1.Jazz,post_survey.question1.R&B,post_survey.question1.Latin,post_survey.genres_ranked.text1,post_survey.genres_ranked.text2,post_survey.genres_ranked.text3,post_survey.habit_change,show_exp.thisRepN,show_exp.thisTrialN,show_exp.thisN,show_exp.thisIndex,show_exp.ran,goodbye.started,goodbye.stopped
0,1.166,space,1.146,,128549,001,2024-07-12_19h01.24.612,experiment,2024.1.5,MacIntel,58.82352941,664576e027348efebb4dc5ac,6691931c2c63981b064e1f0c,6691b5adc411bda01c7fb378,,,,,,,,,,,,,,,,,,,,,,,,,,,,,,,,,,,,,,,,,,,,,,,,,,,,,,,,,,,,,,,,,,,,,,,,,,,,,,,,,,,,,,,,,,,,,,,,,,,,,,,,,,,,,,,,,,,,,,,,,,,,,
,,,,,128549,001,2024-07-12_19h01.24.612,experiment,2024.1.5,MacIntel,58.82352941,664576e027348efebb4dc5ac,6691931c2c63981b064e1f0c,6691b5adc411bda01c7fb378,yes,yes,,,,,,,,,,,,,,,,,,,,,,,,,,,,,,,,,,,,,,,,,,,,,,,,,,,,,,,,,,,,,,,,,,,,,,,,,,,,,,,,,,,,,,,,,,,,,,,,,,,,,,,,,,,,,,,,,,,,,,,,,,,
,,,,,128549,001,2024-07-12_19h01.24.612,experiment,2024.1.5,MacIntel,58.82352941,664576e027348efebb4dc5ac,6691931c2c63981b064e1f0c,6691b5adc411bda01c7fb378,,,10.673,10.673,,,,,,,,,,,,,,,,,,,,,,,,,,,,,,,,,,,,,,,,,,,,,,,,,,,,,,,,,,,,,,,,,,,,,,,,,,,,,,,,,,,,,,,,,,,,,,,,,,,,,,,,,,,,,,,,,,,,,,,,,
,,,,,128549,001,2024-07-12_19h01.24.612,experiment,2024.1.5,MacIntel,58.82352941,664576e027348efebb4dc5ac,6691931c2c63981b064e1f0c,6691b5adc411bda01c7fb378,,,,,10.676,16.684,space,5.985,,16.685,45.734,"[-0.016826923076923076,-0.014423076923076924]","[-0.40024038461538464,-0.4206730769230769]","[1,1]","[0,0]","[0,0]","[9.278000000000002,14.151000000000007]","[""play_button""]",y,28.019,,0,0,0,0,1,,,,,,,,,,,,,,,,,,,,,,,,,,,,,,,,,,,,,,,,,,,,,,,,,,,,,,,,,,,,,,,,,,,,,,,,,,,,,,,,,,,,,,,,,,,,,,,,,,,
,,,,,128549,001,2024-07-12_19h01.24.612,experiment,2024.1.5,MacIntel,58.82352941,664576e027348efebb4dc5ac,6691931c2c63981b064e1f0c,6691b5adc411bda01c7fb378,,,,,,,,,,,,,,,,,,,,,,,,,,,45.736,68.065,space,22.284,,68.066,188.08,188.082,194.671,right,3.046,,194.671,200.452,space,5.737,,200.452,216.387,0.257211538,-0.332932692,1,0,0,6.916,compass_2,216.387,217.778,space,1.365,,217.778,217.778,217.805,224.595,-0.168269231,-0.212740385,1,0,0,0.785,compass,0,0,0,10,1,SoundStimuli/BadDay_DanielPowter_Cover5S.wav,,,,,,,,,,,,,,,,,,,,,,,,,,,,,,,,,,,,,,,,,,,,,,,,,,,
,,,,,128549,001,2024-07-12_19h01.24.612,experiment,2024.1.5,MacIntel,58.82352941,664576e027348efebb4dc5ac,6691931c2c63981b064e1f0c,6691b5adc411bda01c7fb378,,,,,,,,,,,,,,,,,,,,,,,,,,,,,,,,,,,,,,,,,,,,,,,,,,,,,,,,,,,,224.595,231.801,0.165865385,-0.225961538,1,0,0,1.19,compass,0,1,1,20,1,SoundStimuli/HeyYa_Outkast_Cover5S.wav,,,,,,,,,,,,,,,,,,,,,,,,,,,,,,,,,,,,,,,,,,,,,,,,,,,
,,,,,128549,001,2024-07-12_19h01.24.612,experiment,2024.1.5,MacIntel,58.82352941,664576e027348efebb4dc5ac,6691931c2c63981b064e1f0c,6691b5adc411bda01c7fb378,,,,,,,,,,,,,,,,,,,,,,,,,,,,,,,,,,,,,,,,,,,,,,,,,,,,,,,,,,,,231.802,238.952,0.174278846,0.170673077,1,0,0,1.149,compass,0,2,2,32,1,SoundStimuli/HeatWaves_GlassAnimals_Original5S.wav,,,,,,,,,,,,,,,,,,,,,,,,,,,,,,,,,,,,,,,,,,,,,,,,,,,
,,,,,128549,001,2024-07-12_19h01.24.612,experiment,2024.1.5,MacIntel,58.82352941,664576e027348efebb4dc5ac,6691931c2c63981b064e1f0c,6691b5adc411bda01c7fb378,,,,,,,,,,,,,,,,,,,,,,,,,,,,,,,,,,,,,,,,,,,,,,,,,,,,,,,,,,,,238.952,245.544,0.174278846,0.170673077,1,0,0,0.589,compass,0,3,3,14,1,SoundStimuli/BlindingLights_TheWeeknd_Original5S.wav,,,,,,,,,,,,,,,,,,,,,,,,,,,,,,,,,,,,,,,,,,,,,,,,,,,
,,,,,128549,001,2024-07-12_19h01.24.612,experiment,2024.1.5,MacIntel,58.82352941,664576e027348efebb4dc5ac,6691931c2c63981b064e1f0c,6691b5adc411bda01c7fb378,,,,,,,,,,,,,,,,,,,,,,,,,,,,,,,,,,,,,,,,,,,,,,,,,,,,,,,,,,,,245.544,253.067,0.188701923,0.193509615,1,0,0,1.507,compass,0,4,4,9,1,SoundStimuli/Despacito_LuisFonsiDaddyYankee_Cover5S.wav,,,,,,,,,,,,,,,,,,,,,,,,,,,,,,,,,,,,,,,,,,,,,,,,,,,
,,,,,128549,001,2024-07-12_19h01.24.612,experiment,2024.1.5,MacIntel,58.82352941,664576e027348efebb4dc5ac,6691931c2c63981b064e1f0c,6691b5adc411bda01c7fb378,,,,,,,,,,,,,,,,,,,,,,,,,,,,,,,,,,,,,,,,,,,,,,,,,,,,,,,,,,,,253.068,259.715,0.334134615,-0.334134615,1,0,0,0.634,compass,0,5,5,22,1,SoundStimuli/RockWithYou_MichaelJackson_Original5S.wav,,,,,,,,,,,,,,,,,,,,,,,,,,,,,,,,,,,,,,,,,,,,,,,,,,,
,,,,,128549,001,2024-07-12_19h01.24.612,experiment,2024.1.5,MacIntel,58.82352941,664576e027348efebb4dc5ac,6691931c2c63981b064e1f0c,6691b5adc411bda01c7fb378,,,,,,,,,,,,,,,,,,,,,,,,,,,,,,,,,,,,,,,,,,,,,,,,,,,,,,,,,,,,259.715,266.427,-0.173076923,-0.199519231,1,0,0,0.704,compass,0,6,6,26,1,SoundStimuli/LivinOnAPrayer_BonJovi_Cover5S.wav,,,,,,,,,,,,,,,,,,,,,,,,,,,,,,,,,,,,,,,,,,,,,,,,,,,
,,,,,128549,001,2024-07-12_19h01.24.612,experiment,2024.1.5,MacIntel,58.82352941,664576e027348efebb4dc5ac,6691931c2c63981b064e1f0c,6691b5adc411bda01c7fb378,,,,,,,,,,,,,,,,,,,,,,,,,,,,,,,,,,,,,,,,,,,,,,,,,,,,,,,,,,,,266.427,272.587,0.181490385,-0.219951923,1,0,0,0.15,compass,0,7,7,11,1,SoundStimuli/Superstition_StevieWonder_Cover5S.wav,,,,,,,,,,,,,,,,,,,,,,,,,,,,,,,,,,,,,,,,,,,,,,,,,,,
,,,,,128549,001,2024-07-12_19h01.24.612,experiment,2024.1.5,MacIntel,58.82352941,664576e027348efebb4dc5ac,6691931c2c63981b064e1f0c,6691b5adc411bda01c7fb378,,,,,,,,,,,,,,,,,,,,,,,,,,,,,,,,,,,,,,,,,,,,,,,,,,,,,,,,,,,,272.588,279.577,0.334134615,0.340144231,1,0,0,0.982,compass,0,8,8,24,1,SoundStimuli/UptownFunk_MarkRonson_Original5S.wav,,,,,,,,,,,,,,,,,,,,,,,,,,,,,,,,,,,,,,,,,,,,,,,,,,,
,,,,,128549,001,2024-07-12_19h01.24.612,experiment,2024.1.5,MacIntel,58.82352941,664576e027348efebb4dc5ac,6691931c2c63981b064e1f0c,6691b5adc411bda01c7fb378,,,,,,,,,,,,,,,,,,,,,,,,,,,,,,,,,,,,,,,,,,,,,,,,,,,,,,,,,,,,279.577,286.514,0.162259615,-0.206730769,1,0,0,0.931,compass,0,9,9,17,1,SoundStimuli/Fallin_AliciaKeys_Original5S.wav,,,,,,,,,,,,,,,,,,,,,,,,,,,,,,,,,,,,,,,,,,,,,,,,,,,
,,,,,128549,001,2024-07-12_19h01.24.612,experiment,2024.1.5,MacIntel,58.82352941,664576e027348efebb4dc5ac,6691931c2c63981b064e1f0c,6691b5adc411bda01c7fb378,,,,,,,,,,,,,,,,,,,,,,,,,,,,,,,,,,,,,,,,,,,,,,,,,,,,,,,,,,,,286.514,293.343,0.306490385,-0.290865385,1,0,0,0.817,compass,0,10,10,5,1,SoundStimuli/MyGirl_TheTemptations_Original5S.wav,,,,,,,,,,,,,,,,,,,,,,,,,,,,,,,,,,,,,,,,,,,,,,,,,,,
,,,,,128549,001,2024-07-12_19h01.24.612,experiment,2024.1.5,MacIntel,58.82352941,664576e027348efebb4dc5ac,6691931c2c63981b064e1f0c,6691b5adc411bda01c7fb378,,,,,,,,,,,,,,,,,,,,,,,,,,,,,,,,,,,,,,,,,,,,,,,,,,,,,,,,,,,,293.343,300.946,0.25,0.117788462,1,0,0,1.591,compass,0,11,11,28,1,SoundStimuli/ComeAndGetYourLove_Redbone_Original5S.wav,,,,,,,,,,,,,,,,,,,,,,,,,,,,,,,,,,,,,,,,,,,,,,,,,,,
,,,,,128549,001,2024-07-12_19h01.24.612,experiment,2024.1.5,MacIntel,58.82352941,664576e027348efebb4dc5ac,6691931c2c63981b064e1f0c,6691b5adc411bda01c7fb378,,,,,,,,,,,,,,,,,,,,,,,,,,,,,,,,,,,,,,,,,,,,,,,,,,,,,,,,,,,,300.947,307.352,-0.131009615,-0.152644231,1,0,0,0.401,compass,0,12,12,29,1,SoundStimuli/OldTownRoad_LilNasX_Original5S.wav,,,,,,,,,,,,,,,,,,,,,,,,,,,,,,,,,,,,,,,,,,,,,,,,,,,
,,,,,128549,001,2024-07-12_19h01.24.612,experiment,2024.1.5,MacIntel,58.82352941,664576e027348efebb4dc5ac,6691931c2c63981b064e1f0c,6691b5adc411bda01c7fb378,,,,,,,,,,,,,,,,,,,,,,,,,,,,,,,,,,,,,,,,,,,,,,,,,,,,,,,,,,,,307.353,313.745,0.242788462,-0.210336538,1,0,0,0.368,compass,0,13,13,18,1,SoundStimuli/AnotherOneBitesTheDust_Queen_Original5S.wav,,,,,,,,,,,,,,,,,,,,,,,,,,,,,,,,,,,,,,,,,,,,,,,,,,,
,,,,,128549,001,2024-07-12_19h01.24.612,experiment,2024.1.5,MacIntel,58.82352941,664576e027348efebb4dc5ac,6691931c2c63981b064e1f0c,6691b5adc411bda01c7fb378,,,,,,,,,,,,,,,,,,,,,,,,,,,,,,,,,,,,,,,,,,,,,,,,,,,,,,,,,,,,313.745,321.7,-0.131009615,0.094951923,1,0,0,1.949,compass,0,14,14,3,1,SoundStimuli/NoScrubs_TLC_Original5S.wav,,,,,,,,,,,,,,,,,,,,,,,,,,,,,,,,,,,,,,,,,,,,,,,,,,,
,,,,,128549,001,2024-07-12_19h01.24.612,experiment,2024.1.5,MacIntel,58.82352941,664576e027348efebb4dc5ac,6691931c2c63981b064e1f0c,6691b5adc411bda01c7fb378,,,,,,,,,,,,,,,,,,,,,,,,,,,,,,,,,,,,,,,,,,,,,,,,,,,,,,,,,,,,321.701,328.088,-0.147836538,-0.152644231,1,0,0,0.369,compass,0,15,15,23,1,SoundStimuli/StrawberryFieldsForever_TheBeatles_Original5S.wav,,,,,,,,,,,,,,,,,,,,,,,,,,,,,,,,,,,,,,,,,,,,,,,,,,,
,,,,,128549,001,2024-07-12_19h01.24.612,experiment,2024.1.5,MacIntel,58.82352941,664576e027348efebb4dc5ac,6691931c2c63981b064e1f0c,6691b5adc411bda01c7fb378,,,,,,,,,,,,,,,,,,,,,,,,,,,,,,,,,,,,,,,,,,,,,,,,,,,,,,,,,,,,328.089,334.511,0.228365385,0.216346154,1,0,0,0.408,compass,0,16,16,27,1,SoundStimuli/ShapeofYou_EdSheeran_Original5S.wav,,,,,,,,,,,,,,,,,,,,,,,,,,,,,,,,,,,,,,,,,,,,,,,,,,,
,,,,,128549,001,2024-07-12_19h01.24.612,experiment,2024.1.5,MacIntel,58.82352941,664576e027348efebb4dc5ac,6691931c2c63981b064e1f0c,6691b5adc411bda01c7fb378,,,,,,,,,,,,,,,,,,,,,,,,,,,,,,,,,,,,,,,,,,,,,,,,,,,,,,,,,,,,334.512,340.859,0.213942308,0.191105769,1,0,0,0.333,compass,0,17,17,1,1,SoundStimuli/Stronger_KanyeWest_Original5S.wav,,,,,,,,,,,,,,,,,,,,,,,,,,,,,,,,,,,,,,,,,,,,,,,,,,,
,,,,,128549,001,2024-07-12_19h01.24.612,experiment,2024.1.5,MacIntel,58.82352941,664576e027348efebb4dc5ac,6691931c2c63981b064e1f0c,6691b5adc411bda01c7fb378,,,,,,,,,,,,,,,,,,,,,,,,,,,,,,,,,,,,,,,,,,,,,,,,,,,,,,,,,,,,340.86,347.605,-0.179086538,-0.194711538,1,0,0,0.734,compass,0,18,18,33,1,SoundStimuli/StandByMe_BenEKing_Cover5S.wav,,,,,,,,,,,,,,,,,,,,,,,,,,,,,,,,,,,,,,,,,,,,,,,,,,,
,,,,,128549,001,2024-07-12_19h01.24.612,experiment,2024.1.5,MacIntel,58.82352941,664576e027348efebb4dc5ac,6691931c2c63981b064e1f0c,6691b5adc411bda01c7fb378,,,,,,,,,,,,,,,,,,,,,,,,,,,,,,,,,,,,,,,,,,,,,,,,,,,,,,,,,,,,347.606,353.792,-0.137019231,0.118990385,1,0,0,0.184,compass,0,19,19,6,1,SoundStimuli/Levitating_DuaLipa_Cover5S.wav,,,,,,,,,,,,,,,,,,,,,,,,,,,,,,,,,,,,,,,,,,,,,,,,,,,
,,,,,128549,001,2024-07-12_19h01.24.612,experiment,2024.1.5,MacIntel,58.82352941,664576e027348efebb4dc5ac,6691931c2c63981b064e1f0c,6691b5adc411bda01c7fb378,,,,,,,,,,,,,,,,,,,,,,,,,,,,,,,,,,,,,,,,,,,,,,,,,,,,,,,,,,,,353.792,360.183,0.216346154,0.179086538,1,0,0,0.389,compass,0,20,20,21,1,SoundStimuli/GoodGollyMissMolly_LittleRichard_Cover5S.wav,,,,,,,,,,,,,,,,,,,,,,,,,,,,,,,,,,,,,,,,,,,,,,,,,,,
,,,,,128549,001,2024-07-12_19h01.24.612,experiment,2024.1.5,MacIntel,58.82352941,664576e027348efebb4dc5ac,6691931c2c63981b064e1f0c,6691b5adc411bda01c7fb378,,,,,,,,,,,,,,,,,,,,,,,,,,,,,,,,,,,,,,,,,,,,,,,,,,,,,,,,,,,,360.183,366.626,-0.216346154,-0.146634615,1,0,0,0.433,compass,0,21,21,13,1,SoundStimuli/GodOnlyKnows_TheBeachBoys_Cover5S.wav,,,,,,,,,,,,,,,,,,,,,,,,,,,,,,,,,,,,,,,,,,,,,,,,,,,
,,,,,128549,001,2024-07-12_19h01.24.612,experiment,2024.1.5,MacIntel,58.82352941,664576e027348efebb4dc5ac,6691931c2c63981b064e1f0c,6691b5adc411bda01c7fb378,,,,,,,,,,,,,,,,,,,,,,,,,,,,,,,,,,,,,,,,,,,,,,,,,,,,,,,,,,,,366.627,373.007,-0.164663462,0.159855769,1,0,0,0.374,compass,0,22,22,4,1,SoundStimuli/GetUrFreakOn_MissyElliot_Original5S.wav,,,,,,,,,,,,,,,,,,,,,,,,,,,,,,,,,,,,,,,,,,,,,,,,,,,
,,,,,128549,001,2024-07-12_19h01.24.612,experiment,2024.1.5,MacIntel,58.82352941,664576e027348efebb4dc5ac,6691931c2c63981b064e1f0c,6691b5adc411bda01c7fb378,,,,,,,,,,,,,,,,,,,,,,,,,,,,,,,,,,,,,,,,,,,,,,,,,,,,,,,,,,,,373.007,379.557,-0.163461538,0.200721154,1,0,0,0.54,compass,0,23,23,30,1,SoundStimuli/PokerFace_LadyGaga_Original5S.wav,,,,,,,,,,,,,,,,,,,,,,,,,,,,,,,,,,,,,,,,,,,,,,,,,,,
,,,,,128549,001,2024-07-12_19h01.24.612,experiment,2024.1.5,MacIntel,58.82352941,664576e027348efebb4dc5ac,6691931c2c63981b064e1f0c,6691b5adc411bda01c7fb378,,,,,,,,,,,,,,,,,,,,,,,,,,,,,,,,,,,,,,,,,,,,,,,,,,,,,,,,,,,,379.558,386.043,-0.213942308,-0.129807692,1,0,0,0.485,compass,0,24,24,16,1,SoundStimuli/BohemianRhapsody_Queen_Original5S.wav,,,,,,,,,,,,,,,,,,,,,,,,,,,,,,,,,,,,,,,,,,,,,,,,,,,
,,,,,128549,001,2024-07-12_19h01.24.612,experiment,2024.1.5,MacIntel,58.82352941,664576e027348efebb4dc5ac,6691931c2c63981b064e1f0c,6691b5adc411bda01c7fb378,,,,,,,,,,,,,,,,,,,,,,,,,,,,,,,,,,,,,,,,,,,,,,,,,,,,,,,,,,,,386.044,392.63,-0.213942308,-0.129807692,1,0,0,0.583,compass,0,25,25,31,1,SoundStimuli/TheBattleOfNewOrleans_JohnnyHorton_Cover5S.wav,,,,,,,,,,,,,,,,,,,,,,,,,,,,,,,,,,,,,,,,,,,,,,,,,,,
,,,,,128549,001,2024-07-12_19h01.24.612,experiment,2024.1.5,MacIntel,58.82352941,664576e027348efebb4dc5ac,6691931c2c63981b064e1f0c,6691b5adc411bda01c7fb378,,,,,,,,,,,,,,,,,,,,,,,,,,,,,,,,,,,,,,,,,,,,,,,,,,,,,,,,,,,,392.63,399.093,-0.191105769,-0.146634615,1,0,0,0.449,compass,0,26,26,15,1,SoundStimuli/TikTok_Kesha_Cover5S.wav,,,,,,,,,,,,,,,,,,,,,,,,,,,,,,,,,,,,,,,,,,,,,,,,,,,
,,,,,128549,001,2024-07-12_19h01.24.612,experiment,2024.1.5,MacIntel,58.82352941,664576e027348efebb4dc5ac,6691931c2c63981b064e1f0c,6691b5adc411bda01c7fb378,,,,,,,,,,,,,,,,,,,,,,,,,,,,,,,,,,,,,,,,,,,,,,,,,,,,,,,,,,,,399.093,405.514,-0.191105769,-0.146634615,1,0,0,0.408,compass,0,27,27,2,1,SoundStimuli/Mood_24kGoldnianndior_Cover5S.wav,,,,,,,,,,,,,,,,,,,,,,,,,,,,,,,,,,,,,,,,,,,,,,,,,,,
,,,,,128549,001,2024-07-12_19h01.24.612,experiment,2024.1.5,MacIntel,58.82352941,664576e027348efebb4dc5ac,6691931c2c63981b064e1f0c,6691b5adc411bda01c7fb378,,,,,,,,,,,,,,,,,,,,,,,,,,,,,,,,,,,,,,,,,,,,,,,,,,,,,,,,,,,,405.514,411.934,0.126201923,0.227163462,1,0,0,0.416,compass,0,28,28,8,1,SoundStimuli/LikeAPrayer_Madonna_Original5S.wav,,,,,,,,,,,,,,,,,,,,,,,,,,,,,,,,,,,,,,,,,,,,,,,,,,,
,,,,,128549,001,2024-07-12_19h01.24.612,experiment,2024.1.5,MacIntel,58.82352941,664576e027348efebb4dc5ac,6691931c2c63981b064e1f0c,6691b5adc411bda01c7fb378,,,,,,,,,,,,,,,,,,,,,,,,,,,,,,,,,,,,,,,,,,,,,,,,,,,,,,,,,,,,411.935,418.422,0.126201923,0.227163462,1,0,0,0.481,compass,0,29,29,7,1,SoundStimuli/NoOne_AliciaKeys_Cover5S.wav,,,,,,,,,,,,,,,,,,,,,,,,,,,,,,,,,,,,,,,,,,,,,,,,,,,
,,,,,128549,001,2024-07-12_19h01.24.612,experiment,2024.1.5,MacIntel,58.82352941,664576e027348efebb4dc5ac,6691931c2c63981b064e1f0c,6691b5adc411bda01c7fb378,,,,,,,,,,,,,,,,,,,,,,,,,,,,,,,,,,,,,,,,,,,,,,,,,,,,,,,,,,,,418.424,424.979,0.189903846,-0.152644231,1,0,0,0.551,compass,0,30,30,19,1,SoundStimuli/LetsGetItOn_MarvinGaye_Cover5S.wav,,,,,,,,,,,,,,,,,,,,,,,,,,,,,,,,,,,,,,,,,,,,,,,,,,,
,,,,,128549,001,2024-07-12_19h01.24.612,experiment,2024.1.5,MacIntel,58.82352941,664576e027348efebb4dc5ac,6691931c2c63981b064e1f0c,6691b5adc411bda01c7fb378,,,,,,,,,,,,,,,,,,,,,,,,,,,,,,,,,,,,,,,,,,,,,,,,,,,,,,,,,,,,424.98,432.934,-0.149038462,0.210336538,1,0,0,1.937,compass,0,31,31,34,1,SoundStimuli/AChangeIsGonnaCome_SamCooke_Cover5S.wav,,,,,,,,,,,,,,,,,,,,,,,,,,,,,,,,,,,,,,,,,,,,,,,,,,,
,,,,,128549,001,2024-07-12_19h01.24.612,experiment,2024.1.5,MacIntel,58.82352941,664576e027348efebb4dc5ac,6691931c2c63981b064e1f0c,6691b5adc411bda01c7fb378,,,,,,,,,,,,,,,,,,,,,,,,,,,,,,,,,,,,,,,,,,,,,,,,,,,,,,,,,,,,432.934,439.364,-0.158653846,0.25,1,0,0,0.416,compass,0,32,32,0,1,SoundStimuli/StayinAlive_BeeGees_Original5S.wav,,,,,,,,,,,,,,,,,,,,,,,,,,,,,,,,,,,,,,,,,,,,,,,,,,,
,,,,,128549,001,2024-07-12_19h01.24.612,experiment,2024.1.5,MacIntel,58.82352941,664576e027348efebb4dc5ac,6691931c2c63981b064e1f0c,6691b5adc411bda01c7fb378,,,,,,,,,,,,,,,,,,,,,,,,,,,,,,,,,,,,,,,,,,,,,,,,,,,,,,,,,,,,439.365,445.765,-0.158653846,0.25,1,0,0,0.4,compass,0,33,33,12,1,SoundStimuli/IWillAlwaysLoveYou_WhitneyHouston_Cover5S.wav,,,,,,,,,,,,,,,,,,,,,,,,,,,,,,,,,,,,,,,,,,,,,,,,,,,
,,,,,128549,001,2024-07-12_19h01.24.612,experiment,2024.1.5,MacIntel,58.82352941,664576e027348efebb4dc5ac,6691931c2c63981b064e1f0c,6691b5adc411bda01c7fb378,,,,,,,,,,,,,,,,,,,,,,,,,,,,,,,,,,,,,,,,,,,,,,,,,,,,,,,,,,,,445.766,452.071,0.246394231,0.204326923,1,0,0,0.289,compass,0,34,34,25,1,SoundStimuli/Respect_ArethaFranklin_Original5S.wav,,,,,,,,,,,,,,,,,,,,,,,,,,,,,,,,,,,,,,,,,,,,,,,,,,,
,,,,,128549,001,2024-07-12_19h01.24.612,experiment,2024.1.5,MacIntel,58.82352941,664576e027348efebb4dc5ac,6691931c2c63981b064e1f0c,6691b5adc411bda01c7fb378,,,,,,,,,,,,,,,,,,,,,,,,,,,,,,,,,,,,,,,,,,,,,,,,,,,,,,,,,,,,,,,,,,,,,,,,,,,452.072,456.082,space,3.979,,456.082,463.876,right,7.759,,0,0,0,0,1,block_order/blockA.xlsx,,,,,,,,,,,,,,,,,,,,,,,,,,,,,,,,,,,
,,,,,128549,001,2024-07-12_19h01.24.612,experiment,2024.1.5,MacIntel,58.82352941,664576e027348efebb4dc5ac,6691931c2c63981b064e1f0c,6691b5adc411bda01c7fb378,,,,,,,,,,,,,,,,,,,,,,,,,,,,,,,,,,,,,,,,,,,,,,,,,,,,,,,,,,,,463.886,470.836,0.289663462,0.295673077,1,0,0,0.931,compass,0,0,0,13,1,SoundStimuli/Perfect_EdSheeran_Original5S.wav,,,,,,,,,,,,,,,,,,,,,,,,,,,,,,,,,,,,,,,,,,,,,,,,,,,
,,,,,128549,001,2024-07-12_19h01.24.612,experiment,2024.1.5,MacIntel,58.82352941,664576e027348efebb4dc5ac,6691931c2c63981b064e1f0c,6691b5adc411bda01c7fb378,,,,,,,,,,,,,,,,,,,,,,,,,,,,,,,,,,,,,,,,,,,,,,,,,,,,,,,,,,,,470.837,477.222,0.237980769,0.240384615,1,0,0,0.37,compass,0,1,1,10,1,SoundStimuli/LeFreak_Chic_Original5S.wav,,,,,,,,,,,,,,,,,,,,,,,,,,,,,,,,,,,,,,,,,,,,,,,,,,,
,,,,,128549,001,2024-07-12_19h01.24.612,experiment,2024.1.5,MacIntel,58.82352941,664576e027348efebb4dc5ac,6691931c2c63981b064e1f0c,6691b5adc411bda01c7fb378,,,,,,,,,,,,,,,,,,,,,,,,,,,,,,,,,,,,,,,,,,,,,,,,,,,,,,,,,,,,477.222,483.831,-0.274038462,-0.276442308,1,0,0,0.6,compass,0,2,2,19,1,SoundStimuli/YouLightUpMyLife_DebbyBoone_Cover5S.wav,,,,,,,,,,,,,,,,,,,,,,,,,,,,,,,,,,,,,,,,,,,,,,,,,,,
,,,,,128549,001,2024-07-12_19h01.24.612,experiment,2024.1.5,MacIntel,58.82352941,664576e027348efebb4dc5ac,6691931c2c63981b064e1f0c,6691b5adc411bda01c7fb378,,,,,,,,,,,,,,,,,,,,,,,,,,,,,,,,,,,,,,,,,,,,,,,,,,,,,,,,,,,,483.831,490.287,-0.245192308,0.243990385,1,0,0,0.444,compass,0,3,3,34,1,SoundStimuli/Irreplaceable_Beyonce_Original5S.wav,,,,,,,,,,,,,,,,,,,,,,,,,,,,,,,,,,,,,,,,,,,,,,,,,,,
,,,,,128549,001,2024-07-12_19h01.24.612,experiment,2024.1.5,MacIntel,58.82352941,664576e027348efebb4dc5ac,6691931c2c63981b064e1f0c,6691b5adc411bda01c7fb378,,,,,,,,,,,,,,,,,,,,,,,,,,,,,,,,,,,,,,,,,,,,,,,,,,,,,,,,,,,,490.287,497.038,0.223557692,0.203125,1,0,0,0.751,compass,0,4,4,3,1,SoundStimuli/PartyRockAnthem_LMFAO_Cover5S.wav,,,,,,,,,,,,,,,,,,,,,,,,,,,,,,,,,,,,,,,,,,,,,,,,,,,
,,,,,128549,001,2024-07-12_19h01.24.612,experiment,2024.1.5,MacIntel,58.82352941,664576e027348efebb4dc5ac,6691931c2c63981b064e1f0c,6691b5adc411bda01c7fb378,,,,,,,,,,,,,,,,,,,,,,,,,,,,,,,,,,,,,,,,,,,,,,,,,,,,,,,,,,,,497.038,504.323,-0.210336538,-0.222355769,1,0,0,1.269,compass,0,5,5,28,1,SoundStimuli/IWantToHoldYourHand_TheBeatles_Cover5S.wav,,,,,,,,,,,,,,,,,,,,,,,,,,,,,,,,,,,,,,,,,,,,,,,,,,,
,,,,,128549,001,2024-07-12_19h01.24.612,experiment,2024.1.5,MacIntel,58.82352941,664576e027348efebb4dc5ac,6691931c2c63981b064e1f0c,6691b5adc411bda01c7fb378,,,,,,,,,,,,,,,,,,,,,,,,,,,,,,,,,,,,,,,,,,,,,,,,,,,,,,,,,,,,504.323,510.587,0.173076923,-0.1875,1,0,0,0.251,compass,0,6,6,29,1,SoundStimuli/BetteDavisEyes_KimCarnes_Cover5S.wav,,,,,,,,,,,,,,,,,,,,,,,,,,,,,,,,,,,,,,,,,,,,,,,,,,,
,,,,,128549,001,2024-07-12_19h01.24.612,experiment,2024.1.5,MacIntel,58.82352941,664576e027348efebb4dc5ac,6691931c2c63981b064e1f0c,6691b5adc411bda01c7fb378,,,,,,,,,,,,,,,,,,,,,,,,,,,,,,,,,,,,,,,,,,,,,,,,,,,,,,,,,,,,510.587,517.681,0.200721154,0.147836538,1,0,0,1.086,compass,0,7,7,12,1,SoundStimuli/UnbreakMyHeart_ToniBraxton_Cover5S.wav,,,,,,,,,,,,,,,,,,,,,,,,,,,,,,,,,,,,,,,,,,,,,,,,,,,
,,,,,128549,001,2024-07-12_19h01.24.612,experiment,2024.1.5,MacIntel,58.82352941,664576e027348efebb4dc5ac,6691931c2c63981b064e1f0c,6691b5adc411bda01c7fb378,,,,,,,,,,,,,,,,,,,,,,,,,,,,,,,,,,,,,,,,,,,,,,,,,,,,,,,,,,,,517.681,524.269,0.207932692,0.197115385,1,0,0,0.587,compass,0,8,8,27,1,SoundStimuli/EyeOfTheTiger_Survivor_Original5S.wav,,,,,,,,,,,,,,,,,,,,,,,,,,,,,,,,,,,,,,,,,,,,,,,,,,,
,,,,,128549,001,2024-07-12_19h01.24.612,experiment,2024.1.5,MacIntel,58.82352941,664576e027348efebb4dc5ac,6691931c2c63981b064e1f0c,6691b5adc411bda01c7fb378,,,,,,,,,,,,,,,,,,,,,,,,,,,,,,,,,,,,,,,,,,,,,,,,,,,,,,,,,,,,524.269,530.655,-0.271634615,-0.188701923,1,0,0,0.37,compass,0,9,9,9,1,SoundStimuli/HowDoILive_LeAnnRimes_Original5S.wav,,,,,,,,,,,,,,,,,,,,,,,,,,,,,,,,,,,,,,,,,,,,,,,,,,,
,,,,,128549,001,2024-07-12_19h01.24.612,experiment,2024.1.5,MacIntel,58.82352941,664576e027348efebb4dc5ac,6691931c2c63981b064e1f0c,6691b5adc411bda01c7fb378,,,,,,,,,,,,,,,,,,,,,,,,,,,,,,,,,,,,,,,,,,,,,,,,,,,,,,,,,,,,530.656,537.067,0.175480769,-0.233173077,1,0,0,0.401,compass,0,10,10,32,1,SoundStimuli/Dilemma_NellyKellyRowland_Original5S.wav,,,,,,,,,,,,,,,,,,,,,,,,,,,,,,,,,,,,,,,,,,,,,,,,,,,
,,,,,128549,001,2024-07-12_19h01.24.612,experiment,2024.1.5,MacIntel,58.82352941,664576e027348efebb4dc5ac,6691931c2c63981b064e1f0c,6691b5adc411bda01c7fb378,,,,,,,,,,,,,,,,,,,,,,,,,,,,,,,,,,,,,,,,,,,,,,,,,,,,,,,,,,,,537.067,543.734,0.175480769,-0.233173077,1,0,0,0.665,compass,0,11,11,16,1,SoundStimuli/ItsAllInTheGame_TommyEdwards_Original5S.wav,,,,,,,,,,,,,,,,,,,,,,,,,,,,,,,,,,,,,,,,,,,,,,,,,,,
,,,,,128549,001,2024-07-12_19h01.24.612,experiment,2024.1.5,MacIntel,58.82352941,664576e027348efebb4dc5ac,6691931c2c63981b064e1f0c,6691b5adc411bda01c7fb378,,,,,,,,,,,,,,,,,,,,,,,,,,,,,,,,,,,,,,,,,,,,,,,,,,,,,,,,,,,,543.734,550.36,0.262019231,0.188701923,1,0,0,0.616,compass,0,12,12,1,1,SoundStimuli/Smooth_SantanaRobThomas_Cover5S.wav,,,,,,,,,,,,,,,,,,,,,,,,,,,,,,,,,,,,,,,,,,,,,,,,,,,
,,,,,128549,001,2024-07-12_19h01.24.612,experiment,2024.1.5,MacIntel,58.82352941,664576e027348efebb4dc5ac,6691931c2c63981b064e1f0c,6691b5adc411bda01c7fb378,,,,,,,,,,,,,,,,,,,,,,,,,,,,,,,,,,,,,,,,,,,,,,,,,,,,,,,,,,,,550.361,556.983,0.211538462,0.21875,1,0,0,0.606,compass,0,13,13,24,1,SoundStimuli/Kiss_Prince_Original5S.wav,,,,,,,,,,,,,,,,,,,,,,,,,,,,,,,,,,,,,,,,,,,,,,,,,,,
,,,,,128549,001,2024-07-12_19h01.24.612,experiment,2024.1.5,MacIntel,58.82352941,664576e027348efebb4dc5ac,6691931c2c63981b064e1f0c,6691b5adc411bda01c7fb378,,,,,,,,,,,,,,,,,,,,,,,,,,,,,,,,,,,,,,,,,,,,,,,,,,,,,,,,,,,,556.984,563.411,-0.215144231,0.241586538,1,0,0,0.42,compass,0,14,14,30,1,SoundStimuli/SomebodyThatIUsedtoKnow_Gotye_Cover5S.wav,,,,,,,,,,,,,,,,,,,,,,,,,,,,,,,,,,,,,,,,,,,,,,,,,,,
,,,,,128549,001,2024-07-12_19h01.24.612,experiment,2024.1.5,MacIntel,58.82352941,664576e027348efebb4dc5ac,6691931c2c63981b064e1f0c,6691b5adc411bda01c7fb378,,,,,,,,,,,,,,,,,,,,,,,,,,,,,,,,,,,,,,,,,,,,,,,,,,,,,,,,,,,,563.411,569.813,-0.215144231,0.241586538,1,0,0,0.4,compass,0,15,15,6,1,SoundStimuli/SaveYourTears_TheWeekndArianaGrande_Original5S.wav,,,,,,,,,,,,,,,,,,,,,,,,,,,,,,,,,,,,,,,,,,,,,,,,,,,
,,,,,128549,001,2024-07-12_19h01.24.612,experiment,2024.1.5,MacIntel,58.82352941,664576e027348efebb4dc5ac,6691931c2c63981b064e1f0c,6691b5adc411bda01c7fb378,,,,,,,,,,,,,,,,,,,,,,,,,,,,,,,,,,,,,,,,,,,,,,,,,,,,,,,,,,,,569.814,576.41,-0.215144231,0.241586538,1,0,0,0.594,compass,0,16,16,5,1,SoundStimuli/JoyToTheWorld_ThreeDogNight_Cover5S.wav,,,,,,,,,,,,,,,,,,,,,,,,,,,,,,,,,,,,,,,,,,,,,,,,,,,
,,,,,128549,001,2024-07-12_19h01.24.612,experiment,2024.1.5,MacIntel,58.82352941,664576e027348efebb4dc5ac,6691931c2c63981b064e1f0c,6691b5adc411bda01c7fb378,,,,,,,,,,,,,,,,,,,,,,,,,,,,,,,,,,,,,,,,,,,,,,,,,,,,,,,,,,,,576.41,583.311,0.209134615,-0.140625,1,0,0,0.895,compass,0,17,17,7,1,SoundStimuli/MackTheKnife_BobbyDarin_Original5S.wav,,,,,,,,,,,,,,,,,,,,,,,,,,,,,,,,,,,,,,,,,,,,,,,,,,,
,,,,,128549,001,2024-07-12_19h01.24.612,experiment,2024.1.5,MacIntel,58.82352941,664576e027348efebb4dc5ac,6691931c2c63981b064e1f0c,6691b5adc411bda01c7fb378,,,,,,,,,,,,,,,,,,,,,,,,,,,,,,,,,,,,,,,,,,,,,,,,,,,,,,,,,,,,583.312,589.901,-0.219951923,-0.185096154,1,0,0,0.575,compass,0,18,18,33,1,SoundStimuli/TheBoyIsMine_BrandyMonica_Cover5S.wav,,,,,,,,,,,,,,,,,,,,,,,,,,,,,,,,,,,,,,,,,,,,,,,,,,,
,,,,,128549,001,2024-07-12_19h01.24.612,experiment,2024.1.5,MacIntel,58.82352941,664576e027348efebb4dc5ac,6691931c2c63981b064e1f0c,6691b5adc411bda01c7fb378,,,,,,,,,,,,,,,,,,,,,,,,,,,,,,,,,,,,,,,,,,,,,,,,,,,,,,,,,,,,589.902,596.421,0.001201923,0,1,0,0,0.514,compass,0,19,19,21,1,SoundStimuli/BridgeOverTroubledWater_SimonAndGarfunkel_Cover5S.wav,,,,,,,,,,,,,,,,,,,,,,,,,,,,,,,,,,,,,,,,,,,,,,,,,,,
,,,,,128549,001,2024-07-12_19h01.24.612,experiment,2024.1.5,MacIntel,58.82352941,664576e027348efebb4dc5ac,6691931c2c63981b064e1f0c,6691b5adc411bda01c7fb378,,,,,,,,,,,,,,,,,,,,,,,,,,,,,,,,,,,,,,,,,,,,,,,,,,,,,,,,,,,,596.422,602.73,0.236778846,0.222355769,1,0,0,0.3,compass,0,20,20,11,1,SoundStimuli/BlurredLines_RobinThicke_Original5S.wav,,,,,,,,,,,,,,,,,,,,,,,,,,,,,,,,,,,,,,,,,,,,,,,,,,,
,,,,,128549,001,2024-07-12_19h01.24.612,experiment,2024.1.5,MacIntel,58.82352941,664576e027348efebb4dc5ac,6691931c2c63981b064e1f0c,6691b5adc411bda01c7fb378,,,,,,,,,,,,,,,,,,,,,,,,,,,,,,,,,,,,,,,,,,,,,,,,,,,,,,,,,,,,602.731,609.483,-0.319711538,0.3125,1,0,0,0.746,compass,0,21,21,15,1,SoundStimuli/CrazyInLove_BeyonceFtJayZ_Original5S.wav,,,,,,,,,,,,,,,,,,,,,,,,,,,,,,,,,,,,,,,,,,,,,,,,,,,
,,,,,128549,001,2024-07-12_19h01.24.612,experiment,2024.1.5,MacIntel,58.82352941,664576e027348efebb4dc5ac,6691931c2c63981b064e1f0c,6691b5adc411bda01c7fb378,,,,,,,,,,,,,,,,,,,,,,,,,,,,,,,,,,,,,,,,,,,,,,,,,,,,,,,,,,,,609.484,616.317,0.340144231,0.337740385,1,0,0,0.832,compass,0,22,22,22,1,SoundStimuli/Happy_PharellWilliams_Cover5S.wav,,,,,,,,,,,,,,,,,,,,,,,,,,,,,,,,,,,,,,,,,,,,,,,,,,,
,,,,,128549,001,2024-07-12_19h01.24.612,experiment,2024.1.5,MacIntel,58.82352941,664576e027348efebb4dc5ac,6691931c2c63981b064e1f0c,6691b5adc411bda01c7fb378,,,,,,,,,,,,,,,,,,,,,,,,,,,,,,,,,,,,,,,,,,,,,,,,,,,,,,,,,,,,616.318,622.72,0.313701923,0.324519231,1,0,0,0.381,compass,0,23,23,20,1,SoundStimuli/FlashdanceWhatAFeeling_IreneCara_Cover5S.wav,,,,,,,,,,,,,,,,,,,,,,,,,,,,,,,,,,,,,,,,,,,,,,,,,,,
,,,,,128549,001,2024-07-12_19h01.24.612,experiment,2024.1.5,MacIntel,58.82352941,664576e027348efebb4dc5ac,6691931c2c63981b064e1f0c,6691b5adc411bda01c7fb378,,,,,,,,,,,,,,,,,,,,,,,,,,,,,,,,,,,,,,,,,,,,,,,,,,,,,,,,,,,,622.721,633.996,0.162259615,-0.128605769,1,0,0,5.269,compass,0,24,24,8,1,SoundStimuli/EndlessLove_DianaRossLionelRichie_Original5S.wav,,,,,,,,,,,,,,,,,,,,,,,,,,,,,,,,,,,,,,,,,,,,,,,,,,,
,,,,,128549,001,2024-07-12_19h01.24.612,experiment,2024.1.5,MacIntel,58.82352941,664576e027348efebb4dc5ac,6691931c2c63981b064e1f0c,6691b5adc411bda01c7fb378,,,,,,,,,,,,,,,,,,,,,,,,,,,,,,,,,,,,,,,,,,,,,,,,,,,,,,,,,,,,633.996,640.673,0.138221154,-0.121394231,1,0,0,0.667,compass,0,25,25,18,1,SoundStimuli/Weak_SWV_Original5S.wav,,,,,,,,,,,,,,,,,,,,,,,,,,,,,,,,,,,,,,,,,,,,,,,,,,,
,,,,,128549,001,2024-07-12_19h01.24.612,experiment,2024.1.5,MacIntel,58.82352941,664576e027348efebb4dc5ac,6691931c2c63981b064e1f0c,6691b5adc411bda01c7fb378,,,,,,,,,,,,,,,,,,,,,,,,,,,,,,,,,,,,,,,,,,,,,,,,,,,,,,,,,,,,640.673,648.516,-0.230769231,-0.268028846,1,0,0,1.835,compass,0,26,26,25,1,SoundStimuli/IllMakeLoveToYou_BoyzIIMen_Original5S.wav,,,,,,,,,,,,,,,,,,,,,,,,,,,,,,,,,,,,,,,,,,,,,,,,,,,
,,,,,128549,001,2024-07-12_19h01.24.612,experiment,2024.1.5,MacIntel,58.82352941,664576e027348efebb4dc5ac,6691931c2c63981b064e1f0c,6691b5adc411bda01c7fb378,,,,,,,,,,,,,,,,,,,,,,,,,,,,,,,,,,,,,,,,,,,,,,,,,,,,,,,,,,,,648.517,656.606,0.153846154,-0.150240385,1,0,0,2.076,compass,0,27,27,23,1,SoundStimuli/IWalkTheLine_JohnnyCash_Cover5S.wav,,,,,,,,,,,,,,,,,,,,,,,,,,,,,,,,,,,,,,,,,,,,,,,,,,,
,,,,,128549,001,2024-07-12_19h01.24.612,experiment,2024.1.5,MacIntel,58.82352941,664576e027348efebb4dc5ac,6691931c2c63981b064e1f0c,6691b5adc411bda01c7fb378,,,,,,,,,,,,,,,,,,,,,,,,,,,,,,,,,,,,,,,,,,,,,,,,,,,,,,,,,,,,656.606,663.37,-0.167067308,0.173076923,1,0,0,0.75,compass,0,28,28,0,1,SoundStimuli/GimmeShelter_RollingStones_Cover5S.wav,,,,,,,,,,,,,,,,,,,,,,,,,,,,,,,,,,,,,,,,,,,,,,,,,,,
,,,,,128549,001,2024-07-12_19h01.24.612,experiment,2024.1.5,MacIntel,58.82352941,664576e027348efebb4dc5ac,6691931c2c63981b064e1f0c,6691b5adc411bda01c7fb378,,,,,,,,,,,,,,,,,,,,,,,,,,,,,,,,,,,,,,,,,,,,,,,,,,,,,,,,,,,,663.37,669.728,-0.194711538,0.215144231,1,0,0,0.353,compass,0,29,29,26,1,SoundStimuli/TheSign_AceOfBase_Original5S.wav,,,,,,,,,,,,,,,,,,,,,,,,,,,,,,,,,,,,,,,,,,,,,,,,,,,
,,,,,128549,001,2024-07-12_19h01.24.612,experiment,2024.1.5,MacIntel,58.82352941,664576e027348efebb4dc5ac,6691931c2c63981b064e1f0c,6691b5adc411bda01c7fb378,,,,,,,,,,,,,,,,,,,,,,,,,,,,,,,,,,,,,,,,,,,,,,,,,,,,,,,,,,,,669.728,677.492,-0.075721154,0.085336538,1,0,0,1.749,compass,0,30,30,4,1,SoundStimuli/Dreams_FleetwoodMac_Cover5S.wav,,,,,,,,,,,,,,,,,,,,,,,,,,,,,,,,,,,,,,,,,,,,,,,,,,,
,,,,,128549,001,2024-07-12_19h01.24.612,experiment,2024.1.5,MacIntel,58.82352941,664576e027348efebb4dc5ac,6691931c2c63981b064e1f0c,6691b5adc411bda01c7fb378,,,,,,,,,,,,,,,,,,,,,,,,,,,,,,,,,,,,,,,,,,,,,,,,,,,,,,,,,,,,677.492,685.284,0.037259615,0.037259615,1,0,0,1.783,compass,0,31,31,31,1,SoundStimuli/TossinAndTurnin_BobbyLewis_Cover5S.wav,,,,,,,,,,,,,,,,,,,,,,,,,,,,,,,,,,,,,,,,,,,,,,,,,,,
,,,,,128549,001,2024-07-12_19h01.24.612,experiment,2024.1.5,MacIntel,58.82352941,664576e027348efebb4dc5ac,6691931c2c63981b064e1f0c,6691b5adc411bda01c7fb378,,,,,,,,,,,,,,,,,,,,,,,,,,,,,,,,,,,,,,,,,,,,,,,,,,,,,,,,,,,,685.284,693.257,-0.001201923,0.006009615,1,0,0,1.97,compass,0,32,32,14,1,SoundStimuli/LikeARollingStone_BobDylan_Cover5S.wav,,,,,,,,,,,,,,,,,,,,,,,,,,,,,,,,,,,,,,,,,,,,,,,,,,,
,,,,,128549,001,2024-07-12_19h01.24.612,experiment,2024.1.5,MacIntel,58.82352941,664576e027348efebb4dc5ac,6691931c2c63981b064e1f0c,6691b5adc411bda01c7fb378,,,,,,,,,,,,,,,,,,,,,,,,,,,,,,,,,,,,,,,,,,,,,,,,,,,,,,,,,,,,693.257,701.196,0.006009615,-0.085336538,1,0,0,1.926,compass,0,33,33,17,1,SoundStimuli/IWannaDanceWithSomebody_WhitneyHouston_Cover5S.wav,,,,,,,,,,,,,,,,,,,,,,,,,,,,,,,,,,,,,,,,,,,,,,,,,,,
,,,,,128549,001,2024-07-12_19h01.24.612,experiment,2024.1.5,MacIntel,58.82352941,664576e027348efebb4dc5ac,6691931c2c63981b064e1f0c,6691b5adc411bda01c7fb378,,,,,,,,,,,,,,,,,,,,,,,,,,,,,,,,,,,,,,,,,,,,,,,,,,,,,,,,,,,,701.196,707.356,-0.341346154,0.342548077,1,0,0,0.153,compass,0,34,34,2,1,SoundStimuli/SmellsLikeTeenSpirit_Nirvana_Cover5S.wav,,,,,,,,,,,,,,,,,,,,,,,,,,,,,,,,,,,,,,,,,,,,,,,,,,,
,,,,,128549,001,2024-07-12_19h01.24.612,experiment,2024.1.5,MacIntel,58.82352941,664576e027348efebb4dc5ac,6691931c2c63981b064e1f0c,6691b5adc411bda01c7fb378,,,,,,,,,,,,,,,,,,,,,,,,,,,,,,,,,,,,,,,,,,,,,,,,,,,,,,,,,,,,,,,,,,,,,,,,,,,707.356,708.586,space,1.211,,708.586,711.633,right,3.031,,0,1,1,1,1,block_order/blockB.xlsx,,,,,,,,,,,,,,,,,,,,,,,,,,,,,,,,,,,
,,,,,128549,001,2024-07-12_19h01.24.612,experiment,2024.1.5,MacIntel,58.82352941,664576e027348efebb4dc5ac,6691931c2c63981b064e1f0c,6691b5adc411bda01c7fb378,,,,,,,,,,,,,,,,,,,,,,,,,,,,,,,,,,,,,,,,,,,,,,,,,,,,,,,,,,,,711.641,718.108,0.180288462,0.242788462,1,0,0,0.456,compass,0,0,0,21,1,SoundStimuli/GoodGollyMissMolly_LittleRichard_Original5S.wav,,,,,,,,,,,,,,,,,,,,,,,,,,,,,,,,,,,,,,,,,,,,,,,,,,,
,,,,,128549,001,2024-07-12_19h01.24.612,experiment,2024.1.5,MacIntel,58.82352941,664576e027348efebb4dc5ac,6691931c2c63981b064e1f0c,6691b5adc411bda01c7fb378,,,,,,,,,,,,,,,,,,,,,,,,,,,,,,,,,,,,,,,,,,,,,,,,,,,,,,,,,,,,718.108,724.543,0.194711538,0.235576923,1,0,0,0.433,compass,0,1,1,8,1,SoundStimuli/LikeAPrayer_Madonna_Cover5S.wav,,,,,,,,,,,,,,,,,,,,,,,,,,,,,,,,,,,,,,,,,,,,,,,,,,,
,,,,,128549,001,2024-07-12_19h01.24.612,experiment,2024.1.5,MacIntel,58.82352941,664576e027348efebb4dc5ac,6691931c2c63981b064e1f0c,6691b5adc411bda01c7fb378,,,,,,,,,,,,,,,,,,,,,,,,,,,,,,,,,,,,,,,,,,,,,,,,,,,,,,,,,,,,724.544,731.448,-0.045673077,0.051682692,1,0,0,0.9,compass,0,2,2,0,1,SoundStimuli/StayinAlive_BeeGees_Cover5S.wav,,,,,,,,,,,,,,,,,,,,,,,,,,,,,,,,,,,,,,,,,,,,,,,,,,,
,,,,,128549,001,2024-07-12_19h01.24.612,experiment,2024.1.5,MacIntel,58.82352941,664576e027348efebb4dc5ac,6691931c2c63981b064e1f0c,6691b5adc411bda01c7fb378,,,,,,,,,,,,,,,,,,,,,,,,,,,,,,,,,,,,,,,,,,,,,,,,,,,,,,,,,,,,731.449,737.94,0.081730769,0.055288462,1,0,0,0.482,compass,0,3,3,3,1,SoundStimuli/NoScrubs_TLC_Cover5S.wav,,,,,,,,,,,,,,,,,,,,,,,,,,,,,,,,,,,,,,,,,,,,,,,,,,,
,,,,,128549,001,2024-07-12_19h01.24.612,experiment,2024.1.5,MacIntel,58.82352941,664576e027348efebb4dc5ac,6691931c2c63981b064e1f0c,6691b5adc411bda01c7fb378,,,,,,,,,,,,,,,,,,,,,,,,,,,,,,,,,,,,,,,,,,,,,,,,,,,,,,,,,,,,737.94,744.578,-0.099759615,-0.058894231,1,0,0,0.632,compass,0,4,4,18,1,SoundStimuli/AnotherOneBitesTheDust_Queen_Cover5S.wav,,,,,,,,,,,,,,,,,,,,,,,,,,,,,,,,,,,,,,,,,,,,,,,,,,,
,,,,,128549,001,2024-07-12_19h01.24.612,experiment,2024.1.5,MacIntel,58.82352941,664576e027348efebb4dc5ac,6691931c2c63981b064e1f0c,6691b5adc411bda01c7fb378,,,,,,,,,,,,,,,,,,,,,,,,,,,,,,,,,,,,,,,,,,,,,,,,,,,,,,,,,,,,744.578,750.962,0.112980769,0.127403846,1,0,0,0.374,compass,0,5,5,24,1,SoundStimuli/UptownFunk_MarkRonson_Cover5S.wav,,,,,,,,,,,,,,,,,,,,,,,,,,,,,,,,,,,,,,,,,,,,,,,,,,,
,,,,,128549,001,2024-07-12_19h01.24.612,experiment,2024.1.5,MacIntel,58.82352941,664576e027348efebb4dc5ac,6691931c2c63981b064e1f0c,6691b5adc411bda01c7fb378,,,,,,,,,,,,,,,,,,,,,,,,,,,,,,,,,,,,,,,,,,,,,,,,,,,,,,,,,,,,750.963,757.305,0.337740385,0.338942308,1,0,0,0.34,compass,0,6,6,6,1,SoundStimuli/Levitating_DuaLipa_Original5S.wav,,,,,,,,,,,,,,,,,,,,,,,,,,,,,,,,,,,,,,,,,,,,,,,,,,,
,,,,,128549,001,2024-07-12_19h01.24.612,experiment,2024.1.5,MacIntel,58.82352941,664576e027348efebb4dc5ac,6691931c2c63981b064e1f0c,6691b5adc411bda01c7fb378,,,,,,,,,,,,,,,,,,,,,,,,,,,,,,,,,,,,,,,,,,,,,,,,,,,,,,,,,,,,757.306,764.037,-0.087740385,-0.087740385,1,0,0,0.728,compass,0,7,7,34,1,SoundStimuli/AChangeIsGonnaCome_SamCooke_Original5S.wav,,,,,,,,,,,,,,,,,,,,,,,,,,,,,,,,,,,,,,,,,,,,,,,,,,,
,,,,,128549,001,2024-07-12_19h01.24.612,experiment,2024.1.5,MacIntel,58.82352941,664576e027348efebb4dc5ac,6691931c2c63981b064e1f0c,6691b5adc411bda01c7fb378,,,,,,,,,,,,,,,,,,,,,,,,,,,,,,,,,,,,,,,,,,,,,,,,,,,,,,,,,,,,764.037,771.14,-0.335336538,-0.332932692,1,0,0,1.1,compass,0,8,8,5,1,SoundStimuli/MyGirl_TheTemptations_Cover5S.wav,,,,,,,,,,,,,,,,,,,,,,,,,,,,,,,,,,,,,,,,,,,,,,,,,,,
,,,,,128549,001,2024-07-12_19h01.24.612,experiment,2024.1.5,MacIntel,58.82352941,664576e027348efebb4dc5ac,6691931c2c63981b064e1f0c,6691b5adc411bda01c7fb378,,,,,,,,,,,,,,,,,,,,,,,,,,,,,,,,,,,,,,,,,,,,,,,,,,,,,,,,,,,,771.14,777.464,0.027644231,0.027644231,1,0,0,0.316,compass,0,9,9,9,1,SoundStimuli/Despacito_LuisFonsiDaddyYankee_Original5S.wav,,,,,,,,,,,,,,,,,,,,,,,,,,,,,,,,,,,,,,,,,,,,,,,,,,,
,,,,,128549,001,2024-07-12_19h01.24.612,experiment,2024.1.5,MacIntel,58.82352941,664576e027348efebb4dc5ac,6691931c2c63981b064e1f0c,6691b5adc411bda01c7fb378,,,,,,,,,,,,,,,,,,,,,,,,,,,,,,,,,,,,,,,,,,,,,,,,,,,,,,,,,,,,777.464,783.825,-0.219951923,0.240384615,1,0,0,0.35,compass,0,10,10,23,1,SoundStimuli/StrawberryFieldsForever_TheBeatles_Cover5S.wav,,,,,,,,,,,,,,,,,,,,,,,,,,,,,,,,,,,,,,,,,,,,,,,,,,,
,,,,,128549,001,2024-07-12_19h01.24.612,experiment,2024.1.5,MacIntel,58.82352941,664576e027348efebb4dc5ac,6691931c2c63981b064e1f0c,6691b5adc411bda01c7fb378,,,,,,,,,,,,,,,,,,,,,,,,,,,,,,,,,,,,,,,,,,,,,,,,,,,,,,,,,,,,783.826,790.213,0.120192308,-0.105769231,1,0,0,0.382,compass,0,11,11,19,1,SoundStimuli/LetsGetItOn_MarvinGaye_Original5S.wav,,,,,,,,,,,,,,,,,,,,,,,,,,,,,,,,,,,,,,,,,,,,,,,,,,,
,,,,,128549,001,2024-07-12_19h01.24.612,experiment,2024.1.5,MacIntel,58.82352941,664576e027348efebb4dc5ac,6691931c2c63981b064e1f0c,6691b5adc411bda01c7fb378,,,,,,,,,,,,,,,,,,,,,,,,,,,,,,,,,,,,,,,,,,,,,,,,,,,,,,,,,,,,790.214,796.533,0.171875,0.163461538,1,0,0,0.314,compass,0,12,12,11,1,SoundStimuli/Superstition_StevieWonder_Original5S.wav,,,,,,,,,,,,,,,,,,,,,,,,,,,,,,,,,,,,,,,,,,,,,,,,,,,
,,,,,128549,001,2024-07-12_19h01.24.612,experiment,2024.1.5,MacIntel,58.82352941,664576e027348efebb4dc5ac,6691931c2c63981b064e1f0c,6691b5adc411bda01c7fb378,,,,,,,,,,,,,,,,,,,,,,,,,,,,,,,,,,,,,,,,,,,,,,,,,,,,,,,,,,,,796.533,803.163,-0.337740385,0.340144231,1,0,0,0.624,compass,0,13,13,25,1,SoundStimuli/Respect_ArethaFranklin_Cover5S.wav,,,,,,,,,,,,,,,,,,,,,,,,,,,,,,,,,,,,,,,,,,,,,,,,,,,
,,,,,128549,001,2024-07-12_19h01.24.612,experiment,2024.1.5,MacIntel,58.82352941,664576e027348efebb4dc5ac,6691931c2c63981b064e1f0c,6691b5adc411bda01c7fb378,,,,,,,,,,,,,,,,,,,,,,,,,,,,,,,,,,,,,,,,,,,,,,,,,,,,,,,,,,,,803.164,810.563,-0.087740385,0.102163462,1,0,0,1.384,compass,0,14,14,32,1,SoundStimuli/HeatWaves_GlassAnimals_Cover5S.wav,,,,,,,,,,,,,,,,,,,,,,,,,,,,,,,,,,,,,,,,,,,,,,,,,,,
,,,,,128549,001,2024-07-12_19h01.24.612,experiment,2024.1.5,MacIntel,58.82352941,664576e027348efebb4dc5ac,6691931c2c63981b064e1f0c,6691b5adc411bda01c7fb378,,,,,,,,,,,,,,,,,,,,,,,,,,,,,,,,,,,,,,,,,,,,,,,,,,,,,,,,,,,,810.564,817.743,-0.314903846,0.314903846,1,0,0,1.167,compass,0,15,15,15,1,SoundStimuli/TikTok_Kesha_Original5S.wav,,,,,,,,,,,,,,,,,,,,,,,,,,,,,,,,,,,,,,,,,,,,,,,,,,,
,,,,,128549,001,2024-07-12_19h01.24.612,experiment,2024.1.5,MacIntel,58.82352941,664576e027348efebb4dc5ac,6691931c2c63981b064e1f0c,6691b5adc411bda01c7fb378,,,,,,,,,,,,,,,,,,,,,,,,,,,,,,,,,,,,,,,,,,,,,,,,,,,,,,,,,,,,817.744,824.11,-0.138221154,0.133413462,1,0,0,0.352,compass,0,16,16,2,1,SoundStimuli/Mood_24kGoldnianndior_Original5S.wav,,,,,,,,,,,,,,,,,,,,,,,,,,,,,,,,,,,,,,,,,,,,,,,,,,,
,,,,,128549,001,2024-07-12_19h01.24.612,experiment,2024.1.5,MacIntel,58.82352941,664576e027348efebb4dc5ac,6691931c2c63981b064e1f0c,6691b5adc411bda01c7fb378,,,,,,,,,,,,,,,,,,,,,,,,,,,,,,,,,,,,,,,,,,,,,,,,,,,,,,,,,,,,824.11,830.47,-0.090144231,0.099759615,1,0,0,0.355,compass,0,17,17,30,1,SoundStimuli/PokerFace_LadyGaga_Cover5S.wav,,,,,,,,,,,,,,,,,,,,,,,,,,,,,,,,,,,,,,,,,,,,,,,,,,,
,,,,,128549,001,2024-07-12_19h01.24.612,experiment,2024.1.5,MacIntel,58.82352941,664576e027348efebb4dc5ac,6691931c2c63981b064e1f0c,6691b5adc411bda01c7fb378,,,,,,,,,,,,,,,,,,,,,,,,,,,,,,,,,,,,,,,,,,,,,,,,,,,,,,,,,,,,830.471,837.335,0.098557692,0.069711538,1,0,0,0.85,compass,0,18,18,31,1,SoundStimuli/TheBattleOfNewOrleans_JohnnyHorton_Original5S.wav,,,,,,,,,,,,,,,,,,,,,,,,,,,,,,,,,,,,,,,,,,,,,,,,,,,
,,,,,128549,001,2024-07-12_19h01.24.612,experiment,2024.1.5,MacIntel,58.82352941,664576e027348efebb4dc5ac,6691931c2c63981b064e1f0c,6691b5adc411bda01c7fb378,,,,,,,,,,,,,,,,,,,,,,,,,,,,,,,,,,,,,,,,,,,,,,,,,,,,,,,,,,,,837.335,843.675,-0.097355769,0.090144231,1,0,0,0.333,compass,0,19,19,7,1,SoundStimuli/NoOne_AliciaKeys_Original5S.wav,,,,,,,,,,,,,,,,,,,,,,,,,,,,,,,,,,,,,,,,,,,,,,,,,,,
,,,,,128549,001,2024-07-12_19h01.24.612,experiment,2024.1.5,MacIntel,58.82352941,664576e027348efebb4dc5ac,6691931c2c63981b064e1f0c,6691b5adc411bda01c7fb378,,,,,,,,,,,,,,,,,,,,,,,,,,,,,,,,,,,,,,,,,,,,,,,,,,,,,,,,,,,,843.675,850.082,-0.103365385,-0.097355769,1,0,0,0.4,compass,0,20,20,17,1,SoundStimuli/Fallin_AliciaKeys_Cover5S.wav,,,,,,,,,,,,,,,,,,,,,,,,,,,,,,,,,,,,,,,,,,,,,,,,,,,
,,,,,128549,001,2024-07-12_19h01.24.612,experiment,2024.1.5,MacIntel,58.82352941,664576e027348efebb4dc5ac,6691931c2c63981b064e1f0c,6691b5adc411bda01c7fb378,,,,,,,,,,,,,,,,,,,,,,,,,,,,,,,,,,,,,,,,,,,,,,,,,,,,,,,,,,,,850.083,856.412,0.075721154,0.082932692,1,0,0,0.315,compass,0,21,21,20,1,SoundStimuli/HeyYa_Outkast_Original5S.wav,,,,,,,,,,,,,,,,,,,,,,,,,,,,,,,,,,,,,,,,,,,,,,,,,,,
,,,,,128549,001,2024-07-12_19h01.24.612,experiment,2024.1.5,MacIntel,58.82352941,664576e027348efebb4dc5ac,6691931c2c63981b064e1f0c,6691b5adc411bda01c7fb378,,,,,,,,,,,,,,,,,,,,,,,,,,,,,,,,,,,,,,,,,,,,,,,,,,,,,,,,,,,,856.413,863.287,0.091346154,0.069711538,1,0,0,0.873,compass,0,22,22,14,1,SoundStimuli/BlindingLights_TheWeeknd_Cover5S.wav,,,,,,,,,,,,,,,,,,,,,,,,,,,,,,,,,,,,,,,,,,,,,,,,,,,
,,,,,128549,001,2024-07-12_19h01.24.612,experiment,2024.1.5,MacIntel,58.82352941,664576e027348efebb4dc5ac,6691931c2c63981b064e1f0c,6691b5adc411bda01c7fb378,,,,,,,,,,,,,,,,,,,,,,,,,,,,,,,,,,,,,,,,,,,,,,,,,,,,,,,,,,,,863.287,869.813,0.042067308,0.028846154,1,0,0,0.517,compass,0,23,23,4,1,SoundStimuli/GetUrFreakOn_MissyElliot_Cover5S.wav,,,,,,,,,,,,,,,,,,,,,,,,,,,,,,,,,,,,,,,,,,,,,,,,,,,
,,,,,128549,001,2024-07-12_19h01.24.612,experiment,2024.1.5,MacIntel,58.82352941,664576e027348efebb4dc5ac,6691931c2c63981b064e1f0c,6691b5adc411bda01c7fb378,,,,,,,,,,,,,,,,,,,,,,,,,,,,,,,,,,,,,,,,,,,,,,,,,,,,,,,,,,,,869.814,876.987,0.048076923,-0.048076923,1,0,0,1.164,compass,0,24,24,1,1,SoundStimuli/Stronger_KanyeWest_Cover5S.wav,,,,,,,,,,,,,,,,,,,,,,,,,,,,,,,,,,,,,,,,,,,,,,,,,,,
,,,,,128549,001,2024-07-12_19h01.24.612,experiment,2024.1.5,MacIntel,58.82352941,664576e027348efebb4dc5ac,6691931c2c63981b064e1f0c,6691b5adc411bda01c7fb378,,,,,,,,,,,,,,,,,,,,,,,,,,,,,,,,,,,,,,,,,,,,,,,,,,,,,,,,,,,,876.988,883.568,-0.075721154,-0.069711538,1,0,0,0.569,compass,0,25,25,13,1,SoundStimuli/GodOnlyKnows_TheBeachBoys_Original5S.wav,,,,,,,,,,,,,,,,,,,,,,,,,,,,,,,,,,,,,,,,,,,,,,,,,,,
,,,,,128549,001,2024-07-12_19h01.24.612,experiment,2024.1.5,MacIntel,58.82352941,664576e027348efebb4dc5ac,6691931c2c63981b064e1f0c,6691b5adc411bda01c7fb378,,,,,,,,,,,,,,,,,,,,,,,,,,,,,,,,,,,,,,,,,,,,,,,,,,,,,,,,,,,,883.568,890.022,-0.179086538,-0.171875,1,0,0,0.451,compass,0,26,26,12,1,SoundStimuli/IWillAlwaysLoveYou_WhitneyHouston_Original5S.wav,,,,,,,,,,,,,,,,,,,,,,,,,,,,,,,,,,,,,,,,,,,,,,,,,,,
,,,,,128549,001,2024-07-12_19h01.24.612,experiment,2024.1.5,MacIntel,58.82352941,664576e027348efebb4dc5ac,6691931c2c63981b064e1f0c,6691b5adc411bda01c7fb378,,,,,,,,,,,,,,,,,,,,,,,,,,,,,,,,,,,,,,,,,,,,,,,,,,,,,,,,,,,,890.023,896.509,-0.162259615,-0.135817308,1,0,0,0.483,compass,0,27,27,29,1,SoundStimuli/OldTownRoad_LilNasX_Cover5S.wav,,,,,,,,,,,,,,,,,,,,,,,,,,,,,,,,,,,,,,,,,,,,,,,,,,,
,,,,,128549,001,2024-07-12_19h01.24.612,experiment,2024.1.5,MacIntel,58.82352941,664576e027348efebb4dc5ac,6691931c2c63981b064e1f0c,6691b5adc411bda01c7fb378,,,,,,,,,,,,,,,,,,,,,,,,,,,,,,,,,,,,,,,,,,,,,,,,,,,,,,,,,,,,896.509,902.8,0.112980769,-0.100961538,1,0,0,0.283,compass,0,28,28,27,1,SoundStimuli/ShapeofYou_EdSheeran_Cover5S.wav,,,,,,,,,,,,,,,,,,,,,,,,,,,,,,,,,,,,,,,,,,,,,,,,,,,
,,,,,128549,001,2024-07-12_19h01.24.612,experiment,2024.1.5,MacIntel,58.82352941,664576e027348efebb4dc5ac,6691931c2c63981b064e1f0c,6691b5adc411bda01c7fb378,,,,,,,,,,,,,,,,,,,,,,,,,,,,,,,,,,,,,,,,,,,,,,,,,,,,,,,,,,,,902.8,909.22,0.112980769,-0.100961538,1,0,0,0.416,compass,0,29,29,33,1,SoundStimuli/StandByMe_BenEKing_Original5S.wav,,,,,,,,,,,,,,,,,,,,,,,,,,,,,,,,,,,,,,,,,,,,,,,,,,,
,,,,,128549,001,2024-07-12_19h01.24.612,experiment,2024.1.5,MacIntel,58.82352941,664576e027348efebb4dc5ac,6691931c2c63981b064e1f0c,6691b5adc411bda01c7fb378,,,,,,,,,,,,,,,,,,,,,,,,,,,,,,,,,,,,,,,,,,,,,,,,,,,,,,,,,,,,909.221,916.023,0.217548077,0.252403846,1,0,0,0.798,compass,0,30,30,26,1,SoundStimuli/LivinOnAPrayer_BonJovi_Original5S.wav,,,,,,,,,,,,,,,,,,,,,,,,,,,,,,,,,,,,,,,,,,,,,,,,,,,
,,,,,128549,001,2024-07-12_19h01.24.612,experiment,2024.1.5,MacIntel,58.82352941,664576e027348efebb4dc5ac,6691931c2c63981b064e1f0c,6691b5adc411bda01c7fb378,,,,,,,,,,,,,,,,,,,,,,,,,,,,,,,,,,,,,,,,,,,,,,,,,,,,,,,,,,,,916.024,922.342,-0.157451923,-0.155048077,1,0,0,0.315,compass,0,31,31,10,1,SoundStimuli/BadDay_DanielPowter_Original5S.wav,,,,,,,,,,,,,,,,,,,,,,,,,,,,,,,,,,,,,,,,,,,,,,,,,,,
,,,,,128549,001,2024-07-12_19h01.24.612,experiment,2024.1.5,MacIntel,58.82352941,664576e027348efebb4dc5ac,6691931c2c63981b064e1f0c,6691b5adc411bda01c7fb378,,,,,,,,,,,,,,,,,,,,,,,,,,,,,,,,,,,,,,,,,,,,,,,,,,,,,,,,,,,,922.342,928.639,0.155048077,-0.149038462,1,0,0,0.293,compass,0,32,32,22,1,SoundStimuli/RockWithYou_MichaelJackson_Cover5S.wav,,,,,,,,,,,,,,,,,,,,,,,,,,,,,,,,,,,,,,,,,,,,,,,,,,,
,,,,,128549,001,2024-07-12_19h01.24.612,experiment,2024.1.5,MacIntel,58.82352941,664576e027348efebb4dc5ac,6691931c2c63981b064e1f0c,6691b5adc411bda01c7fb378,,,,,,,,,,,,,,,,,,,,,,,,,,,,,,,,,,,,,,,,,,,,,,,,,,,,,,,,,,,,928.64,936.756,0.117788462,0.115384615,1,0,0,2.105,compass,0,33,33,28,1,SoundStimuli/ComeAndGetYourLove_Redbone_Cover5S.wav,,,,,,,,,,,,,,,,,,,,,,,,,,,,,,,,,,,,,,,,,,,,,,,,,,,
,,,,,128549,001,2024-07-12_19h01.24.612,experiment,2024.1.5,MacIntel,58.82352941,664576e027348efebb4dc5ac,6691931c2c63981b064e1f0c,6691b5adc411bda01c7fb378,,,,,,,,,,,,,,,,,,,,,,,,,,,,,,,,,,,,,,,,,,,,,,,,,,,,,,,,,,,,936.757,943.108,-0.201923077,0.175480769,1,0,0,0.35,compass,0,34,34,16,1,SoundStimuli/BohemianRhapsody_Queen_Cover5S.wav,,,,,,,,,,,,,,,,,,,,,,,,,,,,,,,,,,,,,,,,,,,,,,,,,,,
,,,,,128549,001,2024-07-12_19h01.24.612,experiment,2024.1.5,MacIntel,58.82352941,664576e027348efebb4dc5ac,6691931c2c63981b064e1f0c,6691b5adc411bda01c7fb378,,,,,,,,,,,,,,,,,,,,,,,,,,,,,,,,,,,,,,,,,,,,,,,,,,,,,,,,,,,,,,,,,,,,,,,,,,,943.109,944.188,space,1.073,,944.188,945.296,right,1.098,,0,2,2,2,1,block_order/blockC.xlsx,,,,,,,,,,,,,,,,,,,,,,,,,,,,,,,,,,,
,,,,,128549,001,2024-07-12_19h01.24.612,experiment,2024.1.5,MacIntel,58.82352941,664576e027348efebb4dc5ac,6691931c2c63981b064e1f0c,6691b5adc411bda01c7fb378,,,,,,,,,,,,,,,,,,,,,,,,,,,,,,,,,,,,,,,,,,,,,,,,,,,,,,,,,,,,945.301,952.177,0.200721154,0.229567308,1,0,0,0.87,compass,0,0,0,0,1,SoundStimuli/GimmeShelter_RollingStones_Original5S.wav,,,,,,,,,,,,,,,,,,,,,,,,,,,,,,,,,,,,,,,,,,,,,,,,,,,
,,,,,128549,001,2024-07-12_19h01.24.612,experiment,2024.1.5,MacIntel,58.82352941,664576e027348efebb4dc5ac,6691931c2c63981b064e1f0c,6691b5adc411bda01c7fb378,,,,,,,,,,,,,,,,,,,,,,,,,,,,,,,,,,,,,,,,,,,,,,,,,,,,,,,,,,,,952.177,958.575,0.335336538,0.338942308,1,0,0,0.382,compass,0,1,1,20,1,SoundStimuli/FlashdanceWhatAFeeling_IreneCara_Original5S.wav,,,,,,,,,,,,,,,,,,,,,,,,,,,,,,,,,,,,,,,,,,,,,,,,,,,
,,,,,128549,001,2024-07-12_19h01.24.612,experiment,2024.1.5,MacIntel,58.82352941,664576e027348efebb4dc5ac,6691931c2c63981b064e1f0c,6691b5adc411bda01c7fb378,,,,,,,,,,,,,,,,,,,,,,,,,,,,,,,,,,,,,,,,,,,,,,,,,,,,,,,,,,,,958.575,964.967,0.073317308,0.068509615,1,0,0,0.386,compass,0,2,2,5,1,SoundStimuli/JoyToTheWorld_ThreeDogNight_Original5S.wav,,,,,,,,,,,,,,,,,,,,,,,,,,,,,,,,,,,,,,,,,,,,,,,,,,,
,,,,,128549,001,2024-07-12_19h01.24.612,experiment,2024.1.5,MacIntel,58.82352941,664576e027348efebb4dc5ac,6691931c2c63981b064e1f0c,6691b5adc411bda01c7fb378,,,,,,,,,,,,,,,,,,,,,,,,,,,,,,,,,,,,,,,,,,,,,,,,,,,,,,,,,,,,964.967,971.317,0.125,-0.128605769,1,0,0,0.338,compass,0,3,3,23,1,SoundStimuli/IWalkTheLine_JohnnyCash_Original5S.wav,,,,,,,,,,,,,,,,,,,,,,,,,,,,,,,,,,,,,,,,,,,,,,,,,,,
,,,,,128549,001,2024-07-12_19h01.24.612,experiment,2024.1.5,MacIntel,58.82352941,664576e027348efebb4dc5ac,6691931c2c63981b064e1f0c,6691b5adc411bda01c7fb378,,,,,,,,,,,,,,,,,,,,,,,,,,,,,,,,,,,,,,,,,,,,,,,,,,,,,,,,,,,,971.318,977.664,0.144230769,-0.096153846,1,0,0,0.337,compass,0,4,4,25,1,SoundStimuli/IllMakeLoveToYou_BoyzIIMen_Cover5S.wav,,,,,,,,,,,,,,,,,,,,,,,,,,,,,,,,,,,,,,,,,,,,,,,,,,,
,,,,,128549,001,2024-07-12_19h01.24.612,experiment,2024.1.5,MacIntel,58.82352941,664576e027348efebb4dc5ac,6691931c2c63981b064e1f0c,6691b5adc411bda01c7fb378,,,,,,,,,,,,,,,,,,,,,,,,,,,,,,,,,,,,,,,,,,,,,,,,,,,,,,,,,,,,977.664,983.931,-0.151442308,-0.111778846,1,0,0,0.262,compass,0,5,5,6,1,SoundStimuli/SaveYourTears_TheWeekndArianaGrande_Cover5S.wav,,,,,,,,,,,,,,,,,,,,,,,,,,,,,,,,,,,,,,,,,,,,,,,,,,,
,,,,,128549,001,2024-07-12_19h01.24.612,experiment,2024.1.5,MacIntel,58.82352941,664576e027348efebb4dc5ac,6691931c2c63981b064e1f0c,6691b5adc411bda01c7fb378,,,,,,,,,,,,,,,,,,,,,,,,,,,,,,,,,,,,,,,,,,,,,,,,,,,,,,,,,,,,983.931,990.676,-0.338942308,-0.332932692,1,0,0,0.745,compass,0,6,6,12,1,SoundStimuli/UnbreakMyHeart_ToniBraxton_Original5S.wav,,,,,,,,,,,,,,,,,,,,,,,,,,,,,,,,,,,,,,,,,,,,,,,,,,,
,,,,,128549,001,2024-07-12_19h01.24.612,experiment,2024.1.5,MacIntel,58.82352941,664576e027348efebb4dc5ac,6691931c2c63981b064e1f0c,6691b5adc411bda01c7fb378,,,,,,,,,,,,,,,,,,,,,,,,,,,,,,,,,,,,,,,,,,,,,,,,,,,,,,,,,,,,990.677,996.948,0.280048077,-0.283653846,1,0,0,0.256,compass,0,7,7,19,1,SoundStimuli/YouLightUpMyLife_DebbyBoone_Original5S.wav,,,,,,,,,,,,,,,,,,,,,,,,,,,,,,,,,,,,,,,,,,,,,,,,,,,
,,,,,128549,001,2024-07-12_19h01.24.612,experiment,2024.1.5,MacIntel,58.82352941,664576e027348efebb4dc5ac,6691931c2c63981b064e1f0c,6691b5adc411bda01c7fb378,,,,,,,,,,,,,,,,,,,,,,,,,,,,,,,,,,,,,,,,,,,,,,,,,,,,,,,,,,,,996.949,1003.671,0.040865385,0.054086538,1,0,0,0.709,compass,0,8,8,24,1,SoundStimuli/Kiss_Prince_Cover5S.wav,,,,,,,,,,,,,,,,,,,,,,,,,,,,,,,,,,,,,,,,,,,,,,,,,,,
,,,,,128549,001,2024-07-12_19h01.24.612,experiment,2024.1.5,MacIntel,58.82352941,664576e027348efebb4dc5ac,6691931c2c63981b064e1f0c,6691b5adc411bda01c7fb378,,,,,,,,,,,,,,,,,,,,,,,,,,,,,,,,,,,,,,,,,,,,,,,,,,,,,,,,,,,,1003.672,1010.097,0.334134615,0.337740385,1,0,0,0.415,compass,0,9,9,22,1,SoundStimuli/Happy_PharellWilliams_Original5S.wav,,,,,,,,,,,,,,,,,,,,,,,,,,,,,,,,,,,,,,,,,,,,,,,,,,,
,,,,,128549,001,2024-07-12_19h01.24.612,experiment,2024.1.5,MacIntel,58.82352941,664576e027348efebb4dc5ac,6691931c2c63981b064e1f0c,6691b5adc411bda01c7fb378,,,,,,,,,,,,,,,,,,,,,,,,,,,,,,,,,,,,,,,,,,,,,,,,,,,,,,,,,,,,1010.097,1016.524,0.15625,-0.165865385,1,0,0,0.421,compass,0,10,10,34,1,SoundStimuli/Irreplaceable_Beyonce_Cover5S.wav,,,,,,,,,,,,,,,,,,,,,,,,,,,,,,,,,,,,,,,,,,,,,,,,,,,
,,,,,128549,001,2024-07-12_19h01.24.612,experiment,2024.1.5,MacIntel,58.82352941,664576e027348efebb4dc5ac,6691931c2c63981b064e1f0c,6691b5adc411bda01c7fb378,,,,,,,,,,,,,,,,,,,,,,,,,,,,,,,,,,,,,,,,,,,,,,,,,,,,,,,,,,,,1016.525,1023.004,0.116586538,-0.125,1,0,0,0.465,compass,0,11,11,13,1,SoundStimuli/Perfect_EdSheeran_Cover5S.wav,,,,,,,,,,,,,,,,,,,,,,,,,,,,,,,,,,,,,,,,,,,,,,,,,,,
,,,,,128549,001,2024-07-12_19h01.24.612,experiment,2024.1.5,MacIntel,58.82352941,664576e027348efebb4dc5ac,6691931c2c63981b064e1f0c,6691b5adc411bda01c7fb378,,,,,,,,,,,,,,,,,,,,,,,,,,,,,,,,,,,,,,,,,,,,,,,,,,,,,,,,,,,,1023.004,1029.433,-0.096153846,0.096153846,1,0,0,0.414,compass,0,12,12,10,1,SoundStimuli/LeFreak_Chic_Cover5S.wav,,,,,,,,,,,,,,,,,,,,,,,,,,,,,,,,,,,,,,,,,,,,,,,,,,,
,,,,,128549,001,2024-07-12_19h01.24.612,experiment,2024.1.5,MacIntel,58.82352941,664576e027348efebb4dc5ac,6691931c2c63981b064e1f0c,6691b5adc411bda01c7fb378,,,,,,,,,,,,,,,,,,,,,,,,,,,,,,,,,,,,,,,,,,,,,,,,,,,,,,,,,,,,1029.433,1035.875,-0.336538462,0.331730769,1,0,0,0.431,compass,0,13,13,2,1,SoundStimuli/SmellsLikeTeenSpirit_Nirvana_Original5S.wav,,,,,,,,,,,,,,,,,,,,,,,,,,,,,,,,,,,,,,,,,,,,,,,,,,,
,,,,,128549,001,2024-07-12_19h01.24.612,experiment,2024.1.5,MacIntel,58.82352941,664576e027348efebb4dc5ac,6691931c2c63981b064e1f0c,6691b5adc411bda01c7fb378,,,,,,,,,,,,,,,,,,,,,,,,,,,,,,,,,,,,,,,,,,,,,,,,,,,,,,,,,,,,1035.876,1042.422,0.197115385,0.209134615,1,0,0,0.532,compass,0,14,14,4,1,SoundStimuli/Dreams_FleetwoodMac_Original5S.wav,,,,,,,,,,,,,,,,,,,,,,,,,,,,,,,,,,,,,,,,,,,,,,,,,,,
,,,,,128549,001,2024-07-12_19h01.24.612,experiment,2024.1.5,MacIntel,58.82352941,664576e027348efebb4dc5ac,6691931c2c63981b064e1f0c,6691b5adc411bda01c7fb378,,,,,,,,,,,,,,,,,,,,,,,,,,,,,,,,,,,,,,,,,,,,,,,,,,,,,,,,,,,,1042.422,1048.883,0.105769231,0.146634615,1,0,0,0.447,compass,0,15,15,31,1,SoundStimuli/TossinAndTurnin_BobbyLewis_Original5S.wav,,,,,,,,,,,,,,,,,,,,,,,,,,,,,,,,,,,,,,,,,,,,,,,,,,,
,,,,,128549,001,2024-07-12_19h01.24.612,experiment,2024.1.5,MacIntel,58.82352941,664576e027348efebb4dc5ac,6691931c2c63981b064e1f0c,6691b5adc411bda01c7fb378,,,,,,,,,,,,,,,,,,,,,,,,,,,,,,,,,,,,,,,,,,,,,,,,,,,,,,,,,,,,1048.883,1055.223,0.194711538,0.223557692,1,0,0,0.327,compass,0,16,16,29,1,SoundStimuli/BetteDavisEyes_KimCarnes_Original5S.wav,,,,,,,,,,,,,,,,,,,,,,,,,,,,,,,,,,,,,,,,,,,,,,,,,,,
,,,,,128549,001,2024-07-12_19h01.24.612,experiment,2024.1.5,MacIntel,58.82352941,664576e027348efebb4dc5ac,6691931c2c63981b064e1f0c,6691b5adc411bda01c7fb378,,,,,,,,,,,,,,,,,,,,,,,,,,,,,,,,,,,,,,,,,,,,,,,,,,,,,,,,,,,,1055.223,1061.832,0.182692308,0.210336538,1,0,0,0.591,compass,0,17,17,11,1,SoundStimuli/BlurredLines_RobinThicke_Cover5S.wav,,,,,,,,,,,,,,,,,,,,,,,,,,,,,,,,,,,,,,,,,,,,,,,,,,,
,,,,,128549,001,2024-07-12_19h01.24.612,experiment,2024.1.5,MacIntel,58.82352941,664576e027348efebb4dc5ac,6691931c2c63981b064e1f0c,6691b5adc411bda01c7fb378,,,,,,,,,,,,,,,,,,,,,,,,,,,,,,,,,,,,,,,,,,,,,,,,,,,,,,,,,,,,1061.832,1068.121,-0.188701923,0.200721154,1,0,0,0.283,compass,0,18,18,30,1,SoundStimuli/SomebodyThatIUsedtoKnow_Gotye_Original5S.wav,,,,,,,,,,,,,,,,,,,,,,,,,,,,,,,,,,,,,,,,,,,,,,,,,,,
,,,,,128549,001,2024-07-12_19h01.24.612,experiment,2024.1.5,MacIntel,58.82352941,664576e027348efebb4dc5ac,6691931c2c63981b064e1f0c,6691b5adc411bda01c7fb378,,,,,,,,,,,,,,,,,,,,,,,,,,,,,,,,,,,,,,,,,,,,,,,,,,,,,,,,,,,,1068.121,1074.696,-0.205528846,-0.167067308,1,0,0,0.569,compass,0,19,19,8,1,SoundStimuli/EndlessLove_DianaRossLionelRichie_Cover5S.wav,,,,,,,,,,,,,,,,,,,,,,,,,,,,,,,,,,,,,,,,,,,,,,,,,,,
,,,,,128549,001,2024-07-12_19h01.24.612,experiment,2024.1.5,MacIntel,58.82352941,664576e027348efebb4dc5ac,6691931c2c63981b064e1f0c,6691b5adc411bda01c7fb378,,,,,,,,,,,,,,,,,,,,,,,,,,,,,,,,,,,,,,,,,,,,,,,,,,,,,,,,,,,,1074.696,1081.349,-0.205528846,-0.168269231,1,0,0,0.635,compass,0,20,20,16,1,SoundStimuli/ItsAllInTheGame_TommyEdwards_Cover5S.wav,,,,,,,,,,,,,,,,,,,,,,,,,,,,,,,,,,,,,,,,,,,,,,,,,,,
,,,,,128549,001,2024-07-12_19h01.24.612,experiment,2024.1.5,MacIntel,58.82352941,664576e027348efebb4dc5ac,6691931c2c63981b064e1f0c,6691b5adc411bda01c7fb378,,,,,,,,,,,,,,,,,,,,,,,,,,,,,,,,,,,,,,,,,,,,,,,,,,,,,,,,,,,,1081.35,1087.696,0.15625,-0.168269231,1,0,0,0.332,compass,0,21,21,15,1,SoundStimuli/CrazyInLove_BeyonceFtJayZ_Cover5S.wav,,,,,,,,,,,,,,,,,,,,,,,,,,,,,,,,,,,,,,,,,,,,,,,,,,,
,,,,,128549,001,2024-07-12_19h01.24.612,experiment,2024.1.5,MacIntel,58.82352941,664576e027348efebb4dc5ac,6691931c2c63981b064e1f0c,6691b5adc411bda01c7fb378,,,,,,,,,,,,,,,,,,,,,,,,,,,,,,,,,,,,,,,,,,,,,,,,,,,,,,,,,,,,1087.696,1093.921,0.328125,0.331730769,1,0,0,0.211,compass,0,22,22,3,1,SoundStimuli/PartyRockAnthem_LMFAO_Original5S.wav,,,,,,,,,,,,,,,,,,,,,,,,,,,,,,,,,,,,,,,,,,,,,,,,,,,
,,,,,128549,001,2024-07-12_19h01.24.612,experiment,2024.1.5,MacIntel,58.82352941,664576e027348efebb4dc5ac,6691931c2c63981b064e1f0c,6691b5adc411bda01c7fb378,,,,,,,,,,,,,,,,,,,,,,,,,,,,,,,,,,,,,,,,,,,,,,,,,,,,,,,,,,,,1093.922,1100.307,-0.201923077,0.206730769,1,0,0,0.367,compass,0,23,23,26,1,SoundStimuli/TheSign_AceOfBase_Cover5S.wav,,,,,,,,,,,,,,,,,,,,,,,,,,,,,,,,,,,,,,,,,,,,,,,,,,,
,,,,,128549,001,2024-07-12_19h01.24.612,experiment,2024.1.5,MacIntel,58.82352941,664576e027348efebb4dc5ac,6691931c2c63981b064e1f0c,6691b5adc411bda01c7fb378,,,,,,,,,,,,,,,,,,,,,,,,,,,,,,,,,,,,,,,,,,,,,,,,,,,,,,,,,,,,1100.307,1106.714,-0.320913462,0.317307692,1,0,0,0.401,compass,0,24,24,7,1,SoundStimuli/MackTheKnife_BobbyDarin_Cover5S.wav,,,,,,,,,,,,,,,,,,,,,,,,,,,,,,,,,,,,,,,,,,,,,,,,,,,
,,,,,128549,001,2024-07-12_19h01.24.612,experiment,2024.1.5,MacIntel,58.82352941,664576e027348efebb4dc5ac,6691931c2c63981b064e1f0c,6691b5adc411bda01c7fb378,,,,,,,,,,,,,,,,,,,,,,,,,,,,,,,,,,,,,,,,,,,,,,,,,,,,,,,,,,,,1106.714,1113.04,-0.266826923,-0.248798077,1,0,0,0.315,compass,0,25,25,14,1,SoundStimuli/LikeARollingStone_BobDylan_Original5S.wav,,,,,,,,,,,,,,,,,,,,,,,,,,,,,,,,,,,,,,,,,,,,,,,,,,,
,,,,,128549,001,2024-07-12_19h01.24.612,experiment,2024.1.5,MacIntel,58.82352941,664576e027348efebb4dc5ac,6691931c2c63981b064e1f0c,6691b5adc411bda01c7fb378,,,,,,,,,,,,,,,,,,,,,,,,,,,,,,,,,,,,,,,,,,,,,,,,,,,,,,,,,,,,1113.041,1119.139,-0.246394231,-0.216346154,1,0,0,0.083,compass,0,26,26,9,1,SoundStimuli/HowDoILive_LeAnnRimes_Cover5S.wav,,,,,,,,,,,,,,,,,,,,,,,,,,,,,,,,,,,,,,,,,,,,,,,,,,,
,,,,,128549,001,2024-07-12_19h01.24.612,experiment,2024.1.5,MacIntel,58.82352941,664576e027348efebb4dc5ac,6691931c2c63981b064e1f0c,6691b5adc411bda01c7fb378,,,,,,,,,,,,,,,,,,,,,,,,,,,,,,,,,,,,,,,,,,,,,,,,,,,,,,,,,,,,1119.14,1125.258,0.335336538,0.337740385,1,0,0,0.11,compass,0,27,27,17,1,SoundStimuli/IWannaDanceWithSomebody_WhitneyHouston_Original5S.wav,,,,,,,,,,,,,,,,,,,,,,,,,,,,,,,,,,,,,,,,,,,,,,,,,,,
,,,,,128549,001,2024-07-12_19h01.24.612,experiment,2024.1.5,MacIntel,58.82352941,664576e027348efebb4dc5ac,6691931c2c63981b064e1f0c,6691b5adc411bda01c7fb378,,,,,,,,,,,,,,,,,,,,,,,,,,,,,,,,,,,,,,,,,,,,,,,,,,,,,,,,,,,,1125.259,1131.641,-0.170673077,-0.163461538,1,0,0,0.367,compass,0,28,28,18,1,SoundStimuli/Weak_SWV_Cover5S.wav,,,,,,,,,,,,,,,,,,,,,,,,,,,,,,,,,,,,,,,,,,,,,,,,,,,
,,,,,128549,001,2024-07-12_19h01.24.612,experiment,2024.1.5,MacIntel,58.82352941,664576e027348efebb4dc5ac,6691931c2c63981b064e1f0c,6691b5adc411bda01c7fb378,,,,,,,,,,,,,,,,,,,,,,,,,,,,,,,,,,,,,,,,,,,,,,,,,,,,,,,,,,,,1131.642,1138.089,-0.209134615,-0.180288462,1,0,0,0.433,compass,0,29,29,21,1,SoundStimuli/BridgeOverTroubledWater_SimonAndGarfunkel_Original5S.wav,,,,,,,,,,,,,,,,,,,,,,,,,,,,,,,,,,,,,,,,,,,,,,,,,,,
,,,,,128549,001,2024-07-12_19h01.24.612,experiment,2024.1.5,MacIntel,58.82352941,664576e027348efebb4dc5ac,6691931c2c63981b064e1f0c,6691b5adc411bda01c7fb378,,,,,,,,,,,,,,,,,,,,,,,,,,,,,,,,,,,,,,,,,,,,,,,,,,,,,,,,,,,,1138.089,1144.696,-0.209134615,-0.182692308,1,0,0,0.595,compass,0,30,30,32,1,SoundStimuli/Dilemma_NellyKellyRowland_Cover5S.wav,,,,,,,,,,,,,,,,,,,,,,,,,,,,,,,,,,,,,,,,,,,,,,,,,,,
,,,,,128549,001,2024-07-12_19h01.24.612,experiment,2024.1.5,MacIntel,58.82352941,664576e027348efebb4dc5ac,6691931c2c63981b064e1f0c,6691b5adc411bda01c7fb378,,,,,,,,,,,,,,,,,,,,,,,,,,,,,,,,,,,,,,,,,,,,,,,,,,,,,,,,,,,,1144.696,1151.115,0.158653846,0.173076923,1,0,0,0.41,compass,0,31,31,1,1,SoundStimuli/Smooth_SantanaRobThomas_Original5S.wav,,,,,,,,,,,,,,,,,,,,,,,,,,,,,,,,,,,,,,,,,,,,,,,,,,,
,,,,,128549,001,2024-07-12_19h01.24.612,experiment,2024.1.5,MacIntel,58.82352941,664576e027348efebb4dc5ac,6691931c2c63981b064e1f0c,6691b5adc411bda01c7fb378,,,,,,,,,,,,,,,,,,,,,,,,,,,,,,,,,,,,,,,,,,,,,,,,,,,,,,,,,,,,1151.115,1157.505,-0.15625,0.1875,1,0,0,0.384,compass,0,32,32,27,1,SoundStimuli/EyeOfTheTiger_Survivor_Cover5S.wav,,,,,,,,,,,,,,,,,,,,,,,,,,,,,,,,,,,,,,,,,,,,,,,,,,,
,,,,,128549,001,2024-07-12_19h01.24.612,experiment,2024.1.5,MacIntel,58.82352941,664576e027348efebb4dc5ac,6691931c2c63981b064e1f0c,6691b5adc411bda01c7fb378,,,,,,,,,,,,,,,,,,,,,,,,,,,,,,,,,,,,,,,,,,,,,,,,,,,,,,,,,,,,1157.505,1163.663,0.193509615,0.192307692,1,0,0,0.151,compass,0,33,33,28,1,SoundStimuli/IWantToHoldYourHand_TheBeatles_Original5S.wav,,,,,,,,,,,,,,,,,,,,,,,,,,,,,,,,,,,,,,,,,,,,,,,,,,,
,,,,,128549,001,2024-07-12_19h01.24.612,experiment,2024.1.5,MacIntel,58.82352941,664576e027348efebb4dc5ac,6691931c2c63981b064e1f0c,6691b5adc411bda01c7fb378,,,,,,,,,,,,,,,,,,,,,,,,,,,,,,,,,,,,,,,,,,,,,,,,,,,,,,,,,,,,1163.663,1170.053,-0.171875,-0.150240385,1,0,0,0.379,compass,0,34,34,33,1,SoundStimuli/TheBoyIsMine_BrandyMonica_Original5S.wav,,,,,,,,,,,,,,,,,,,,,,,,,,,,,,,,,,,,,,,,,,,,,,,,,,,
,,,,,128549,001,2024-07-12_19h01.24.612,experiment,2024.1.5,MacIntel,58.82352941,664576e027348efebb4dc5ac,6691931c2c63981b064e1f0c,6691b5adc411bda01c7fb378,,,,,,,,,,,,,,,,,,,,,,,,,,,,,,,,,,,,,,,,,,,,,,,,,,,,,,,,,,,,,,,,,,,,,,,,,,,1170.054,1170.055,,,,1170.055,1170.055,,,,0,3,3,3,1,block_order/blockD.xlsx,,,,,,,,,,,,,,,,,,,,,,,,,,,,,,,,,,,
,,,,,128549,001,2024-07-12_19h01.24.612,experiment,2024.1.5,MacIntel,58.82352941,664576e027348efebb4dc5ac,6691931c2c63981b064e1f0c,6691b5adc411bda01c7fb378,,,,,,,,,,,,,,,,,,,,,,,,,,,,,,,,,,,,,,,,,,,,,,,,,,,,,,,,,,,,,,,,,,,,,,,,,,,,,,,,,,,,,,,,,,,30,Item 2,Took guitar lesson from aged 7-13,Item 5,Spotify,3,5,"driving, working",Never,Sometimes,Never,Rarely,Sometimes,Often,Rarely,Always,Rarely,Never,Always,Never,Often,Sometimes,Rarely,Rarely,Electronic (EDM),Pop,Folk/indie,More Electronic (EDM) focused,0,0,0,0,1,,
,,,,,128549,001,2024-07-12_19h01.24.612,experiment,2024.1.5,MacIntel,58.82352941,664576e027348efebb4dc5ac,6691931c2c63981b064e1f0c,6691b5adc411bda01c7fb378,,,,,,,,,,,,,,,,,,,,,,,,,,,,,,,,,,,,,,,,,,,,,,,,,,,,,,,,,,,,,,,,,,,,,,,,,,,,,,,,,,,,,,,,,,,,,,,,,,,,,,,,,,,,,,,,,,,,,,,,,,,,1329.224,1331.677
