welcome.started,welcome.stopped,space_to_continue.keys,space_to_continue.rt,space_to_continue.duration,participant,session,date,expName,psychopyVersion,OS,frameRate,PROLIFIC_PID,STUDY_ID,SESSION_ID,consent.consent,consent.consent_recontact,consent_check.started,consent_check.stopped,calibration_ready.started,calibration_ready.stopped,cal_ready.keys,cal_ready.rt,cal_ready.duration,calibration.started,calibration.stopped,mouse.x,mouse.y,mouse.leftButton,mouse.midButton,mouse.rightButton,mouse.time,mouse.clicked_name,move_on.keys,move_on.rt,move_on.duration,run_cal.thisRepN,run_cal.thisTrialN,run_cal.thisN,run_cal.thisIndex,run_cal.ran,emotion_training_ready.started,emotion_training_ready.stopped,training_move_on.keys,training_move_on.rt,training_move_on.duration,examples.started,examples.stopped,emotion_scale.started,emotion_scale.stopped,scale_next.keys,scale_next.rt,scale_next.duration,instructions.started,instructions.stopped,next.keys,next.rt,next.duration,practice_task.started,practice_task.stopped,mouse_rating_2.x,mouse_rating_2.y,mouse_rating_2.leftButton,mouse_rating_2.midButton,mouse_rating_2.rightButton,mouse_rating_2.time,mouse_rating_2.clicked_name,ready.started,ready.stopped,key_resp.keys,key_resp.rt,key_resp.duration,set_group.started,set_group.stopped,task.started,task.stopped,mouse_rating.x,mouse_rating.y,mouse_rating.leftButton,mouse_rating.midButton,mouse_rating.rightButton,mouse_rating.time,mouse_rating.clicked_name,trials.thisRepN,trials.thisTrialN,trials.thisN,trials.thisIndex,trials.ran,clip,short_break.started,short_break.stopped,space_to_move_on.keys,space_to_move_on.rt,space_to_move_on.duration,instruction_reminder.started,instruction_reminder.stopped,reminder_move_on.keys,reminder_move_on.rt,reminder_move_on.duration,blocks.thisRepN,blocks.thisTrialN,blocks.thisN,blocks.thisIndex,blocks.ran,block,post_survey.age,post_survey.musician,post_survey.music_making,post_survey.listen_time,post_survey.music_seeking,post_survey.music_choice,post_survey.activities,post_survey.question1.Jazz,post_survey.question1.Latin,post_survey.question1.Classic rock,post_survey.question1.Hip hop,post_survey.question1.Ambient,post_survey.question1.Folk/indie,post_survey.question1.Metal,post_survey.question1.Country,post_survey.question1.Alternative rock,post_survey.question1.A cappella,post_survey.question1.Reggae,post_survey.question1.Disco,post_survey.question1.Electronic (EDM),post_survey.question1.Classical,post_survey.question1.R&B,post_survey.question1.Pop,post_survey.other_genres,post_survey.genres_ranked.text1,post_survey.genres_ranked.text2,post_survey.genres_ranked.text3,post_survey.habit_change,post_survey.habits,show_exp.thisRepN,show_exp.thisTrialN,show_exp.thisN,show_exp.thisIndex,show_exp.ran,goodbye.started,goodbye.stopped
0,4.455,space,4.42,,185931,001,2024-07-12_18h34.31.351,experiment,2024.1.5,Win32,59.95203837,6653ff8147de9950238b7a43,6691931c2c63981b064e1f0c,6691bcecd4944b412a8b22f0,,,,,,,,,,,,,,,,,,,,,,,,,,,,,,,,,,,,,,,,,,,,,,,,,,,,,,,,,,,,,,,,,,,,,,,,,,,,,,,,,,,,,,,,,,,,,,,,,,,,,,,,,,,,,,,,,,,,,,,,,,,,,,
,,,,,185931,001,2024-07-12_18h34.31.351,experiment,2024.1.5,Win32,59.95203837,6653ff8147de9950238b7a43,6691931c2c63981b064e1f0c,6691bcecd4944b412a8b22f0,yes,yes,,,,,,,,,,,,,,,,,,,,,,,,,,,,,,,,,,,,,,,,,,,,,,,,,,,,,,,,,,,,,,,,,,,,,,,,,,,,,,,,,,,,,,,,,,,,,,,,,,,,,,,,,,,,,,,,,,,,,,,,,,,,
,,,,,185931,001,2024-07-12_18h34.31.351,experiment,2024.1.5,Win32,59.95203837,6653ff8147de9950238b7a43,6691931c2c63981b064e1f0c,6691bcecd4944b412a8b22f0,,,135.495,135.495,,,,,,,,,,,,,,,,,,,,,,,,,,,,,,,,,,,,,,,,,,,,,,,,,,,,,,,,,,,,,,,,,,,,,,,,,,,,,,,,,,,,,,,,,,,,,,,,,,,,,,,,,,,,,,,,,,,,,,,,,,
,,,,,185931,001,2024-07-12_18h34.31.351,experiment,2024.1.5,Win32,59.95203837,6653ff8147de9950238b7a43,6691931c2c63981b064e1f0c,6691bcecd4944b412a8b22f0,,,,,135.504,148.343,space,12.77,,148.346,201.898,[-0.03125],[-0.4049479166666667],[1],[0],[0],[47.851999999999975],[],y,52.507,,0,0,0,0,1,,,,,,,,,,,,,,,,,,,,,,,,,,,,,,,,,,,,,,,,,,,,,,,,,,,,,,,,,,,,,,,,,,,,,,,,,,,,,,,,,,,,,,,,,,,,,,,,,,,,
,,,,,185931,001,2024-07-12_18h34.31.351,experiment,2024.1.5,Win32,59.95203837,6653ff8147de9950238b7a43,6691931c2c63981b064e1f0c,6691bcecd4944b412a8b22f0,,,,,,,,,,,,,,,,,,,,,,,,,,,201.9,251.652,space,49.679,,251.652,371.664,371.665,418.365,right,43.156,,418.368,447.183,space,28.71,,447.183,457.527,0.145833333,-0.233072917,1,0,0,4.321,compass_2,457.528,460.046,space,2.481,,460.047,460.047,460.131,467.874,0.166666667,0.147135417,1,0,0,1.728,compass,0,0,0,26,1,SoundStimuli/TheSign_AceOfBase_Original5S.wav,,,,,,,,,,,,,,,,,,,,,,,,,,,,,,,,,,,,,,,,,,,,,,,,,,,,
,,,,,185931,001,2024-07-12_18h34.31.351,experiment,2024.1.5,Win32,59.95203837,6653ff8147de9950238b7a43,6691931c2c63981b064e1f0c,6691bcecd4944b412a8b22f0,,,,,,,,,,,,,,,,,,,,,,,,,,,,,,,,,,,,,,,,,,,,,,,,,,,,,,,,,,,,467.877,474.734,0.162760417,0.145833333,1,0,0,0.845,compass,0,1,1,3,1,SoundStimuli/PartyRockAnthem_LMFAO_Cover5S.wav,,,,,,,,,,,,,,,,,,,,,,,,,,,,,,,,,,,,,,,,,,,,,,,,,,,,
,,,,,185931,001,2024-07-12_18h34.31.351,experiment,2024.1.5,Win32,59.95203837,6653ff8147de9950238b7a43,6691931c2c63981b064e1f0c,6691bcecd4944b412a8b22f0,,,,,,,,,,,,,,,,,,,,,,,,,,,,,,,,,,,,,,,,,,,,,,,,,,,,,,,,,,,,474.736,484.826,-0.139322917,0.067708333,1,0,0,4.075,compass,0,2,2,15,1,SoundStimuli/CrazyInLove_BeyonceFtJayZ_Original5S.wav,,,,,,,,,,,,,,,,,,,,,,,,,,,,,,,,,,,,,,,,,,,,,,,,,,,,
,,,,,185931,001,2024-07-12_18h34.31.351,experiment,2024.1.5,Win32,59.95203837,6653ff8147de9950238b7a43,6691931c2c63981b064e1f0c,6691bcecd4944b412a8b22f0,,,,,,,,,,,,,,,,,,,,,,,,,,,,,,,,,,,,,,,,,,,,,,,,,,,,,,,,,,,,484.827,491.664,-0.102864583,-0.201822917,1,0,0,0.806,compass,0,3,3,17,1,SoundStimuli/IWannaDanceWithSomebody_WhitneyHouston_Cover5S.wav,,,,,,,,,,,,,,,,,,,,,,,,,,,,,,,,,,,,,,,,,,,,,,,,,,,,
,,,,,185931,001,2024-07-12_18h34.31.351,experiment,2024.1.5,Win32,59.95203837,6653ff8147de9950238b7a43,6691931c2c63981b064e1f0c,6691bcecd4944b412a8b22f0,,,,,,,,,,,,,,,,,,,,,,,,,,,,,,,,,,,,,,,,,,,,,,,,,,,,,,,,,,,,491.674,499.083,-0.109375,0.11328125,1,0,0,1.389,compass,0,4,4,33,1,SoundStimuli/TheBoyIsMine_BrandyMonica_Cover5S.wav,,,,,,,,,,,,,,,,,,,,,,,,,,,,,,,,,,,,,,,,,,,,,,,,,,,,
,,,,,185931,001,2024-07-12_18h34.31.351,experiment,2024.1.5,Win32,59.95203837,6653ff8147de9950238b7a43,6691931c2c63981b064e1f0c,6691bcecd4944b412a8b22f0,,,,,,,,,,,,,,,,,,,,,,,,,,,,,,,,,,,,,,,,,,,,,,,,,,,,,,,,,,,,499.087,505.731,0.123697917,-0.192708333,1,0,0,0.637,compass,0,5,5,7,1,SoundStimuli/MackTheKnife_BobbyDarin_Original5S.wav,,,,,,,,,,,,,,,,,,,,,,,,,,,,,,,,,,,,,,,,,,,,,,,,,,,,
,,,,,185931,001,2024-07-12_18h34.31.351,experiment,2024.1.5,Win32,59.95203837,6653ff8147de9950238b7a43,6691931c2c63981b064e1f0c,6691bcecd4944b412a8b22f0,,,,,,,,,,,,,,,,,,,,,,,,,,,,,,,,,,,,,,,,,,,,,,,,,,,,,,,,,,,,505.733,513.396,0.123697917,-0.192708333,1,0,0,1.66,compass,0,6,6,8,1,SoundStimuli/EndlessLove_DianaRossLionelRichie_Original5S.wav,,,,,,,,,,,,,,,,,,,,,,,,,,,,,,,,,,,,,,,,,,,,,,,,,,,,
,,,,,185931,001,2024-07-12_18h34.31.351,experiment,2024.1.5,Win32,59.95203837,6653ff8147de9950238b7a43,6691931c2c63981b064e1f0c,6691bcecd4944b412a8b22f0,,,,,,,,,,,,,,,,,,,,,,,,,,,,,,,,,,,,,,,,,,,,,,,,,,,,,,,,,,,,513.397,519.903,-0.233072917,-0.0859375,1,0,0,0.475,compass,0,7,7,16,1,SoundStimuli/ItsAllInTheGame_TommyEdwards_Original5S.wav,,,,,,,,,,,,,,,,,,,,,,,,,,,,,,,,,,,,,,,,,,,,,,,,,,,,
,,,,,185931,001,2024-07-12_18h34.31.351,experiment,2024.1.5,Win32,59.95203837,6653ff8147de9950238b7a43,6691931c2c63981b064e1f0c,6691bcecd4944b412a8b22f0,,,,,,,,,,,,,,,,,,,,,,,,,,,,,,,,,,,,,,,,,,,,,,,,,,,,,,,,,,,,519.905,527.93,0.196614583,-0.21484375,1,0,0,2.011,compass,0,8,8,25,1,SoundStimuli/IllMakeLoveToYou_BoyzIIMen_Original5S.wav,,,,,,,,,,,,,,,,,,,,,,,,,,,,,,,,,,,,,,,,,,,,,,,,,,,,
,,,,,185931,001,2024-07-12_18h34.31.351,experiment,2024.1.5,Win32,59.95203837,6653ff8147de9950238b7a43,6691931c2c63981b064e1f0c,6691bcecd4944b412a8b22f0,,,,,,,,,,,,,,,,,,,,,,,,,,,,,,,,,,,,,,,,,,,,,,,,,,,,,,,,,,,,527.936,535.649,0.09765625,-0.17578125,1,0,0,1.707,compass,0,9,9,19,1,SoundStimuli/YouLightUpMyLife_DebbyBoone_Cover5S.wav,,,,,,,,,,,,,,,,,,,,,,,,,,,,,,,,,,,,,,,,,,,,,,,,,,,,
,,,,,185931,001,2024-07-12_18h34.31.351,experiment,2024.1.5,Win32,59.95203837,6653ff8147de9950238b7a43,6691931c2c63981b064e1f0c,6691bcecd4944b412a8b22f0,,,,,,,,,,,,,,,,,,,,,,,,,,,,,,,,,,,,,,,,,,,,,,,,,,,,,,,,,,,,535.65,543.846,-0.311197917,-0.225260417,1,0,0,2.17,compass,0,10,10,9,1,SoundStimuli/HowDoILive_LeAnnRimes_Original5S.wav,,,,,,,,,,,,,,,,,,,,,,,,,,,,,,,,,,,,,,,,,,,,,,,,,,,,
,,,,,185931,001,2024-07-12_18h34.31.351,experiment,2024.1.5,Win32,59.95203837,6653ff8147de9950238b7a43,6691931c2c63981b064e1f0c,6691bcecd4944b412a8b22f0,,,,,,,,,,,,,,,,,,,,,,,,,,,,,,,,,,,,,,,,,,,,,,,,,,,,,,,,,,,,543.847,551.195,-0.20703125,-0.16015625,1,0,0,1.345,compass,0,11,11,23,1,SoundStimuli/IWalkTheLine_JohnnyCash_Cover5S.wav,,,,,,,,,,,,,,,,,,,,,,,,,,,,,,,,,,,,,,,,,,,,,,,,,,,,
,,,,,185931,001,2024-07-12_18h34.31.351,experiment,2024.1.5,Win32,59.95203837,6653ff8147de9950238b7a43,6691931c2c63981b064e1f0c,6691bcecd4944b412a8b22f0,,,,,,,,,,,,,,,,,,,,,,,,,,,,,,,,,,,,,,,,,,,,,,,,,,,,,,,,,,,,551.197,557.282,-0.19140625,0.119791667,1,0,0,0.057,compass,0,12,12,1,1,SoundStimuli/Smooth_SantanaRobThomas_Cover5S.wav,,,,,,,,,,,,,,,,,,,,,,,,,,,,,,,,,,,,,,,,,,,,,,,,,,,,
,,,,,185931,001,2024-07-12_18h34.31.351,experiment,2024.1.5,Win32,59.95203837,6653ff8147de9950238b7a43,6691931c2c63981b064e1f0c,6691bcecd4944b412a8b22f0,,,,,,,,,,,,,,,,,,,,,,,,,,,,,,,,,,,,,,,,,,,,,,,,,,,,,,,,,,,,557.288,564.854,0.09375,0.092447917,1,0,0,1.548,compass,0,13,13,22,1,SoundStimuli/Happy_PharellWilliams_Cover5S.wav,,,,,,,,,,,,,,,,,,,,,,,,,,,,,,,,,,,,,,,,,,,,,,,,,,,,
,,,,,185931,001,2024-07-12_18h34.31.351,experiment,2024.1.5,Win32,59.95203837,6653ff8147de9950238b7a43,6691931c2c63981b064e1f0c,6691bcecd4944b412a8b22f0,,,,,,,,,,,,,,,,,,,,,,,,,,,,,,,,,,,,,,,,,,,,,,,,,,,,,,,,,,,,564.857,571.748,0.205729167,-0.143229167,1,0,0,0.868,compass,0,14,14,32,1,SoundStimuli/Dilemma_NellyKellyRowland_Original5S.wav,,,,,,,,,,,,,,,,,,,,,,,,,,,,,,,,,,,,,,,,,,,,,,,,,,,,
,,,,,185931,001,2024-07-12_18h34.31.351,experiment,2024.1.5,Win32,59.95203837,6653ff8147de9950238b7a43,6691931c2c63981b064e1f0c,6691bcecd4944b412a8b22f0,,,,,,,,,,,,,,,,,,,,,,,,,,,,,,,,,,,,,,,,,,,,,,,,,,,,,,,,,,,,571.749,580.575,-0.07421875,-0.18359375,1,0,0,2.822,compass,0,15,15,21,1,SoundStimuli/BridgeOverTroubledWater_SimonAndGarfunkel_Cover5S.wav,,,,,,,,,,,,,,,,,,,,,,,,,,,,,,,,,,,,,,,,,,,,,,,,,,,,
,,,,,185931,001,2024-07-12_18h34.31.351,experiment,2024.1.5,Win32,59.95203837,6653ff8147de9950238b7a43,6691931c2c63981b064e1f0c,6691bcecd4944b412a8b22f0,,,,,,,,,,,,,,,,,,,,,,,,,,,,,,,,,,,,,,,,,,,,,,,,,,,,,,,,,,,,580.577,587.807,0.251302083,0.171875,1,0,0,1.227,compass,0,16,16,24,1,SoundStimuli/Kiss_Prince_Original5S.wav,,,,,,,,,,,,,,,,,,,,,,,,,,,,,,,,,,,,,,,,,,,,,,,,,,,,
,,,,,185931,001,2024-07-12_18h34.31.351,experiment,2024.1.5,Win32,59.95203837,6653ff8147de9950238b7a43,6691931c2c63981b064e1f0c,6691bcecd4944b412a8b22f0,,,,,,,,,,,,,,,,,,,,,,,,,,,,,,,,,,,,,,,,,,,,,,,,,,,,,,,,,,,,587.809,596.17,0.09765625,-0.174479167,1,0,0,2.338,compass,0,17,17,18,1,SoundStimuli/Weak_SWV_Original5S.wav,,,,,,,,,,,,,,,,,,,,,,,,,,,,,,,,,,,,,,,,,,,,,,,,,,,,
,,,,,185931,001,2024-07-12_18h34.31.351,experiment,2024.1.5,Win32,59.95203837,6653ff8147de9950238b7a43,6691931c2c63981b064e1f0c,6691bcecd4944b412a8b22f0,,,,,,,,,,,,,,,,,,,,,,,,,,,,,,,,,,,,,,,,,,,,,,,,,,,,,,,,,,,,596.176,602.756,0.09375,0.088541667,1,0,0,0.561,compass,0,18,18,27,1,SoundStimuli/EyeOfTheTiger_Survivor_Original5S.wav,,,,,,,,,,,,,,,,,,,,,,,,,,,,,,,,,,,,,,,,,,,,,,,,,,,,
,,,,,185931,001,2024-07-12_18h34.31.351,experiment,2024.1.5,Win32,59.95203837,6653ff8147de9950238b7a43,6691931c2c63981b064e1f0c,6691bcecd4944b412a8b22f0,,,,,,,,,,,,,,,,,,,,,,,,,,,,,,,,,,,,,,,,,,,,,,,,,,,,,,,,,,,,602.757,609.583,0.173177083,0.071614583,1,0,0,0.808,compass,0,19,19,34,1,SoundStimuli/Irreplaceable_Beyonce_Original5S.wav,,,,,,,,,,,,,,,,,,,,,,,,,,,,,,,,,,,,,,,,,,,,,,,,,,,,
,,,,,185931,001,2024-07-12_18h34.31.351,experiment,2024.1.5,Win32,59.95203837,6653ff8147de9950238b7a43,6691931c2c63981b064e1f0c,6691bcecd4944b412a8b22f0,,,,,,,,,,,,,,,,,,,,,,,,,,,,,,,,,,,,,,,,,,,,,,,,,,,,,,,,,,,,609.588,616.308,0.15625,-0.204427083,1,0,0,0.711,compass,0,20,20,13,1,SoundStimuli/Perfect_EdSheeran_Original5S.wav,,,,,,,,,,,,,,,,,,,,,,,,,,,,,,,,,,,,,,,,,,,,,,,,,,,,
,,,,,185931,001,2024-07-12_18h34.31.351,experiment,2024.1.5,Win32,59.95203837,6653ff8147de9950238b7a43,6691931c2c63981b064e1f0c,6691bcecd4944b412a8b22f0,,,,,,,,,,,,,,,,,,,,,,,,,,,,,,,,,,,,,,,,,,,,,,,,,,,,,,,,,,,,616.312,623.158,-0.079427083,-0.231770833,1,0,0,0.844,compass,0,21,21,29,1,SoundStimuli/BetteDavisEyes_KimCarnes_Cover5S.wav,,,,,,,,,,,,,,,,,,,,,,,,,,,,,,,,,,,,,,,,,,,,,,,,,,,,
,,,,,185931,001,2024-07-12_18h34.31.351,experiment,2024.1.5,Win32,59.95203837,6653ff8147de9950238b7a43,6691931c2c63981b064e1f0c,6691bcecd4944b412a8b22f0,,,,,,,,,,,,,,,,,,,,,,,,,,,,,,,,,,,,,,,,,,,,,,,,,,,,,,,,,,,,623.16,629.551,-0.145833333,0.114583333,1,0,0,0.373,compass,0,22,22,2,1,SoundStimuli/SmellsLikeTeenSpirit_Nirvana_Cover5S.wav,,,,,,,,,,,,,,,,,,,,,,,,,,,,,,,,,,,,,,,,,,,,,,,,,,,,
,,,,,185931,001,2024-07-12_18h34.31.351,experiment,2024.1.5,Win32,59.95203837,6653ff8147de9950238b7a43,6691931c2c63981b064e1f0c,6691bcecd4944b412a8b22f0,,,,,,,,,,,,,,,,,,,,,,,,,,,,,,,,,,,,,,,,,,,,,,,,,,,,,,,,,,,,629.561,635.694,0.147135417,-0.205729167,1,0,0,0.129,compass,0,23,23,14,1,SoundStimuli/LikeARollingStone_BobDylan_Cover5S.wav,,,,,,,,,,,,,,,,,,,,,,,,,,,,,,,,,,,,,,,,,,,,,,,,,,,,
,,,,,185931,001,2024-07-12_18h34.31.351,experiment,2024.1.5,Win32,59.95203837,6653ff8147de9950238b7a43,6691931c2c63981b064e1f0c,6691bcecd4944b412a8b22f0,,,,,,,,,,,,,,,,,,,,,,,,,,,,,,,,,,,,,,,,,,,,,,,,,,,,,,,,,,,,635.696,645.327,0.080729167,0.087239583,1,0,0,3.61,compass,0,24,24,4,1,SoundStimuli/Dreams_FleetwoodMac_Cover5S.wav,,,,,,,,,,,,,,,,,,,,,,,,,,,,,,,,,,,,,,,,,,,,,,,,,,,,
,,,,,185931,001,2024-07-12_18h34.31.351,experiment,2024.1.5,Win32,59.95203837,6653ff8147de9950238b7a43,6691931c2c63981b064e1f0c,6691bcecd4944b412a8b22f0,,,,,,,,,,,,,,,,,,,,,,,,,,,,,,,,,,,,,,,,,,,,,,,,,,,,,,,,,,,,645.334,652.673,0.111979167,0.08203125,1,0,0,1.318,compass,0,25,25,6,1,SoundStimuli/SaveYourTears_TheWeekndArianaGrande_Original5S.wav,,,,,,,,,,,,,,,,,,,,,,,,,,,,,,,,,,,,,,,,,,,,,,,,,,,,
,,,,,185931,001,2024-07-12_18h34.31.351,experiment,2024.1.5,Win32,59.95203837,6653ff8147de9950238b7a43,6691931c2c63981b064e1f0c,6691bcecd4944b412a8b22f0,,,,,,,,,,,,,,,,,,,,,,,,,,,,,,,,,,,,,,,,,,,,,,,,,,,,,,,,,,,,652.674,661.806,0.098958333,0.131510417,1,0,0,3.118,compass,0,26,26,11,1,SoundStimuli/BlurredLines_RobinThicke_Original5S.wav,,,,,,,,,,,,,,,,,,,,,,,,,,,,,,,,,,,,,,,,,,,,,,,,,,,,
,,,,,185931,001,2024-07-12_18h34.31.351,experiment,2024.1.5,Win32,59.95203837,6653ff8147de9950238b7a43,6691931c2c63981b064e1f0c,6691bcecd4944b412a8b22f0,,,,,,,,,,,,,,,,,,,,,,,,,,,,,,,,,,,,,,,,,,,,,,,,,,,,,,,,,,,,661.807,668.685,0.157552083,0.15234375,1,0,0,0.861,compass,0,27,27,20,1,SoundStimuli/FlashdanceWhatAFeeling_IreneCara_Cover5S.wav,,,,,,,,,,,,,,,,,,,,,,,,,,,,,,,,,,,,,,,,,,,,,,,,,,,,
,,,,,185931,001,2024-07-12_18h34.31.351,experiment,2024.1.5,Win32,59.95203837,6653ff8147de9950238b7a43,6691931c2c63981b064e1f0c,6691bcecd4944b412a8b22f0,,,,,,,,,,,,,,,,,,,,,,,,,,,,,,,,,,,,,,,,,,,,,,,,,,,,,,,,,,,,668.693,674.894,0.141927083,-0.126302083,1,0,0,0.19,compass,0,28,28,12,1,SoundStimuli/UnbreakMyHeart_ToniBraxton_Cover5S.wav,,,,,,,,,,,,,,,,,,,,,,,,,,,,,,,,,,,,,,,,,,,,,,,,,,,,
,,,,,185931,001,2024-07-12_18h34.31.351,experiment,2024.1.5,Win32,59.95203837,6653ff8147de9950238b7a43,6691931c2c63981b064e1f0c,6691bcecd4944b412a8b22f0,,,,,,,,,,,,,,,,,,,,,,,,,,,,,,,,,,,,,,,,,,,,,,,,,,,,,,,,,,,,674.9,681.526,-0.123697917,0.140625,1,0,0,0.618,compass,0,29,29,31,1,SoundStimuli/TossinAndTurnin_BobbyLewis_Cover5S.wav,,,,,,,,,,,,,,,,,,,,,,,,,,,,,,,,,,,,,,,,,,,,,,,,,,,,
,,,,,185931,001,2024-07-12_18h34.31.351,experiment,2024.1.5,Win32,59.95203837,6653ff8147de9950238b7a43,6691931c2c63981b064e1f0c,6691bcecd4944b412a8b22f0,,,,,,,,,,,,,,,,,,,,,,,,,,,,,,,,,,,,,,,,,,,,,,,,,,,,,,,,,,,,681.527,689.622,-0.200520833,0.147135417,1,0,0,2.085,compass,0,30,30,5,1,SoundStimuli/JoyToTheWorld_ThreeDogNight_Cover5S.wav,,,,,,,,,,,,,,,,,,,,,,,,,,,,,,,,,,,,,,,,,,,,,,,,,,,,
,,,,,185931,001,2024-07-12_18h34.31.351,experiment,2024.1.5,Win32,59.95203837,6653ff8147de9950238b7a43,6691931c2c63981b064e1f0c,6691bcecd4944b412a8b22f0,,,,,,,,,,,,,,,,,,,,,,,,,,,,,,,,,,,,,,,,,,,,,,,,,,,,,,,,,,,,689.624,697.843,-0.221354167,-0.157552083,1,0,0,2.213,compass,0,31,31,28,1,SoundStimuli/IWantToHoldYourHand_TheBeatles_Cover5S.wav,,,,,,,,,,,,,,,,,,,,,,,,,,,,,,,,,,,,,,,,,,,,,,,,,,,,
,,,,,185931,001,2024-07-12_18h34.31.351,experiment,2024.1.5,Win32,59.95203837,6653ff8147de9950238b7a43,6691931c2c63981b064e1f0c,6691bcecd4944b412a8b22f0,,,,,,,,,,,,,,,,,,,,,,,,,,,,,,,,,,,,,,,,,,,,,,,,,,,,,,,,,,,,697.849,706.712,0.23046875,0.020833333,1,0,0,2.839,compass,0,32,32,30,1,SoundStimuli/SomebodyThatIUsedtoKnow_Gotye_Cover5S.wav,,,,,,,,,,,,,,,,,,,,,,,,,,,,,,,,,,,,,,,,,,,,,,,,,,,,
,,,,,185931,001,2024-07-12_18h34.31.351,experiment,2024.1.5,Win32,59.95203837,6653ff8147de9950238b7a43,6691931c2c63981b064e1f0c,6691bcecd4944b412a8b22f0,,,,,,,,,,,,,,,,,,,,,,,,,,,,,,,,,,,,,,,,,,,,,,,,,,,,,,,,,,,,706.713,713.468,0.203125,-0.154947917,1,0,0,0.738,compass,0,33,33,0,1,SoundStimuli/GimmeShelter_RollingStones_Cover5S.wav,,,,,,,,,,,,,,,,,,,,,,,,,,,,,,,,,,,,,,,,,,,,,,,,,,,,
,,,,,185931,001,2024-07-12_18h34.31.351,experiment,2024.1.5,Win32,59.95203837,6653ff8147de9950238b7a43,6691931c2c63981b064e1f0c,6691bcecd4944b412a8b22f0,,,,,,,,,,,,,,,,,,,,,,,,,,,,,,,,,,,,,,,,,,,,,,,,,,,,,,,,,,,,713.469,720.436,0.270833333,0.045572917,1,0,0,0.963,compass,0,34,34,10,1,SoundStimuli/LeFreak_Chic_Original5S.wav,,,,,,,,,,,,,,,,,,,,,,,,,,,,,,,,,,,,,,,,,,,,,,,,,,,,
,,,,,185931,001,2024-07-12_18h34.31.351,experiment,2024.1.5,Win32,59.95203837,6653ff8147de9950238b7a43,6691931c2c63981b064e1f0c,6691bcecd4944b412a8b22f0,,,,,,,,,,,,,,,,,,,,,,,,,,,,,,,,,,,,,,,,,,,,,,,,,,,,,,,,,,,,,,,,,,,,,,,,,,,720.441,735.715,space,15.23,,735.715,748.539,right,12.778,,0,0,0,0,1,block_order/blockB.xlsx,,,,,,,,,,,,,,,,,,,,,,,,,,,,,,,,,,,,
,,,,,185931,001,2024-07-12_18h34.31.351,experiment,2024.1.5,Win32,59.95203837,6653ff8147de9950238b7a43,6691931c2c63981b064e1f0c,6691bcecd4944b412a8b22f0,,,,,,,,,,,,,,,,,,,,,,,,,,,,,,,,,,,,,,,,,,,,,,,,,,,,,,,,,,,,748.651,756.793,-0.225260417,0.131510417,1,0,0,2.127,compass,0,0,0,1,1,SoundStimuli/Stronger_KanyeWest_Cover5S.wav,,,,,,,,,,,,,,,,,,,,,,,,,,,,,,,,,,,,,,,,,,,,,,,,,,,,
,,,,,185931,001,2024-07-12_18h34.31.351,experiment,2024.1.5,Win32,59.95203837,6653ff8147de9950238b7a43,6691931c2c63981b064e1f0c,6691bcecd4944b412a8b22f0,,,,,,,,,,,,,,,,,,,,,,,,,,,,,,,,,,,,,,,,,,,,,,,,,,,,,,,,,,,,756.802,765.732,0.2421875,0.100260417,1,0,0,2.905,compass,0,1,1,7,1,SoundStimuli/NoOne_AliciaKeys_Original5S.wav,,,,,,,,,,,,,,,,,,,,,,,,,,,,,,,,,,,,,,,,,,,,,,,,,,,,
,,,,,185931,001,2024-07-12_18h34.31.351,experiment,2024.1.5,Win32,59.95203837,6653ff8147de9950238b7a43,6691931c2c63981b064e1f0c,6691bcecd4944b412a8b22f0,,,,,,,,,,,,,,,,,,,,,,,,,,,,,,,,,,,,,,,,,,,,,,,,,,,,,,,,,,,,765.734,772.927,0.2421875,0.100260417,1,0,0,1.181,compass,0,2,2,32,1,SoundStimuli/HeatWaves_GlassAnimals_Cover5S.wav,,,,,,,,,,,,,,,,,,,,,,,,,,,,,,,,,,,,,,,,,,,,,,,,,,,,
,,,,,185931,001,2024-07-12_18h34.31.351,experiment,2024.1.5,Win32,59.95203837,6653ff8147de9950238b7a43,6691931c2c63981b064e1f0c,6691bcecd4944b412a8b22f0,,,,,,,,,,,,,,,,,,,,,,,,,,,,,,,,,,,,,,,,,,,,,,,,,,,,,,,,,,,,772.936,780.112,0.23046875,-0.162760417,1,0,0,1.151,compass,0,3,3,33,1,SoundStimuli/StandByMe_BenEKing_Original5S.wav,,,,,,,,,,,,,,,,,,,,,,,,,,,,,,,,,,,,,,,,,,,,,,,,,,,,
,,,,,185931,001,2024-07-12_18h34.31.351,experiment,2024.1.5,Win32,59.95203837,6653ff8147de9950238b7a43,6691931c2c63981b064e1f0c,6691bcecd4944b412a8b22f0,,,,,,,,,,,,,,,,,,,,,,,,,,,,,,,,,,,,,,,,,,,,,,,,,,,,,,,,,,,,780.113,789.976,0.108072917,-0.135416667,1,0,0,3.844,compass,0,4,4,10,1,SoundStimuli/BadDay_DanielPowter_Original5S.wav,,,,,,,,,,,,,,,,,,,,,,,,,,,,,,,,,,,,,,,,,,,,,,,,,,,,
,,,,,185931,001,2024-07-12_18h34.31.351,experiment,2024.1.5,Win32,59.95203837,6653ff8147de9950238b7a43,6691931c2c63981b064e1f0c,6691bcecd4944b412a8b22f0,,,,,,,,,,,,,,,,,,,,,,,,,,,,,,,,,,,,,,,,,,,,,,,,,,,,,,,,,,,,789.979,796.677,0.201822917,0.1640625,1,0,0,0.693,compass,0,5,5,15,1,SoundStimuli/TikTok_Kesha_Original5S.wav,,,,,,,,,,,,,,,,,,,,,,,,,,,,,,,,,,,,,,,,,,,,,,,,,,,,
,,,,,185931,001,2024-07-12_18h34.31.351,experiment,2024.1.5,Win32,59.95203837,6653ff8147de9950238b7a43,6691931c2c63981b064e1f0c,6691bcecd4944b412a8b22f0,,,,,,,,,,,,,,,,,,,,,,,,,,,,,,,,,,,,,,,,,,,,,,,,,,,,,,,,,,,,796.679,803.282,0.140625,-0.169270833,1,0,0,0.572,compass,0,6,6,12,1,SoundStimuli/IWillAlwaysLoveYou_WhitneyHouston_Original5S.wav,,,,,,,,,,,,,,,,,,,,,,,,,,,,,,,,,,,,,,,,,,,,,,,,,,,,
,,,,,185931,001,2024-07-12_18h34.31.351,experiment,2024.1.5,Win32,59.95203837,6653ff8147de9950238b7a43,6691931c2c63981b064e1f0c,6691bcecd4944b412a8b22f0,,,,,,,,,,,,,,,,,,,,,,,,,,,,,,,,,,,,,,,,,,,,,,,,,,,,,,,,,,,,803.292,811.269,0.2265625,0.078125,1,0,0,1.971,compass,0,7,7,9,1,SoundStimuli/Despacito_LuisFonsiDaddyYankee_Original5S.wav,,,,,,,,,,,,,,,,,,,,,,,,,,,,,,,,,,,,,,,,,,,,,,,,,,,,
,,,,,185931,001,2024-07-12_18h34.31.351,experiment,2024.1.5,Win32,59.95203837,6653ff8147de9950238b7a43,6691931c2c63981b064e1f0c,6691bcecd4944b412a8b22f0,,,,,,,,,,,,,,,,,,,,,,,,,,,,,,,,,,,,,,,,,,,,,,,,,,,,,,,,,,,,811.27,818.338,0.2265625,0.078125,1,0,0,1.053,compass,0,8,8,3,1,SoundStimuli/NoScrubs_TLC_Cover5S.wav,,,,,,,,,,,,,,,,,,,,,,,,,,,,,,,,,,,,,,,,,,,,,,,,,,,,
,,,,,185931,001,2024-07-12_18h34.31.351,experiment,2024.1.5,Win32,59.95203837,6653ff8147de9950238b7a43,6691931c2c63981b064e1f0c,6691bcecd4944b412a8b22f0,,,,,,,,,,,,,,,,,,,,,,,,,,,,,,,,,,,,,,,,,,,,,,,,,,,,,,,,,,,,818.344,825.147,0.2265625,0.078125,1,0,0,0.795,compass,0,9,9,6,1,SoundStimuli/Levitating_DuaLipa_Original5S.wav,,,,,,,,,,,,,,,,,,,,,,,,,,,,,,,,,,,,,,,,,,,,,,,,,,,,
,,,,,185931,001,2024-07-12_18h34.31.351,experiment,2024.1.5,Win32,59.95203837,6653ff8147de9950238b7a43,6691931c2c63981b064e1f0c,6691bcecd4944b412a8b22f0,,,,,,,,,,,,,,,,,,,,,,,,,,,,,,,,,,,,,,,,,,,,,,,,,,,,,,,,,,,,825.152,831.881,0.2265625,0.078125,1,0,0,0.709,compass,0,10,10,11,1,SoundStimuli/Superstition_StevieWonder_Original5S.wav,,,,,,,,,,,,,,,,,,,,,,,,,,,,,,,,,,,,,,,,,,,,,,,,,,,,
,,,,,185931,001,2024-07-12_18h34.31.351,experiment,2024.1.5,Win32,59.95203837,6653ff8147de9950238b7a43,6691931c2c63981b064e1f0c,6691bcecd4944b412a8b22f0,,,,,,,,,,,,,,,,,,,,,,,,,,,,,,,,,,,,,,,,,,,,,,,,,,,,,,,,,,,,831.883,839.523,-0.036458333,0.13671875,1,0,0,1.609,compass,0,11,11,20,1,SoundStimuli/HeyYa_Outkast_Original5S.wav,,,,,,,,,,,,,,,,,,,,,,,,,,,,,,,,,,,,,,,,,,,,,,,,,,,,
,,,,,185931,001,2024-07-12_18h34.31.351,experiment,2024.1.5,Win32,59.95203837,6653ff8147de9950238b7a43,6691931c2c63981b064e1f0c,6691bcecd4944b412a8b22f0,,,,,,,,,,,,,,,,,,,,,,,,,,,,,,,,,,,,,,,,,,,,,,,,,,,,,,,,,,,,839.534,846.686,-0.174479167,0.138020833,1,0,0,1.15,compass,0,12,12,23,1,SoundStimuli/StrawberryFieldsForever_TheBeatles_Cover5S.wav,,,,,,,,,,,,,,,,,,,,,,,,,,,,,,,,,,,,,,,,,,,,,,,,,,,,
,,,,,185931,001,2024-07-12_18h34.31.351,experiment,2024.1.5,Win32,59.95203837,6653ff8147de9950238b7a43,6691931c2c63981b064e1f0c,6691bcecd4944b412a8b22f0,,,,,,,,,,,,,,,,,,,,,,,,,,,,,,,,,,,,,,,,,,,,,,,,,,,,,,,,,,,,846.687,853.655,0.1171875,-0.127604167,1,0,0,0.956,compass,0,13,13,34,1,SoundStimuli/AChangeIsGonnaCome_SamCooke_Original5S.wav,,,,,,,,,,,,,,,,,,,,,,,,,,,,,,,,,,,,,,,,,,,,,,,,,,,,
,,,,,185931,001,2024-07-12_18h34.31.351,experiment,2024.1.5,Win32,59.95203837,6653ff8147de9950238b7a43,6691931c2c63981b064e1f0c,6691bcecd4944b412a8b22f0,,,,,,,,,,,,,,,,,,,,,,,,,,,,,,,,,,,,,,,,,,,,,,,,,,,,,,,,,,,,853.656,860.369,-0.092447917,0.07421875,1,0,0,0.711,compass,0,14,14,28,1,SoundStimuli/ComeAndGetYourLove_Redbone_Cover5S.wav,,,,,,,,,,,,,,,,,,,,,,,,,,,,,,,,,,,,,,,,,,,,,,,,,,,,
,,,,,185931,001,2024-07-12_18h34.31.351,experiment,2024.1.5,Win32,59.95203837,6653ff8147de9950238b7a43,6691931c2c63981b064e1f0c,6691bcecd4944b412a8b22f0,,,,,,,,,,,,,,,,,,,,,,,,,,,,,,,,,,,,,,,,,,,,,,,,,,,,,,,,,,,,860.37,867.044,0.153645833,0.114583333,1,0,0,0.674,compass,0,15,15,2,1,SoundStimuli/Mood_24kGoldnianndior_Original5S.wav,,,,,,,,,,,,,,,,,,,,,,,,,,,,,,,,,,,,,,,,,,,,,,,,,,,,
,,,,,185931,001,2024-07-12_18h34.31.351,experiment,2024.1.5,Win32,59.95203837,6653ff8147de9950238b7a43,6691931c2c63981b064e1f0c,6691bcecd4944b412a8b22f0,,,,,,,,,,,,,,,,,,,,,,,,,,,,,,,,,,,,,,,,,,,,,,,,,,,,,,,,,,,,867.045,874.415,0.197916667,-0.16796875,1,0,0,1.341,compass,0,16,16,29,1,SoundStimuli/OldTownRoad_LilNasX_Cover5S.wav,,,,,,,,,,,,,,,,,,,,,,,,,,,,,,,,,,,,,,,,,,,,,,,,,,,,
,,,,,185931,001,2024-07-12_18h34.31.351,experiment,2024.1.5,Win32,59.95203837,6653ff8147de9950238b7a43,6691931c2c63981b064e1f0c,6691bcecd4944b412a8b22f0,,,,,,,,,,,,,,,,,,,,,,,,,,,,,,,,,,,,,,,,,,,,,,,,,,,,,,,,,,,,874.437,881.432,0.197916667,-0.16796875,1,0,0,0.985,compass,0,17,17,19,1,SoundStimuli/LetsGetItOn_MarvinGaye_Original5S.wav,,,,,,,,,,,,,,,,,,,,,,,,,,,,,,,,,,,,,,,,,,,,,,,,,,,,
,,,,,185931,001,2024-07-12_18h34.31.351,experiment,2024.1.5,Win32,59.95203837,6653ff8147de9950238b7a43,6691931c2c63981b064e1f0c,6691bcecd4944b412a8b22f0,,,,,,,,,,,,,,,,,,,,,,,,,,,,,,,,,,,,,,,,,,,,,,,,,,,,,,,,,,,,881.446,888.517,-0.115885417,0.147135417,1,0,0,1.066,compass,0,18,18,26,1,SoundStimuli/LivinOnAPrayer_BonJovi_Original5S.wav,,,,,,,,,,,,,,,,,,,,,,,,,,,,,,,,,,,,,,,,,,,,,,,,,,,,
,,,,,185931,001,2024-07-12_18h34.31.351,experiment,2024.1.5,Win32,59.95203837,6653ff8147de9950238b7a43,6691931c2c63981b064e1f0c,6691bcecd4944b412a8b22f0,,,,,,,,,,,,,,,,,,,,,,,,,,,,,,,,,,,,,,,,,,,,,,,,,,,,,,,,,,,,888.522,896.985,-0.166666667,-0.1328125,1,0,0,2.458,compass,0,19,19,18,1,SoundStimuli/AnotherOneBitesTheDust_Queen_Cover5S.wav,,,,,,,,,,,,,,,,,,,,,,,,,,,,,,,,,,,,,,,,,,,,,,,,,,,,
,,,,,185931,001,2024-07-12_18h34.31.351,experiment,2024.1.5,Win32,59.95203837,6653ff8147de9950238b7a43,6691931c2c63981b064e1f0c,6691bcecd4944b412a8b22f0,,,,,,,,,,,,,,,,,,,,,,,,,,,,,,,,,,,,,,,,,,,,,,,,,,,,,,,,,,,,896.986,903.683,0.200520833,0.139322917,1,0,0,0.668,compass,0,20,20,0,1,SoundStimuli/StayinAlive_BeeGees_Cover5S.wav,,,,,,,,,,,,,,,,,,,,,,,,,,,,,,,,,,,,,,,,,,,,,,,,,,,,
,,,,,185931,001,2024-07-12_18h34.31.351,experiment,2024.1.5,Win32,59.95203837,6653ff8147de9950238b7a43,6691931c2c63981b064e1f0c,6691bcecd4944b412a8b22f0,,,,,,,,,,,,,,,,,,,,,,,,,,,,,,,,,,,,,,,,,,,,,,,,,,,,,,,,,,,,903.692,910.614,-0.102864583,0.12109375,1,0,0,0.918,compass,0,21,21,4,1,SoundStimuli/GetUrFreakOn_MissyElliot_Cover5S.wav,,,,,,,,,,,,,,,,,,,,,,,,,,,,,,,,,,,,,,,,,,,,,,,,,,,,
,,,,,185931,001,2024-07-12_18h34.31.351,experiment,2024.1.5,Win32,59.95203837,6653ff8147de9950238b7a43,6691931c2c63981b064e1f0c,6691bcecd4944b412a8b22f0,,,,,,,,,,,,,,,,,,,,,,,,,,,,,,,,,,,,,,,,,,,,,,,,,,,,,,,,,,,,910.615,917.685,0.16015625,-0.126302083,1,0,0,1.034,compass,0,22,22,17,1,SoundStimuli/Fallin_AliciaKeys_Cover5S.wav,,,,,,,,,,,,,,,,,,,,,,,,,,,,,,,,,,,,,,,,,,,,,,,,,,,,
,,,,,185931,001,2024-07-12_18h34.31.351,experiment,2024.1.5,Win32,59.95203837,6653ff8147de9950238b7a43,6691931c2c63981b064e1f0c,6691bcecd4944b412a8b22f0,,,,,,,,,,,,,,,,,,,,,,,,,,,,,,,,,,,,,,,,,,,,,,,,,,,,,,,,,,,,917.687,925.208,-0.067708333,0.122395833,1,0,0,1.517,compass,0,23,23,21,1,SoundStimuli/GoodGollyMissMolly_LittleRichard_Original5S.wav,,,,,,,,,,,,,,,,,,,,,,,,,,,,,,,,,,,,,,,,,,,,,,,,,,,,
,,,,,185931,001,2024-07-12_18h34.31.351,experiment,2024.1.5,Win32,59.95203837,6653ff8147de9950238b7a43,6691931c2c63981b064e1f0c,6691bcecd4944b412a8b22f0,,,,,,,,,,,,,,,,,,,,,,,,,,,,,,,,,,,,,,,,,,,,,,,,,,,,,,,,,,,,925.216,931.988,-0.16015625,-0.1015625,1,0,0,0.766,compass,0,24,24,13,1,SoundStimuli/GodOnlyKnows_TheBeachBoys_Original5S.wav,,,,,,,,,,,,,,,,,,,,,,,,,,,,,,,,,,,,,,,,,,,,,,,,,,,,
,,,,,185931,001,2024-07-12_18h34.31.351,experiment,2024.1.5,Win32,59.95203837,6653ff8147de9950238b7a43,6691931c2c63981b064e1f0c,6691bcecd4944b412a8b22f0,,,,,,,,,,,,,,,,,,,,,,,,,,,,,,,,,,,,,,,,,,,,,,,,,,,,,,,,,,,,931.989,938.715,-0.14453125,0.173177083,1,0,0,0.721,compass,0,25,25,25,1,SoundStimuli/Respect_ArethaFranklin_Cover5S.wav,,,,,,,,,,,,,,,,,,,,,,,,,,,,,,,,,,,,,,,,,,,,,,,,,,,,
,,,,,185931,001,2024-07-12_18h34.31.351,experiment,2024.1.5,Win32,59.95203837,6653ff8147de9950238b7a43,6691931c2c63981b064e1f0c,6691bcecd4944b412a8b22f0,,,,,,,,,,,,,,,,,,,,,,,,,,,,,,,,,,,,,,,,,,,,,,,,,,,,,,,,,,,,938.724,946.332,0.045572917,0.186197917,1,0,0,1.604,compass,0,26,26,8,1,SoundStimuli/LikeAPrayer_Madonna_Cover5S.wav,,,,,,,,,,,,,,,,,,,,,,,,,,,,,,,,,,,,,,,,,,,,,,,,,,,,
,,,,,185931,001,2024-07-12_18h34.31.351,experiment,2024.1.5,Win32,59.95203837,6653ff8147de9950238b7a43,6691931c2c63981b064e1f0c,6691bcecd4944b412a8b22f0,,,,,,,,,,,,,,,,,,,,,,,,,,,,,,,,,,,,,,,,,,,,,,,,,,,,,,,,,,,,946.334,955.609,-0.0859375,-0.119791667,1,0,0,3.256,compass,0,27,27,5,1,SoundStimuli/MyGirl_TheTemptations_Cover5S.wav,,,,,,,,,,,,,,,,,,,,,,,,,,,,,,,,,,,,,,,,,,,,,,,,,,,,
,,,,,185931,001,2024-07-12_18h34.31.351,experiment,2024.1.5,Win32,59.95203837,6653ff8147de9950238b7a43,6691931c2c63981b064e1f0c,6691bcecd4944b412a8b22f0,,,,,,,,,,,,,,,,,,,,,,,,,,,,,,,,,,,,,,,,,,,,,,,,,,,,,,,,,,,,955.61,962.264,0.166666667,-0.180989583,1,0,0,0.642,compass,0,28,28,27,1,SoundStimuli/ShapeofYou_EdSheeran_Cover5S.wav,,,,,,,,,,,,,,,,,,,,,,,,,,,,,,,,,,,,,,,,,,,,,,,,,,,,
,,,,,185931,001,2024-07-12_18h34.31.351,experiment,2024.1.5,Win32,59.95203837,6653ff8147de9950238b7a43,6691931c2c63981b064e1f0c,6691bcecd4944b412a8b22f0,,,,,,,,,,,,,,,,,,,,,,,,,,,,,,,,,,,,,,,,,,,,,,,,,,,,,,,,,,,,962.27,969.812,0.15625,0.1484375,1,0,0,1.514,compass,0,29,29,24,1,SoundStimuli/UptownFunk_MarkRonson_Cover5S.wav,,,,,,,,,,,,,,,,,,,,,,,,,,,,,,,,,,,,,,,,,,,,,,,,,,,,
,,,,,185931,001,2024-07-12_18h34.31.351,experiment,2024.1.5,Win32,59.95203837,6653ff8147de9950238b7a43,6691931c2c63981b064e1f0c,6691bcecd4944b412a8b22f0,,,,,,,,,,,,,,,,,,,,,,,,,,,,,,,,,,,,,,,,,,,,,,,,,,,,,,,,,,,,969.819,977.351,0.109375,0.123697917,1,0,0,1.518,compass,0,30,30,31,1,SoundStimuli/TheBattleOfNewOrleans_JohnnyHorton_Original5S.wav,,,,,,,,,,,,,,,,,,,,,,,,,,,,,,,,,,,,,,,,,,,,,,,,,,,,
,,,,,185931,001,2024-07-12_18h34.31.351,experiment,2024.1.5,Win32,59.95203837,6653ff8147de9950238b7a43,6691931c2c63981b064e1f0c,6691bcecd4944b412a8b22f0,,,,,,,,,,,,,,,,,,,,,,,,,,,,,,,,,,,,,,,,,,,,,,,,,,,,,,,,,,,,977.353,986.812,0.078125,0.104166667,1,0,0,3.44,compass,0,31,31,14,1,SoundStimuli/BlindingLights_TheWeeknd_Cover5S.wav,,,,,,,,,,,,,,,,,,,,,,,,,,,,,,,,,,,,,,,,,,,,,,,,,,,,
,,,,,185931,001,2024-07-12_18h34.31.351,experiment,2024.1.5,Win32,59.95203837,6653ff8147de9950238b7a43,6691931c2c63981b064e1f0c,6691bcecd4944b412a8b22f0,,,,,,,,,,,,,,,,,,,,,,,,,,,,,,,,,,,,,,,,,,,,,,,,,,,,,,,,,,,,986.813,993.146,-0.08203125,-0.102864583,1,0,0,0.319,compass,0,32,32,16,1,SoundStimuli/BohemianRhapsody_Queen_Cover5S.wav,,,,,,,,,,,,,,,,,,,,,,,,,,,,,,,,,,,,,,,,,,,,,,,,,,,,
,,,,,185931,001,2024-07-12_18h34.31.351,experiment,2024.1.5,Win32,59.95203837,6653ff8147de9950238b7a43,6691931c2c63981b064e1f0c,6691bcecd4944b412a8b22f0,,,,,,,,,,,,,,,,,,,,,,,,,,,,,,,,,,,,,,,,,,,,,,,,,,,,,,,,,,,,993.147,1001.919,0.15625,-0.098958333,1,0,0,2.753,compass,0,33,33,30,1,SoundStimuli/PokerFace_LadyGaga_Cover5S.wav,,,,,,,,,,,,,,,,,,,,,,,,,,,,,,,,,,,,,,,,,,,,,,,,,,,,
,,,,,185931,001,2024-07-12_18h34.31.351,experiment,2024.1.5,Win32,59.95203837,6653ff8147de9950238b7a43,6691931c2c63981b064e1f0c,6691bcecd4944b412a8b22f0,,,,,,,,,,,,,,,,,,,,,,,,,,,,,,,,,,,,,,,,,,,,,,,,,,,,,,,,,,,,1001.927,1008.935,0.22265625,0.1171875,1,0,0,1.001,compass,0,34,34,22,1,SoundStimuli/RockWithYou_MichaelJackson_Cover5S.wav,,,,,,,,,,,,,,,,,,,,,,,,,,,,,,,,,,,,,,,,,,,,,,,,,,,,
,,,,,185931,001,2024-07-12_18h34.31.351,experiment,2024.1.5,Win32,59.95203837,6653ff8147de9950238b7a43,6691931c2c63981b064e1f0c,6691bcecd4944b412a8b22f0,,,,,,,,,,,,,,,,,,,,,,,,,,,,,,,,,,,,,,,,,,,,,,,,,,,,,,,,,,,,,,,,,,,,,,,,,,,1008.936,1019.929,space,10.959,,1019.929,1037.689,right,17.687,,0,1,1,1,1,block_order/blockC.xlsx,,,,,,,,,,,,,,,,,,,,,,,,,,,,,,,,,,,,
,,,,,185931,001,2024-07-12_18h34.31.351,experiment,2024.1.5,Win32,59.95203837,6653ff8147de9950238b7a43,6691931c2c63981b064e1f0c,6691bcecd4944b412a8b22f0,,,,,,,,,,,,,,,,,,,,,,,,,,,,,,,,,,,,,,,,,,,,,,,,,,,,,,,,,,,,1037.774,1044.372,-0.2421875,-0.1484375,1,0,0,0.587,compass,0,0,0,12,1,SoundStimuli/UnbreakMyHeart_ToniBraxton_Original5S.wav,,,,,,,,,,,,,,,,,,,,,,,,,,,,,,,,,,,,,,,,,,,,,,,,,,,,
,,,,,185931,001,2024-07-12_18h34.31.351,experiment,2024.1.5,Win32,59.95203837,6653ff8147de9950238b7a43,6691931c2c63981b064e1f0c,6691bcecd4944b412a8b22f0,,,,,,,,,,,,,,,,,,,,,,,,,,,,,,,,,,,,,,,,,,,,,,,,,,,,,,,,,,,,1044.374,1051.787,-0.095052083,-0.1875,1,0,0,1.392,compass,0,1,1,18,1,SoundStimuli/Weak_SWV_Cover5S.wav,,,,,,,,,,,,,,,,,,,,,,,,,,,,,,,,,,,,,,,,,,,,,,,,,,,,
,,,,,185931,001,2024-07-12_18h34.31.351,experiment,2024.1.5,Win32,59.95203837,6653ff8147de9950238b7a43,6691931c2c63981b064e1f0c,6691bcecd4944b412a8b22f0,,,,,,,,,,,,,,,,,,,,,,,,,,,,,,,,,,,,,,,,,,,,,,,,,,,,,,,,,,,,1051.788,1058.347,0.182291667,-0.130208333,1,0,0,0.552,compass,0,2,2,34,1,SoundStimuli/Irreplaceable_Beyonce_Cover5S.wav,,,,,,,,,,,,,,,,,,,,,,,,,,,,,,,,,,,,,,,,,,,,,,,,,,,,
,,,,,185931,001,2024-07-12_18h34.31.351,experiment,2024.1.5,Win32,59.95203837,6653ff8147de9950238b7a43,6691931c2c63981b064e1f0c,6691bcecd4944b412a8b22f0,,,,,,,,,,,,,,,,,,,,,,,,,,,,,,,,,,,,,,,,,,,,,,,,,,,,,,,,,,,,1058.348,1065.216,0.075520833,0.044270833,1,0,0,0.856,compass,0,3,3,3,1,SoundStimuli/PartyRockAnthem_LMFAO_Original5S.wav,,,,,,,,,,,,,,,,,,,,,,,,,,,,,,,,,,,,,,,,,,,,,,,,,,,,
,,,,,185931,001,2024-07-12_18h34.31.351,experiment,2024.1.5,Win32,59.95203837,6653ff8147de9950238b7a43,6691931c2c63981b064e1f0c,6691bcecd4944b412a8b22f0,,,,,,,,,,,,,,,,,,,,,,,,,,,,,,,,,,,,,,,,,,,,,,,,,,,,,,,,,,,,1065.228,1072.533,0.111979167,0.026041667,1,0,0,1.269,compass,0,4,4,30,1,SoundStimuli/SomebodyThatIUsedtoKnow_Gotye_Original5S.wav,,,,,,,,,,,,,,,,,,,,,,,,,,,,,,,,,,,,,,,,,,,,,,,,,,,,
,,,,,185931,001,2024-07-12_18h34.31.351,experiment,2024.1.5,Win32,59.95203837,6653ff8147de9950238b7a43,6691931c2c63981b064e1f0c,6691bcecd4944b412a8b22f0,,,,,,,,,,,,,,,,,,,,,,,,,,,,,,,,,,,,,,,,,,,,,,,,,,,,,,,,,,,,1072.534,1079.184,0.125,-0.139322917,1,0,0,0.649,compass,0,5,5,13,1,SoundStimuli/Perfect_EdSheeran_Cover5S.wav,,,,,,,,,,,,,,,,,,,,,,,,,,,,,,,,,,,,,,,,,,,,,,,,,,,,
,,,,,185931,001,2024-07-12_18h34.31.351,experiment,2024.1.5,Win32,59.95203837,6653ff8147de9950238b7a43,6691931c2c63981b064e1f0c,6691bcecd4944b412a8b22f0,,,,,,,,,,,,,,,,,,,,,,,,,,,,,,,,,,,,,,,,,,,,,,,,,,,,,,,,,,,,1079.185,1086.845,0.1015625,0.091145833,1,0,0,1.635,compass,0,6,6,4,1,SoundStimuli/Dreams_FleetwoodMac_Original5S.wav,,,,,,,,,,,,,,,,,,,,,,,,,,,,,,,,,,,,,,,,,,,,,,,,,,,,
,,,,,185931,001,2024-07-12_18h34.31.351,experiment,2024.1.5,Win32,59.95203837,6653ff8147de9950238b7a43,6691931c2c63981b064e1f0c,6691bcecd4944b412a8b22f0,,,,,,,,,,,,,,,,,,,,,,,,,,,,,,,,,,,,,,,,,,,,,,,,,,,,,,,,,,,,1086.848,1093.497,-0.109375,0.169270833,1,0,0,0.626,compass,0,7,7,2,1,SoundStimuli/SmellsLikeTeenSpirit_Nirvana_Original5S.wav,,,,,,,,,,,,,,,,,,,,,,,,,,,,,,,,,,,,,,,,,,,,,,,,,,,,
,,,,,185931,001,2024-07-12_18h34.31.351,experiment,2024.1.5,Win32,59.95203837,6653ff8147de9950238b7a43,6691931c2c63981b064e1f0c,6691bcecd4944b412a8b22f0,,,,,,,,,,,,,,,,,,,,,,,,,,,,,,,,,,,,,,,,,,,,,,,,,,,,,,,,,,,,1093.499,1101.396,0.092447917,0.154947917,1,0,0,1.888,compass,0,8,8,6,1,SoundStimuli/SaveYourTears_TheWeekndArianaGrande_Cover5S.wav,,,,,,,,,,,,,,,,,,,,,,,,,,,,,,,,,,,,,,,,,,,,,,,,,,,,
,,,,,185931,001,2024-07-12_18h34.31.351,experiment,2024.1.5,Win32,59.95203837,6653ff8147de9950238b7a43,6691931c2c63981b064e1f0c,6691bcecd4944b412a8b22f0,,,,,,,,,,,,,,,,,,,,,,,,,,,,,,,,,,,,,,,,,,,,,,,,,,,,,,,,,,,,1101.405,1108.304,0.092447917,0.154947917,1,0,0,0.884,compass,0,9,9,11,1,SoundStimuli/BlurredLines_RobinThicke_Cover5S.wav,,,,,,,,,,,,,,,,,,,,,,,,,,,,,,,,,,,,,,,,,,,,,,,,,,,,
,,,,,185931,001,2024-07-12_18h34.31.351,experiment,2024.1.5,Win32,59.95203837,6653ff8147de9950238b7a43,6691931c2c63981b064e1f0c,6691bcecd4944b412a8b22f0,,,,,,,,,,,,,,,,,,,,,,,,,,,,,,,,,,,,,,,,,,,,,,,,,,,,,,,,,,,,1108.305,1115.344,-0.106770833,-0.110677083,1,0,0,1.036,compass,0,10,10,32,1,SoundStimuli/Dilemma_NellyKellyRowland_Cover5S.wav,,,,,,,,,,,,,,,,,,,,,,,,,,,,,,,,,,,,,,,,,,,,,,,,,,,,
,,,,,185931,001,2024-07-12_18h34.31.351,experiment,2024.1.5,Win32,59.95203837,6653ff8147de9950238b7a43,6691931c2c63981b064e1f0c,6691bcecd4944b412a8b22f0,,,,,,,,,,,,,,,,,,,,,,,,,,,,,,,,,,,,,,,,,,,,,,,,,,,,,,,,,,,,1115.347,1123.358,-0.15234375,0.075520833,1,0,0,2.003,compass,0,11,11,0,1,SoundStimuli/GimmeShelter_RollingStones_Original5S.wav,,,,,,,,,,,,,,,,,,,,,,,,,,,,,,,,,,,,,,,,,,,,,,,,,,,,
,,,,,185931,001,2024-07-12_18h34.31.351,experiment,2024.1.5,Win32,59.95203837,6653ff8147de9950238b7a43,6691931c2c63981b064e1f0c,6691bcecd4944b412a8b22f0,,,,,,,,,,,,,,,,,,,,,,,,,,,,,,,,,,,,,,,,,,,,,,,,,,,,,,,,,,,,1123.368,1130.072,0.208333333,0.13671875,1,0,0,0.694,compass,0,12,12,33,1,SoundStimuli/TheBoyIsMine_BrandyMonica_Original5S.wav,,,,,,,,,,,,,,,,,,,,,,,,,,,,,,,,,,,,,,,,,,,,,,,,,,,,
,,,,,185931,001,2024-07-12_18h34.31.351,experiment,2024.1.5,Win32,59.95203837,6653ff8147de9950238b7a43,6691931c2c63981b064e1f0c,6691bcecd4944b412a8b22f0,,,,,,,,,,,,,,,,,,,,,,,,,,,,,,,,,,,,,,,,,,,,,,,,,,,,,,,,,,,,1130.073,1139.079,0.2265625,-0.0703125,1,0,0,2.99,compass,0,13,13,14,1,SoundStimuli/LikeARollingStone_BobDylan_Original5S.wav,,,,,,,,,,,,,,,,,,,,,,,,,,,,,,,,,,,,,,,,,,,,,,,,,,,,
,,,,,185931,001,2024-07-12_18h34.31.351,experiment,2024.1.5,Win32,59.95203837,6653ff8147de9950238b7a43,6691931c2c63981b064e1f0c,6691bcecd4944b412a8b22f0,,,,,,,,,,,,,,,,,,,,,,,,,,,,,,,,,,,,,,,,,,,,,,,,,,,,,,,,,,,,1139.086,1145.818,-0.140625,0.108072917,1,0,0,0.714,compass,0,14,14,31,1,SoundStimuli/TossinAndTurnin_BobbyLewis_Original5S.wav,,,,,,,,,,,,,,,,,,,,,,,,,,,,,,,,,,,,,,,,,,,,,,,,,,,,
,,,,,185931,001,2024-07-12_18h34.31.351,experiment,2024.1.5,Win32,59.95203837,6653ff8147de9950238b7a43,6691931c2c63981b064e1f0c,6691bcecd4944b412a8b22f0,,,,,,,,,,,,,,,,,,,,,,,,,,,,,,,,,,,,,,,,,,,,,,,,,,,,,,,,,,,,1145.82,1151.996,0.126302083,-0.16796875,1,0,0,0.17,compass,0,15,15,9,1,SoundStimuli/HowDoILive_LeAnnRimes_Cover5S.wav,,,,,,,,,,,,,,,,,,,,,,,,,,,,,,,,,,,,,,,,,,,,,,,,,,,,
,,,,,185931,001,2024-07-12_18h34.31.351,experiment,2024.1.5,Win32,59.95203837,6653ff8147de9950238b7a43,6691931c2c63981b064e1f0c,6691bcecd4944b412a8b22f0,,,,,,,,,,,,,,,,,,,,,,,,,,,,,,,,,,,,,,,,,,,,,,,,,,,,,,,,,,,,1151.997,1158.911,0.126302083,-0.16796875,1,0,0,0.853,compass,0,16,16,25,1,SoundStimuli/IllMakeLoveToYou_BoyzIIMen_Cover5S.wav,,,,,,,,,,,,,,,,,,,,,,,,,,,,,,,,,,,,,,,,,,,,,,,,,,,,
,,,,,185931,001,2024-07-12_18h34.31.351,experiment,2024.1.5,Win32,59.95203837,6653ff8147de9950238b7a43,6691931c2c63981b064e1f0c,6691bcecd4944b412a8b22f0,,,,,,,,,,,,,,,,,,,,,,,,,,,,,,,,,,,,,,,,,,,,,,,,,,,,,,,,,,,,1158.914,1165.589,0.126302083,-0.16796875,1,0,0,0.656,compass,0,17,17,19,1,SoundStimuli/YouLightUpMyLife_DebbyBoone_Original5S.wav,,,,,,,,,,,,,,,,,,,,,,,,,,,,,,,,,,,,,,,,,,,,,,,,,,,,
,,,,,185931,001,2024-07-12_18h34.31.351,experiment,2024.1.5,Win32,59.95203837,6653ff8147de9950238b7a43,6691931c2c63981b064e1f0c,6691bcecd4944b412a8b22f0,,,,,,,,,,,,,,,,,,,,,,,,,,,,,,,,,,,,,,,,,,,,,,,,,,,,,,,,,,,,1165.592,1173.016,-0.08984375,0.072916667,1,0,0,1.399,compass,0,18,18,27,1,SoundStimuli/EyeOfTheTiger_Survivor_Cover5S.wav,,,,,,,,,,,,,,,,,,,,,,,,,,,,,,,,,,,,,,,,,,,,,,,,,,,,
,,,,,185931,001,2024-07-12_18h34.31.351,experiment,2024.1.5,Win32,59.95203837,6653ff8147de9950238b7a43,6691931c2c63981b064e1f0c,6691bcecd4944b412a8b22f0,,,,,,,,,,,,,,,,,,,,,,,,,,,,,,,,,,,,,,,,,,,,,,,,,,,,,,,,,,,,1173.023,1179.878,-0.143229167,0.075520833,1,0,0,0.847,compass,0,19,19,5,1,SoundStimuli/JoyToTheWorld_ThreeDogNight_Original5S.wav,,,,,,,,,,,,,,,,,,,,,,,,,,,,,,,,,,,,,,,,,,,,,,,,,,,,
,,,,,185931,001,2024-07-12_18h34.31.351,experiment,2024.1.5,Win32,59.95203837,6653ff8147de9950238b7a43,6691931c2c63981b064e1f0c,6691bcecd4944b412a8b22f0,,,,,,,,,,,,,,,,,,,,,,,,,,,,,,,,,,,,,,,,,,,,,,,,,,,,,,,,,,,,1179.88,1187.111,0.126302083,-0.147135417,1,0,0,1.199,compass,0,20,20,8,1,SoundStimuli/EndlessLove_DianaRossLionelRichie_Cover5S.wav,,,,,,,,,,,,,,,,,,,,,,,,,,,,,,,,,,,,,,,,,,,,,,,,,,,,
,,,,,185931,001,2024-07-12_18h34.31.351,experiment,2024.1.5,Win32,59.95203837,6653ff8147de9950238b7a43,6691931c2c63981b064e1f0c,6691bcecd4944b412a8b22f0,,,,,,,,,,,,,,,,,,,,,,,,,,,,,,,,,,,,,,,,,,,,,,,,,,,,,,,,,,,,1187.113,1193.982,-0.149739583,-0.16796875,1,0,0,0.853,compass,0,21,21,15,1,SoundStimuli/CrazyInLove_BeyonceFtJayZ_Cover5S.wav,,,,,,,,,,,,,,,,,,,,,,,,,,,,,,,,,,,,,,,,,,,,,,,,,,,,
,,,,,185931,001,2024-07-12_18h34.31.351,experiment,2024.1.5,Win32,59.95203837,6653ff8147de9950238b7a43,6691931c2c63981b064e1f0c,6691bcecd4944b412a8b22f0,,,,,,,,,,,,,,,,,,,,,,,,,,,,,,,,,,,,,,,,,,,,,,,,,,,,,,,,,,,,1193.987,1200.524,-0.0703125,0.08984375,1,0,0,0.523,compass,0,22,22,26,1,SoundStimuli/TheSign_AceOfBase_Cover5S.wav,,,,,,,,,,,,,,,,,,,,,,,,,,,,,,,,,,,,,,,,,,,,,,,,,,,,
,,,,,185931,001,2024-07-12_18h34.31.351,experiment,2024.1.5,Win32,59.95203837,6653ff8147de9950238b7a43,6691931c2c63981b064e1f0c,6691bcecd4944b412a8b22f0,,,,,,,,,,,,,,,,,,,,,,,,,,,,,,,,,,,,,,,,,,,,,,,,,,,,,,,,,,,,1200.535,1207.655,0.21875,0.151041667,1,0,0,1.081,compass,0,23,23,22,1,SoundStimuli/Happy_PharellWilliams_Original5S.wav,,,,,,,,,,,,,,,,,,,,,,,,,,,,,,,,,,,,,,,,,,,,,,,,,,,,
,,,,,185931,001,2024-07-12_18h34.31.351,experiment,2024.1.5,Win32,59.95203837,6653ff8147de9950238b7a43,6691931c2c63981b064e1f0c,6691bcecd4944b412a8b22f0,,,,,,,,,,,,,,,,,,,,,,,,,,,,,,,,,,,,,,,,,,,,,,,,,,,,,,,,,,,,1207.656,1217.106,-0.071614583,-0.153645833,1,0,0,3.424,compass,0,24,24,23,1,SoundStimuli/IWalkTheLine_JohnnyCash_Original5S.wav,,,,,,,,,,,,,,,,,,,,,,,,,,,,,,,,,,,,,,,,,,,,,,,,,,,,
,,,,,185931,001,2024-07-12_18h34.31.351,experiment,2024.1.5,Win32,59.95203837,6653ff8147de9950238b7a43,6691931c2c63981b064e1f0c,6691bcecd4944b412a8b22f0,,,,,,,,,,,,,,,,,,,,,,,,,,,,,,,,,,,,,,,,,,,,,,,,,,,,,,,,,,,,1217.107,1226.073,0.13671875,0.065104167,1,0,0,2.952,compass,0,25,25,29,1,SoundStimuli/BetteDavisEyes_KimCarnes_Original5S.wav,,,,,,,,,,,,,,,,,,,,,,,,,,,,,,,,,,,,,,,,,,,,,,,,,,,,
,,,,,185931,001,2024-07-12_18h34.31.351,experiment,2024.1.5,Win32,59.95203837,6653ff8147de9950238b7a43,6691931c2c63981b064e1f0c,6691bcecd4944b412a8b22f0,,,,,,,,,,,,,,,,,,,,,,,,,,,,,,,,,,,,,,,,,,,,,,,,,,,,,,,,,,,,1226.075,1232.655,0.13671875,0.065104167,1,0,0,0.566,compass,0,26,26,28,1,SoundStimuli/IWantToHoldYourHand_TheBeatles_Original5S.wav,,,,,,,,,,,,,,,,,,,,,,,,,,,,,,,,,,,,,,,,,,,,,,,,,,,,
,,,,,185931,001,2024-07-12_18h34.31.351,experiment,2024.1.5,Win32,59.95203837,6653ff8147de9950238b7a43,6691931c2c63981b064e1f0c,6691bcecd4944b412a8b22f0,,,,,,,,,,,,,,,,,,,,,,,,,,,,,,,,,,,,,,,,,,,,,,,,,,,,,,,,,,,,1232.656,1239.328,0.1328125,0.063802083,1,0,0,0.65,compass,0,27,27,7,1,SoundStimuli/MackTheKnife_BobbyDarin_Cover5S.wav,,,,,,,,,,,,,,,,,,,,,,,,,,,,,,,,,,,,,,,,,,,,,,,,,,,,
,,,,,185931,001,2024-07-12_18h34.31.351,experiment,2024.1.5,Win32,59.95203837,6653ff8147de9950238b7a43,6691931c2c63981b064e1f0c,6691bcecd4944b412a8b22f0,,,,,,,,,,,,,,,,,,,,,,,,,,,,,,,,,,,,,,,,,,,,,,,,,,,,,,,,,,,,1239.341,1246.249,0.1328125,0.063802083,1,0,0,0.886,compass,0,28,28,24,1,SoundStimuli/Kiss_Prince_Cover5S.wav,,,,,,,,,,,,,,,,,,,,,,,,,,,,,,,,,,,,,,,,,,,,,,,,,,,,
,,,,,185931,001,2024-07-12_18h34.31.351,experiment,2024.1.5,Win32,59.95203837,6653ff8147de9950238b7a43,6691931c2c63981b064e1f0c,6691bcecd4944b412a8b22f0,,,,,,,,,,,,,,,,,,,,,,,,,,,,,,,,,,,,,,,,,,,,,,,,,,,,,,,,,,,,1246.252,1252.746,0.12890625,0.049479167,1,0,0,0.488,compass,0,29,29,17,1,SoundStimuli/IWannaDanceWithSomebody_WhitneyHouston_Original5S.wav,,,,,,,,,,,,,,,,,,,,,,,,,,,,,,,,,,,,,,,,,,,,,,,,,,,,
,,,,,185931,001,2024-07-12_18h34.31.351,experiment,2024.1.5,Win32,59.95203837,6653ff8147de9950238b7a43,6691931c2c63981b064e1f0c,6691bcecd4944b412a8b22f0,,,,,,,,,,,,,,,,,,,,,,,,,,,,,,,,,,,,,,,,,,,,,,,,,,,,,,,,,,,,1252.747,1259.66,0.10546875,-0.11328125,1,0,0,0.896,compass,0,30,30,21,1,SoundStimuli/BridgeOverTroubledWater_SimonAndGarfunkel_Original5S.wav,,,,,,,,,,,,,,,,,,,,,,,,,,,,,,,,,,,,,,,,,,,,,,,,,,,,
,,,,,185931,001,2024-07-12_18h34.31.351,experiment,2024.1.5,Win32,59.95203837,6653ff8147de9950238b7a43,6691931c2c63981b064e1f0c,6691bcecd4944b412a8b22f0,,,,,,,,,,,,,,,,,,,,,,,,,,,,,,,,,,,,,,,,,,,,,,,,,,,,,,,,,,,,1259.661,1266.546,-0.096354167,-0.154947917,1,0,0,0.884,compass,0,31,31,16,1,SoundStimuli/ItsAllInTheGame_TommyEdwards_Cover5S.wav,,,,,,,,,,,,,,,,,,,,,,,,,,,,,,,,,,,,,,,,,,,,,,,,,,,,
,,,,,185931,001,2024-07-12_18h34.31.351,experiment,2024.1.5,Win32,59.95203837,6653ff8147de9950238b7a43,6691931c2c63981b064e1f0c,6691bcecd4944b412a8b22f0,,,,,,,,,,,,,,,,,,,,,,,,,,,,,,,,,,,,,,,,,,,,,,,,,,,,,,,,,,,,1266.591,1273.41,0.106770833,0.076822917,1,0,0,0.805,compass,0,32,32,20,1,SoundStimuli/FlashdanceWhatAFeeling_IreneCara_Original5S.wav,,,,,,,,,,,,,,,,,,,,,,,,,,,,,,,,,,,,,,,,,,,,,,,,,,,,
,,,,,185931,001,2024-07-12_18h34.31.351,experiment,2024.1.5,Win32,59.95203837,6653ff8147de9950238b7a43,6691931c2c63981b064e1f0c,6691bcecd4944b412a8b22f0,,,,,,,,,,,,,,,,,,,,,,,,,,,,,,,,,,,,,,,,,,,,,,,,,,,,,,,,,,,,1273.417,1280.787,0.106770833,0.076822917,1,0,0,1.355,compass,0,33,33,1,1,SoundStimuli/Smooth_SantanaRobThomas_Original5S.wav,,,,,,,,,,,,,,,,,,,,,,,,,,,,,,,,,,,,,,,,,,,,,,,,,,,,
,,,,,185931,001,2024-07-12_18h34.31.351,experiment,2024.1.5,Win32,59.95203837,6653ff8147de9950238b7a43,6691931c2c63981b064e1f0c,6691bcecd4944b412a8b22f0,,,,,,,,,,,,,,,,,,,,,,,,,,,,,,,,,,,,,,,,,,,,,,,,,,,,,,,,,,,,1280.789,1287.853,-0.092447917,0.126302083,1,0,0,1.056,compass,0,34,34,10,1,SoundStimuli/LeFreak_Chic_Cover5S.wav,,,,,,,,,,,,,,,,,,,,,,,,,,,,,,,,,,,,,,,,,,,,,,,,,,,,
,,,,,185931,001,2024-07-12_18h34.31.351,experiment,2024.1.5,Win32,59.95203837,6653ff8147de9950238b7a43,6691931c2c63981b064e1f0c,6691bcecd4944b412a8b22f0,,,,,,,,,,,,,,,,,,,,,,,,,,,,,,,,,,,,,,,,,,,,,,,,,,,,,,,,,,,,,,,,,,,,,,,,,,,1287.854,1305.558,space,17.665,,1305.558,1316.023,right,10.411,,0,2,2,2,1,block_order/blockD.xlsx,,,,,,,,,,,,,,,,,,,,,,,,,,,,,,,,,,,,
,,,,,185931,001,2024-07-12_18h34.31.351,experiment,2024.1.5,Win32,59.95203837,6653ff8147de9950238b7a43,6691931c2c63981b064e1f0c,6691bcecd4944b412a8b22f0,,,,,,,,,,,,,,,,,,,,,,,,,,,,,,,,,,,,,,,,,,,,,,,,,,,,,,,,,,,,1316.133,1322.757,-0.178385417,0.095052083,1,0,0,0.616,compass,0,0,0,21,1,SoundStimuli/GoodGollyMissMolly_LittleRichard_Cover5S.wav,,,,,,,,,,,,,,,,,,,,,,,,,,,,,,,,,,,,,,,,,,,,,,,,,,,,
,,,,,185931,001,2024-07-12_18h34.31.351,experiment,2024.1.5,Win32,59.95203837,6653ff8147de9950238b7a43,6691931c2c63981b064e1f0c,6691bcecd4944b412a8b22f0,,,,,,,,,,,,,,,,,,,,,,,,,,,,,,,,,,,,,,,,,,,,,,,,,,,,,,,,,,,,1322.775,1329.706,0.061197917,-0.078125,1,0,0,0.909,compass,0,1,1,17,1,SoundStimuli/Fallin_AliciaKeys_Original5S.wav,,,,,,,,,,,,,,,,,,,,,,,,,,,,,,,,,,,,,,,,,,,,,,,,,,,,
,,,,,185931,001,2024-07-12_18h34.31.351,experiment,2024.1.5,Win32,59.95203837,6653ff8147de9950238b7a43,6691931c2c63981b064e1f0c,6691bcecd4944b412a8b22f0,,,,,,,,,,,,,,,,,,,,,,,,,,,,,,,,,,,,,,,,,,,,,,,,,,,,,,,,,,,,1329.707,1336.466,-0.236979167,-0.178385417,1,0,0,0.749,compass,0,2,2,13,1,SoundStimuli/GodOnlyKnows_TheBeachBoys_Cover5S.wav,,,,,,,,,,,,,,,,,,,,,,,,,,,,,,,,,,,,,,,,,,,,,,,,,,,,
,,,,,185931,001,2024-07-12_18h34.31.351,experiment,2024.1.5,Win32,59.95203837,6653ff8147de9950238b7a43,6691931c2c63981b064e1f0c,6691bcecd4944b412a8b22f0,,,,,,,,,,,,,,,,,,,,,,,,,,,,,,,,,,,,,,,,,,,,,,,,,,,,,,,,,,,,1336.486,1343.926,0.194010417,0.063802083,1,0,0,1.417,compass,0,3,3,23,1,SoundStimuli/StrawberryFieldsForever_TheBeatles_Original5S.wav,,,,,,,,,,,,,,,,,,,,,,,,,,,,,,,,,,,,,,,,,,,,,,,,,,,,
,,,,,185931,001,2024-07-12_18h34.31.351,experiment,2024.1.5,Win32,59.95203837,6653ff8147de9950238b7a43,6691931c2c63981b064e1f0c,6691bcecd4944b412a8b22f0,,,,,,,,,,,,,,,,,,,,,,,,,,,,,,,,,,,,,,,,,,,,,,,,,,,,,,,,,,,,1343.938,1351.366,-0.108072917,0.11328125,1,0,0,1.381,compass,0,4,4,6,1,SoundStimuli/Levitating_DuaLipa_Cover5S.wav,,,,,,,,,,,,,,,,,,,,,,,,,,,,,,,,,,,,,,,,,,,,,,,,,,,,
,,,,,185931,001,2024-07-12_18h34.31.351,experiment,2024.1.5,Win32,59.95203837,6653ff8147de9950238b7a43,6691931c2c63981b064e1f0c,6691bcecd4944b412a8b22f0,,,,,,,,,,,,,,,,,,,,,,,,,,,,,,,,,,,,,,,,,,,,,,,,,,,,,,,,,,,,1351.367,1359.408,0.078125,0.083333333,1,0,0,2.027,compass,0,5,5,25,1,SoundStimuli/Respect_ArethaFranklin_Original5S.wav,,,,,,,,,,,,,,,,,,,,,,,,,,,,,,,,,,,,,,,,,,,,,,,,,,,,
,,,,,185931,001,2024-07-12_18h34.31.351,experiment,2024.1.5,Win32,59.95203837,6653ff8147de9950238b7a43,6691931c2c63981b064e1f0c,6691bcecd4944b412a8b22f0,,,,,,,,,,,,,,,,,,,,,,,,,,,,,,,,,,,,,,,,,,,,,,,,,,,,,,,,,,,,1359.411,1366.171,0.078125,0.083333333,1,0,0,0.739,compass,0,6,6,8,1,SoundStimuli/LikeAPrayer_Madonna_Original5S.wav,,,,,,,,,,,,,,,,,,,,,,,,,,,,,,,,,,,,,,,,,,,,,,,,,,,,
,,,,,185931,001,2024-07-12_18h34.31.351,experiment,2024.1.5,Win32,59.95203837,6653ff8147de9950238b7a43,6691931c2c63981b064e1f0c,6691bcecd4944b412a8b22f0,,,,,,,,,,,,,,,,,,,,,,,,,,,,,,,,,,,,,,,,,,,,,,,,,,,,,,,,,,,,1366.176,1372.967,0.078125,0.083333333,1,0,0,0.775,compass,0,7,7,27,1,SoundStimuli/ShapeofYou_EdSheeran_Original5S.wav,,,,,,,,,,,,,,,,,,,,,,,,,,,,,,,,,,,,,,,,,,,,,,,,,,,,
,,,,,185931,001,2024-07-12_18h34.31.351,experiment,2024.1.5,Win32,59.95203837,6653ff8147de9950238b7a43,6691931c2c63981b064e1f0c,6691bcecd4944b412a8b22f0,,,,,,,,,,,,,,,,,,,,,,,,,,,,,,,,,,,,,,,,,,,,,,,,,,,,,,,,,,,,1372.968,1383.062,0.108072917,-0.118489583,1,0,0,4.075,compass,0,8,8,11,1,SoundStimuli/Superstition_StevieWonder_Cover5S.wav,,,,,,,,,,,,,,,,,,,,,,,,,,,,,,,,,,,,,,,,,,,,,,,,,,,,
,,,,,185931,001,2024-07-12_18h34.31.351,experiment,2024.1.5,Win32,59.95203837,6653ff8147de9950238b7a43,6691931c2c63981b064e1f0c,6691bcecd4944b412a8b22f0,,,,,,,,,,,,,,,,,,,,,,,,,,,,,,,,,,,,,,,,,,,,,,,,,,,,,,,,,,,,1383.07,1391.624,0.059895833,0.09765625,1,0,0,2.549,compass,0,9,9,7,1,SoundStimuli/NoOne_AliciaKeys_Cover5S.wav,,,,,,,,,,,,,,,,,,,,,,,,,,,,,,,,,,,,,,,,,,,,,,,,,,,,
,,,,,185931,001,2024-07-12_18h34.31.351,experiment,2024.1.5,Win32,59.95203837,6653ff8147de9950238b7a43,6691931c2c63981b064e1f0c,6691bcecd4944b412a8b22f0,,,,,,,,,,,,,,,,,,,,,,,,,,,,,,,,,,,,,,,,,,,,,,,,,,,,,,,,,,,,1391.626,1398.506,0.12109375,0.092447917,1,0,0,0.862,compass,0,10,10,0,1,SoundStimuli/StayinAlive_BeeGees_Original5S.wav,,,,,,,,,,,,,,,,,,,,,,,,,,,,,,,,,,,,,,,,,,,,,,,,,,,,
,,,,,185931,001,2024-07-12_18h34.31.351,experiment,2024.1.5,Win32,59.95203837,6653ff8147de9950238b7a43,6691931c2c63981b064e1f0c,6691bcecd4944b412a8b22f0,,,,,,,,,,,,,,,,,,,,,,,,,,,,,,,,,,,,,,,,,,,,,,,,,,,,,,,,,,,,1398.507,1407.575,0.140625,-0.139322917,1,0,0,3.056,compass,0,11,11,5,1,SoundStimuli/MyGirl_TheTemptations_Original5S.wav,,,,,,,,,,,,,,,,,,,,,,,,,,,,,,,,,,,,,,,,,,,,,,,,,,,,
,,,,,185931,001,2024-07-12_18h34.31.351,experiment,2024.1.5,Win32,59.95203837,6653ff8147de9950238b7a43,6691931c2c63981b064e1f0c,6691bcecd4944b412a8b22f0,,,,,,,,,,,,,,,,,,,,,,,,,,,,,,,,,,,,,,,,,,,,,,,,,,,,,,,,,,,,1407.577,1415.794,-0.07421875,0.053385417,1,0,0,2.203,compass,0,12,12,31,1,SoundStimuli/TheBattleOfNewOrleans_JohnnyHorton_Cover5S.wav,,,,,,,,,,,,,,,,,,,,,,,,,,,,,,,,,,,,,,,,,,,,,,,,,,,,
,,,,,185931,001,2024-07-12_18h34.31.351,experiment,2024.1.5,Win32,59.95203837,6653ff8147de9950238b7a43,6691931c2c63981b064e1f0c,6691bcecd4944b412a8b22f0,,,,,,,,,,,,,,,,,,,,,,,,,,,,,,,,,,,,,,,,,,,,,,,,,,,,,,,,,,,,1415.795,1423.81,0.135416667,0.1640625,1,0,0,1.993,compass,0,13,13,33,1,SoundStimuli/StandByMe_BenEKing_Cover5S.wav,,,,,,,,,,,,,,,,,,,,,,,,,,,,,,,,,,,,,,,,,,,,,,,,,,,,
,,,,,185931,001,2024-07-12_18h34.31.351,experiment,2024.1.5,Win32,59.95203837,6653ff8147de9950238b7a43,6691931c2c63981b064e1f0c,6691bcecd4944b412a8b22f0,,,,,,,,,,,,,,,,,,,,,,,,,,,,,,,,,,,,,,,,,,,,,,,,,,,,,,,,,,,,1423.821,1431.943,0.084635417,0.096354167,1,0,0,2.12,compass,0,14,14,24,1,SoundStimuli/UptownFunk_MarkRonson_Original5S.wav,,,,,,,,,,,,,,,,,,,,,,,,,,,,,,,,,,,,,,,,,,,,,,,,,,,,
,,,,,185931,001,2024-07-12_18h34.31.351,experiment,2024.1.5,Win32,59.95203837,6653ff8147de9950238b7a43,6691931c2c63981b064e1f0c,6691bcecd4944b412a8b22f0,,,,,,,,,,,,,,,,,,,,,,,,,,,,,,,,,,,,,,,,,,,,,,,,,,,,,,,,,,,,1431.945,1438.89,0.084635417,0.096354167,1,0,0,0.933,compass,0,15,15,1,1,SoundStimuli/Stronger_KanyeWest_Original5S.wav,,,,,,,,,,,,,,,,,,,,,,,,,,,,,,,,,,,,,,,,,,,,,,,,,,,,
,,,,,185931,001,2024-07-12_18h34.31.351,experiment,2024.1.5,Win32,59.95203837,6653ff8147de9950238b7a43,6691931c2c63981b064e1f0c,6691bcecd4944b412a8b22f0,,,,,,,,,,,,,,,,,,,,,,,,,,,,,,,,,,,,,,,,,,,,,,,,,,,,,,,,,,,,1438.893,1446.028,0.186197917,-0.151041667,1,0,0,1.119,compass,0,16,16,9,1,SoundStimuli/Despacito_LuisFonsiDaddyYankee_Cover5S.wav,,,,,,,,,,,,,,,,,,,,,,,,,,,,,,,,,,,,,,,,,,,,,,,,,,,,
,,,,,185931,001,2024-07-12_18h34.31.351,experiment,2024.1.5,Win32,59.95203837,6653ff8147de9950238b7a43,6691931c2c63981b064e1f0c,6691bcecd4944b412a8b22f0,,,,,,,,,,,,,,,,,,,,,,,,,,,,,,,,,,,,,,,,,,,,,,,,,,,,,,,,,,,,1446.03,1453.898,0.252604167,0.083333333,1,0,0,1.851,compass,0,17,17,22,1,SoundStimuli/RockWithYou_MichaelJackson_Original5S.wav,,,,,,,,,,,,,,,,,,,,,,,,,,,,,,,,,,,,,,,,,,,,,,,,,,,,
,,,,,185931,001,2024-07-12_18h34.31.351,experiment,2024.1.5,Win32,59.95203837,6653ff8147de9950238b7a43,6691931c2c63981b064e1f0c,6691bcecd4944b412a8b22f0,,,,,,,,,,,,,,,,,,,,,,,,,,,,,,,,,,,,,,,,,,,,,,,,,,,,,,,,,,,,1453.899,1460.551,-0.19140625,-0.140625,1,0,0,0.644,compass,0,18,18,10,1,SoundStimuli/BadDay_DanielPowter_Cover5S.wav,,,,,,,,,,,,,,,,,,,,,,,,,,,,,,,,,,,,,,,,,,,,,,,,,,,,
,,,,,185931,001,2024-07-12_18h34.31.351,experiment,2024.1.5,Win32,59.95203837,6653ff8147de9950238b7a43,6691931c2c63981b064e1f0c,6691bcecd4944b412a8b22f0,,,,,,,,,,,,,,,,,,,,,,,,,,,,,,,,,,,,,,,,,,,,,,,,,,,,,,,,,,,,1460.56,1468.783,0.216145833,0.17578125,1,0,0,2.201,compass,0,19,19,3,1,SoundStimuli/NoScrubs_TLC_Original5S.wav,,,,,,,,,,,,,,,,,,,,,,,,,,,,,,,,,,,,,,,,,,,,,,,,,,,,
,,,,,185931,001,2024-07-12_18h34.31.351,experiment,2024.1.5,Win32,59.95203837,6653ff8147de9950238b7a43,6691931c2c63981b064e1f0c,6691bcecd4944b412a8b22f0,,,,,,,,,,,,,,,,,,,,,,,,,,,,,,,,,,,,,,,,,,,,,,,,,,,,,,,,,,,,1468.783,1475.163,-0.171875,-0.111979167,1,0,0,0.358,compass,0,20,20,34,1,SoundStimuli/AChangeIsGonnaCome_SamCooke_Cover5S.wav,,,,,,,,,,,,,,,,,,,,,,,,,,,,,,,,,,,,,,,,,,,,,,,,,,,,
,,,,,185931,001,2024-07-12_18h34.31.351,experiment,2024.1.5,Win32,59.95203837,6653ff8147de9950238b7a43,6691931c2c63981b064e1f0c,6691bcecd4944b412a8b22f0,,,,,,,,,,,,,,,,,,,,,,,,,,,,,,,,,,,,,,,,,,,,,,,,,,,,,,,,,,,,1475.165,1481.884,0.134114583,0.108072917,1,0,0,0.717,compass,0,21,21,18,1,SoundStimuli/AnotherOneBitesTheDust_Queen_Original5S.wav,,,,,,,,,,,,,,,,,,,,,,,,,,,,,,,,,,,,,,,,,,,,,,,,,,,,
,,,,,185931,001,2024-07-12_18h34.31.351,experiment,2024.1.5,Win32,59.95203837,6653ff8147de9950238b7a43,6691931c2c63981b064e1f0c,6691bcecd4944b412a8b22f0,,,,,,,,,,,,,,,,,,,,,,,,,,,,,,,,,,,,,,,,,,,,,,,,,,,,,,,,,,,,1481.886,1491.043,0.08984375,-0.130208333,1,0,0,3.147,compass,0,22,22,2,1,SoundStimuli/Mood_24kGoldnianndior_Cover5S.wav,,,,,,,,,,,,,,,,,,,,,,,,,,,,,,,,,,,,,,,,,,,,,,,,,,,,
,,,,,185931,001,2024-07-12_18h34.31.351,experiment,2024.1.5,Win32,59.95203837,6653ff8147de9950238b7a43,6691931c2c63981b064e1f0c,6691bcecd4944b412a8b22f0,,,,,,,,,,,,,,,,,,,,,,,,,,,,,,,,,,,,,,,,,,,,,,,,,,,,,,,,,,,,1491.056,1499.277,0.122395833,0.01953125,1,0,0,2.211,compass,0,23,23,29,1,SoundStimuli/OldTownRoad_LilNasX_Original5S.wav,,,,,,,,,,,,,,,,,,,,,,,,,,,,,,,,,,,,,,,,,,,,,,,,,,,,
,,,,,185931,001,2024-07-12_18h34.31.351,experiment,2024.1.5,Win32,59.95203837,6653ff8147de9950238b7a43,6691931c2c63981b064e1f0c,6691bcecd4944b412a8b22f0,,,,,,,,,,,,,,,,,,,,,,,,,,,,,,,,,,,,,,,,,,,,,,,,,,,,,,,,,,,,1499.279,1505.895,-0.1328125,0.125,1,0,0,0.599,compass,0,24,24,14,1,SoundStimuli/BlindingLights_TheWeeknd_Original5S.wav,,,,,,,,,,,,,,,,,,,,,,,,,,,,,,,,,,,,,,,,,,,,,,,,,,,,
,,,,,185931,001,2024-07-12_18h34.31.351,experiment,2024.1.5,Win32,59.95203837,6653ff8147de9950238b7a43,6691931c2c63981b064e1f0c,6691bcecd4944b412a8b22f0,,,,,,,,,,,,,,,,,,,,,,,,,,,,,,,,,,,,,,,,,,,,,,,,,,,,,,,,,,,,1505.901,1512.918,0.078125,0.14453125,1,0,0,1.007,compass,0,25,25,4,1,SoundStimuli/GetUrFreakOn_MissyElliot_Original5S.wav,,,,,,,,,,,,,,,,,,,,,,,,,,,,,,,,,,,,,,,,,,,,,,,,,,,,
,,,,,185931,001,2024-07-12_18h34.31.351,experiment,2024.1.5,Win32,59.95203837,6653ff8147de9950238b7a43,6691931c2c63981b064e1f0c,6691bcecd4944b412a8b22f0,,,,,,,,,,,,,,,,,,,,,,,,,,,,,,,,,,,,,,,,,,,,,,,,,,,,,,,,,,,,1512.922,1519.029,0.162760417,-0.21484375,1,0,0,0.085,compass,0,26,26,12,1,SoundStimuli/IWillAlwaysLoveYou_WhitneyHouston_Cover5S.wav,,,,,,,,,,,,,,,,,,,,,,,,,,,,,,,,,,,,,,,,,,,,,,,,,,,,
,,,,,185931,001,2024-07-12_18h34.31.351,experiment,2024.1.5,Win32,59.95203837,6653ff8147de9950238b7a43,6691931c2c63981b064e1f0c,6691bcecd4944b412a8b22f0,,,,,,,,,,,,,,,,,,,,,,,,,,,,,,,,,,,,,,,,,,,,,,,,,,,,,,,,,,,,1519.03,1526.745,-0.071614583,-0.161458333,1,0,0,1.664,compass,0,27,27,20,1,SoundStimuli/HeyYa_Outkast_Cover5S.wav,,,,,,,,,,,,,,,,,,,,,,,,,,,,,,,,,,,,,,,,,,,,,,,,,,,,
,,,,,185931,001,2024-07-12_18h34.31.351,experiment,2024.1.5,Win32,59.95203837,6653ff8147de9950238b7a43,6691931c2c63981b064e1f0c,6691bcecd4944b412a8b22f0,,,,,,,,,,,,,,,,,,,,,,,,,,,,,,,,,,,,,,,,,,,,,,,,,,,,,,,,,,,,1526.752,1533.702,-0.131510417,-0.149739583,1,0,0,0.938,compass,0,28,28,16,1,SoundStimuli/BohemianRhapsody_Queen_Original5S.wav,,,,,,,,,,,,,,,,,,,,,,,,,,,,,,,,,,,,,,,,,,,,,,,,,,,,
,,,,,185931,001,2024-07-12_18h34.31.351,experiment,2024.1.5,Win32,59.95203837,6653ff8147de9950238b7a43,6691931c2c63981b064e1f0c,6691bcecd4944b412a8b22f0,,,,,,,,,,,,,,,,,,,,,,,,,,,,,,,,,,,,,,,,,,,,,,,,,,,,,,,,,,,,1533.705,1541.844,-0.0546875,0.0859375,1,0,0,2.127,compass,0,29,29,28,1,SoundStimuli/ComeAndGetYourLove_Redbone_Original5S.wav,,,,,,,,,,,,,,,,,,,,,,,,,,,,,,,,,,,,,,,,,,,,,,,,,,,,
,,,,,185931,001,2024-07-12_18h34.31.351,experiment,2024.1.5,Win32,59.95203837,6653ff8147de9950238b7a43,6691931c2c63981b064e1f0c,6691bcecd4944b412a8b22f0,,,,,,,,,,,,,,,,,,,,,,,,,,,,,,,,,,,,,,,,,,,,,,,,,,,,,,,,,,,,1541.845,1548.518,0.143229167,-0.25390625,1,0,0,0.659,compass,0,30,30,15,1,SoundStimuli/TikTok_Kesha_Cover5S.wav,,,,,,,,,,,,,,,,,,,,,,,,,,,,,,,,,,,,,,,,,,,,,,,,,,,,
,,,,,185931,001,2024-07-12_18h34.31.351,experiment,2024.1.5,Win32,59.95203837,6653ff8147de9950238b7a43,6691931c2c63981b064e1f0c,6691bcecd4944b412a8b22f0,,,,,,,,,,,,,,,,,,,,,,,,,,,,,,,,,,,,,,,,,,,,,,,,,,,,,,,,,,,,1548.519,1556.137,0.196614583,0.2265625,1,0,0,1.607,compass,0,31,31,32,1,SoundStimuli/HeatWaves_GlassAnimals_Original5S.wav,,,,,,,,,,,,,,,,,,,,,,,,,,,,,,,,,,,,,,,,,,,,,,,,,,,,
,,,,,185931,001,2024-07-12_18h34.31.351,experiment,2024.1.5,Win32,59.95203837,6653ff8147de9950238b7a43,6691931c2c63981b064e1f0c,6691bcecd4944b412a8b22f0,,,,,,,,,,,,,,,,,,,,,,,,,,,,,,,,,,,,,,,,,,,,,,,,,,,,,,,,,,,,1556.146,1565.072,0.055989583,-0.188802083,1,0,0,2.902,compass,0,32,32,26,1,SoundStimuli/LivinOnAPrayer_BonJovi_Cover5S.wav,,,,,,,,,,,,,,,,,,,,,,,,,,,,,,,,,,,,,,,,,,,,,,,,,,,,
,,,,,185931,001,2024-07-12_18h34.31.351,experiment,2024.1.5,Win32,59.95203837,6653ff8147de9950238b7a43,6691931c2c63981b064e1f0c,6691bcecd4944b412a8b22f0,,,,,,,,,,,,,,,,,,,,,,,,,,,,,,,,,,,,,,,,,,,,,,,,,,,,,,,,,,,,1565.074,1571.818,-0.157552083,-0.190104167,1,0,0,0.711,compass,0,33,33,19,1,SoundStimuli/LetsGetItOn_MarvinGaye_Cover5S.wav,,,,,,,,,,,,,,,,,,,,,,,,,,,,,,,,,,,,,,,,,,,,,,,,,,,,
,,,,,185931,001,2024-07-12_18h34.31.351,experiment,2024.1.5,Win32,59.95203837,6653ff8147de9950238b7a43,6691931c2c63981b064e1f0c,6691bcecd4944b412a8b22f0,,,,,,,,,,,,,,,,,,,,,,,,,,,,,,,,,,,,,,,,,,,,,,,,,,,,,,,,,,,,1571.82,1579.424,0.096354167,0.046875,1,0,0,1.589,compass,0,34,34,30,1,SoundStimuli/PokerFace_LadyGaga_Original5S.wav,,,,,,,,,,,,,,,,,,,,,,,,,,,,,,,,,,,,,,,,,,,,,,,,,,,,
,,,,,185931,001,2024-07-12_18h34.31.351,experiment,2024.1.5,Win32,59.95203837,6653ff8147de9950238b7a43,6691931c2c63981b064e1f0c,6691bcecd4944b412a8b22f0,,,,,,,,,,,,,,,,,,,,,,,,,,,,,,,,,,,,,,,,,,,,,,,,,,,,,,,,,,,,,,,,,,,,,,,,,,,1579.425,1579.426,,,,1579.426,1579.426,,,,0,3,3,3,1,block_order/blockA.xlsx,,,,,,,,,,,,,,,,,,,,,,,,,,,,,,,,,,,,
,,,,,185931,001,2024-07-12_18h34.31.351,experiment,2024.1.5,Win32,59.95203837,6653ff8147de9950238b7a43,6691931c2c63981b064e1f0c,6691bcecd4944b412a8b22f0,,,,,,,,,,,,,,,,,,,,,,,,,,,,,,,,,,,,,,,,,,,,,,,,,,,,,,,,,,,,,,,,,,,,,,,,,,,,,,,,,,,,,,,,,,,56,Item 2,Loved musicals and music concerts but never played any. ,Item 4,5,6,"Driving, cleaning, cooking, exercising",Often,Often,Rarely,Sometimes,Rarely,Rarely,Sometimes,Sometimes,Never,Often,Often,Rarely,Never,Always,Often,Sometimes,Gospel,Gospel,R&B,Jazz,Time of listening has reduced a little bit. ,I don't mind keeping a particular song that hits differently on loop for several minutes. ,0,0,0,0,1,,
,,,,,185931,001,2024-07-12_18h34.31.351,experiment,2024.1.5,Win32,59.95203837,6653ff8147de9950238b7a43,6691931c2c63981b064e1f0c,6691bcecd4944b412a8b22f0,,,,,,,,,,,,,,,,,,,,,,,,,,,,,,,,,,,,,,,,,,,,,,,,,,,,,,,,,,,,,,,,,,,,,,,,,,,,,,,,,,,,,,,,,,,,,,,,,,,,,,,,,,,,,,,,,,,,,,,,,,,,,2037.947,2037.957
