welcome.started,welcome.stopped,space_to_continue.keys,space_to_continue.rt,space_to_continue.duration,participant,session,date,expName,psychopyVersion,OS,frameRate,PROLIFIC_PID,STUDY_ID,SESSION_ID,consent.consent,consent.consent_recontact,consent_check.started,consent_check.stopped,calibration_ready.started,calibration_ready.stopped,cal_ready.keys,cal_ready.rt,cal_ready.duration,calibration.started,calibration.stopped,mouse.x,mouse.y,mouse.leftButton,mouse.midButton,mouse.rightButton,mouse.time,mouse.clicked_name,move_on.keys,move_on.rt,move_on.duration,run_cal.thisRepN,run_cal.thisTrialN,run_cal.thisN,run_cal.thisIndex,run_cal.ran,emotion_training_ready.started,emotion_training_ready.stopped,training_move_on.keys,training_move_on.rt,training_move_on.duration,examples.started,examples.stopped,emotion_scale.started,emotion_scale.stopped,scale_next.keys,scale_next.rt,scale_next.duration,instructions.started,instructions.stopped,next.keys,next.rt,next.duration,practice_task.started,practice_task.stopped,mouse_rating_2.x,mouse_rating_2.y,mouse_rating_2.leftButton,mouse_rating_2.midButton,mouse_rating_2.rightButton,mouse_rating_2.time,mouse_rating_2.clicked_name,ready.started,ready.stopped,key_resp.keys,key_resp.rt,key_resp.duration,set_group.started,set_group.stopped,task.started,task.stopped,mouse_rating.x,mouse_rating.y,mouse_rating.leftButton,mouse_rating.midButton,mouse_rating.rightButton,mouse_rating.time,mouse_rating.clicked_name,trials.thisRepN,trials.thisTrialN,trials.thisN,trials.thisIndex,trials.ran,clip,short_break.started,short_break.stopped,space_to_move_on.keys,space_to_move_on.rt,space_to_move_on.duration,instruction_reminder.started,instruction_reminder.stopped,reminder_move_on.keys,reminder_move_on.rt,reminder_move_on.duration,blocks.thisRepN,blocks.thisTrialN,blocks.thisN,blocks.thisIndex,blocks.ran,block,post_survey.age,post_survey.musician,post_survey.music_making,post_survey.listen_time,post_survey.medium,post_survey.music_seeking,post_survey.music_choice,post_survey.activities,post_survey.question1.Classical,post_survey.question1.R&B,post_survey.question1.Classic rock,post_survey.question1.Hip hop,post_survey.question1.Ambient,post_survey.question1.Reggae,post_survey.question1.Latin,post_survey.question1.Folk/indie,post_survey.question1.Pop,post_survey.question1.A cappella,post_survey.question1.Metal,post_survey.question1.Jazz,post_survey.question1.Disco,post_survey.question1.Electronic (EDM),post_survey.question1.Alternative rock,post_survey.question1.Country,post_survey.genres_ranked.text1,post_survey.genres_ranked.text2,post_survey.genres_ranked.text3,post_survey.habit_change,post_survey.habits,show_exp.thisRepN,show_exp.thisTrialN,show_exp.thisN,show_exp.thisIndex,show_exp.ran,goodbye.started,goodbye.stopped
0.0002,1.3284,space,1.3181,,267298,001,2024-07-12_16h11.08.791,experiment,2024.1.5,Win32,59.88023952,65cbc0a5402b90fc2fddd78c,6691931c2c63981b064e1f0c,6691b7bb9726698f64f53358,,,,,,,,,,,,,,,,,,,,,,,,,,,,,,,,,,,,,,,,,,,,,,,,,,,,,,,,,,,,,,,,,,,,,,,,,,,,,,,,,,,,,,,,,,,,,,,,,,,,,,,,,,,,,,,,,,,,,,,,,,,,,,
,,,,,267298,001,2024-07-12_16h11.08.791,experiment,2024.1.5,Win32,59.88023952,65cbc0a5402b90fc2fddd78c,6691931c2c63981b064e1f0c,6691b7bb9726698f64f53358,yes,yes,,,,,,,,,,,,,,,,,,,,,,,,,,,,,,,,,,,,,,,,,,,,,,,,,,,,,,,,,,,,,,,,,,,,,,,,,,,,,,,,,,,,,,,,,,,,,,,,,,,,,,,,,,,,,,,,,,,,,,,,,,,,
,,,,,267298,001,2024-07-12_16h11.08.791,experiment,2024.1.5,Win32,59.88023952,65cbc0a5402b90fc2fddd78c,6691931c2c63981b064e1f0c,6691b7bb9726698f64f53358,,,41.3914,41.3918,,,,,,,,,,,,,,,,,,,,,,,,,,,,,,,,,,,,,,,,,,,,,,,,,,,,,,,,,,,,,,,,,,,,,,,,,,,,,,,,,,,,,,,,,,,,,,,,,,,,,,,,,,,,,,,,,,,,,,,,,,
,,,,,267298,001,2024-07-12_16h11.08.791,experiment,2024.1.5,Win32,59.88023952,65cbc0a5402b90fc2fddd78c,6691931c2c63981b064e1f0c,6691b7bb9726698f64f53358,,,,,41.3959,51.528,space,10.1095,,51.5369,77.5492,[0.011111111111111112],[-0.4],[1],[0],[0],[4.586099999994033],"[""play_button""]",y,24.9821,,0,0,0,0,1,,,,,,,,,,,,,,,,,,,,,,,,,,,,,,,,,,,,,,,,,,,,,,,,,,,,,,,,,,,,,,,,,,,,,,,,,,,,,,,,,,,,,,,,,,,,,,,,,,,,
,,,,,267298,001,2024-07-12_16h11.08.791,experiment,2024.1.5,Win32,59.88023952,65cbc0a5402b90fc2fddd78c,6691931c2c63981b064e1f0c,6691b7bb9726698f64f53358,,,,,,,,,,,,,,,,,,,,,,,,,,,77.5495,138.0419,space,60.4766,,138.042,258.0561,258.0564,271.9232,right,10.3272,,271.9235,279.0218,space,7.0529,,279.0221,294.0714,0.024074074,-0.182407407,1,0,0,9.0334,compass_2,294.0716,296.1714,space,2.0808,,296.1716,296.1901,296.2118,304.8873,-0.322222222,0.185185185,1,0,0,2.6664,compass,0,0,0,30,1,SoundStimuli/SomebodyThatIUsedtoKnow_Gotye_Original5S.wav,,,,,,,,,,,,,,,,,,,,,,,,,,,,,,,,,,,,,,,,,,,,,,,,,,,,
,,,,,267298,001,2024-07-12_16h11.08.791,experiment,2024.1.5,Win32,59.88023952,65cbc0a5402b90fc2fddd78c,6691931c2c63981b064e1f0c,6691b7bb9726698f64f53358,,,,,,,,,,,,,,,,,,,,,,,,,,,,,,,,,,,,,,,,,,,,,,,,,,,,,,,,,,,,304.8937,317.1537,0.193518519,0.239814815,1,0,0,6.2498,compass,0,1,1,27,1,SoundStimuli/EyeOfTheTiger_Survivor_Cover5S.wav,,,,,,,,,,,,,,,,,,,,,,,,,,,,,,,,,,,,,,,,,,,,,,,,,,,,
,,,,,267298,001,2024-07-12_16h11.08.791,experiment,2024.1.5,Win32,59.88023952,65cbc0a5402b90fc2fddd78c,6691931c2c63981b064e1f0c,6691b7bb9726698f64f53358,,,,,,,,,,,,,,,,,,,,,,,,,,,,,,,,,,,,,,,,,,,,,,,,,,,,,,,,,,,,317.1606,327.3037,0.015740741,0.175925926,1,0,0,4.1334,compass,0,2,2,33,1,SoundStimuli/TheBoyIsMine_BrandyMonica_Original5S.wav,,,,,,,,,,,,,,,,,,,,,,,,,,,,,,,,,,,,,,,,,,,,,,,,,,,,
,,,,,267298,001,2024-07-12_16h11.08.791,experiment,2024.1.5,Win32,59.88023952,65cbc0a5402b90fc2fddd78c,6691931c2c63981b064e1f0c,6691b7bb9726698f64f53358,,,,,,,,,,,,,,,,,,,,,,,,,,,,,,,,,,,,,,,,,,,,,,,,,,,,,,,,,,,,327.31,334.77,0.341666667,0.212037037,1,0,0,1.4501,compass,0,3,3,22,1,SoundStimuli/Happy_PharellWilliams_Original5S.wav,,,,,,,,,,,,,,,,,,,,,,,,,,,,,,,,,,,,,,,,,,,,,,,,,,,,
,,,,,267298,001,2024-07-12_16h11.08.791,experiment,2024.1.5,Win32,59.88023952,65cbc0a5402b90fc2fddd78c,6691931c2c63981b064e1f0c,6691b7bb9726698f64f53358,,,,,,,,,,,,,,,,,,,,,,,,,,,,,,,,,,,,,,,,,,,,,,,,,,,,,,,,,,,,334.7761,343.5034,0.237037037,0.059259259,1,0,0,2.717,compass,0,4,4,25,1,SoundStimuli/IllMakeLoveToYou_BoyzIIMen_Cover5S.wav,,,,,,,,,,,,,,,,,,,,,,,,,,,,,,,,,,,,,,,,,,,,,,,,,,,,
,,,,,267298,001,2024-07-12_16h11.08.791,experiment,2024.1.5,Win32,59.88023952,65cbc0a5402b90fc2fddd78c,6691931c2c63981b064e1f0c,6691b7bb9726698f64f53358,,,,,,,,,,,,,,,,,,,,,,,,,,,,,,,,,,,,,,,,,,,,,,,,,,,,,,,,,,,,343.5098,351.6696,0.301851852,-0.021296296,1,0,0,2.1494,compass,0,5,5,13,1,SoundStimuli/Perfect_EdSheeran_Cover5S.wav,,,,,,,,,,,,,,,,,,,,,,,,,,,,,,,,,,,,,,,,,,,,,,,,,,,,
,,,,,267298,001,2024-07-12_16h11.08.791,experiment,2024.1.5,Win32,59.88023952,65cbc0a5402b90fc2fddd78c,6691931c2c63981b064e1f0c,6691b7bb9726698f64f53358,,,,,,,,,,,,,,,,,,,,,,,,,,,,,,,,,,,,,,,,,,,,,,,,,,,,,,,,,,,,351.6759,361.586,0.007407407,0.194444444,1,0,0,3.8999,compass,0,6,6,31,1,SoundStimuli/TossinAndTurnin_BobbyLewis_Original5S.wav,,,,,,,,,,,,,,,,,,,,,,,,,,,,,,,,,,,,,,,,,,,,,,,,,,,,
,,,,,267298,001,2024-07-12_16h11.08.791,experiment,2024.1.5,Win32,59.88023952,65cbc0a5402b90fc2fddd78c,6691931c2c63981b064e1f0c,6691b7bb9726698f64f53358,,,,,,,,,,,,,,,,,,,,,,,,,,,,,,,,,,,,,,,,,,,,,,,,,,,,,,,,,,,,361.5939,374.019,-0.035185185,0.225,1,0,0,6.4166,compass,0,7,7,11,1,SoundStimuli/BlurredLines_RobinThicke_Cover5S.wav,,,,,,,,,,,,,,,,,,,,,,,,,,,,,,,,,,,,,,,,,,,,,,,,,,,,
,,,,,267298,001,2024-07-12_16h11.08.791,experiment,2024.1.5,Win32,59.88023952,65cbc0a5402b90fc2fddd78c,6691931c2c63981b064e1f0c,6691b7bb9726698f64f53358,,,,,,,,,,,,,,,,,,,,,,,,,,,,,,,,,,,,,,,,,,,,,,,,,,,,,,,,,,,,374.0255,385.503,0.061111111,0.169444444,1,0,0,5.4671,compass,0,8,8,7,1,SoundStimuli/MackTheKnife_BobbyDarin_Cover5S.wav,,,,,,,,,,,,,,,,,,,,,,,,,,,,,,,,,,,,,,,,,,,,,,,,,,,,
,,,,,267298,001,2024-07-12_16h11.08.791,experiment,2024.1.5,Win32,59.88023952,65cbc0a5402b90fc2fddd78c,6691931c2c63981b064e1f0c,6691b7bb9726698f64f53358,,,,,,,,,,,,,,,,,,,,,,,,,,,,,,,,,,,,,,,,,,,,,,,,,,,,,,,,,,,,385.5138,397.4517,-0.085185185,0.174074074,1,0,0,5.9332,compass,0,9,9,5,1,SoundStimuli/JoyToTheWorld_ThreeDogNight_Original5S.wav,,,,,,,,,,,,,,,,,,,,,,,,,,,,,,,,,,,,,,,,,,,,,,,,,,,,
,,,,,267298,001,2024-07-12_16h11.08.791,experiment,2024.1.5,Win32,59.88023952,65cbc0a5402b90fc2fddd78c,6691931c2c63981b064e1f0c,6691b7bb9726698f64f53358,,,,,,,,,,,,,,,,,,,,,,,,,,,,,,,,,,,,,,,,,,,,,,,,,,,,,,,,,,,,397.4581,409.4847,0.012962963,0.115740741,1,0,0,6.0165,compass,0,10,10,20,1,SoundStimuli/FlashdanceWhatAFeeling_IreneCara_Original5S.wav,,,,,,,,,,,,,,,,,,,,,,,,,,,,,,,,,,,,,,,,,,,,,,,,,,,,
,,,,,267298,001,2024-07-12_16h11.08.791,experiment,2024.1.5,Win32,59.88023952,65cbc0a5402b90fc2fddd78c,6691931c2c63981b064e1f0c,6691b7bb9726698f64f53358,,,,,,,,,,,,,,,,,,,,,,,,,,,,,,,,,,,,,,,,,,,,,,,,,,,,,,,,,,,,409.4914,419.7012,-0.019444444,-0.123148148,1,0,0,4.2,compass,0,11,11,9,1,SoundStimuli/HowDoILive_LeAnnRimes_Cover5S.wav,,,,,,,,,,,,,,,,,,,,,,,,,,,,,,,,,,,,,,,,,,,,,,,,,,,,
,,,,,267298,001,2024-07-12_16h11.08.791,experiment,2024.1.5,Win32,59.88023952,65cbc0a5402b90fc2fddd78c,6691931c2c63981b064e1f0c,6691b7bb9726698f64f53358,,,,,,,,,,,,,,,,,,,,,,,,,,,,,,,,,,,,,,,,,,,,,,,,,,,,,,,,,,,,419.7078,428.7514,0.012962963,0.121296296,1,0,0,3.0337,compass,0,12,12,15,1,SoundStimuli/CrazyInLove_BeyonceFtJayZ_Cover5S.wav,,,,,,,,,,,,,,,,,,,,,,,,,,,,,,,,,,,,,,,,,,,,,,,,,,,,
,,,,,267298,001,2024-07-12_16h11.08.791,experiment,2024.1.5,Win32,59.88023952,65cbc0a5402b90fc2fddd78c,6691931c2c63981b064e1f0c,6691b7bb9726698f64f53358,,,,,,,,,,,,,,,,,,,,,,,,,,,,,,,,,,,,,,,,,,,,,,,,,,,,,,,,,,,,428.7578,438.6508,-0.087962963,0.111111111,1,0,0,3.8833,compass,0,13,13,24,1,SoundStimuli/Kiss_Prince_Cover5S.wav,,,,,,,,,,,,,,,,,,,,,,,,,,,,,,,,,,,,,,,,,,,,,,,,,,,,
,,,,,267298,001,2024-07-12_16h11.08.791,experiment,2024.1.5,Win32,59.88023952,65cbc0a5402b90fc2fddd78c,6691931c2c63981b064e1f0c,6691b7bb9726698f64f53358,,,,,,,,,,,,,,,,,,,,,,,,,,,,,,,,,,,,,,,,,,,,,,,,,,,,,,,,,,,,438.6576,445.5671,0.3,0.208333333,1,0,0,0.8999,compass,0,14,14,28,1,SoundStimuli/IWantToHoldYourHand_TheBeatles_Original5S.wav,,,,,,,,,,,,,,,,,,,,,,,,,,,,,,,,,,,,,,,,,,,,,,,,,,,,
,,,,,267298,001,2024-07-12_16h11.08.791,experiment,2024.1.5,Win32,59.88023952,65cbc0a5402b90fc2fddd78c,6691931c2c63981b064e1f0c,6691b7bb9726698f64f53358,,,,,,,,,,,,,,,,,,,,,,,,,,,,,,,,,,,,,,,,,,,,,,,,,,,,,,,,,,,,445.5734,452.8003,0.130555556,0.202777778,1,0,0,1.2164,compass,0,15,15,14,1,SoundStimuli/LikeARollingStone_BobDylan_Original5S.wav,,,,,,,,,,,,,,,,,,,,,,,,,,,,,,,,,,,,,,,,,,,,,,,,,,,,
,,,,,267298,001,2024-07-12_16h11.08.791,experiment,2024.1.5,Win32,59.88023952,65cbc0a5402b90fc2fddd78c,6691931c2c63981b064e1f0c,6691b7bb9726698f64f53358,,,,,,,,,,,,,,,,,,,,,,,,,,,,,,,,,,,,,,,,,,,,,,,,,,,,,,,,,,,,452.8067,462.6833,0.021296296,0.037037037,1,0,0,3.8665,compass,0,16,16,10,1,SoundStimuli/LeFreak_Chic_Cover5S.wav,,,,,,,,,,,,,,,,,,,,,,,,,,,,,,,,,,,,,,,,,,,,,,,,,,,,
,,,,,267298,001,2024-07-12_16h11.08.791,experiment,2024.1.5,Win32,59.88023952,65cbc0a5402b90fc2fddd78c,6691931c2c63981b064e1f0c,6691b7bb9726698f64f53358,,,,,,,,,,,,,,,,,,,,,,,,,,,,,,,,,,,,,,,,,,,,,,,,,,,,,,,,,,,,462.6916,470.3999,-0.066666667,0.208333333,1,0,0,1.7,compass,0,17,17,0,1,SoundStimuli/GimmeShelter_RollingStones_Original5S.wav,,,,,,,,,,,,,,,,,,,,,,,,,,,,,,,,,,,,,,,,,,,,,,,,,,,,
,,,,,267298,001,2024-07-12_16h11.08.791,experiment,2024.1.5,Win32,59.88023952,65cbc0a5402b90fc2fddd78c,6691931c2c63981b064e1f0c,6691b7bb9726698f64f53358,,,,,,,,,,,,,,,,,,,,,,,,,,,,,,,,,,,,,,,,,,,,,,,,,,,,,,,,,,,,470.4059,480.1664,0.014814815,-0.155555556,1,0,0,3.7499,compass,0,18,18,19,1,SoundStimuli/YouLightUpMyLife_DebbyBoone_Original5S.wav,,,,,,,,,,,,,,,,,,,,,,,,,,,,,,,,,,,,,,,,,,,,,,,,,,,,
,,,,,267298,001,2024-07-12_16h11.08.791,experiment,2024.1.5,Win32,59.88023952,65cbc0a5402b90fc2fddd78c,6691931c2c63981b064e1f0c,6691b7bb9726698f64f53358,,,,,,,,,,,,,,,,,,,,,,,,,,,,,,,,,,,,,,,,,,,,,,,,,,,,,,,,,,,,480.1728,490.116,-0.116666667,-0.19537037,1,0,0,3.9333,compass,0,19,19,16,1,SoundStimuli/ItsAllInTheGame_TommyEdwards_Cover5S.wav,,,,,,,,,,,,,,,,,,,,,,,,,,,,,,,,,,,,,,,,,,,,,,,,,,,,
,,,,,267298,001,2024-07-12_16h11.08.791,experiment,2024.1.5,Win32,59.88023952,65cbc0a5402b90fc2fddd78c,6691931c2c63981b064e1f0c,6691b7bb9726698f64f53358,,,,,,,,,,,,,,,,,,,,,,,,,,,,,,,,,,,,,,,,,,,,,,,,,,,,,,,,,,,,490.1225,500.85,0.063888889,0.285185185,1,0,0,4.7171,compass,0,20,20,26,1,SoundStimuli/TheSign_AceOfBase_Cover5S.wav,,,,,,,,,,,,,,,,,,,,,,,,,,,,,,,,,,,,,,,,,,,,,,,,,,,,
,,,,,267298,001,2024-07-12_16h11.08.791,experiment,2024.1.5,Win32,59.88023952,65cbc0a5402b90fc2fddd78c,6691931c2c63981b064e1f0c,6691b7bb9726698f64f53358,,,,,,,,,,,,,,,,,,,,,,,,,,,,,,,,,,,,,,,,,,,,,,,,,,,,,,,,,,,,500.8608,511.299,-0.183333333,-0.068518519,1,0,0,4.4332,compass,0,21,21,29,1,SoundStimuli/BetteDavisEyes_KimCarnes_Original5S.wav,,,,,,,,,,,,,,,,,,,,,,,,,,,,,,,,,,,,,,,,,,,,,,,,,,,,
,,,,,267298,001,2024-07-12_16h11.08.791,experiment,2024.1.5,Win32,59.88023952,65cbc0a5402b90fc2fddd78c,6691931c2c63981b064e1f0c,6691b7bb9726698f64f53358,,,,,,,,,,,,,,,,,,,,,,,,,,,,,,,,,,,,,,,,,,,,,,,,,,,,,,,,,,,,511.3053,520.87,-0.296296296,0.072222222,1,0,0,3.5545,compass,0,22,22,12,1,SoundStimuli/UnbreakMyHeart_ToniBraxton_Original5S.wav,,,,,,,,,,,,,,,,,,,,,,,,,,,,,,,,,,,,,,,,,,,,,,,,,,,,
,,,,,267298,001,2024-07-12_16h11.08.791,experiment,2024.1.5,Win32,59.88023952,65cbc0a5402b90fc2fddd78c,6691931c2c63981b064e1f0c,6691b7bb9726698f64f53358,,,,,,,,,,,,,,,,,,,,,,,,,,,,,,,,,,,,,,,,,,,,,,,,,,,,,,,,,,,,520.8933,532.065,0.091666667,0.3,1,0,0,5.1658,compass,0,23,23,1,1,SoundStimuli/Smooth_SantanaRobThomas_Original5S.wav,,,,,,,,,,,,,,,,,,,,,,,,,,,,,,,,,,,,,,,,,,,,,,,,,,,,
,,,,,267298,001,2024-07-12_16h11.08.791,experiment,2024.1.5,Win32,59.88023952,65cbc0a5402b90fc2fddd78c,6691931c2c63981b064e1f0c,6691b7bb9726698f64f53358,,,,,,,,,,,,,,,,,,,,,,,,,,,,,,,,,,,,,,,,,,,,,,,,,,,,,,,,,,,,532.0715,542.5988,-0.125,-0.230555556,1,0,0,4.517,compass,0,24,24,21,1,SoundStimuli/BridgeOverTroubledWater_SimonAndGarfunkel_Original5S.wav,,,,,,,,,,,,,,,,,,,,,,,,,,,,,,,,,,,,,,,,,,,,,,,,,,,,
,,,,,267298,001,2024-07-12_16h11.08.791,experiment,2024.1.5,Win32,59.88023952,65cbc0a5402b90fc2fddd78c,6691931c2c63981b064e1f0c,6691b7bb9726698f64f53358,,,,,,,,,,,,,,,,,,,,,,,,,,,,,,,,,,,,,,,,,,,,,,,,,,,,,,,,,,,,542.6208,550.4646,0.041666667,-0.227777778,1,0,0,1.8333,compass,0,25,25,4,1,SoundStimuli/Dreams_FleetwoodMac_Original5S.wav,,,,,,,,,,,,,,,,,,,,,,,,,,,,,,,,,,,,,,,,,,,,,,,,,,,,
,,,,,267298,001,2024-07-12_16h11.08.791,experiment,2024.1.5,Win32,59.88023952,65cbc0a5402b90fc2fddd78c,6691931c2c63981b064e1f0c,6691b7bb9726698f64f53358,,,,,,,,,,,,,,,,,,,,,,,,,,,,,,,,,,,,,,,,,,,,,,,,,,,,,,,,,,,,550.4706,558.4811,0.200925926,0.316666667,1,0,0,1.9998,compass,0,26,26,17,1,SoundStimuli/IWannaDanceWithSomebody_WhitneyHouston_Original5S.wav,,,,,,,,,,,,,,,,,,,,,,,,,,,,,,,,,,,,,,,,,,,,,,,,,,,,
,,,,,267298,001,2024-07-12_16h11.08.791,experiment,2024.1.5,Win32,59.88023952,65cbc0a5402b90fc2fddd78c,6691931c2c63981b064e1f0c,6691b7bb9726698f64f53358,,,,,,,,,,,,,,,,,,,,,,,,,,,,,,,,,,,,,,,,,,,,,,,,,,,,,,,,,,,,558.4874,567.5512,0.039814815,-0.165740741,1,0,0,3.0535,compass,0,27,27,6,1,SoundStimuli/SaveYourTears_TheWeekndArianaGrande_Cover5S.wav,,,,,,,,,,,,,,,,,,,,,,,,,,,,,,,,,,,,,,,,,,,,,,,,,,,,
,,,,,267298,001,2024-07-12_16h11.08.791,experiment,2024.1.5,Win32,59.88023952,65cbc0a5402b90fc2fddd78c,6691931c2c63981b064e1f0c,6691b7bb9726698f64f53358,,,,,,,,,,,,,,,,,,,,,,,,,,,,,,,,,,,,,,,,,,,,,,,,,,,,,,,,,,,,567.5719,576.1974,0.224074074,-0.205555556,1,0,0,2.6168,compass,0,28,28,23,1,SoundStimuli/IWalkTheLine_JohnnyCash_Original5S.wav,,,,,,,,,,,,,,,,,,,,,,,,,,,,,,,,,,,,,,,,,,,,,,,,,,,,
,,,,,267298,001,2024-07-12_16h11.08.791,experiment,2024.1.5,Win32,59.88023952,65cbc0a5402b90fc2fddd78c,6691931c2c63981b064e1f0c,6691b7bb9726698f64f53358,,,,,,,,,,,,,,,,,,,,,,,,,,,,,,,,,,,,,,,,,,,,,,,,,,,,,,,,,,,,576.2038,594.5145,-0.064814815,-0.048148148,1,0,0,12.3002,compass,0,29,29,34,1,SoundStimuli/Irreplaceable_Beyonce_Cover5S.wav,,,,,,,,,,,,,,,,,,,,,,,,,,,,,,,,,,,,,,,,,,,,,,,,,,,,
,,,,,267298,001,2024-07-12_16h11.08.791,experiment,2024.1.5,Win32,59.88023952,65cbc0a5402b90fc2fddd78c,6691931c2c63981b064e1f0c,6691b7bb9726698f64f53358,,,,,,,,,,,,,,,,,,,,,,,,,,,,,,,,,,,,,,,,,,,,,,,,,,,,,,,,,,,,594.5381,602.3473,-0.180555556,0.101851852,1,0,0,1.8005,compass,0,30,30,2,1,SoundStimuli/SmellsLikeTeenSpirit_Nirvana_Original5S.wav,,,,,,,,,,,,,,,,,,,,,,,,,,,,,,,,,,,,,,,,,,,,,,,,,,,,
,,,,,267298,001,2024-07-12_16h11.08.791,experiment,2024.1.5,Win32,59.88023952,65cbc0a5402b90fc2fddd78c,6691931c2c63981b064e1f0c,6691b7bb9726698f64f53358,,,,,,,,,,,,,,,,,,,,,,,,,,,,,,,,,,,,,,,,,,,,,,,,,,,,,,,,,,,,602.3694,612.9963,-0.000925926,0.150925926,1,0,0,4.6166,compass,0,31,31,32,1,SoundStimuli/Dilemma_NellyKellyRowland_Cover5S.wav,,,,,,,,,,,,,,,,,,,,,,,,,,,,,,,,,,,,,,,,,,,,,,,,,,,,
,,,,,267298,001,2024-07-12_16h11.08.791,experiment,2024.1.5,Win32,59.88023952,65cbc0a5402b90fc2fddd78c,6691931c2c63981b064e1f0c,6691b7bb9726698f64f53358,,,,,,,,,,,,,,,,,,,,,,,,,,,,,,,,,,,,,,,,,,,,,,,,,,,,,,,,,,,,613.0028,622.3297,0.094444444,-0.125,1,0,0,3.3168,compass,0,32,32,8,1,SoundStimuli/EndlessLove_DianaRossLionelRichie_Cover5S.wav,,,,,,,,,,,,,,,,,,,,,,,,,,,,,,,,,,,,,,,,,,,,,,,,,,,,
,,,,,267298,001,2024-07-12_16h11.08.791,experiment,2024.1.5,Win32,59.88023952,65cbc0a5402b90fc2fddd78c,6691931c2c63981b064e1f0c,6691b7bb9726698f64f53358,,,,,,,,,,,,,,,,,,,,,,,,,,,,,,,,,,,,,,,,,,,,,,,,,,,,,,,,,,,,622.3361,629.3294,0.259259259,-0.059259259,1,0,0,0.9833,compass,0,33,33,18,1,SoundStimuli/Weak_SWV_Cover5S.wav,,,,,,,,,,,,,,,,,,,,,,,,,,,,,,,,,,,,,,,,,,,,,,,,,,,,
,,,,,267298,001,2024-07-12_16h11.08.791,experiment,2024.1.5,Win32,59.88023952,65cbc0a5402b90fc2fddd78c,6691931c2c63981b064e1f0c,6691b7bb9726698f64f53358,,,,,,,,,,,,,,,,,,,,,,,,,,,,,,,,,,,,,,,,,,,,,,,,,,,,,,,,,,,,629.3357,637.0301,0.325925926,0.357407407,1,0,0,1.1665,compass,0,34,34,3,1,SoundStimuli/PartyRockAnthem_LMFAO_Original5S.wav,,,,,,,,,,,,,,,,,,,,,,,,,,,,,,,,,,,,,,,,,,,,,,,,,,,,
,,,,,267298,001,2024-07-12_16h11.08.791,experiment,2024.1.5,Win32,59.88023952,65cbc0a5402b90fc2fddd78c,6691931c2c63981b064e1f0c,6691b7bb9726698f64f53358,,,,,,,,,,,,,,,,,,,,,,,,,,,,,,,,,,,,,,,,,,,,,,,,,,,,,,,,,,,,,,,,,,,,,,,,,,,637.0366,681.5371,space,44.493,,681.5371,717.7441,right,36.1934,,0,0,0,0,1,block_order/blockD.xlsx,,,,,,,,,,,,,,,,,,,,,,,,,,,,,,,,,,,,
,,,,,267298,001,2024-07-12_16h11.08.791,experiment,2024.1.5,Win32,59.88023952,65cbc0a5402b90fc2fddd78c,6691931c2c63981b064e1f0c,6691b7bb9726698f64f53358,,,,,,,,,,,,,,,,,,,,,,,,,,,,,,,,,,,,,,,,,,,,,,,,,,,,,,,,,,,,717.7567,724.2796,0.181481481,0.025925926,1,0,0,0.5193,compass,0,0,0,27,1,SoundStimuli/ShapeofYou_EdSheeran_Original5S.wav,,,,,,,,,,,,,,,,,,,,,,,,,,,,,,,,,,,,,,,,,,,,,,,,,,,,
,,,,,267298,001,2024-07-12_16h11.08.791,experiment,2024.1.5,Win32,59.88023952,65cbc0a5402b90fc2fddd78c,6691931c2c63981b064e1f0c,6691b7bb9726698f64f53358,,,,,,,,,,,,,,,,,,,,,,,,,,,,,,,,,,,,,,,,,,,,,,,,,,,,,,,,,,,,724.2856,730.8274,-0.242592593,-0.052777778,1,0,0,0.5339,compass,0,1,1,13,1,SoundStimuli/GodOnlyKnows_TheBeachBoys_Cover5S.wav,,,,,,,,,,,,,,,,,,,,,,,,,,,,,,,,,,,,,,,,,,,,,,,,,,,,
,,,,,267298,001,2024-07-12_16h11.08.791,experiment,2024.1.5,Win32,59.88023952,65cbc0a5402b90fc2fddd78c,6691931c2c63981b064e1f0c,6691b7bb9726698f64f53358,,,,,,,,,,,,,,,,,,,,,,,,,,,,,,,,,,,,,,,,,,,,,,,,,,,,,,,,,,,,730.8473,739.5432,0.059259259,0.236111111,1,0,0,2.6834,compass,0,2,2,7,1,SoundStimuli/NoOne_AliciaKeys_Cover5S.wav,,,,,,,,,,,,,,,,,,,,,,,,,,,,,,,,,,,,,,,,,,,,,,,,,,,,
,,,,,267298,001,2024-07-12_16h11.08.791,experiment,2024.1.5,Win32,59.88023952,65cbc0a5402b90fc2fddd78c,6691931c2c63981b064e1f0c,6691b7bb9726698f64f53358,,,,,,,,,,,,,,,,,,,,,,,,,,,,,,,,,,,,,,,,,,,,,,,,,,,,,,,,,,,,739.5496,748.5604,0.155555556,0.158333333,1,0,0,2.9956,compass,0,3,3,29,1,SoundStimuli/OldTownRoad_LilNasX_Original5S.wav,,,,,,,,,,,,,,,,,,,,,,,,,,,,,,,,,,,,,,,,,,,,,,,,,,,,
,,,,,267298,001,2024-07-12_16h11.08.791,experiment,2024.1.5,Win32,59.88023952,65cbc0a5402b90fc2fddd78c,6691931c2c63981b064e1f0c,6691b7bb9726698f64f53358,,,,,,,,,,,,,,,,,,,,,,,,,,,,,,,,,,,,,,,,,,,,,,,,,,,,,,,,,,,,748.5815,756.8928,0.107407407,-0.194444444,1,0,0,2.2954,compass,0,4,4,23,1,SoundStimuli/StrawberryFieldsForever_TheBeatles_Original5S.wav,,,,,,,,,,,,,,,,,,,,,,,,,,,,,,,,,,,,,,,,,,,,,,,,,,,,
,,,,,267298,001,2024-07-12_16h11.08.791,experiment,2024.1.5,Win32,59.88023952,65cbc0a5402b90fc2fddd78c,6691931c2c63981b064e1f0c,6691b7bb9726698f64f53358,,,,,,,,,,,,,,,,,,,,,,,,,,,,,,,,,,,,,,,,,,,,,,,,,,,,,,,,,,,,756.8992,767.9423,0.242592593,0.032407407,1,0,0,5.0277,compass,0,5,5,18,1,SoundStimuli/AnotherOneBitesTheDust_Queen_Original5S.wav,,,,,,,,,,,,,,,,,,,,,,,,,,,,,,,,,,,,,,,,,,,,,,,,,,,,
,,,,,267298,001,2024-07-12_16h11.08.791,experiment,2024.1.5,Win32,59.88023952,65cbc0a5402b90fc2fddd78c,6691931c2c63981b064e1f0c,6691b7bb9726698f64f53358,,,,,,,,,,,,,,,,,,,,,,,,,,,,,,,,,,,,,,,,,,,,,,,,,,,,,,,,,,,,767.9488,777.4922,0.22037037,0.112037037,1,0,0,3.5333,compass,0,6,6,8,1,SoundStimuli/LikeAPrayer_Madonna_Original5S.wav,,,,,,,,,,,,,,,,,,,,,,,,,,,,,,,,,,,,,,,,,,,,,,,,,,,,
,,,,,267298,001,2024-07-12_16h11.08.791,experiment,2024.1.5,Win32,59.88023952,65cbc0a5402b90fc2fddd78c,6691931c2c63981b064e1f0c,6691b7bb9726698f64f53358,,,,,,,,,,,,,,,,,,,,,,,,,,,,,,,,,,,,,,,,,,,,,,,,,,,,,,,,,,,,777.4986,785.2484,0.026851852,0.17037037,1,0,0,1.7343,compass,0,7,7,9,1,SoundStimuli/Despacito_LuisFonsiDaddyYankee_Cover5S.wav,,,,,,,,,,,,,,,,,,,,,,,,,,,,,,,,,,,,,,,,,,,,,,,,,,,,
,,,,,267298,001,2024-07-12_16h11.08.791,experiment,2024.1.5,Win32,59.88023952,65cbc0a5402b90fc2fddd78c,6691931c2c63981b064e1f0c,6691b7bb9726698f64f53358,,,,,,,,,,,,,,,,,,,,,,,,,,,,,,,,,,,,,,,,,,,,,,,,,,,,,,,,,,,,785.2582,796.4758,0.003703704,-0.152777778,1,0,0,5.212,compass,0,8,8,20,1,SoundStimuli/HeyYa_Outkast_Cover5S.wav,,,,,,,,,,,,,,,,,,,,,,,,,,,,,,,,,,,,,,,,,,,,,,,,,,,,
,,,,,267298,001,2024-07-12_16h11.08.791,experiment,2024.1.5,Win32,59.88023952,65cbc0a5402b90fc2fddd78c,6691931c2c63981b064e1f0c,6691b7bb9726698f64f53358,,,,,,,,,,,,,,,,,,,,,,,,,,,,,,,,,,,,,,,,,,,,,,,,,,,,,,,,,,,,796.5024,806.8915,0.223148148,-0.021296296,1,0,0,4.3833,compass,0,9,9,15,1,SoundStimuli/TikTok_Kesha_Cover5S.wav,,,,,,,,,,,,,,,,,,,,,,,,,,,,,,,,,,,,,,,,,,,,,,,,,,,,
,,,,,267298,001,2024-07-12_16h11.08.791,experiment,2024.1.5,Win32,59.88023952,65cbc0a5402b90fc2fddd78c,6691931c2c63981b064e1f0c,6691b7bb9726698f64f53358,,,,,,,,,,,,,,,,,,,,,,,,,,,,,,,,,,,,,,,,,,,,,,,,,,,,,,,,,,,,806.898,815.9414,-0.314814815,-0.021296296,1,0,0,3.0281,compass,0,10,10,3,1,SoundStimuli/NoScrubs_TLC_Original5S.wav,,,,,,,,,,,,,,,,,,,,,,,,,,,,,,,,,,,,,,,,,,,,,,,,,,,,
,,,,,267298,001,2024-07-12_16h11.08.791,experiment,2024.1.5,Win32,59.88023952,65cbc0a5402b90fc2fddd78c,6691931c2c63981b064e1f0c,6691b7bb9726698f64f53358,,,,,,,,,,,,,,,,,,,,,,,,,,,,,,,,,,,,,,,,,,,,,,,,,,,,,,,,,,,,815.948,822.5604,-0.131481481,-0.027777778,1,0,0,0.6027,compass,0,11,11,2,1,SoundStimuli/Mood_24kGoldnianndior_Cover5S.wav,,,,,,,,,,,,,,,,,,,,,,,,,,,,,,,,,,,,,,,,,,,,,,,,,,,,
,,,,,267298,001,2024-07-12_16h11.08.791,experiment,2024.1.5,Win32,59.88023952,65cbc0a5402b90fc2fddd78c,6691931c2c63981b064e1f0c,6691b7bb9726698f64f53358,,,,,,,,,,,,,,,,,,,,,,,,,,,,,,,,,,,,,,,,,,,,,,,,,,,,,,,,,,,,822.5665,830.2243,0.025,0.237962963,1,0,0,1.65,compass,0,12,12,25,1,SoundStimuli/Respect_ArethaFranklin_Original5S.wav,,,,,,,,,,,,,,,,,,,,,,,,,,,,,,,,,,,,,,,,,,,,,,,,,,,,
,,,,,267298,001,2024-07-12_16h11.08.791,experiment,2024.1.5,Win32,59.88023952,65cbc0a5402b90fc2fddd78c,6691931c2c63981b064e1f0c,6691b7bb9726698f64f53358,,,,,,,,,,,,,,,,,,,,,,,,,,,,,,,,,,,,,,,,,,,,,,,,,,,,,,,,,,,,830.2307,847.9738,0.175,0.022222222,1,0,0,11.728,compass,0,13,13,33,1,SoundStimuli/StandByMe_BenEKing_Cover5S.wav,,,,,,,,,,,,,,,,,,,,,,,,,,,,,,,,,,,,,,,,,,,,,,,,,,,,
,,,,,267298,001,2024-07-12_16h11.08.791,experiment,2024.1.5,Win32,59.88023952,65cbc0a5402b90fc2fddd78c,6691931c2c63981b064e1f0c,6691b7bb9726698f64f53358,,,,,,,,,,,,,,,,,,,,,,,,,,,,,,,,,,,,,,,,,,,,,,,,,,,,,,,,,,,,847.9801,856.257,0.289814815,0.114814815,1,0,0,2.261,compass,0,14,14,5,1,SoundStimuli/MyGirl_TheTemptations_Original5S.wav,,,,,,,,,,,,,,,,,,,,,,,,,,,,,,,,,,,,,,,,,,,,,,,,,,,,
,,,,,267298,001,2024-07-12_16h11.08.791,experiment,2024.1.5,Win32,59.88023952,65cbc0a5402b90fc2fddd78c,6691931c2c63981b064e1f0c,6691b7bb9726698f64f53358,,,,,,,,,,,,,,,,,,,,,,,,,,,,,,,,,,,,,,,,,,,,,,,,,,,,,,,,,,,,856.2635,864.212,0.006481481,0.202777778,1,0,0,1.9386,compass,0,15,15,21,1,SoundStimuli/GoodGollyMissMolly_LittleRichard_Cover5S.wav,,,,,,,,,,,,,,,,,,,,,,,,,,,,,,,,,,,,,,,,,,,,,,,,,,,,
,,,,,267298,001,2024-07-12_16h11.08.791,experiment,2024.1.5,Win32,59.88023952,65cbc0a5402b90fc2fddd78c,6691931c2c63981b064e1f0c,6691b7bb9726698f64f53358,,,,,,,,,,,,,,,,,,,,,,,,,,,,,,,,,,,,,,,,,,,,,,,,,,,,,,,,,,,,864.2186,870.5738,-0.107407407,0.216666667,1,0,0,0.3505,compass,0,16,16,16,1,SoundStimuli/BohemianRhapsody_Queen_Original5S.wav,,,,,,,,,,,,,,,,,,,,,,,,,,,,,,,,,,,,,,,,,,,,,,,,,,,,
,,,,,267298,001,2024-07-12_16h11.08.791,experiment,2024.1.5,Win32,59.88023952,65cbc0a5402b90fc2fddd78c,6691931c2c63981b064e1f0c,6691b7bb9726698f64f53358,,,,,,,,,,,,,,,,,,,,,,,,,,,,,,,,,,,,,,,,,,,,,,,,,,,,,,,,,,,,870.5838,879.0231,0.160185185,-0.019444444,1,0,0,2.429,compass,0,17,17,26,1,SoundStimuli/LivinOnAPrayer_BonJovi_Cover5S.wav,,,,,,,,,,,,,,,,,,,,,,,,,,,,,,,,,,,,,,,,,,,,,,,,,,,,
,,,,,267298,001,2024-07-12_16h11.08.791,experiment,2024.1.5,Win32,59.88023952,65cbc0a5402b90fc2fddd78c,6691931c2c63981b064e1f0c,6691b7bb9726698f64f53358,,,,,,,,,,,,,,,,,,,,,,,,,,,,,,,,,,,,,,,,,,,,,,,,,,,,,,,,,,,,879.0294,885.9228,-0.273148148,-0.038888889,1,0,0,0.8831,compass,0,18,18,11,1,SoundStimuli/Superstition_StevieWonder_Cover5S.wav,,,,,,,,,,,,,,,,,,,,,,,,,,,,,,,,,,,,,,,,,,,,,,,,,,,,
,,,,,267298,001,2024-07-12_16h11.08.791,experiment,2024.1.5,Win32,59.88023952,65cbc0a5402b90fc2fddd78c,6691931c2c63981b064e1f0c,6691b7bb9726698f64f53358,,,,,,,,,,,,,,,,,,,,,,,,,,,,,,,,,,,,,,,,,,,,,,,,,,,,,,,,,,,,885.9288,894.2611,0.023148148,0.196296296,1,0,0,2.3166,compass,0,19,19,34,1,SoundStimuli/AChangeIsGonnaCome_SamCooke_Cover5S.wav,,,,,,,,,,,,,,,,,,,,,,,,,,,,,,,,,,,,,,,,,,,,,,,,,,,,
,,,,,267298,001,2024-07-12_16h11.08.791,experiment,2024.1.5,Win32,59.88023952,65cbc0a5402b90fc2fddd78c,6691931c2c63981b064e1f0c,6691b7bb9726698f64f53358,,,,,,,,,,,,,,,,,,,,,,,,,,,,,,,,,,,,,,,,,,,,,,,,,,,,,,,,,,,,894.2675,900.8225,0.22962963,-0.074074074,1,0,0,0.55,compass,0,20,20,17,1,SoundStimuli/Fallin_AliciaKeys_Original5S.wav,,,,,,,,,,,,,,,,,,,,,,,,,,,,,,,,,,,,,,,,,,,,,,,,,,,,
,,,,,267298,001,2024-07-12_16h11.08.791,experiment,2024.1.5,Win32,59.88023952,65cbc0a5402b90fc2fddd78c,6691931c2c63981b064e1f0c,6691b7bb9726698f64f53358,,,,,,,,,,,,,,,,,,,,,,,,,,,,,,,,,,,,,,,,,,,,,,,,,,,,,,,,,,,,900.8285,911.0442,0.175925926,0.090740741,1,0,0,4.2051,compass,0,21,21,1,1,SoundStimuli/Stronger_KanyeWest_Original5S.wav,,,,,,,,,,,,,,,,,,,,,,,,,,,,,,,,,,,,,,,,,,,,,,,,,,,,
,,,,,267298,001,2024-07-12_16h11.08.791,experiment,2024.1.5,Win32,59.88023952,65cbc0a5402b90fc2fddd78c,6691931c2c63981b064e1f0c,6691b7bb9726698f64f53358,,,,,,,,,,,,,,,,,,,,,,,,,,,,,,,,,,,,,,,,,,,,,,,,,,,,,,,,,,,,911.0505,917.9054,0.267592593,0.173148148,1,0,0,0.8499,compass,0,22,22,24,1,SoundStimuli/UptownFunk_MarkRonson_Original5S.wav,,,,,,,,,,,,,,,,,,,,,,,,,,,,,,,,,,,,,,,,,,,,,,,,,,,,
,,,,,267298,001,2024-07-12_16h11.08.791,experiment,2024.1.5,Win32,59.88023952,65cbc0a5402b90fc2fddd78c,6691931c2c63981b064e1f0c,6691b7bb9726698f64f53358,,,,,,,,,,,,,,,,,,,,,,,,,,,,,,,,,,,,,,,,,,,,,,,,,,,,,,,,,,,,917.9115,927.1891,0,-0.244444444,1,0,0,3.2619,compass,0,23,23,31,1,SoundStimuli/TheBattleOfNewOrleans_JohnnyHorton_Cover5S.wav,,,,,,,,,,,,,,,,,,,,,,,,,,,,,,,,,,,,,,,,,,,,,,,,,,,,
,,,,,267298,001,2024-07-12_16h11.08.791,experiment,2024.1.5,Win32,59.88023952,65cbc0a5402b90fc2fddd78c,6691931c2c63981b064e1f0c,6691b7bb9726698f64f53358,,,,,,,,,,,,,,,,,,,,,,,,,,,,,,,,,,,,,,,,,,,,,,,,,,,,,,,,,,,,927.2085,936.3384,0.323148148,0.051851852,1,0,0,3.1162,compass,0,24,24,12,1,SoundStimuli/IWillAlwaysLoveYou_WhitneyHouston_Cover5S.wav,,,,,,,,,,,,,,,,,,,,,,,,,,,,,,,,,,,,,,,,,,,,,,,,,,,,
,,,,,267298,001,2024-07-12_16h11.08.791,experiment,2024.1.5,Win32,59.88023952,65cbc0a5402b90fc2fddd78c,6691931c2c63981b064e1f0c,6691b7bb9726698f64f53358,,,,,,,,,,,,,,,,,,,,,,,,,,,,,,,,,,,,,,,,,,,,,,,,,,,,,,,,,,,,936.3448,946.2215,0.194444444,-0.238888889,1,0,0,3.8663,compass,0,25,25,19,1,SoundStimuli/LetsGetItOn_MarvinGaye_Cover5S.wav,,,,,,,,,,,,,,,,,,,,,,,,,,,,,,,,,,,,,,,,,,,,,,,,,,,,
,,,,,267298,001,2024-07-12_16h11.08.791,experiment,2024.1.5,Win32,59.88023952,65cbc0a5402b90fc2fddd78c,6691931c2c63981b064e1f0c,6691b7bb9726698f64f53358,,,,,,,,,,,,,,,,,,,,,,,,,,,,,,,,,,,,,,,,,,,,,,,,,,,,,,,,,,,,946.2332,956.2216,0.067592593,-0.069444444,1,0,0,3.9834,compass,0,26,26,32,1,SoundStimuli/HeatWaves_GlassAnimals_Original5S.wav,,,,,,,,,,,,,,,,,,,,,,,,,,,,,,,,,,,,,,,,,,,,,,,,,,,,
,,,,,267298,001,2024-07-12_16h11.08.791,experiment,2024.1.5,Win32,59.88023952,65cbc0a5402b90fc2fddd78c,6691931c2c63981b064e1f0c,6691b7bb9726698f64f53358,,,,,,,,,,,,,,,,,,,,,,,,,,,,,,,,,,,,,,,,,,,,,,,,,,,,,,,,,,,,956.2384,966.8876,-0.359259259,-0.273148148,1,0,0,3.6669,compass,0,27,27,10,1,SoundStimuli/BadDay_DanielPowter_Cover5S.wav,,,,,,,,,,,,,,,,,,,,,,,,,,,,,,,,,,,,,,,,,,,,,,,,,,,,
,,,,,267298,001,2024-07-12_16h11.08.791,experiment,2024.1.5,Win32,59.88023952,65cbc0a5402b90fc2fddd78c,6691931c2c63981b064e1f0c,6691b7bb9726698f64f53358,,,,,,,,,,,,,,,,,,,,,,,,,,,,,,,,,,,,,,,,,,,,,,,,,,,,,,,,,,,,966.8939,974.4041,0.326851852,0.289814815,1,0,0,1.5,compass,0,28,28,4,1,SoundStimuli/GetUrFreakOn_MissyElliot_Original5S.wav,,,,,,,,,,,,,,,,,,,,,,,,,,,,,,,,,,,,,,,,,,,,,,,,,,,,
,,,,,267298,001,2024-07-12_16h11.08.791,experiment,2024.1.5,Win32,59.88023952,65cbc0a5402b90fc2fddd78c,6691931c2c63981b064e1f0c,6691b7bb9726698f64f53358,,,,,,,,,,,,,,,,,,,,,,,,,,,,,,,,,,,,,,,,,,,,,,,,,,,,,,,,,,,,974.4103,982.2038,0.001851852,0.185185185,1,0,0,1.7832,compass,0,29,29,14,1,SoundStimuli/BlindingLights_TheWeeknd_Original5S.wav,,,,,,,,,,,,,,,,,,,,,,,,,,,,,,,,,,,,,,,,,,,,,,,,,,,,
,,,,,267298,001,2024-07-12_16h11.08.791,experiment,2024.1.5,Win32,59.88023952,65cbc0a5402b90fc2fddd78c,6691931c2c63981b064e1f0c,6691b7bb9726698f64f53358,,,,,,,,,,,,,,,,,,,,,,,,,,,,,,,,,,,,,,,,,,,,,,,,,,,,,,,,,,,,982.2104,991.1377,-0.035185185,0.230555556,1,0,0,2.9172,compass,0,30,30,30,1,SoundStimuli/PokerFace_LadyGaga_Original5S.wav,,,,,,,,,,,,,,,,,,,,,,,,,,,,,,,,,,,,,,,,,,,,,,,,,,,,
,,,,,267298,001,2024-07-12_16h11.08.791,experiment,2024.1.5,Win32,59.88023952,65cbc0a5402b90fc2fddd78c,6691931c2c63981b064e1f0c,6691b7bb9726698f64f53358,,,,,,,,,,,,,,,,,,,,,,,,,,,,,,,,,,,,,,,,,,,,,,,,,,,,,,,,,,,,991.16,997.4874,0.2,0.264814815,1,0,0,0.317,compass,0,31,31,28,1,SoundStimuli/ComeAndGetYourLove_Redbone_Original5S.wav,,,,,,,,,,,,,,,,,,,,,,,,,,,,,,,,,,,,,,,,,,,,,,,,,,,,
,,,,,267298,001,2024-07-12_16h11.08.791,experiment,2024.1.5,Win32,59.88023952,65cbc0a5402b90fc2fddd78c,6691931c2c63981b064e1f0c,6691b7bb9726698f64f53358,,,,,,,,,,,,,,,,,,,,,,,,,,,,,,,,,,,,,,,,,,,,,,,,,,,,,,,,,,,,997.5088,1004.4201,-0.193518519,0.262037037,1,0,0,0.8996,compass,0,32,32,6,1,SoundStimuli/Levitating_DuaLipa_Cover5S.wav,,,,,,,,,,,,,,,,,,,,,,,,,,,,,,,,,,,,,,,,,,,,,,,,,,,,
,,,,,267298,001,2024-07-12_16h11.08.791,experiment,2024.1.5,Win32,59.88023952,65cbc0a5402b90fc2fddd78c,6691931c2c63981b064e1f0c,6691b7bb9726698f64f53358,,,,,,,,,,,,,,,,,,,,,,,,,,,,,,,,,,,,,,,,,,,,,,,,,,,,,,,,,,,,1004.4261,1012.6866,-0.103703704,0.061111111,1,0,0,2.2501,compass,0,33,33,22,1,SoundStimuli/RockWithYou_MichaelJackson_Original5S.wav,,,,,,,,,,,,,,,,,,,,,,,,,,,,,,,,,,,,,,,,,,,,,,,,,,,,
,,,,,267298,001,2024-07-12_16h11.08.791,experiment,2024.1.5,Win32,59.88023952,65cbc0a5402b90fc2fddd78c,6691931c2c63981b064e1f0c,6691b7bb9726698f64f53358,,,,,,,,,,,,,,,,,,,,,,,,,,,,,,,,,,,,,,,,,,,,,,,,,,,,,,,,,,,,1012.6958,1020.0862,0.012037037,0.251851852,1,0,0,1.3831,compass,0,34,34,0,1,SoundStimuli/StayinAlive_BeeGees_Original5S.wav,,,,,,,,,,,,,,,,,,,,,,,,,,,,,,,,,,,,,,,,,,,,,,,,,,,,
,,,,,267298,001,2024-07-12_16h11.08.791,experiment,2024.1.5,Win32,59.88023952,65cbc0a5402b90fc2fddd78c,6691931c2c63981b064e1f0c,6691b7bb9726698f64f53358,,,,,,,,,,,,,,,,,,,,,,,,,,,,,,,,,,,,,,,,,,,,,,,,,,,,,,,,,,,,,,,,,,,,,,,,,,,1020.0926,1046.5856,space,26.4868,,1046.5857,1049.8356,right,3.2311,,0,1,1,1,1,block_order/blockA.xlsx,,,,,,,,,,,,,,,,,,,,,,,,,,,,,,,,,,,,
,,,,,267298,001,2024-07-12_16h11.08.791,experiment,2024.1.5,Win32,59.88023952,65cbc0a5402b90fc2fddd78c,6691931c2c63981b064e1f0c,6691b7bb9726698f64f53358,,,,,,,,,,,,,,,,,,,,,,,,,,,,,,,,,,,,,,,,,,,,,,,,,,,,,,,,,,,,1049.8439,1057.3355,0.168518519,-0.309259259,1,0,0,1.4823,compass,0,0,0,8,1,SoundStimuli/EndlessLove_DianaRossLionelRichie_Original5S.wav,,,,,,,,,,,,,,,,,,,,,,,,,,,,,,,,,,,,,,,,,,,,,,,,,,,,
,,,,,267298,001,2024-07-12_16h11.08.791,experiment,2024.1.5,Win32,59.88023952,65cbc0a5402b90fc2fddd78c,6691931c2c63981b064e1f0c,6691b7bb9726698f64f53358,,,,,,,,,,,,,,,,,,,,,,,,,,,,,,,,,,,,,,,,,,,,,,,,,,,,,,,,,,,,1057.3415,1064.8519,-0.017592593,0.231481481,1,0,0,1.5,compass,0,1,1,5,1,SoundStimuli/JoyToTheWorld_ThreeDogNight_Cover5S.wav,,,,,,,,,,,,,,,,,,,,,,,,,,,,,,,,,,,,,,,,,,,,,,,,,,,,
,,,,,267298,001,2024-07-12_16h11.08.791,experiment,2024.1.5,Win32,59.88023952,65cbc0a5402b90fc2fddd78c,6691931c2c63981b064e1f0c,6691b7bb9726698f64f53358,,,,,,,,,,,,,,,,,,,,,,,,,,,,,,,,,,,,,,,,,,,,,,,,,,,,,,,,,,,,1064.8588,1072.3017,0.271296296,0.014814815,1,0,0,1.4333,compass,0,2,2,26,1,SoundStimuli/TheSign_AceOfBase_Original5S.wav,,,,,,,,,,,,,,,,,,,,,,,,,,,,,,,,,,,,,,,,,,,,,,,,,,,,
,,,,,267298,001,2024-07-12_16h11.08.791,experiment,2024.1.5,Win32,59.88023952,65cbc0a5402b90fc2fddd78c,6691931c2c63981b064e1f0c,6691b7bb9726698f64f53358,,,,,,,,,,,,,,,,,,,,,,,,,,,,,,,,,,,,,,,,,,,,,,,,,,,,,,,,,,,,1072.3077,1079.1348,-0.338888889,0.19537037,1,0,0,0.8157,compass,0,3,3,30,1,SoundStimuli/SomebodyThatIUsedtoKnow_Gotye_Cover5S.wav,,,,,,,,,,,,,,,,,,,,,,,,,,,,,,,,,,,,,,,,,,,,,,,,,,,,
,,,,,267298,001,2024-07-12_16h11.08.791,experiment,2024.1.5,Win32,59.88023952,65cbc0a5402b90fc2fddd78c,6691931c2c63981b064e1f0c,6691b7bb9726698f64f53358,,,,,,,,,,,,,,,,,,,,,,,,,,,,,,,,,,,,,,,,,,,,,,,,,,,,,,,,,,,,1079.1412,1086.0353,0.310185185,0.099074074,1,0,0,0.8837,compass,0,4,4,3,1,SoundStimuli/PartyRockAnthem_LMFAO_Cover5S.wav,,,,,,,,,,,,,,,,,,,,,,,,,,,,,,,,,,,,,,,,,,,,,,,,,,,,
,,,,,267298,001,2024-07-12_16h11.08.791,experiment,2024.1.5,Win32,59.88023952,65cbc0a5402b90fc2fddd78c,6691931c2c63981b064e1f0c,6691b7bb9726698f64f53358,,,,,,,,,,,,,,,,,,,,,,,,,,,,,,,,,,,,,,,,,,,,,,,,,,,,,,,,,,,,1086.0449,1094.1348,0.019444444,0.122222222,1,0,0,2.0825,compass,0,5,5,12,1,SoundStimuli/UnbreakMyHeart_ToniBraxton_Cover5S.wav,,,,,,,,,,,,,,,,,,,,,,,,,,,,,,,,,,,,,,,,,,,,,,,,,,,,
,,,,,267298,001,2024-07-12_16h11.08.791,experiment,2024.1.5,Win32,59.88023952,65cbc0a5402b90fc2fddd78c,6691931c2c63981b064e1f0c,6691b7bb9726698f64f53358,,,,,,,,,,,,,,,,,,,,,,,,,,,,,,,,,,,,,,,,,,,,,,,,,,,,,,,,,,,,1094.1454,1101.0509,-0.067592593,0.076851852,1,0,0,0.8999,compass,0,6,6,11,1,SoundStimuli/BlurredLines_RobinThicke_Original5S.wav,,,,,,,,,,,,,,,,,,,,,,,,,,,,,,,,,,,,,,,,,,,,,,,,,,,,
,,,,,267298,001,2024-07-12_16h11.08.791,experiment,2024.1.5,Win32,59.88023952,65cbc0a5402b90fc2fddd78c,6691931c2c63981b064e1f0c,6691b7bb9726698f64f53358,,,,,,,,,,,,,,,,,,,,,,,,,,,,,,,,,,,,,,,,,,,,,,,,,,,,,,,,,,,,1101.0574,1109.2674,0.02037037,-0.107407407,1,0,0,2.2,compass,0,7,7,16,1,SoundStimuli/ItsAllInTheGame_TommyEdwards_Original5S.wav,,,,,,,,,,,,,,,,,,,,,,,,,,,,,,,,,,,,,,,,,,,,,,,,,,,,
,,,,,267298,001,2024-07-12_16h11.08.791,experiment,2024.1.5,Win32,59.88023952,65cbc0a5402b90fc2fddd78c,6691931c2c63981b064e1f0c,6691b7bb9726698f64f53358,,,,,,,,,,,,,,,,,,,,,,,,,,,,,,,,,,,,,,,,,,,,,,,,,,,,,,,,,,,,1109.2739,1118.5513,-0.293518519,-0.027777778,1,0,0,3.2672,compass,0,8,8,6,1,SoundStimuli/SaveYourTears_TheWeekndArianaGrande_Original5S.wav,,,,,,,,,,,,,,,,,,,,,,,,,,,,,,,,,,,,,,,,,,,,,,,,,,,,
,,,,,267298,001,2024-07-12_16h11.08.791,experiment,2024.1.5,Win32,59.88023952,65cbc0a5402b90fc2fddd78c,6691931c2c63981b064e1f0c,6691b7bb9726698f64f53358,,,,,,,,,,,,,,,,,,,,,,,,,,,,,,,,,,,,,,,,,,,,,,,,,,,,,,,,,,,,1118.562,1125.767,-0.012037037,-0.125925926,1,0,0,1.1997,compass,0,9,9,23,1,SoundStimuli/IWalkTheLine_JohnnyCash_Cover5S.wav,,,,,,,,,,,,,,,,,,,,,,,,,,,,,,,,,,,,,,,,,,,,,,,,,,,,
,,,,,267298,001,2024-07-12_16h11.08.791,experiment,2024.1.5,Win32,59.88023952,65cbc0a5402b90fc2fddd78c,6691931c2c63981b064e1f0c,6691b7bb9726698f64f53358,,,,,,,,,,,,,,,,,,,,,,,,,,,,,,,,,,,,,,,,,,,,,,,,,,,,,,,,,,,,1125.7733,1133.2675,-0.063888889,-0.065740741,1,0,0,1.4836,compass,0,10,10,29,1,SoundStimuli/BetteDavisEyes_KimCarnes_Cover5S.wav,,,,,,,,,,,,,,,,,,,,,,,,,,,,,,,,,,,,,,,,,,,,,,,,,,,,
,,,,,267298,001,2024-07-12_16h11.08.791,experiment,2024.1.5,Win32,59.88023952,65cbc0a5402b90fc2fddd78c,6691931c2c63981b064e1f0c,6691b7bb9726698f64f53358,,,,,,,,,,,,,,,,,,,,,,,,,,,,,,,,,,,,,,,,,,,,,,,,,,,,,,,,,,,,1133.2899,1143.417,-0.006481481,-0.27037037,1,0,0,4.1167,compass,0,11,11,14,1,SoundStimuli/LikeARollingStone_BobDylan_Cover5S.wav,,,,,,,,,,,,,,,,,,,,,,,,,,,,,,,,,,,,,,,,,,,,,,,,,,,,
,,,,,267298,001,2024-07-12_16h11.08.791,experiment,2024.1.5,Win32,59.88023952,65cbc0a5402b90fc2fddd78c,6691931c2c63981b064e1f0c,6691b7bb9726698f64f53358,,,,,,,,,,,,,,,,,,,,,,,,,,,,,,,,,,,,,,,,,,,,,,,,,,,,,,,,,,,,1143.4385,1151.1998,-0.037962963,0.217592593,1,0,0,1.7498,compass,0,12,12,20,1,SoundStimuli/FlashdanceWhatAFeeling_IreneCara_Cover5S.wav,,,,,,,,,,,,,,,,,,,,,,,,,,,,,,,,,,,,,,,,,,,,,,,,,,,,
,,,,,267298,001,2024-07-12_16h11.08.791,experiment,2024.1.5,Win32,59.88023952,65cbc0a5402b90fc2fddd78c,6691931c2c63981b064e1f0c,6691b7bb9726698f64f53358,,,,,,,,,,,,,,,,,,,,,,,,,,,,,,,,,,,,,,,,,,,,,,,,,,,,,,,,,,,,1151.2058,1159.6336,0.122222222,0.156481481,1,0,0,2.4117,compass,0,13,13,27,1,SoundStimuli/EyeOfTheTiger_Survivor_Original5S.wav,,,,,,,,,,,,,,,,,,,,,,,,,,,,,,,,,,,,,,,,,,,,,,,,,,,,
,,,,,267298,001,2024-07-12_16h11.08.791,experiment,2024.1.5,Win32,59.88023952,65cbc0a5402b90fc2fddd78c,6691931c2c63981b064e1f0c,6691b7bb9726698f64f53358,,,,,,,,,,,,,,,,,,,,,,,,,,,,,,,,,,,,,,,,,,,,,,,,,,,,,,,,,,,,1159.6433,1169.388,0.12962963,0.162962963,1,0,0,3.7385,compass,0,14,14,31,1,SoundStimuli/TossinAndTurnin_BobbyLewis_Cover5S.wav,,,,,,,,,,,,,,,,,,,,,,,,,,,,,,,,,,,,,,,,,,,,,,,,,,,,
,,,,,267298,001,2024-07-12_16h11.08.791,experiment,2024.1.5,Win32,59.88023952,65cbc0a5402b90fc2fddd78c,6691931c2c63981b064e1f0c,6691b7bb9726698f64f53358,,,,,,,,,,,,,,,,,,,,,,,,,,,,,,,,,,,,,,,,,,,,,,,,,,,,,,,,,,,,1169.3943,1178.6158,0.271296296,0.071296296,1,0,0,3.2166,compass,0,15,15,32,1,SoundStimuli/Dilemma_NellyKellyRowland_Original5S.wav,,,,,,,,,,,,,,,,,,,,,,,,,,,,,,,,,,,,,,,,,,,,,,,,,,,,
,,,,,267298,001,2024-07-12_16h11.08.791,experiment,2024.1.5,Win32,59.88023952,65cbc0a5402b90fc2fddd78c,6691931c2c63981b064e1f0c,6691b7bb9726698f64f53358,,,,,,,,,,,,,,,,,,,,,,,,,,,,,,,,,,,,,,,,,,,,,,,,,,,,,,,,,,,,1178.6225,1185.8709,0.024074074,0.090740741,1,0,0,1.2387,compass,0,16,16,0,1,SoundStimuli/GimmeShelter_RollingStones_Cover5S.wav,,,,,,,,,,,,,,,,,,,,,,,,,,,,,,,,,,,,,,,,,,,,,,,,,,,,
,,,,,267298,001,2024-07-12_16h11.08.791,experiment,2024.1.5,Win32,59.88023952,65cbc0a5402b90fc2fddd78c,6691931c2c63981b064e1f0c,6691b7bb9726698f64f53358,,,,,,,,,,,,,,,,,,,,,,,,,,,,,,,,,,,,,,,,,,,,,,,,,,,,,,,,,,,,1185.8769,1192.505,0.224074074,0.184259259,1,0,0,0.6176,compass,0,17,17,1,1,SoundStimuli/Smooth_SantanaRobThomas_Cover5S.wav,,,,,,,,,,,,,,,,,,,,,,,,,,,,,,,,,,,,,,,,,,,,,,,,,,,,
,,,,,267298,001,2024-07-12_16h11.08.791,experiment,2024.1.5,Win32,59.88023952,65cbc0a5402b90fc2fddd78c,6691931c2c63981b064e1f0c,6691b7bb9726698f64f53358,,,,,,,,,,,,,,,,,,,,,,,,,,,,,,,,,,,,,,,,,,,,,,,,,,,,,,,,,,,,1192.514,1200.3819,0.336111111,-0.072222222,1,0,0,1.8619,compass,0,18,18,17,1,SoundStimuli/IWannaDanceWithSomebody_WhitneyHouston_Cover5S.wav,,,,,,,,,,,,,,,,,,,,,,,,,,,,,,,,,,,,,,,,,,,,,,,,,,,,
,,,,,267298,001,2024-07-12_16h11.08.791,experiment,2024.1.5,Win32,59.88023952,65cbc0a5402b90fc2fddd78c,6691931c2c63981b064e1f0c,6691b7bb9726698f64f53358,,,,,,,,,,,,,,,,,,,,,,,,,,,,,,,,,,,,,,,,,,,,,,,,,,,,,,,,,,,,1200.3892,1207.4816,0.018518519,-0.110185185,1,0,0,1.0781,compass,0,19,19,7,1,SoundStimuli/MackTheKnife_BobbyDarin_Original5S.wav,,,,,,,,,,,,,,,,,,,,,,,,,,,,,,,,,,,,,,,,,,,,,,,,,,,,
,,,,,267298,001,2024-07-12_16h11.08.791,experiment,2024.1.5,Win32,59.88023952,65cbc0a5402b90fc2fddd78c,6691931c2c63981b064e1f0c,6691b7bb9726698f64f53358,,,,,,,,,,,,,,,,,,,,,,,,,,,,,,,,,,,,,,,,,,,,,,,,,,,,,,,,,,,,1207.4879,1214.7982,0.140740741,-0.199074074,1,0,0,1.3001,compass,0,20,20,19,1,SoundStimuli/YouLightUpMyLife_DebbyBoone_Cover5S.wav,,,,,,,,,,,,,,,,,,,,,,,,,,,,,,,,,,,,,,,,,,,,,,,,,,,,
,,,,,267298,001,2024-07-12_16h11.08.791,experiment,2024.1.5,Win32,59.88023952,65cbc0a5402b90fc2fddd78c,6691931c2c63981b064e1f0c,6691b7bb9726698f64f53358,,,,,,,,,,,,,,,,,,,,,,,,,,,,,,,,,,,,,,,,,,,,,,,,,,,,,,,,,,,,1214.8046,1221.1532,0.318518519,-0.031481481,1,0,0,0.3333,compass,0,21,21,13,1,SoundStimuli/Perfect_EdSheeran_Original5S.wav,,,,,,,,,,,,,,,,,,,,,,,,,,,,,,,,,,,,,,,,,,,,,,,,,,,,
,,,,,267298,001,2024-07-12_16h11.08.791,experiment,2024.1.5,Win32,59.88023952,65cbc0a5402b90fc2fddd78c,6691931c2c63981b064e1f0c,6691b7bb9726698f64f53358,,,,,,,,,,,,,,,,,,,,,,,,,,,,,,,,,,,,,,,,,,,,,,,,,,,,,,,,,,,,1221.1593,1229.1311,-0.224074074,-0.069444444,1,0,0,1.9612,compass,0,22,22,9,1,SoundStimuli/HowDoILive_LeAnnRimes_Original5S.wav,,,,,,,,,,,,,,,,,,,,,,,,,,,,,,,,,,,,,,,,,,,,,,,,,,,,
,,,,,267298,001,2024-07-12_16h11.08.791,experiment,2024.1.5,Win32,59.88023952,65cbc0a5402b90fc2fddd78c,6691931c2c63981b064e1f0c,6691b7bb9726698f64f53358,,,,,,,,,,,,,,,,,,,,,,,,,,,,,,,,,,,,,,,,,,,,,,,,,,,,,,,,,,,,1229.1375,1235.9144,-0.032407407,-0.196296296,1,0,0,0.7615,compass,0,23,23,28,1,SoundStimuli/IWantToHoldYourHand_TheBeatles_Cover5S.wav,,,,,,,,,,,,,,,,,,,,,,,,,,,,,,,,,,,,,,,,,,,,,,,,,,,,
,,,,,267298,001,2024-07-12_16h11.08.791,experiment,2024.1.5,Win32,59.88023952,65cbc0a5402b90fc2fddd78c,6691931c2c63981b064e1f0c,6691b7bb9726698f64f53358,,,,,,,,,,,,,,,,,,,,,,,,,,,,,,,,,,,,,,,,,,,,,,,,,,,,,,,,,,,,1235.9205,1243.0975,0.308333333,0.049074074,1,0,0,1.1615,compass,0,24,24,24,1,SoundStimuli/Kiss_Prince_Original5S.wav,,,,,,,,,,,,,,,,,,,,,,,,,,,,,,,,,,,,,,,,,,,,,,,,,,,,
,,,,,267298,001,2024-07-12_16h11.08.791,experiment,2024.1.5,Win32,59.88023952,65cbc0a5402b90fc2fddd78c,6691931c2c63981b064e1f0c,6691b7bb9726698f64f53358,,,,,,,,,,,,,,,,,,,,,,,,,,,,,,,,,,,,,,,,,,,,,,,,,,,,,,,,,,,,1243.1041,1251.5025,-0.082407407,-0.273148148,1,0,0,2.3833,compass,0,25,25,21,1,SoundStimuli/BridgeOverTroubledWater_SimonAndGarfunkel_Cover5S.wav,,,,,,,,,,,,,,,,,,,,,,,,,,,,,,,,,,,,,,,,,,,,,,,,,,,,
,,,,,267298,001,2024-07-12_16h11.08.791,experiment,2024.1.5,Win32,59.88023952,65cbc0a5402b90fc2fddd78c,6691931c2c63981b064e1f0c,6691b7bb9726698f64f53358,,,,,,,,,,,,,,,,,,,,,,,,,,,,,,,,,,,,,,,,,,,,,,,,,,,,,,,,,,,,1251.5089,1258.052,0.227777778,0.324074074,1,0,0,0.5333,compass,0,26,26,10,1,SoundStimuli/LeFreak_Chic_Original5S.wav,,,,,,,,,,,,,,,,,,,,,,,,,,,,,,,,,,,,,,,,,,,,,,,,,,,,
,,,,,267298,001,2024-07-12_16h11.08.791,experiment,2024.1.5,Win32,59.88023952,65cbc0a5402b90fc2fddd78c,6691931c2c63981b064e1f0c,6691b7bb9726698f64f53358,,,,,,,,,,,,,,,,,,,,,,,,,,,,,,,,,,,,,,,,,,,,,,,,,,,,,,,,,,,,1258.0581,1266.8689,-0.000925926,0.22037037,1,0,0,2.8053,compass,0,27,27,25,1,SoundStimuli/IllMakeLoveToYou_BoyzIIMen_Original5S.wav,,,,,,,,,,,,,,,,,,,,,,,,,,,,,,,,,,,,,,,,,,,,,,,,,,,,
,,,,,267298,001,2024-07-12_16h11.08.791,experiment,2024.1.5,Win32,59.88023952,65cbc0a5402b90fc2fddd78c,6691931c2c63981b064e1f0c,6691b7bb9726698f64f53358,,,,,,,,,,,,,,,,,,,,,,,,,,,,,,,,,,,,,,,,,,,,,,,,,,,,,,,,,,,,1266.8752,1276.23,0.019444444,0.033333333,1,0,0,3.3501,compass,0,28,28,18,1,SoundStimuli/Weak_SWV_Original5S.wav,,,,,,,,,,,,,,,,,,,,,,,,,,,,,,,,,,,,,,,,,,,,,,,,,,,,
,,,,,267298,001,2024-07-12_16h11.08.791,experiment,2024.1.5,Win32,59.88023952,65cbc0a5402b90fc2fddd78c,6691931c2c63981b064e1f0c,6691b7bb9726698f64f53358,,,,,,,,,,,,,,,,,,,,,,,,,,,,,,,,,,,,,,,,,,,,,,,,,,,,,,,,,,,,1276.2364,1283.4296,0.302777778,0.033333333,1,0,0,1.1831,compass,0,29,29,22,1,SoundStimuli/Happy_PharellWilliams_Cover5S.wav,,,,,,,,,,,,,,,,,,,,,,,,,,,,,,,,,,,,,,,,,,,,,,,,,,,,
,,,,,267298,001,2024-07-12_16h11.08.791,experiment,2024.1.5,Win32,59.88023952,65cbc0a5402b90fc2fddd78c,6691931c2c63981b064e1f0c,6691b7bb9726698f64f53358,,,,,,,,,,,,,,,,,,,,,,,,,,,,,,,,,,,,,,,,,,,,,,,,,,,,,,,,,,,,1283.4358,1291.0016,-0.3,0.057407407,1,0,0,1.5502,compass,0,30,30,33,1,SoundStimuli/TheBoyIsMine_BrandyMonica_Cover5S.wav,,,,,,,,,,,,,,,,,,,,,,,,,,,,,,,,,,,,,,,,,,,,,,,,,,,,
,,,,,267298,001,2024-07-12_16h11.08.791,experiment,2024.1.5,Win32,59.88023952,65cbc0a5402b90fc2fddd78c,6691931c2c63981b064e1f0c,6691b7bb9726698f64f53358,,,,,,,,,,,,,,,,,,,,,,,,,,,,,,,,,,,,,,,,,,,,,,,,,,,,,,,,,,,,1291.0082,1298.768,-0.147222222,0.109259259,1,0,0,1.7498,compass,0,31,31,34,1,SoundStimuli/Irreplaceable_Beyonce_Original5S.wav,,,,,,,,,,,,,,,,,,,,,,,,,,,,,,,,,,,,,,,,,,,,,,,,,,,,
,,,,,267298,001,2024-07-12_16h11.08.791,experiment,2024.1.5,Win32,59.88023952,65cbc0a5402b90fc2fddd78c,6691931c2c63981b064e1f0c,6691b7bb9726698f64f53358,,,,,,,,,,,,,,,,,,,,,,,,,,,,,,,,,,,,,,,,,,,,,,,,,,,,,,,,,,,,1298.7743,1305.0626,-0.116666667,0.042592593,1,0,0,0.278,compass,0,32,32,2,1,SoundStimuli/SmellsLikeTeenSpirit_Nirvana_Cover5S.wav,,,,,,,,,,,,,,,,,,,,,,,,,,,,,,,,,,,,,,,,,,,,,,,,,,,,
,,,,,267298,001,2024-07-12_16h11.08.791,experiment,2024.1.5,Win32,59.88023952,65cbc0a5402b90fc2fddd78c,6691931c2c63981b064e1f0c,6691b7bb9726698f64f53358,,,,,,,,,,,,,,,,,,,,,,,,,,,,,,,,,,,,,,,,,,,,,,,,,,,,,,,,,,,,1305.0688,1311.7959,0.241666667,0.233333333,1,0,0,0.7166,compass,0,33,33,15,1,SoundStimuli/CrazyInLove_BeyonceFtJayZ_Original5S.wav,,,,,,,,,,,,,,,,,,,,,,,,,,,,,,,,,,,,,,,,,,,,,,,,,,,,
,,,,,267298,001,2024-07-12_16h11.08.791,experiment,2024.1.5,Win32,59.88023952,65cbc0a5402b90fc2fddd78c,6691931c2c63981b064e1f0c,6691b7bb9726698f64f53358,,,,,,,,,,,,,,,,,,,,,,,,,,,,,,,,,,,,,,,,,,,,,,,,,,,,,,,,,,,,1311.8024,1320.7294,0.006481481,0.05,1,0,0,2.9171,compass,0,34,34,4,1,SoundStimuli/Dreams_FleetwoodMac_Cover5S.wav,,,,,,,,,,,,,,,,,,,,,,,,,,,,,,,,,,,,,,,,,,,,,,,,,,,,
,,,,,267298,001,2024-07-12_16h11.08.791,experiment,2024.1.5,Win32,59.88023952,65cbc0a5402b90fc2fddd78c,6691931c2c63981b064e1f0c,6691b7bb9726698f64f53358,,,,,,,,,,,,,,,,,,,,,,,,,,,,,,,,,,,,,,,,,,,,,,,,,,,,,,,,,,,,,,,,,,,,,,,,,,,1320.7357,1347.6294,space,26.8892,,1347.6294,1349.5117,right,1.8684,,0,2,2,2,1,block_order/blockB.xlsx,,,,,,,,,,,,,,,,,,,,,,,,,,,,,,,,,,,,
,,,,,267298,001,2024-07-12_16h11.08.791,experiment,2024.1.5,Win32,59.88023952,65cbc0a5402b90fc2fddd78c,6691931c2c63981b064e1f0c,6691b7bb9726698f64f53358,,,,,,,,,,,,,,,,,,,,,,,,,,,,,,,,,,,,,,,,,,,,,,,,,,,,,,,,,,,,1349.5208,1359.4446,-0.049074074,0.097222222,1,0,0,3.9166,compass,0,0,0,30,1,SoundStimuli/PokerFace_LadyGaga_Cover5S.wav,,,,,,,,,,,,,,,,,,,,,,,,,,,,,,,,,,,,,,,,,,,,,,,,,,,,
,,,,,267298,001,2024-07-12_16h11.08.791,experiment,2024.1.5,Win32,59.88023952,65cbc0a5402b90fc2fddd78c,6691931c2c63981b064e1f0c,6691b7bb9726698f64f53358,,,,,,,,,,,,,,,,,,,,,,,,,,,,,,,,,,,,,,,,,,,,,,,,,,,,,,,,,,,,1359.4509,1368.246,-0.116666667,0.094444444,1,0,0,2.7849,compass,0,1,1,23,1,SoundStimuli/StrawberryFieldsForever_TheBeatles_Cover5S.wav,,,,,,,,,,,,,,,,,,,,,,,,,,,,,,,,,,,,,,,,,,,,,,,,,,,,
,,,,,267298,001,2024-07-12_16h11.08.791,experiment,2024.1.5,Win32,59.88023952,65cbc0a5402b90fc2fddd78c,6691931c2c63981b064e1f0c,6691b7bb9726698f64f53358,,,,,,,,,,,,,,,,,,,,,,,,,,,,,,,,,,,,,,,,,,,,,,,,,,,,,,,,,,,,1368.2684,1375.095,-0.237037037,0.210185185,1,0,0,0.8171,compass,0,2,2,25,1,SoundStimuli/Respect_ArethaFranklin_Cover5S.wav,,,,,,,,,,,,,,,,,,,,,,,,,,,,,,,,,,,,,,,,,,,,,,,,,,,,
,,,,,267298,001,2024-07-12_16h11.08.791,experiment,2024.1.5,Win32,59.88023952,65cbc0a5402b90fc2fddd78c,6691931c2c63981b064e1f0c,6691b7bb9726698f64f53358,,,,,,,,,,,,,,,,,,,,,,,,,,,,,,,,,,,,,,,,,,,,,,,,,,,,,,,,,,,,1375.1049,1384.1444,0.115740741,-0.047222222,1,0,0,3.0336,compass,0,3,3,34,1,SoundStimuli/AChangeIsGonnaCome_SamCooke_Original5S.wav,,,,,,,,,,,,,,,,,,,,,,,,,,,,,,,,,,,,,,,,,,,,,,,,,,,,
,,,,,267298,001,2024-07-12_16h11.08.791,experiment,2024.1.5,Win32,59.88023952,65cbc0a5402b90fc2fddd78c,6691931c2c63981b064e1f0c,6691b7bb9726698f64f53358,,,,,,,,,,,,,,,,,,,,,,,,,,,,,,,,,,,,,,,,,,,,,,,,,,,,,,,,,,,,1384.1508,1392.0446,-0.009259259,0.223148148,1,0,0,1.8838,compass,0,4,4,9,1,SoundStimuli/Despacito_LuisFonsiDaddyYankee_Original5S.wav,,,,,,,,,,,,,,,,,,,,,,,,,,,,,,,,,,,,,,,,,,,,,,,,,,,,
,,,,,267298,001,2024-07-12_16h11.08.791,experiment,2024.1.5,Win32,59.88023952,65cbc0a5402b90fc2fddd78c,6691931c2c63981b064e1f0c,6691b7bb9726698f64f53358,,,,,,,,,,,,,,,,,,,,,,,,,,,,,,,,,,,,,,,,,,,,,,,,,,,,,,,,,,,,1392.054,1398.4612,0.237962963,0.075925926,1,0,0,0.4007,compass,0,5,5,21,1,SoundStimuli/GoodGollyMissMolly_LittleRichard_Original5S.wav,,,,,,,,,,,,,,,,,,,,,,,,,,,,,,,,,,,,,,,,,,,,,,,,,,,,
,,,,,267298,001,2024-07-12_16h11.08.791,experiment,2024.1.5,Win32,59.88023952,65cbc0a5402b90fc2fddd78c,6691931c2c63981b064e1f0c,6691b7bb9726698f64f53358,,,,,,,,,,,,,,,,,,,,,,,,,,,,,,,,,,,,,,,,,,,,,,,,,,,,,,,,,,,,1398.4711,1407.0453,0.216666667,-0.021296296,1,0,0,2.5682,compass,0,6,6,29,1,SoundStimuli/OldTownRoad_LilNasX_Cover5S.wav,,,,,,,,,,,,,,,,,,,,,,,,,,,,,,,,,,,,,,,,,,,,,,,,,,,,
,,,,,267298,001,2024-07-12_16h11.08.791,experiment,2024.1.5,Win32,59.88023952,65cbc0a5402b90fc2fddd78c,6691931c2c63981b064e1f0c,6691b7bb9726698f64f53358,,,,,,,,,,,,,,,,,,,,,,,,,,,,,,,,,,,,,,,,,,,,,,,,,,,,,,,,,,,,1407.0653,1415.2274,0.273148148,-0.026851852,1,0,0,2.1495,compass,0,7,7,6,1,SoundStimuli/Levitating_DuaLipa_Original5S.wav,,,,,,,,,,,,,,,,,,,,,,,,,,,,,,,,,,,,,,,,,,,,,,,,,,,,
,,,,,267298,001,2024-07-12_16h11.08.791,experiment,2024.1.5,Win32,59.88023952,65cbc0a5402b90fc2fddd78c,6691931c2c63981b064e1f0c,6691b7bb9726698f64f53358,,,,,,,,,,,,,,,,,,,,,,,,,,,,,,,,,,,,,,,,,,,,,,,,,,,,,,,,,,,,1415.2373,1421.8271,0.181481481,-0.060185185,1,0,0,0.5838,compass,0,8,8,22,1,SoundStimuli/RockWithYou_MichaelJackson_Cover5S.wav,,,,,,,,,,,,,,,,,,,,,,,,,,,,,,,,,,,,,,,,,,,,,,,,,,,,
,,,,,267298,001,2024-07-12_16h11.08.791,experiment,2024.1.5,Win32,59.88023952,65cbc0a5402b90fc2fddd78c,6691931c2c63981b064e1f0c,6691b7bb9726698f64f53358,,,,,,,,,,,,,,,,,,,,,,,,,,,,,,,,,,,,,,,,,,,,,,,,,,,,,,,,,,,,1421.8482,1431.2599,-0.014814815,0.15462963,1,0,0,3.4004,compass,0,9,9,20,1,SoundStimuli/HeyYa_Outkast_Original5S.wav,,,,,,,,,,,,,,,,,,,,,,,,,,,,,,,,,,,,,,,,,,,,,,,,,,,,
,,,,,267298,001,2024-07-12_16h11.08.791,experiment,2024.1.5,Win32,59.88023952,65cbc0a5402b90fc2fddd78c,6691931c2c63981b064e1f0c,6691b7bb9726698f64f53358,,,,,,,,,,,,,,,,,,,,,,,,,,,,,,,,,,,,,,,,,,,,,,,,,,,,,,,,,,,,1431.2668,1438.0594,-0.089814815,-0.012962963,1,0,0,0.7835,compass,0,10,10,18,1,SoundStimuli/AnotherOneBitesTheDust_Queen_Cover5S.wav,,,,,,,,,,,,,,,,,,,,,,,,,,,,,,,,,,,,,,,,,,,,,,,,,,,,
,,,,,267298,001,2024-07-12_16h11.08.791,experiment,2024.1.5,Win32,59.88023952,65cbc0a5402b90fc2fddd78c,6691931c2c63981b064e1f0c,6691b7bb9726698f64f53358,,,,,,,,,,,,,,,,,,,,,,,,,,,,,,,,,,,,,,,,,,,,,,,,,,,,,,,,,,,,1438.0654,1445.6424,0.098148148,0.140740741,1,0,0,1.5663,compass,0,11,11,14,1,SoundStimuli/BlindingLights_TheWeeknd_Cover5S.wav,,,,,,,,,,,,,,,,,,,,,,,,,,,,,,,,,,,,,,,,,,,,,,,,,,,,
,,,,,267298,001,2024-07-12_16h11.08.791,experiment,2024.1.5,Win32,59.88023952,65cbc0a5402b90fc2fddd78c,6691931c2c63981b064e1f0c,6691b7bb9726698f64f53358,,,,,,,,,,,,,,,,,,,,,,,,,,,,,,,,,,,,,,,,,,,,,,,,,,,,,,,,,,,,1445.6488,1451.8257,-0.050925926,0.235185185,1,0,0,0.1666,compass,0,12,12,16,1,SoundStimuli/BohemianRhapsody_Queen_Cover5S.wav,,,,,,,,,,,,,,,,,,,,,,,,,,,,,,,,,,,,,,,,,,,,,,,,,,,,
,,,,,267298,001,2024-07-12_16h11.08.791,experiment,2024.1.5,Win32,59.88023952,65cbc0a5402b90fc2fddd78c,6691931c2c63981b064e1f0c,6691b7bb9726698f64f53358,,,,,,,,,,,,,,,,,,,,,,,,,,,,,,,,,,,,,,,,,,,,,,,,,,,,,,,,,,,,1451.8318,1460.2781,0.257407407,0.050925926,1,0,0,2.4359,compass,0,13,13,33,1,SoundStimuli/StandByMe_BenEKing_Original5S.wav,,,,,,,,,,,,,,,,,,,,,,,,,,,,,,,,,,,,,,,,,,,,,,,,,,,,
,,,,,267298,001,2024-07-12_16h11.08.791,experiment,2024.1.5,Win32,59.88023952,65cbc0a5402b90fc2fddd78c,6691931c2c63981b064e1f0c,6691b7bb9726698f64f53358,,,,,,,,,,,,,,,,,,,,,,,,,,,,,,,,,,,,,,,,,,,,,,,,,,,,,,,,,,,,1460.2845,1469.3757,0.175925926,0.039814815,1,0,0,3.0838,compass,0,14,14,32,1,SoundStimuli/HeatWaves_GlassAnimals_Cover5S.wav,,,,,,,,,,,,,,,,,,,,,,,,,,,,,,,,,,,,,,,,,,,,,,,,,,,,
,,,,,267298,001,2024-07-12_16h11.08.791,experiment,2024.1.5,Win32,59.88023952,65cbc0a5402b90fc2fddd78c,6691931c2c63981b064e1f0c,6691b7bb9726698f64f53358,,,,,,,,,,,,,,,,,,,,,,,,,,,,,,,,,,,,,,,,,,,,,,,,,,,,,,,,,,,,1469.3821,1476.5918,0.317592593,0.325925926,1,0,0,1.2001,compass,0,15,15,26,1,SoundStimuli/LivinOnAPrayer_BonJovi_Original5S.wav,,,,,,,,,,,,,,,,,,,,,,,,,,,,,,,,,,,,,,,,,,,,,,,,,,,,
,,,,,267298,001,2024-07-12_16h11.08.791,experiment,2024.1.5,Win32,59.88023952,65cbc0a5402b90fc2fddd78c,6691931c2c63981b064e1f0c,6691b7bb9726698f64f53358,,,,,,,,,,,,,,,,,,,,,,,,,,,,,,,,,,,,,,,,,,,,,,,,,,,,,,,,,,,,1476.5979,1483.3082,0.255555556,0.036111111,1,0,0,0.7,compass,0,16,16,28,1,SoundStimuli/ComeAndGetYourLove_Redbone_Cover5S.wav,,,,,,,,,,,,,,,,,,,,,,,,,,,,,,,,,,,,,,,,,,,,,,,,,,,,
,,,,,267298,001,2024-07-12_16h11.08.791,experiment,2024.1.5,Win32,59.88023952,65cbc0a5402b90fc2fddd78c,6691931c2c63981b064e1f0c,6691b7bb9726698f64f53358,,,,,,,,,,,,,,,,,,,,,,,,,,,,,,,,,,,,,,,,,,,,,,,,,,,,,,,,,,,,1483.3148,1490.5588,0.306481481,0.012962963,1,0,0,1.2339,compass,0,17,17,12,1,SoundStimuli/IWillAlwaysLoveYou_WhitneyHouston_Original5S.wav,,,,,,,,,,,,,,,,,,,,,,,,,,,,,,,,,,,,,,,,,,,,,,,,,,,,
,,,,,267298,001,2024-07-12_16h11.08.791,experiment,2024.1.5,Win32,59.88023952,65cbc0a5402b90fc2fddd78c,6691931c2c63981b064e1f0c,6691b7bb9726698f64f53358,,,,,,,,,,,,,,,,,,,,,,,,,,,,,,,,,,,,,,,,,,,,,,,,,,,,,,,,,,,,1490.5824,1496.9079,0.264814815,-0.078703704,1,0,0,0.3168,compass,0,18,18,27,1,SoundStimuli/ShapeofYou_EdSheeran_Cover5S.wav,,,,,,,,,,,,,,,,,,,,,,,,,,,,,,,,,,,,,,,,,,,,,,,,,,,,
,,,,,267298,001,2024-07-12_16h11.08.791,experiment,2024.1.5,Win32,59.88023952,65cbc0a5402b90fc2fddd78c,6691931c2c63981b064e1f0c,6691b7bb9726698f64f53358,,,,,,,,,,,,,,,,,,,,,,,,,,,,,,,,,,,,,,,,,,,,,,,,,,,,,,,,,,,,1496.914,1503.2744,-0.296296296,0.122222222,1,0,0,0.3499,compass,0,19,19,1,1,SoundStimuli/Stronger_KanyeWest_Cover5S.wav,,,,,,,,,,,,,,,,,,,,,,,,,,,,,,,,,,,,,,,,,,,,,,,,,,,,
,,,,,267298,001,2024-07-12_16h11.08.791,experiment,2024.1.5,Win32,59.88023952,65cbc0a5402b90fc2fddd78c,6691931c2c63981b064e1f0c,6691b7bb9726698f64f53358,,,,,,,,,,,,,,,,,,,,,,,,,,,,,,,,,,,,,,,,,,,,,,,,,,,,,,,,,,,,1503.2805,1511.3242,0.24537037,-0.035185185,1,0,0,2.0331,compass,0,20,20,5,1,SoundStimuli/MyGirl_TheTemptations_Cover5S.wav,,,,,,,,,,,,,,,,,,,,,,,,,,,,,,,,,,,,,,,,,,,,,,,,,,,,
,,,,,267298,001,2024-07-12_16h11.08.791,experiment,2024.1.5,Win32,59.88023952,65cbc0a5402b90fc2fddd78c,6691931c2c63981b064e1f0c,6691b7bb9726698f64f53358,,,,,,,,,,,,,,,,,,,,,,,,,,,,,,,,,,,,,,,,,,,,,,,,,,,,,,,,,,,,1511.3305,1520.0577,-0.340740741,-0.017592593,1,0,0,2.7167,compass,0,21,21,3,1,SoundStimuli/NoScrubs_TLC_Cover5S.wav,,,,,,,,,,,,,,,,,,,,,,,,,,,,,,,,,,,,,,,,,,,,,,,,,,,,
,,,,,267298,001,2024-07-12_16h11.08.791,experiment,2024.1.5,Win32,59.88023952,65cbc0a5402b90fc2fddd78c,6691931c2c63981b064e1f0c,6691b7bb9726698f64f53358,,,,,,,,,,,,,,,,,,,,,,,,,,,,,,,,,,,,,,,,,,,,,,,,,,,,,,,,,,,,1520.0641,1530.0906,-0.338888889,0.035185185,1,0,0,4.0168,compass,0,22,22,4,1,SoundStimuli/GetUrFreakOn_MissyElliot_Cover5S.wav,,,,,,,,,,,,,,,,,,,,,,,,,,,,,,,,,,,,,,,,,,,,,,,,,,,,
,,,,,267298,001,2024-07-12_16h11.08.791,experiment,2024.1.5,Win32,59.88023952,65cbc0a5402b90fc2fddd78c,6691931c2c63981b064e1f0c,6691b7bb9726698f64f53358,,,,,,,,,,,,,,,,,,,,,,,,,,,,,,,,,,,,,,,,,,,,,,,,,,,,,,,,,,,,1530.0971,1536.4736,0.159259259,0.189814815,1,0,0,0.3667,compass,0,23,23,15,1,SoundStimuli/TikTok_Kesha_Original5S.wav,,,,,,,,,,,,,,,,,,,,,,,,,,,,,,,,,,,,,,,,,,,,,,,,,,,,
,,,,,267298,001,2024-07-12_16h11.08.791,experiment,2024.1.5,Win32,59.88023952,65cbc0a5402b90fc2fddd78c,6691931c2c63981b064e1f0c,6691b7bb9726698f64f53358,,,,,,,,,,,,,,,,,,,,,,,,,,,,,,,,,,,,,,,,,,,,,,,,,,,,,,,,,,,,1536.4808,1548.8233,0.014814815,0.074074074,1,0,0,6.3326,compass,0,24,24,13,1,SoundStimuli/GodOnlyKnows_TheBeachBoys_Original5S.wav,,,,,,,,,,,,,,,,,,,,,,,,,,,,,,,,,,,,,,,,,,,,,,,,,,,,
,,,,,267298,001,2024-07-12_16h11.08.791,experiment,2024.1.5,Win32,59.88023952,65cbc0a5402b90fc2fddd78c,6691931c2c63981b064e1f0c,6691b7bb9726698f64f53358,,,,,,,,,,,,,,,,,,,,,,,,,,,,,,,,,,,,,,,,,,,,,,,,,,,,,,,,,,,,1548.8297,1557.3064,0.077777778,-0.128703704,1,0,0,2.4667,compass,0,25,25,7,1,SoundStimuli/NoOne_AliciaKeys_Original5S.wav,,,,,,,,,,,,,,,,,,,,,,,,,,,,,,,,,,,,,,,,,,,,,,,,,,,,
,,,,,267298,001,2024-07-12_16h11.08.791,experiment,2024.1.5,Win32,59.88023952,65cbc0a5402b90fc2fddd78c,6691931c2c63981b064e1f0c,6691b7bb9726698f64f53358,,,,,,,,,,,,,,,,,,,,,,,,,,,,,,,,,,,,,,,,,,,,,,,,,,,,,,,,,,,,1557.3067,1563.6729,0.281481481,-0.028703704,1,0,0,0.35,compass,0,26,26,8,1,SoundStimuli/LikeAPrayer_Madonna_Cover5S.wav,,,,,,,,,,,,,,,,,,,,,,,,,,,,,,,,,,,,,,,,,,,,,,,,,,,,
,,,,,267298,001,2024-07-12_16h11.08.791,experiment,2024.1.5,Win32,59.88023952,65cbc0a5402b90fc2fddd78c,6691931c2c63981b064e1f0c,6691b7bb9726698f64f53358,,,,,,,,,,,,,,,,,,,,,,,,,,,,,,,,,,,,,,,,,,,,,,,,,,,,,,,,,,,,1563.68,1570.2228,-0.30462963,-0.027777778,1,0,0,0.5333,compass,0,27,27,10,1,SoundStimuli/BadDay_DanielPowter_Original5S.wav,,,,,,,,,,,,,,,,,,,,,,,,,,,,,,,,,,,,,,,,,,,,,,,,,,,,
,,,,,267298,001,2024-07-12_16h11.08.791,experiment,2024.1.5,Win32,59.88023952,65cbc0a5402b90fc2fddd78c,6691931c2c63981b064e1f0c,6691b7bb9726698f64f53358,,,,,,,,,,,,,,,,,,,,,,,,,,,,,,,,,,,,,,,,,,,,,,,,,,,,,,,,,,,,1570.2289,1580.056,0.073148148,0.032407407,1,0,0,3.8166,compass,0,28,28,31,1,SoundStimuli/TheBattleOfNewOrleans_JohnnyHorton_Original5S.wav,,,,,,,,,,,,,,,,,,,,,,,,,,,,,,,,,,,,,,,,,,,,,,,,,,,,
,,,,,267298,001,2024-07-12_16h11.08.791,experiment,2024.1.5,Win32,59.88023952,65cbc0a5402b90fc2fddd78c,6691931c2c63981b064e1f0c,6691b7bb9726698f64f53358,,,,,,,,,,,,,,,,,,,,,,,,,,,,,,,,,,,,,,,,,,,,,,,,,,,,,,,,,,,,1580.0635,1590.4224,0.119444444,0.033333333,1,0,0,4.3499,compass,0,29,29,11,1,SoundStimuli/Superstition_StevieWonder_Original5S.wav,,,,,,,,,,,,,,,,,,,,,,,,,,,,,,,,,,,,,,,,,,,,,,,,,,,,
,,,,,267298,001,2024-07-12_16h11.08.791,experiment,2024.1.5,Win32,59.88023952,65cbc0a5402b90fc2fddd78c,6691931c2c63981b064e1f0c,6691b7bb9726698f64f53358,,,,,,,,,,,,,,,,,,,,,,,,,,,,,,,,,,,,,,,,,,,,,,,,,,,,,,,,,,,,1590.4288,1597.7055,0.130555556,0.324074074,1,0,0,1.2666,compass,0,30,30,24,1,SoundStimuli/UptownFunk_MarkRonson_Cover5S.wav,,,,,,,,,,,,,,,,,,,,,,,,,,,,,,,,,,,,,,,,,,,,,,,,,,,,
,,,,,267298,001,2024-07-12_16h11.08.791,experiment,2024.1.5,Win32,59.88023952,65cbc0a5402b90fc2fddd78c,6691931c2c63981b064e1f0c,6691b7bb9726698f64f53358,,,,,,,,,,,,,,,,,,,,,,,,,,,,,,,,,,,,,,,,,,,,,,,,,,,,,,,,,,,,1597.7117,1606.5389,0.022222222,0.140740741,1,0,0,2.8169,compass,0,31,31,0,1,SoundStimuli/StayinAlive_BeeGees_Cover5S.wav,,,,,,,,,,,,,,,,,,,,,,,,,,,,,,,,,,,,,,,,,,,,,,,,,,,,
,,,,,267298,001,2024-07-12_16h11.08.791,experiment,2024.1.5,Win32,59.88023952,65cbc0a5402b90fc2fddd78c,6691931c2c63981b064e1f0c,6691b7bb9726698f64f53358,,,,,,,,,,,,,,,,,,,,,,,,,,,,,,,,,,,,,,,,,,,,,,,,,,,,,,,,,,,,1606.5453,1615.7888,0.137037037,-0.018518519,1,0,0,3.2338,compass,0,32,32,19,1,SoundStimuli/LetsGetItOn_MarvinGaye_Original5S.wav,,,,,,,,,,,,,,,,,,,,,,,,,,,,,,,,,,,,,,,,,,,,,,,,,,,,
,,,,,267298,001,2024-07-12_16h11.08.791,experiment,2024.1.5,Win32,59.88023952,65cbc0a5402b90fc2fddd78c,6691931c2c63981b064e1f0c,6691b7bb9726698f64f53358,,,,,,,,,,,,,,,,,,,,,,,,,,,,,,,,,,,,,,,,,,,,,,,,,,,,,,,,,,,,1615.7951,1622.2716,0.227777778,0.046296296,1,0,0,0.466,compass,0,33,33,2,1,SoundStimuli/Mood_24kGoldnianndior_Original5S.wav,,,,,,,,,,,,,,,,,,,,,,,,,,,,,,,,,,,,,,,,,,,,,,,,,,,,
,,,,,267298,001,2024-07-12_16h11.08.791,experiment,2024.1.5,Win32,59.88023952,65cbc0a5402b90fc2fddd78c,6691931c2c63981b064e1f0c,6691b7bb9726698f64f53358,,,,,,,,,,,,,,,,,,,,,,,,,,,,,,,,,,,,,,,,,,,,,,,,,,,,,,,,,,,,1622.2777,1629.2054,0.219444444,0.099074074,1,0,0,0.917,compass,0,34,34,17,1,SoundStimuli/Fallin_AliciaKeys_Cover5S.wav,,,,,,,,,,,,,,,,,,,,,,,,,,,,,,,,,,,,,,,,,,,,,,,,,,,,
,,,,,267298,001,2024-07-12_16h11.08.791,experiment,2024.1.5,Win32,59.88023952,65cbc0a5402b90fc2fddd78c,6691931c2c63981b064e1f0c,6691b7bb9726698f64f53358,,,,,,,,,,,,,,,,,,,,,,,,,,,,,,,,,,,,,,,,,,,,,,,,,,,,,,,,,,,,,,,,,,,,,,,,,,,1629.2153,1629.2153,,,,1629.2153,1629.2153,,,,0,3,3,3,1,block_order/blockC.xlsx,,,,,,,,,,,,,,,,,,,,,,,,,,,,,,,,,,,,
,,,,,267298,001,2024-07-12_16h11.08.791,experiment,2024.1.5,Win32,59.88023952,65cbc0a5402b90fc2fddd78c,6691931c2c63981b064e1f0c,6691b7bb9726698f64f53358,,,,,,,,,,,,,,,,,,,,,,,,,,,,,,,,,,,,,,,,,,,,,,,,,,,,,,,,,,,,,,,,,,,,,,,,,,,,,,,,,,,,,,,,,,,26,Item 1,Not a musician,Item 3,Spotify,6,6,"Exercising, driving, chores",Never,Rarely,Rarely,Rarely,Never,Never,Never,Always,Always,Never,Never,Never,Never,Never,Sometimes,Never,Pop,Indie,Rock,When younger I would listen to music on the radio and a hand me down iPod. Now I listen on Spotify from an album of liked songs.,I listen to a lot of pop and indie songs on repeat while doing another task. I rarely look for new artists but will listen more through word of mouth from friends.,0,0,0,0,1,,
,,,,,267298,001,2024-07-12_16h11.08.791,experiment,2024.1.5,Win32,59.88023952,65cbc0a5402b90fc2fddd78c,6691931c2c63981b064e1f0c,6691b7bb9726698f64f53358,,,,,,,,,,,,,,,,,,,,,,,,,,,,,,,,,,,,,,,,,,,,,,,,,,,,,,,,,,,,,,,,,,,,,,,,,,,,,,,,,,,,,,,,,,,,,,,,,,,,,,,,,,,,,,,,,,,,,,,,,,,,,1853.6498,1855.7992
