welcome.started,welcome.stopped,space_to_continue.keys,space_to_continue.rt,space_to_continue.duration,participant,session,date,expName,psychopyVersion,OS,frameRate,PROLIFIC_PID,STUDY_ID,SESSION_ID,consent.consent,consent.consent_recontact,consent_check.started,consent_check.stopped,calibration_ready.started,calibration_ready.stopped,cal_ready.keys,cal_ready.rt,cal_ready.duration,calibration.started,calibration.stopped,mouse.x,mouse.y,mouse.leftButton,mouse.midButton,mouse.rightButton,mouse.time,mouse.clicked_name,move_on.keys,move_on.rt,move_on.duration,run_cal.thisRepN,run_cal.thisTrialN,run_cal.thisN,run_cal.thisIndex,run_cal.ran,emotion_training_ready.started,emotion_training_ready.stopped,training_move_on.keys,training_move_on.rt,training_move_on.duration,examples.started,examples.stopped,emotion_scale.started,emotion_scale.stopped,scale_next.keys,scale_next.rt,scale_next.duration,instructions.started,instructions.stopped,next.keys,next.rt,next.duration,practice_task.started,practice_task.stopped,mouse_rating_2.x,mouse_rating_2.y,mouse_rating_2.leftButton,mouse_rating_2.midButton,mouse_rating_2.rightButton,mouse_rating_2.time,mouse_rating_2.clicked_name,ready.started,ready.stopped,key_resp.keys,key_resp.rt,key_resp.duration,set_group.started,set_group.stopped,task.started,task.stopped,mouse_rating.x,mouse_rating.y,mouse_rating.leftButton,mouse_rating.midButton,mouse_rating.rightButton,mouse_rating.time,mouse_rating.clicked_name,trials.thisRepN,trials.thisTrialN,trials.thisN,trials.thisIndex,trials.ran,clip,short_break.started,short_break.stopped,space_to_move_on.keys,space_to_move_on.rt,space_to_move_on.duration,instruction_reminder.started,instruction_reminder.stopped,reminder_move_on.keys,reminder_move_on.rt,reminder_move_on.duration,blocks.thisRepN,blocks.thisTrialN,blocks.thisN,blocks.thisIndex,blocks.ran,block,post_survey.age,post_survey.musician,post_survey.music_making,post_survey.listen_time,post_survey.medium,post_survey.music_seeking,post_survey.music_choice,post_survey.activities,post_survey.question1.Pop,post_survey.question1.Classical,post_survey.question1.Ambient,post_survey.question1.R&B,post_survey.question1.Folk/indie,post_survey.question1.Country,post_survey.question1.Disco,post_survey.question1.Reggae,post_survey.question1.Latin,post_survey.question1.Alternative rock,post_survey.question1.Classic rock,post_survey.question1.Jazz,post_survey.question1.A cappella,post_survey.question1.Electronic (EDM),post_survey.question1.Hip hop,post_survey.question1.Metal,post_survey.other_genres,post_survey.genres_ranked.text3,post_survey.genres_ranked.text1,post_survey.genres_ranked.text2,post_survey.habit_change,show_exp.thisRepN,show_exp.thisTrialN,show_exp.thisN,show_exp.thisIndex,show_exp.ran,goodbye.started,goodbye.stopped
0.0013,8.757,space,8.7511,,505333,001,2024-07-12_16h27.05.858,experiment,2024.1.5,Win32,238.0952381,653ee1d628ced1573a58023d,6691931c2c63981b064e1f0c,6691bb5c36bed8eb2b8fdbe2,,,,,,,,,,,,,,,,,,,,,,,,,,,,,,,,,,,,,,,,,,,,,,,,,,,,,,,,,,,,,,,,,,,,,,,,,,,,,,,,,,,,,,,,,,,,,,,,,,,,,,,,,,,,,,,,,,,,,,,,,,,,,,
,,,,,505333,001,2024-07-12_16h27.05.858,experiment,2024.1.5,Win32,238.0952381,653ee1d628ced1573a58023d,6691931c2c63981b064e1f0c,6691bb5c36bed8eb2b8fdbe2,yes,yes,,,,,,,,,,,,,,,,,,,,,,,,,,,,,,,,,,,,,,,,,,,,,,,,,,,,,,,,,,,,,,,,,,,,,,,,,,,,,,,,,,,,,,,,,,,,,,,,,,,,,,,,,,,,,,,,,,,,,,,,,,,,
,,,,,505333,001,2024-07-12_16h27.05.858,experiment,2024.1.5,Win32,238.0952381,653ee1d628ced1573a58023d,6691931c2c63981b064e1f0c,6691bb5c36bed8eb2b8fdbe2,,,17.5129,17.513,,,,,,,,,,,,,,,,,,,,,,,,,,,,,,,,,,,,,,,,,,,,,,,,,,,,,,,,,,,,,,,,,,,,,,,,,,,,,,,,,,,,,,,,,,,,,,,,,,,,,,,,,,,,,,,,,,,,,,,,,,
,,,,,505333,001,2024-07-12_16h27.05.858,experiment,2024.1.5,Win32,238.0952381,653ee1d628ced1573a58023d,6691931c2c63981b064e1f0c,6691bb5c36bed8eb2b8fdbe2,,,,,17.5139,28.5888,space,11.0697,,28.5944,51.6845,"[0.018518518518518517,0,0.858397365532382,0.5510428100987925]","[-0.41203703703703703,-0.41759259259259257,0.36937431394072445,-0.07628979143798024]","[1,1,1,1]","[0,0,0,0]","[0,0,0,0]","[2.070999999999998,3.304099999994037,10.766699999988077,18.537299999982125]","[""play_button"",""play_button""]",y,22.0843,,0,0,0,0,1,,,,,,,,,,,,,,,,,,,,,,,,,,,,,,,,,,,,,,,,,,,,,,,,,,,,,,,,,,,,,,,,,,,,,,,,,,,,,,,,,,,,,,,,,,,,,,,,,,,,
,,,,,505333,001,2024-07-12_16h27.05.858,experiment,2024.1.5,Win32,238.0952381,653ee1d628ced1573a58023d,6691931c2c63981b064e1f0c,6691bb5c36bed8eb2b8fdbe2,,,,,,,,,,,,,,,,,,,,,,,,,,,51.6848,60.8927,space,9.2007,,60.8928,180.8956,180.8958,186.9329,right,2.5289,,186.933,190.5536,space,3.6157,,190.5537,199.1786,0.159165752,-0.159714599,1,0,0,2.621,compass_2,199.1787,200.6702,space,1.4857,,200.6702,200.6749,200.6874,212.7162,0.996706915,0.314489572,1,0,0,0.8208,compass,0,0,0,0,1,SoundStimuli/GimmeShelter_RollingStones_Cover5S.wav,,,,,,,,,,,,,,,,,,,,,,,,,,,,,,,,,,,,,,,,,,,,,,,,,,,,
,,,,,505333,001,2024-07-12_16h27.05.858,experiment,2024.1.5,Win32,238.0952381,653ee1d628ced1573a58023d,6691931c2c63981b064e1f0c,6691bb5c36bed8eb2b8fdbe2,,,,,,,,,,,,,,,,,,,,,,,,,,,,,,,,,,,,,,,,,,,,,,,,,,,,,,,,,,,,212.7209,219.2584,0.350164654,0.344127333,1,0,0,0.1414,compass,0,1,1,22,1,SoundStimuli/Happy_PharellWilliams_Cover5S.wav,,,,,,,,,,,,,,,,,,,,,,,,,,,,,,,,,,,,,,,,,,,,,,,,,,,,
,,,,,505333,001,2024-07-12_16h27.05.858,experiment,2024.1.5,Win32,238.0952381,653ee1d628ced1573a58023d,6691931c2c63981b064e1f0c,6691bb5c36bed8eb2b8fdbe2,,,,,,,,,,,,,,,,,,,,,,,,,,,,,,,,,,,,,,,,,,,,,,,,,,,,,,,,,,,,219.2645,225.8907,0.117453348,0.211306257,1,0,0,0.6251,compass,0,2,2,26,1,SoundStimuli/TheSign_AceOfBase_Original5S.wav,,,,,,,,,,,,,,,,,,,,,,,,,,,,,,,,,,,,,,,,,,,,,,,,,,,,
,,,,,505333,001,2024-07-12_16h27.05.858,experiment,2024.1.5,Win32,238.0952381,653ee1d628ced1573a58023d,6691931c2c63981b064e1f0c,6691bb5c36bed8eb2b8fdbe2,,,,,,,,,,,,,,,,,,,,,,,,,,,,,,,,,,,,,,,,,,,,,,,,,,,,,,,,,,,,225.8953,237.9073,-0.038419319,0.25740944,1,0,0,6.0078,compass,0,3,3,6,1,SoundStimuli/SaveYourTears_TheWeekndArianaGrande_Original5S.wav,,,,,,,,,,,,,,,,,,,,,,,,,,,,,,,,,,,,,,,,,,,,,,,,,,,,
,,,,,505333,001,2024-07-12_16h27.05.858,experiment,2024.1.5,Win32,238.0952381,653ee1d628ced1573a58023d,6691931c2c63981b064e1f0c,6691bb5c36bed8eb2b8fdbe2,,,,,,,,,,,,,,,,,,,,,,,,,,,,,,,,,,,,,,,,,,,,,,,,,,,,,,,,,,,,237.9122,248.695,-0.053787047,0.340834248,1,0,0,4.7796,compass,0,4,4,15,1,SoundStimuli/CrazyInLove_BeyonceFtJayZ_Original5S.wav,,,,,,,,,,,,,,,,,,,,,,,,,,,,,,,,,,,,,,,,,,,,,,,,,,,,
,,,,,505333,001,2024-07-12_16h27.05.858,experiment,2024.1.5,Win32,238.0952381,653ee1d628ced1573a58023d,6691931c2c63981b064e1f0c,6691bb5c36bed8eb2b8fdbe2,,,,,,,,,,,,,,,,,,,,,,,,,,,,,,,,,,,,,,,,,,,,,,,,,,,,,,,,,,,,248.6997,256.2654,0.263446762,0.343029638,1,0,0,1.5626,compass,0,5,5,34,1,SoundStimuli/Irreplaceable_Beyonce_Original5S.wav,,,,,,,,,,,,,,,,,,,,,,,,,,,,,,,,,,,,,,,,,,,,,,,,,,,,
,,,,,505333,001,2024-07-12_16h27.05.858,experiment,2024.1.5,Win32,238.0952381,653ee1d628ced1573a58023d,6691931c2c63981b064e1f0c,6691bb5c36bed8eb2b8fdbe2,,,,,,,,,,,,,,,,,,,,,,,,,,,,,,,,,,,,,,,,,,,,,,,,,,,,,,,,,,,,256.2657,262.6699,0.347969265,-0.345225027,1,0,0,0.4002,compass,0,6,6,13,1,SoundStimuli/Perfect_EdSheeran_Original5S.wav,,,,,,,,,,,,,,,,,,,,,,,,,,,,,,,,,,,,,,,,,,,,,,,,,,,,
,,,,,505333,001,2024-07-12_16h27.05.858,experiment,2024.1.5,Win32,238.0952381,653ee1d628ced1573a58023d,6691931c2c63981b064e1f0c,6691bb5c36bed8eb2b8fdbe2,,,,,,,,,,,,,,,,,,,,,,,,,,,,,,,,,,,,,,,,,,,,,,,,,,,,,,,,,,,,262.6746,269.1193,-0.309549945,0.244237102,1,0,0,0.4413,compass,0,7,7,5,1,SoundStimuli/JoyToTheWorld_ThreeDogNight_Cover5S.wav,,,,,,,,,,,,,,,,,,,,,,,,,,,,,,,,,,,,,,,,,,,,,,,,,,,,
,,,,,505333,001,2024-07-12_16h27.05.858,experiment,2024.1.5,Win32,238.0952381,653ee1d628ced1573a58023d,6691931c2c63981b064e1f0c,6691bb5c36bed8eb2b8fdbe2,,,,,,,,,,,,,,,,,,,,,,,,,,,,,,,,,,,,,,,,,,,,,,,,,,,,,,,,,,,,269.1243,276.5151,0.34687157,-0.351811196,1,0,0,0.521,compass,0,8,8,32,1,SoundStimuli/Dilemma_NellyKellyRowland_Original5S.wav,,,,,,,,,,,,,,,,,,,,,,,,,,,,,,,,,,,,,,,,,,,,,,,,,,,,
,,,,,505333,001,2024-07-12_16h27.05.858,experiment,2024.1.5,Win32,238.0952381,653ee1d628ced1573a58023d,6691931c2c63981b064e1f0c,6691bb5c36bed8eb2b8fdbe2,,,,,,,,,,,,,,,,,,,,,,,,,,,,,,,,,,,,,,,,,,,,,,,,,,,,,,,,,,,,276.5202,284.2228,-0.20417124,-0.339736553,1,0,0,1.6995,compass,0,9,9,23,1,SoundStimuli/IWalkTheLine_JohnnyCash_Cover5S.wav,,,,,,,,,,,,,,,,,,,,,,,,,,,,,,,,,,,,,,,,,,,,,,,,,,,,
,,,,,505333,001,2024-07-12_16h27.05.858,experiment,2024.1.5,Win32,238.0952381,653ee1d628ced1573a58023d,6691931c2c63981b064e1f0c,6691bb5c36bed8eb2b8fdbe2,,,,,,,,,,,,,,,,,,,,,,,,,,,,,,,,,,,,,,,,,,,,,,,,,,,,,,,,,,,,284.228,297.3232,-0.004390779,0.118002195,1,0,0,7.0909,compass,0,10,10,25,1,SoundStimuli/IllMakeLoveToYou_BoyzIIMen_Original5S.wav,,,,,,,,,,,,,,,,,,,,,,,,,,,,,,,,,,,,,,,,,,,,,,,,,,,,
,,,,,505333,001,2024-07-12_16h27.05.858,experiment,2024.1.5,Win32,238.0952381,653ee1d628ced1573a58023d,6691931c2c63981b064e1f0c,6691bb5c36bed8eb2b8fdbe2,,,,,,,,,,,,,,,,,,,,,,,,,,,,,,,,,,,,,,,,,,,,,,,,,,,,,,,,,,,,297.3279,314.598,-0.049396268,-0.267288694,1,0,0,11.2665,compass,0,11,11,30,1,SoundStimuli/SomebodyThatIUsedtoKnow_Gotye_Cover5S.wav,,,,,,,,,,,,,,,,,,,,,,,,,,,,,,,,,,,,,,,,,,,,,,,,,,,,
,,,,,505333,001,2024-07-12_16h27.05.858,experiment,2024.1.5,Win32,238.0952381,653ee1d628ced1573a58023d,6691931c2c63981b064e1f0c,6691bb5c36bed8eb2b8fdbe2,,,,,,,,,,,,,,,,,,,,,,,,,,,,,,,,,,,,,,,,,,,,,,,,,,,,,,,,,,,,314.6027,327.5353,-0.79143798,0.216794731,1,0,0,1.5751,compass,0,12,12,2,1,SoundStimuli/SmellsLikeTeenSpirit_Nirvana_Cover5S.wav,,,,,,,,,,,,,,,,,,,,,,,,,,,,,,,,,,,,,,,,,,,,,,,,,,,,
,,,,,505333,001,2024-07-12_16h27.05.858,experiment,2024.1.5,Win32,238.0952381,653ee1d628ced1573a58023d,6691931c2c63981b064e1f0c,6691bb5c36bed8eb2b8fdbe2,,,,,,,,,,,,,,,,,,,,,,,,,,,,,,,,,,,,,,,,,,,,,,,,,,,,,,,,,,,,327.5401,336.0726,0.150384193,0.111416026,1,0,0,2.5288,compass,0,13,13,10,1,SoundStimuli/LeFreak_Chic_Original5S.wav,,,,,,,,,,,,,,,,,,,,,,,,,,,,,,,,,,,,,,,,,,,,,,,,,,,,
,,,,,505333,001,2024-07-12_16h27.05.858,experiment,2024.1.5,Win32,238.0952381,653ee1d628ced1573a58023d,6691931c2c63981b064e1f0c,6691bb5c36bed8eb2b8fdbe2,,,,,,,,,,,,,,,,,,,,,,,,,,,,,,,,,,,,,,,,,,,,,,,,,,,,,,,,,,,,336.0774,345.2644,-0.077936334,-0.351811196,1,0,0,2.5412,compass,0,14,14,14,1,SoundStimuli/LikeARollingStone_BobDylan_Cover5S.wav,,,,,,,,,,,,,,,,,,,,,,,,,,,,,,,,,,,,,,,,,,,,,,,,,,,,
,,,,,505333,001,2024-07-12_16h27.05.858,experiment,2024.1.5,Win32,238.0952381,653ee1d628ced1573a58023d,6691931c2c63981b064e1f0c,6691bb5c36bed8eb2b8fdbe2,,,,,,,,,,,,,,,,,,,,,,,,,,,,,,,,,,,,,,,,,,,,,,,,,,,,,,,,,,,,345.2695,354.4229,0.120746432,0.055433589,1,0,0,3.15,compass,0,15,15,18,1,SoundStimuli/Weak_SWV_Original5S.wav,,,,,,,,,,,,,,,,,,,,,,,,,,,,,,,,,,,,,,,,,,,,,,,,,,,,
,,,,,505333,001,2024-07-12_16h27.05.858,experiment,2024.1.5,Win32,238.0952381,653ee1d628ced1573a58023d,6691931c2c63981b064e1f0c,6691bb5c36bed8eb2b8fdbe2,,,,,,,,,,,,,,,,,,,,,,,,,,,,,,,,,,,,,,,,,,,,,,,,,,,,,,,,,,,,354.4277,362.3099,-0.126234907,0.088364435,1,0,0,1.8791,compass,0,16,16,33,1,SoundStimuli/TheBoyIsMine_BrandyMonica_Cover5S.wav,,,,,,,,,,,,,,,,,,,,,,,,,,,,,,,,,,,,,,,,,,,,,,,,,,,,
,,,,,505333,001,2024-07-12_16h27.05.858,experiment,2024.1.5,Win32,238.0952381,653ee1d628ced1573a58023d,6691931c2c63981b064e1f0c,6691bb5c36bed8eb2b8fdbe2,,,,,,,,,,,,,,,,,,,,,,,,,,,,,,,,,,,,,,,,,,,,,,,,,,,,,,,,,,,,362.3151,370.1977,0.181119649,0.347420417,1,0,0,1.8793,compass,0,17,17,3,1,SoundStimuli/PartyRockAnthem_LMFAO_Cover5S.wav,,,,,,,,,,,,,,,,,,,,,,,,,,,,,,,,,,,,,,,,,,,,,,,,,,,,
,,,,,505333,001,2024-07-12_16h27.05.858,experiment,2024.1.5,Win32,238.0952381,653ee1d628ced1573a58023d,6691931c2c63981b064e1f0c,6691bb5c36bed8eb2b8fdbe2,,,,,,,,,,,,,,,,,,,,,,,,,,,,,,,,,,,,,,,,,,,,,,,,,,,,,,,,,,,,370.2023,377.0806,0.133918771,0.22557629,1,0,0,0.875,compass,0,18,18,11,1,SoundStimuli/BlurredLines_RobinThicke_Original5S.wav,,,,,,,,,,,,,,,,,,,,,,,,,,,,,,,,,,,,,,,,,,,,,,,,,,,,
,,,,,505333,001,2024-07-12_16h27.05.858,experiment,2024.1.5,Win32,238.0952381,653ee1d628ced1573a58023d,6691931c2c63981b064e1f0c,6691bb5c36bed8eb2b8fdbe2,,,,,,,,,,,,,,,,,,,,,,,,,,,,,,,,,,,,,,,,,,,,,,,,,,,,,,,,,,,,377.0852,386.143,-0.184412733,-0.349615807,1,0,0,3.054,compass,0,19,19,9,1,SoundStimuli/HowDoILive_LeAnnRimes_Original5S.wav,,,,,,,,,,,,,,,,,,,,,,,,,,,,,,,,,,,,,,,,,,,,,,,,,,,,
,,,,,505333,001,2024-07-12_16h27.05.858,experiment,2024.1.5,Win32,238.0952381,653ee1d628ced1573a58023d,6691931c2c63981b064e1f0c,6691bb5c36bed8eb2b8fdbe2,,,,,,,,,,,,,,,,,,,,,,,,,,,,,,,,,,,,,,,,,,,,,,,,,,,,,,,,,,,,386.1476,392.9721,-0.132821076,-0.116904501,1,0,0,0.8207,compass,0,20,20,24,1,SoundStimuli/Kiss_Prince_Original5S.wav,,,,,,,,,,,,,,,,,,,,,,,,,,,,,,,,,,,,,,,,,,,,,,,,,,,,
,,,,,505333,001,2024-07-12_16h27.05.858,experiment,2024.1.5,Win32,238.0952381,653ee1d628ced1573a58023d,6691931c2c63981b064e1f0c,6691bb5c36bed8eb2b8fdbe2,,,,,,,,,,,,,,,,,,,,,,,,,,,,,,,,,,,,,,,,,,,,,,,,,,,,,,,,,,,,392.9767,399.7887,-0.350164654,-0.350713502,1,0,0,0.3249,compass,0,21,21,17,1,SoundStimuli/IWannaDanceWithSomebody_WhitneyHouston_Cover5S.wav,,,,,,,,,,,,,,,,,,,,,,,,,,,,,,,,,,,,,,,,,,,,,,,,,,,,
,,,,,505333,001,2024-07-12_16h27.05.858,experiment,2024.1.5,Win32,238.0952381,653ee1d628ced1573a58023d,6691931c2c63981b064e1f0c,6691bb5c36bed8eb2b8fdbe2,,,,,,,,,,,,,,,,,,,,,,,,,,,,,,,,,,,,,,,,,,,,,,,,,,,,,,,,,,,,399.7932,410.2096,0.349066959,-0.269484083,1,0,0,4.4127,compass,0,22,22,19,1,SoundStimuli/YouLightUpMyLife_DebbyBoone_Cover5S.wav,,,,,,,,,,,,,,,,,,,,,,,,,,,,,,,,,,,,,,,,,,,,,,,,,,,,
,,,,,505333,001,2024-07-12_16h27.05.858,experiment,2024.1.5,Win32,238.0952381,653ee1d628ced1573a58023d,6691931c2c63981b064e1f0c,6691bb5c36bed8eb2b8fdbe2,,,,,,,,,,,,,,,,,,,,,,,,,,,,,,,,,,,,,,,,,,,,,,,,,,,,,,,,,,,,410.2144,419.2279,0.256860593,-0.269484083,1,0,0,3.01,compass,0,23,23,8,1,SoundStimuli/EndlessLove_DianaRossLionelRichie_Original5S.wav,,,,,,,,,,,,,,,,,,,,,,,,,,,,,,,,,,,,,,,,,,,,,,,,,,,,
,,,,,505333,001,2024-07-12_16h27.05.858,experiment,2024.1.5,Win32,238.0952381,653ee1d628ced1573a58023d,6691931c2c63981b064e1f0c,6691bb5c36bed8eb2b8fdbe2,,,,,,,,,,,,,,,,,,,,,,,,,,,,,,,,,,,,,,,,,,,,,,,,,,,,,,,,,,,,419.2331,425.7052,0.234906696,0.237650933,1,0,0,0.4711,compass,0,24,24,20,1,SoundStimuli/FlashdanceWhatAFeeling_IreneCara_Cover5S.wav,,,,,,,,,,,,,,,,,,,,,,,,,,,,,,,,,,,,,,,,,,,,,,,,,,,,
,,,,,505333,001,2024-07-12_16h27.05.858,experiment,2024.1.5,Win32,238.0952381,653ee1d628ced1573a58023d,6691931c2c63981b064e1f0c,6691bb5c36bed8eb2b8fdbe2,,,,,,,,,,,,,,,,,,,,,,,,,,,,,,,,,,,,,,,,,,,,,,,,,,,,,,,,,,,,425.7097,435.0137,0.350164654,-0.341931943,1,0,0,1.6834,compass,0,25,25,16,1,SoundStimuli/ItsAllInTheGame_TommyEdwards_Original5S.wav,,,,,,,,,,,,,,,,,,,,,,,,,,,,,,,,,,,,,,,,,,,,,,,,,,,,
,,,,,505333,001,2024-07-12_16h27.05.858,experiment,2024.1.5,Win32,238.0952381,653ee1d628ced1573a58023d,6691931c2c63981b064e1f0c,6691bb5c36bed8eb2b8fdbe2,,,,,,,,,,,,,,,,,,,,,,,,,,,,,,,,,,,,,,,,,,,,,,,,,,,,,,,,,,,,435.0185,443.6632,0.086717892,-0.347420417,1,0,0,2.6416,compass,0,26,26,29,1,SoundStimuli/BetteDavisEyes_KimCarnes_Cover5S.wav,,,,,,,,,,,,,,,,,,,,,,,,,,,,,,,,,,,,,,,,,,,,,,,,,,,,
,,,,,505333,001,2024-07-12_16h27.05.858,experiment,2024.1.5,Win32,238.0952381,653ee1d628ced1573a58023d,6691931c2c63981b064e1f0c,6691bb5c36bed8eb2b8fdbe2,,,,,,,,,,,,,,,,,,,,,,,,,,,,,,,,,,,,,,,,,,,,,,,,,,,,,,,,,,,,443.6681,451.6966,-0.124039517,0.059824369,1,0,0,2.0248,compass,0,27,27,1,1,SoundStimuli/Smooth_SantanaRobThomas_Cover5S.wav,,,,,,,,,,,,,,,,,,,,,,,,,,,,,,,,,,,,,,,,,,,,,,,,,,,,
,,,,,505333,001,2024-07-12_16h27.05.858,experiment,2024.1.5,Win32,238.0952381,653ee1d628ced1573a58023d,6691931c2c63981b064e1f0c,6691bb5c36bed8eb2b8fdbe2,,,,,,,,,,,,,,,,,,,,,,,,,,,,,,,,,,,,,,,,,,,,,,,,,,,,,,,,,,,,451.7015,460.9381,0.309549945,-0.163007684,1,0,0,3.2333,compass,0,28,28,21,1,SoundStimuli/BridgeOverTroubledWater_SimonAndGarfunkel_Cover5S.wav,,,,,,,,,,,,,,,,,,,,,,,,,,,,,,,,,,,,,,,,,,,,,,,,,,,,
,,,,,505333,001,2024-07-12_16h27.05.858,experiment,2024.1.5,Win32,238.0952381,653ee1d628ced1573a58023d,6691931c2c63981b064e1f0c,6691bb5c36bed8eb2b8fdbe2,,,,,,,,,,,,,,,,,,,,,,,,,,,,,,,,,,,,,,,,,,,,,,,,,,,,,,,,,,,,460.9429,468.688,0.220636663,0.229967069,1,0,0,1.7417,compass,0,29,29,4,1,SoundStimuli/Dreams_FleetwoodMac_Cover5S.wav,,,,,,,,,,,,,,,,,,,,,,,,,,,,,,,,,,,,,,,,,,,,,,,,,,,,
,,,,,505333,001,2024-07-12_16h27.05.858,experiment,2024.1.5,Win32,238.0952381,653ee1d628ced1573a58023d,6691931c2c63981b064e1f0c,6691bb5c36bed8eb2b8fdbe2,,,,,,,,,,,,,,,,,,,,,,,,,,,,,,,,,,,,,,,,,,,,,,,,,,,,,,,,,,,,468.6929,474.9337,0.197585071,0.205817783,1,0,0,0.2376,compass,0,30,30,27,1,SoundStimuli/EyeOfTheTiger_Survivor_Original5S.wav,,,,,,,,,,,,,,,,,,,,,,,,,,,,,,,,,,,,,,,,,,,,,,,,,,,,
,,,,,505333,001,2024-07-12_16h27.05.858,experiment,2024.1.5,Win32,238.0952381,653ee1d628ced1573a58023d,6691931c2c63981b064e1f0c,6691bb5c36bed8eb2b8fdbe2,,,,,,,,,,,,,,,,,,,,,,,,,,,,,,,,,,,,,,,,,,,,,,,,,,,,,,,,,,,,474.9383,482.1878,-0.211855104,0.059824369,1,0,0,1.2455,compass,0,31,31,31,1,SoundStimuli/TossinAndTurnin_BobbyLewis_Cover5S.wav,,,,,,,,,,,,,,,,,,,,,,,,,,,,,,,,,,,,,,,,,,,,,,,,,,,,
,,,,,505333,001,2024-07-12_16h27.05.858,experiment,2024.1.5,Win32,238.0952381,653ee1d628ced1573a58023d,6691931c2c63981b064e1f0c,6691bb5c36bed8eb2b8fdbe2,,,,,,,,,,,,,,,,,,,,,,,,,,,,,,,,,,,,,,,,,,,,,,,,,,,,,,,,,,,,482.1925,490.5378,0.349066959,-0.346322722,1,0,0,2.3417,compass,0,32,32,28,1,SoundStimuli/IWantToHoldYourHand_TheBeatles_Cover5S.wav,,,,,,,,,,,,,,,,,,,,,,,,,,,,,,,,,,,,,,,,,,,,,,,,,,,,
,,,,,505333,001,2024-07-12_16h27.05.858,experiment,2024.1.5,Win32,238.0952381,653ee1d628ced1573a58023d,6691931c2c63981b064e1f0c,6691bb5c36bed8eb2b8fdbe2,,,,,,,,,,,,,,,,,,,,,,,,,,,,,,,,,,,,,,,,,,,,,,,,,,,,,,,,,,,,490.5427,498.1461,0.064763996,0.147639956,1,0,0,1.5996,compass,0,33,33,12,1,SoundStimuli/UnbreakMyHeart_ToniBraxton_Cover5S.wav,,,,,,,,,,,,,,,,,,,,,,,,,,,,,,,,,,,,,,,,,,,,,,,,,,,,
,,,,,505333,001,2024-07-12_16h27.05.858,experiment,2024.1.5,Win32,238.0952381,653ee1d628ced1573a58023d,6691931c2c63981b064e1f0c,6691bb5c36bed8eb2b8fdbe2,,,,,,,,,,,,,,,,,,,,,,,,,,,,,,,,,,,,,,,,,,,,,,,,,,,,,,,,,,,,498.151,506.4543,0,-0.097145993,1,0,0,2.3,compass,0,34,34,7,1,SoundStimuli/MackTheKnife_BobbyDarin_Original5S.wav,,,,,,,,,,,,,,,,,,,,,,,,,,,,,,,,,,,,,,,,,,,,,,,,,,,,
,,,,,505333,001,2024-07-12_16h27.05.858,experiment,2024.1.5,Win32,238.0952381,653ee1d628ced1573a58023d,6691931c2c63981b064e1f0c,6691bb5c36bed8eb2b8fdbe2,,,,,,,,,,,,,,,,,,,,,,,,,,,,,,,,,,,,,,,,,,,,,,,,,,,,,,,,,,,,,,,,,,,,,,,,,,,506.4594,598.3251,space,91.8554,,598.3251,607.3993,right,9.0697,,0,0,0,0,1,block_order/blockB.xlsx,,,,,,,,,,,,,,,,,,,,,,,,,,,,,,,,,,,,
,,,,,505333,001,2024-07-12_16h27.05.858,experiment,2024.1.5,Win32,238.0952381,653ee1d628ced1573a58023d,6691931c2c63981b064e1f0c,6691bb5c36bed8eb2b8fdbe2,,,,,,,,,,,,,,,,,,,,,,,,,,,,,,,,,,,,,,,,,,,,,,,,,,,,,,,,,,,,607.4086,615.1115,0.321624588,0.165203074,1,0,0,1.7,compass,0,0,0,20,1,SoundStimuli/HeyYa_Outkast_Original5S.wav,,,,,,,,,,,,,,,,,,,,,,,,,,,,,,,,,,,,,,,,,,,,,,,,,,,,
,,,,,505333,001,2024-07-12_16h27.05.858,experiment,2024.1.5,Win32,238.0952381,653ee1d628ced1573a58023d,6691931c2c63981b064e1f0c,6691bb5c36bed8eb2b8fdbe2,,,,,,,,,,,,,,,,,,,,,,,,,,,,,,,,,,,,,,,,,,,,,,,,,,,,,,,,,,,,615.1164,623.4448,0.059275521,0.003841932,1,0,0,2.3251,compass,0,1,1,1,1,SoundStimuli/Stronger_KanyeWest_Cover5S.wav,,,,,,,,,,,,,,,,,,,,,,,,,,,,,,,,,,,,,,,,,,,,,,,,,,,,
,,,,,505333,001,2024-07-12_16h27.05.858,experiment,2024.1.5,Win32,238.0952381,653ee1d628ced1573a58023d,6691931c2c63981b064e1f0c,6691bb5c36bed8eb2b8fdbe2,,,,,,,,,,,,,,,,,,,,,,,,,,,,,,,,,,,,,,,,,,,,,,,,,,,,,,,,,,,,623.4497,630.5447,-0.351262349,0.253018661,1,0,0,0.2209,compass,0,2,2,25,1,SoundStimuli/Respect_ArethaFranklin_Cover5S.wav,,,,,,,,,,,,,,,,,,,,,,,,,,,,,,,,,,,,,,,,,,,,,,,,,,,,
,,,,,505333,001,2024-07-12_16h27.05.858,experiment,2024.1.5,Win32,238.0952381,653ee1d628ced1573a58023d,6691931c2c63981b064e1f0c,6691bb5c36bed8eb2b8fdbe2,,,,,,,,,,,,,,,,,,,,,,,,,,,,,,,,,,,,,,,,,,,,,,,,,,,,,,,,,,,,630.5497,637.4905,0.020856202,-0.149835346,1,0,0,0.9375,compass,0,3,3,10,1,SoundStimuli/BadDay_DanielPowter_Original5S.wav,,,,,,,,,,,,,,,,,,,,,,,,,,,,,,,,,,,,,,,,,,,,,,,,,,,,
,,,,,505333,001,2024-07-12_16h27.05.858,experiment,2024.1.5,Win32,238.0952381,653ee1d628ced1573a58023d,6691931c2c63981b064e1f0c,6691bb5c36bed8eb2b8fdbe2,,,,,,,,,,,,,,,,,,,,,,,,,,,,,,,,,,,,,,,,,,,,,,,,,,,,,,,,,,,,637.495,644.2738,0.162458836,-0.274972558,1,0,0,0.775,compass,0,4,4,5,1,SoundStimuli/MyGirl_TheTemptations_Cover5S.wav,,,,,,,,,,,,,,,,,,,,,,,,,,,,,,,,,,,,,,,,,,,,,,,,,,,,
,,,,,505333,001,2024-07-12_16h27.05.858,experiment,2024.1.5,Win32,238.0952381,653ee1d628ced1573a58023d,6691931c2c63981b064e1f0c,6691bb5c36bed8eb2b8fdbe2,,,,,,,,,,,,,,,,,,,,,,,,,,,,,,,,,,,,,,,,,,,,,,,,,,,,,,,,,,,,644.2787,650.7737,0.222832053,-0.29582876,1,0,0,0.4906,compass,0,5,5,18,1,SoundStimuli/AnotherOneBitesTheDust_Queen_Cover5S.wav,,,,,,,,,,,,,,,,,,,,,,,,,,,,,,,,,,,,,,,,,,,,,,,,,,,,
,,,,,505333,001,2024-07-12_16h27.05.858,experiment,2024.1.5,Win32,238.0952381,653ee1d628ced1573a58023d,6691931c2c63981b064e1f0c,6691bb5c36bed8eb2b8fdbe2,,,,,,,,,,,,,,,,,,,,,,,,,,,,,,,,,,,,,,,,,,,,,,,,,,,,,,,,,,,,650.7784,659.7235,0.190998902,0.067508233,1,0,0,2.941,compass,0,6,6,29,1,SoundStimuli/OldTownRoad_LilNasX_Cover5S.wav,,,,,,,,,,,,,,,,,,,,,,,,,,,,,,,,,,,,,,,,,,,,,,,,,,,,
,,,,,505333,001,2024-07-12_16h27.05.858,experiment,2024.1.5,Win32,238.0952381,653ee1d628ced1573a58023d,6691931c2c63981b064e1f0c,6691bb5c36bed8eb2b8fdbe2,,,,,,,,,,,,,,,,,,,,,,,,,,,,,,,,,,,,,,,,,,,,,,,,,,,,,,,,,,,,659.7285,668.0652,0.34248079,0.347420417,1,0,0,2.3331,compass,0,7,7,2,1,SoundStimuli/Mood_24kGoldnianndior_Original5S.wav,,,,,,,,,,,,,,,,,,,,,,,,,,,,,,,,,,,,,,,,,,,,,,,,,,,,
,,,,,505333,001,2024-07-12_16h27.05.858,experiment,2024.1.5,Win32,238.0952381,653ee1d628ced1573a58023d,6691931c2c63981b064e1f0c,6691bb5c36bed8eb2b8fdbe2,,,,,,,,,,,,,,,,,,,,,,,,,,,,,,,,,,,,,,,,,,,,,,,,,,,,,,,,,,,,668.0704,676.14,0.350164654,0.190450055,1,0,0,1.4869,compass,0,8,8,24,1,SoundStimuli/UptownFunk_MarkRonson_Cover5S.wav,,,,,,,,,,,,,,,,,,,,,,,,,,,,,,,,,,,,,,,,,,,,,,,,,,,,
,,,,,505333,001,2024-07-12_16h27.05.858,experiment,2024.1.5,Win32,238.0952381,653ee1d628ced1573a58023d,6691931c2c63981b064e1f0c,6691bb5c36bed8eb2b8fdbe2,,,,,,,,,,,,,,,,,,,,,,,,,,,,,,,,,,,,,,,,,,,,,,,,,,,,,,,,,,,,676.1446,683.2524,-0.032930845,-0.193743139,1,0,0,1.1039,compass,0,9,9,12,1,SoundStimuli/IWillAlwaysLoveYou_WhitneyHouston_Original5S.wav,,,,,,,,,,,,,,,,,,,,,,,,,,,,,,,,,,,,,,,,,,,,,,,,,,,,
,,,,,505333,001,2024-07-12_16h27.05.858,experiment,2024.1.5,Win32,238.0952381,653ee1d628ced1573a58023d,6691931c2c63981b064e1f0c,6691bb5c36bed8eb2b8fdbe2,,,,,,,,,,,,,,,,,,,,,,,,,,,,,,,,,,,,,,,,,,,,,,,,,,,,,,,,,,,,683.2571,689.6945,-0.273326015,0.202524698,1,0,0,0.4334,compass,0,10,10,23,1,SoundStimuli/StrawberryFieldsForever_TheBeatles_Cover5S.wav,,,,,,,,,,,,,,,,,,,,,,,,,,,,,,,,,,,,,,,,,,,,,,,,,,,,
,,,,,505333,001,2024-07-12_16h27.05.858,experiment,2024.1.5,Win32,238.0952381,653ee1d628ced1573a58023d,6691931c2c63981b064e1f0c,6691bb5c36bed8eb2b8fdbe2,,,,,,,,,,,,,,,,,,,,,,,,,,,,,,,,,,,,,,,,,,,,,,,,,,,,,,,,,,,,689.6997,695.7649,0.343578485,0.339736553,1,0,0,0.0626,compass,0,11,11,6,1,SoundStimuli/Levitating_DuaLipa_Original5S.wav,,,,,,,,,,,,,,,,,,,,,,,,,,,,,,,,,,,,,,,,,,,,,,,,,,,,
,,,,,505333,001,2024-07-12_16h27.05.858,experiment,2024.1.5,Win32,238.0952381,653ee1d628ced1573a58023d,6691931c2c63981b064e1f0c,6691bb5c36bed8eb2b8fdbe2,,,,,,,,,,,,,,,,,,,,,,,,,,,,,,,,,,,,,,,,,,,,,,,,,,,,,,,,,,,,695.7651,706.9814,-0.296377607,0.165203074,1,0,0,5.2124,compass,0,12,12,4,1,SoundStimuli/GetUrFreakOn_MissyElliot_Cover5S.wav,,,,,,,,,,,,,,,,,,,,,,,,,,,,,,,,,,,,,,,,,,,,,,,,,,,,
,,,,,505333,001,2024-07-12_16h27.05.858,experiment,2024.1.5,Win32,238.0952381,653ee1d628ced1573a58023d,6691931c2c63981b064e1f0c,6691bb5c36bed8eb2b8fdbe2,,,,,,,,,,,,,,,,,,,,,,,,,,,,,,,,,,,,,,,,,,,,,,,,,,,,,,,,,,,,706.9867,713.1229,0.34248079,0.341931943,1,0,0,0.1334,compass,0,13,13,15,1,SoundStimuli/TikTok_Kesha_Original5S.wav,,,,,,,,,,,,,,,,,,,,,,,,,,,,,,,,,,,,,,,,,,,,,,,,,,,,
,,,,,505333,001,2024-07-12_16h27.05.858,experiment,2024.1.5,Win32,238.0952381,653ee1d628ced1573a58023d,6691931c2c63981b064e1f0c,6691bb5c36bed8eb2b8fdbe2,,,,,,,,,,,,,,,,,,,,,,,,,,,,,,,,,,,,,,,,,,,,,,,,,,,,,,,,,,,,713.1274,720.7353,0.107574094,-0.346322722,1,0,0,1.6039,compass,0,14,14,34,1,SoundStimuli/AChangeIsGonnaCome_SamCooke_Original5S.wav,,,,,,,,,,,,,,,,,,,,,,,,,,,,,,,,,,,,,,,,,,,,,,,,,,,,
,,,,,505333,001,2024-07-12_16h27.05.858,experiment,2024.1.5,Win32,238.0952381,653ee1d628ced1573a58023d,6691931c2c63981b064e1f0c,6691bb5c36bed8eb2b8fdbe2,,,,,,,,,,,,,,,,,,,,,,,,,,,,,,,,,,,,,,,,,,,,,,,,,,,,,,,,,,,,720.7399,729.6978,-0.142700329,-0.202524698,1,0,0,2.9541,compass,0,15,15,30,1,SoundStimuli/PokerFace_LadyGaga_Cover5S.wav,,,,,,,,,,,,,,,,,,,,,,,,,,,,,,,,,,,,,,,,,,,,,,,,,,,,
,,,,,505333,001,2024-07-12_16h27.05.858,experiment,2024.1.5,Win32,238.0952381,653ee1d628ced1573a58023d,6691931c2c63981b064e1f0c,6691bb5c36bed8eb2b8fdbe2,,,,,,,,,,,,,,,,,,,,,,,,,,,,,,,,,,,,,,,,,,,,,,,,,,,,,,,,,,,,729.7037,738.4935,-0.166849616,0.310098793,1,0,0,2.7871,compass,0,16,16,16,1,SoundStimuli/BohemianRhapsody_Queen_Cover5S.wav,,,,,,,,,,,,,,,,,,,,,,,,,,,,,,,,,,,,,,,,,,,,,,,,,,,,
,,,,,505333,001,2024-07-12_16h27.05.858,experiment,2024.1.5,Win32,238.0952381,653ee1d628ced1573a58023d,6691931c2c63981b064e1f0c,6691bb5c36bed8eb2b8fdbe2,,,,,,,,,,,,,,,,,,,,,,,,,,,,,,,,,,,,,,,,,,,,,,,,,,,,,,,,,,,,738.4988,747.3184,0.132821076,0.347420417,1,0,0,2.8164,compass,0,17,17,9,1,SoundStimuli/Despacito_LuisFonsiDaddyYankee_Original5S.wav,,,,,,,,,,,,,,,,,,,,,,,,,,,,,,,,,,,,,,,,,,,,,,,,,,,,
,,,,,505333,001,2024-07-12_16h27.05.858,experiment,2024.1.5,Win32,238.0952381,653ee1d628ced1573a58023d,6691931c2c63981b064e1f0c,6691bb5c36bed8eb2b8fdbe2,,,,,,,,,,,,,,,,,,,,,,,,,,,,,,,,,,,,,,,,,,,,,,,,,,,,,,,,,,,,747.3237,756.5187,-0.06805708,-0.266190999,1,0,0,3.1921,compass,0,18,18,0,1,SoundStimuli/StayinAlive_BeeGees_Cover5S.wav,,,,,,,,,,,,,,,,,,,,,,,,,,,,,,,,,,,,,,,,,,,,,,,,,,,,
,,,,,505333,001,2024-07-12_16h27.05.858,experiment,2024.1.5,Win32,238.0952381,653ee1d628ced1573a58023d,6691931c2c63981b064e1f0c,6691bb5c36bed8eb2b8fdbe2,,,,,,,,,,,,,,,,,,,,,,,,,,,,,,,,,,,,,,,,,,,,,,,,,,,,,,,,,,,,756.5237,763.5728,0.015367728,-0.143249177,1,0,0,1.046,compass,0,19,19,28,1,SoundStimuli/ComeAndGetYourLove_Redbone_Cover5S.wav,,,,,,,,,,,,,,,,,,,,,,,,,,,,,,,,,,,,,,,,,,,,,,,,,,,,
,,,,,505333,001,2024-07-12_16h27.05.858,experiment,2024.1.5,Win32,238.0952381,653ee1d628ced1573a58023d,6691931c2c63981b064e1f0c,6691bb5c36bed8eb2b8fdbe2,,,,,,,,,,,,,,,,,,,,,,,,,,,,,,,,,,,,,,,,,,,,,,,,,,,,,,,,,,,,763.5776,773.1139,0.091108672,-0.328759605,1,0,0,3.5332,compass,0,20,20,8,1,SoundStimuli/LikeAPrayer_Madonna_Cover5S.wav,,,,,,,,,,,,,,,,,,,,,,,,,,,,,,,,,,,,,,,,,,,,,,,,,,,,
,,,,,505333,001,2024-07-12_16h27.05.858,experiment,2024.1.5,Win32,238.0952381,653ee1d628ced1573a58023d,6691931c2c63981b064e1f0c,6691bb5c36bed8eb2b8fdbe2,,,,,,,,,,,,,,,,,,,,,,,,,,,,,,,,,,,,,,,,,,,,,,,,,,,,,,,,,,,,773.119,779.4805,-0.336992316,-0.336443469,1,0,0,0.3583,compass,0,21,21,13,1,SoundStimuli/GodOnlyKnows_TheBeachBoys_Original5S.wav,,,,,,,,,,,,,,,,,,,,,,,,,,,,,,,,,,,,,,,,,,,,,,,,,,,,
,,,,,505333,001,2024-07-12_16h27.05.858,experiment,2024.1.5,Win32,238.0952381,653ee1d628ced1573a58023d,6691931c2c63981b064e1f0c,6691bb5c36bed8eb2b8fdbe2,,,,,,,,,,,,,,,,,,,,,,,,,,,,,,,,,,,,,,,,,,,,,,,,,,,,,,,,,,,,779.485,788.2512,0.347969265,0.11909989,1,0,0,2.7621,compass,0,22,22,7,1,SoundStimuli/NoOne_AliciaKeys_Original5S.wav,,,,,,,,,,,,,,,,,,,,,,,,,,,,,,,,,,,,,,,,,,,,,,,,,,,,
,,,,,505333,001,2024-07-12_16h27.05.858,experiment,2024.1.5,Win32,238.0952381,653ee1d628ced1573a58023d,6691931c2c63981b064e1f0c,6691bb5c36bed8eb2b8fdbe2,,,,,,,,,,,,,,,,,,,,,,,,,,,,,,,,,,,,,,,,,,,,,,,,,,,,,,,,,,,,788.2563,796.7553,-0.200878156,0.003841932,1,0,0,2.4958,compass,0,23,23,17,1,SoundStimuli/Fallin_AliciaKeys_Cover5S.wav,,,,,,,,,,,,,,,,,,,,,,,,,,,,,,,,,,,,,,,,,,,,,,,,,,,,
,,,,,505333,001,2024-07-12_16h27.05.858,experiment,2024.1.5,Win32,238.0952381,653ee1d628ced1573a58023d,6691931c2c63981b064e1f0c,6691bb5c36bed8eb2b8fdbe2,,,,,,,,,,,,,,,,,,,,,,,,,,,,,,,,,,,,,,,,,,,,,,,,,,,,,,,,,,,,796.7601,804.6635,0.195389682,0.138858397,1,0,0,1.8996,compass,0,24,24,3,1,SoundStimuli/NoScrubs_TLC_Cover5S.wav,,,,,,,,,,,,,,,,,,,,,,,,,,,,,,,,,,,,,,,,,,,,,,,,,,,,
,,,,,505333,001,2024-07-12_16h27.05.858,experiment,2024.1.5,Win32,238.0952381,653ee1d628ced1573a58023d,6691931c2c63981b064e1f0c,6691bb5c36bed8eb2b8fdbe2,,,,,,,,,,,,,,,,,,,,,,,,,,,,,,,,,,,,,,,,,,,,,,,,,,,,,,,,,,,,804.6684,813.9551,-0.10208562,-0.065312843,1,0,0,3.2829,compass,0,25,25,19,1,SoundStimuli/LetsGetItOn_MarvinGaye_Original5S.wav,,,,,,,,,,,,,,,,,,,,,,,,,,,,,,,,,,,,,,,,,,,,,,,,,,,,
,,,,,505333,001,2024-07-12_16h27.05.858,experiment,2024.1.5,Win32,238.0952381,653ee1d628ced1573a58023d,6691931c2c63981b064e1f0c,6691bb5c36bed8eb2b8fdbe2,,,,,,,,,,,,,,,,,,,,,,,,,,,,,,,,,,,,,,,,,,,,,,,,,,,,,,,,,,,,813.9598,820.6592,0.057080132,-0.346322722,1,0,0,0.6955,compass,0,26,26,22,1,SoundStimuli/RockWithYou_MichaelJackson_Cover5S.wav,,,,,,,,,,,,,,,,,,,,,,,,,,,,,,,,,,,,,,,,,,,,,,,,,,,,
,,,,,505333,001,2024-07-12_16h27.05.858,experiment,2024.1.5,Win32,238.0952381,653ee1d628ced1573a58023d,6691931c2c63981b064e1f0c,6691bb5c36bed8eb2b8fdbe2,,,,,,,,,,,,,,,,,,,,,,,,,,,,,,,,,,,,,,,,,,,,,,,,,,,,,,,,,,,,820.6639,830.3133,0.054884742,0.350713502,1,0,0,2.6414,compass,0,27,27,31,1,SoundStimuli/TheBattleOfNewOrleans_JohnnyHorton_Original5S.wav,,,,,,,,,,,,,,,,,,,,,,,,,,,,,,,,,,,,,,,,,,,,,,,,,,,,
,,,,,505333,001,2024-07-12_16h27.05.858,experiment,2024.1.5,Win32,238.0952381,653ee1d628ced1573a58023d,6691931c2c63981b064e1f0c,6691bb5c36bed8eb2b8fdbe2,,,,,,,,,,,,,,,,,,,,,,,,,,,,,,,,,,,,,,,,,,,,,,,,,,,,,,,,,,,,830.3202,837.5549,0.042810099,0.194840834,1,0,0,1.2331,compass,0,28,28,14,1,SoundStimuli/BlindingLights_TheWeeknd_Cover5S.wav,,,,,,,,,,,,,,,,,,,,,,,,,,,,,,,,,,,,,,,,,,,,,,,,,,,,
,,,,,505333,001,2024-07-12_16h27.05.858,experiment,2024.1.5,Win32,238.0952381,653ee1d628ced1573a58023d,6691931c2c63981b064e1f0c,6691bb5c36bed8eb2b8fdbe2,,,,,,,,,,,,,,,,,,,,,,,,,,,,,,,,,,,,,,,,,,,,,,,,,,,,,,,,,,,,837.5595,847.4672,0.127332602,0.211306257,1,0,0,3.9039,compass,0,29,29,32,1,SoundStimuli/HeatWaves_GlassAnimals_Cover5S.wav,,,,,,,,,,,,,,,,,,,,,,,,,,,,,,,,,,,,,,,,,,,,,,,,,,,,
,,,,,505333,001,2024-07-12_16h27.05.858,experiment,2024.1.5,Win32,238.0952381,653ee1d628ced1573a58023d,6691931c2c63981b064e1f0c,6691bb5c36bed8eb2b8fdbe2,,,,,,,,,,,,,,,,,,,,,,,,,,,,,,,,,,,,,,,,,,,,,,,,,,,,,,,,,,,,847.4725,858.5713,0.192096597,-0.011525796,1,0,0,5.0957,compass,0,30,30,27,1,SoundStimuli/ShapeofYou_EdSheeran_Cover5S.wav,,,,,,,,,,,,,,,,,,,,,,,,,,,,,,,,,,,,,,,,,,,,,,,,,,,,
,,,,,505333,001,2024-07-12_16h27.05.858,experiment,2024.1.5,Win32,238.0952381,653ee1d628ced1573a58023d,6691931c2c63981b064e1f0c,6691bb5c36bed8eb2b8fdbe2,,,,,,,,,,,,,,,,,,,,,,,,,,,,,,,,,,,,,,,,,,,,,,,,,,,,,,,,,,,,858.5762,864.8336,-0.283205269,0.197036224,1,0,0,0.2537,compass,0,31,31,11,1,SoundStimuli/Superstition_StevieWonder_Original5S.wav,,,,,,,,,,,,,,,,,,,,,,,,,,,,,,,,,,,,,,,,,,,,,,,,,,,,
,,,,,505333,001,2024-07-12_16h27.05.858,experiment,2024.1.5,Win32,238.0952381,653ee1d628ced1573a58023d,6691931c2c63981b064e1f0c,6691bb5c36bed8eb2b8fdbe2,,,,,,,,,,,,,,,,,,,,,,,,,,,,,,,,,,,,,,,,,,,,,,,,,,,,,,,,,,,,864.8381,871.7712,0.118551043,0.205817783,1,0,0,0.9292,compass,0,32,32,21,1,SoundStimuli/GoodGollyMissMolly_LittleRichard_Original5S.wav,,,,,,,,,,,,,,,,,,,,,,,,,,,,,,,,,,,,,,,,,,,,,,,,,,,,
,,,,,505333,001,2024-07-12_16h27.05.858,experiment,2024.1.5,Win32,238.0952381,653ee1d628ced1573a58023d,6691931c2c63981b064e1f0c,6691bb5c36bed8eb2b8fdbe2,,,,,,,,,,,,,,,,,,,,,,,,,,,,,,,,,,,,,,,,,,,,,,,,,,,,,,,,,,,,871.7759,882.021,0.151481888,0.181668496,1,0,0,4.2412,compass,0,33,33,26,1,SoundStimuli/LivinOnAPrayer_BonJovi_Original5S.wav,,,,,,,,,,,,,,,,,,,,,,,,,,,,,,,,,,,,,,,,,,,,,,,,,,,,
,,,,,505333,001,2024-07-12_16h27.05.858,experiment,2024.1.5,Win32,238.0952381,653ee1d628ced1573a58023d,6691931c2c63981b064e1f0c,6691bb5c36bed8eb2b8fdbe2,,,,,,,,,,,,,,,,,,,,,,,,,,,,,,,,,,,,,,,,,,,,,,,,,,,,,,,,,,,,882.0262,888.4168,-0.209659715,-0.18715697,1,0,0,0.3875,compass,0,34,34,33,1,SoundStimuli/StandByMe_BenEKing_Original5S.wav,,,,,,,,,,,,,,,,,,,,,,,,,,,,,,,,,,,,,,,,,,,,,,,,,,,,
,,,,,505333,001,2024-07-12_16h27.05.858,experiment,2024.1.5,Win32,238.0952381,653ee1d628ced1573a58023d,6691931c2c63981b064e1f0c,6691bb5c36bed8eb2b8fdbe2,,,,,,,,,,,,,,,,,,,,,,,,,,,,,,,,,,,,,,,,,,,,,,,,,,,,,,,,,,,,,,,,,,,,,,,,,,,888.417,905.98,space,17.5617,,905.98,907.5416,right,1.5571,,0,1,1,1,1,block_order/blockC.xlsx,,,,,,,,,,,,,,,,,,,,,,,,,,,,,,,,,,,,
,,,,,505333,001,2024-07-12_16h27.05.858,experiment,2024.1.5,Win32,238.0952381,653ee1d628ced1573a58023d,6691931c2c63981b064e1f0c,6691bb5c36bed8eb2b8fdbe2,,,,,,,,,,,,,,,,,,,,,,,,,,,,,,,,,,,,,,,,,,,,,,,,,,,,,,,,,,,,907.5461,915.2748,-0.088913282,-0.192645445,1,0,0,1.7247,compass,0,0,0,32,1,SoundStimuli/Dilemma_NellyKellyRowland_Cover5S.wav,,,,,,,,,,,,,,,,,,,,,,,,,,,,,,,,,,,,,,,,,,,,,,,,,,,,
,,,,,505333,001,2024-07-12_16h27.05.858,experiment,2024.1.5,Win32,238.0952381,653ee1d628ced1573a58023d,6691931c2c63981b064e1f0c,6691bb5c36bed8eb2b8fdbe2,,,,,,,,,,,,,,,,,,,,,,,,,,,,,,,,,,,,,,,,,,,,,,,,,,,,,,,,,,,,915.2797,922.2081,0.295279912,-0.266190999,1,0,0,0.925,compass,0,1,1,13,1,SoundStimuli/Perfect_EdSheeran_Cover5S.wav,,,,,,,,,,,,,,,,,,,,,,,,,,,,,,,,,,,,,,,,,,,,,,,,,,,,
,,,,,505333,001,2024-07-12_16h27.05.858,experiment,2024.1.5,Win32,238.0952381,653ee1d628ced1573a58023d,6691931c2c63981b064e1f0c,6691bb5c36bed8eb2b8fdbe2,,,,,,,,,,,,,,,,,,,,,,,,,,,,,,,,,,,,,,,,,,,,,,,,,,,,,,,,,,,,922.2126,929.2306,0.062568606,-0.284851811,1,0,0,1.0125,compass,0,2,2,25,1,SoundStimuli/IllMakeLoveToYou_BoyzIIMen_Cover5S.wav,,,,,,,,,,,,,,,,,,,,,,,,,,,,,,,,,,,,,,,,,,,,,,,,,,,,
,,,,,505333,001,2024-07-12_16h27.05.858,experiment,2024.1.5,Win32,238.0952381,653ee1d628ced1573a58023d,6691931c2c63981b064e1f0c,6691bb5c36bed8eb2b8fdbe2,,,,,,,,,,,,,,,,,,,,,,,,,,,,,,,,,,,,,,,,,,,,,,,,,,,,,,,,,,,,929.2352,936.6871,0.025246981,0.08287596,1,0,0,1.4501,compass,0,3,3,28,1,SoundStimuli/IWantToHoldYourHand_TheBeatles_Original5S.wav,,,,,,,,,,,,,,,,,,,,,,,,,,,,,,,,,,,,,,,,,,,,,,,,,,,,
,,,,,505333,001,2024-07-12_16h27.05.858,experiment,2024.1.5,Win32,238.0952381,653ee1d628ced1573a58023d,6691931c2c63981b064e1f0c,6691bb5c36bed8eb2b8fdbe2,,,,,,,,,,,,,,,,,,,,,,,,,,,,,,,,,,,,,,,,,,,,,,,,,,,,,,,,,,,,936.6917,943.6912,0.097694841,-0.25521405,1,0,0,0.9958,compass,0,4,4,12,1,SoundStimuli/UnbreakMyHeart_ToniBraxton_Original5S.wav,,,,,,,,,,,,,,,,,,,,,,,,,,,,,,,,,,,,,,,,,,,,,,,,,,,,
,,,,,505333,001,2024-07-12_16h27.05.858,experiment,2024.1.5,Win32,238.0952381,653ee1d628ced1573a58023d,6691931c2c63981b064e1f0c,6691bb5c36bed8eb2b8fdbe2,,,,,,,,,,,,,,,,,,,,,,,,,,,,,,,,,,,,,,,,,,,,,,,,,,,,,,,,,,,,943.6966,950.6829,0.153677278,-0.345225027,1,0,0,0.9831,compass,0,5,5,21,1,SoundStimuli/BridgeOverTroubledWater_SimonAndGarfunkel_Original5S.wav,,,,,,,,,,,,,,,,,,,,,,,,,,,,,,,,,,,,,,,,,,,,,,,,,,,,
,,,,,505333,001,2024-07-12_16h27.05.858,experiment,2024.1.5,Win32,238.0952381,653ee1d628ced1573a58023d,6691931c2c63981b064e1f0c,6691bb5c36bed8eb2b8fdbe2,,,,,,,,,,,,,,,,,,,,,,,,,,,,,,,,,,,,,,,,,,,,,,,,,,,,,,,,,,,,950.6878,958.2202,0.127332602,0.150933041,1,0,0,1.5291,compass,0,6,6,15,1,SoundStimuli/CrazyInLove_BeyonceFtJayZ_Cover5S.wav,,,,,,,,,,,,,,,,,,,,,,,,,,,,,,,,,,,,,,,,,,,,,,,,,,,,
,,,,,505333,001,2024-07-12_16h27.05.858,experiment,2024.1.5,Win32,238.0952381,653ee1d628ced1573a58023d,6691931c2c63981b064e1f0c,6691bb5c36bed8eb2b8fdbe2,,,,,,,,,,,,,,,,,,,,,,,,,,,,,,,,,,,,,,,,,,,,,,,,,,,,,,,,,,,,958.2248,967.6451,-0.032930845,-0.348518112,1,0,0,3.4172,compass,0,7,7,16,1,SoundStimuli/ItsAllInTheGame_TommyEdwards_Cover5S.wav,,,,,,,,,,,,,,,,,,,,,,,,,,,,,,,,,,,,,,,,,,,,,,,,,,,,
,,,,,505333,001,2024-07-12_16h27.05.858,experiment,2024.1.5,Win32,238.0952381,653ee1d628ced1573a58023d,6691931c2c63981b064e1f0c,6691bb5c36bed8eb2b8fdbe2,,,,,,,,,,,,,,,,,,,,,,,,,,,,,,,,,,,,,,,,,,,,,,,,,,,,,,,,,,,,967.6505,974.7617,0.350164654,0.114709111,1,0,0,0.6921,compass,0,8,8,19,1,SoundStimuli/YouLightUpMyLife_DebbyBoone_Original5S.wav,,,,,,,,,,,,,,,,,,,,,,,,,,,,,,,,,,,,,,,,,,,,,,,,,,,,
,,,,,505333,001,2024-07-12_16h27.05.858,experiment,2024.1.5,Win32,238.0952381,653ee1d628ced1573a58023d,6691931c2c63981b064e1f0c,6691bb5c36bed8eb2b8fdbe2,,,,,,,,,,,,,,,,,,,,,,,,,,,,,,,,,,,,,,,,,,,,,,,,,,,,,,,,,,,,974.7664,985.0621,-0.084522503,0.272777168,1,0,0,4.2917,compass,0,9,9,31,1,SoundStimuli/TossinAndTurnin_BobbyLewis_Original5S.wav,,,,,,,,,,,,,,,,,,,,,,,,,,,,,,,,,,,,,,,,,,,,,,,,,,,,
,,,,,505333,001,2024-07-12_16h27.05.858,experiment,2024.1.5,Win32,238.0952381,653ee1d628ced1573a58023d,6691931c2c63981b064e1f0c,6691bb5c36bed8eb2b8fdbe2,,,,,,,,,,,,,,,,,,,,,,,,,,,,,,,,,,,,,,,,,,,,,,,,,,,,,,,,,,,,985.069,991.1824,0.340285401,0.341931943,1,0,0,0.1125,compass,0,10,10,22,1,SoundStimuli/Happy_PharellWilliams_Original5S.wav,,,,,,,,,,,,,,,,,,,,,,,,,,,,,,,,,,,,,,,,,,,,,,,,,,,,
,,,,,505333,001,2024-07-12_16h27.05.858,experiment,2024.1.5,Win32,238.0952381,653ee1d628ced1573a58023d,6691931c2c63981b064e1f0c,6691bb5c36bed8eb2b8fdbe2,,,,,,,,,,,,,,,,,,,,,,,,,,,,,,,,,,,,,,,,,,,,,,,,,,,,,,,,,,,,991.1875,998.7157,0.185510428,0.080680571,1,0,0,1.525,compass,0,11,11,34,1,SoundStimuli/Irreplaceable_Beyonce_Cover5S.wav,,,,,,,,,,,,,,,,,,,,,,,,,,,,,,,,,,,,,,,,,,,,,,,,,,,,
,,,,,505333,001,2024-07-12_16h27.05.858,experiment,2024.1.5,Win32,238.0952381,653ee1d628ced1573a58023d,6691931c2c63981b064e1f0c,6691bb5c36bed8eb2b8fdbe2,,,,,,,,,,,,,,,,,,,,,,,,,,,,,,,,,,,,,,,,,,,,,,,,,,,,,,,,,,,,998.7159,1005.0407,-0.304061471,-0.109220637,1,0,0,0.3209,compass,0,12,12,6,1,SoundStimuli/SaveYourTears_TheWeekndArianaGrande_Cover5S.wav,,,,,,,,,,,,,,,,,,,,,,,,,,,,,,,,,,,,,,,,,,,,,,,,,,,,
,,,,,505333,001,2024-07-12_16h27.05.858,experiment,2024.1.5,Win32,238.0952381,653ee1d628ced1573a58023d,6691931c2c63981b064e1f0c,6691bb5c36bed8eb2b8fdbe2,,,,,,,,,,,,,,,,,,,,,,,,,,,,,,,,,,,,,,,,,,,,,,,,,,,,,,,,,,,,1005.0452,1012.1701,-0.24259056,-0.208013172,1,0,0,1.121,compass,0,13,13,9,1,SoundStimuli/HowDoILive_LeAnnRimes_Cover5S.wav,,,,,,,,,,,,,,,,,,,,,,,,,,,,,,,,,,,,,,,,,,,,,,,,,,,,
,,,,,505333,001,2024-07-12_16h27.05.858,experiment,2024.1.5,Win32,238.0952381,653ee1d628ced1573a58023d,6691931c2c63981b064e1f0c,6691bb5c36bed8eb2b8fdbe2,,,,,,,,,,,,,,,,,,,,,,,,,,,,,,,,,,,,,,,,,,,,,,,,,,,,,,,,,,,,1012.1749,1018.228,-0.339187706,0.338638858,1,0,0,0.0497,compass,0,14,14,26,1,SoundStimuli/TheSign_AceOfBase_Cover5S.wav,,,,,,,,,,,,,,,,,,,,,,,,,,,,,,,,,,,,,,,,,,,,,,,,,,,,
,,,,,505333,001,2024-07-12_16h27.05.858,experiment,2024.1.5,Win32,238.0952381,653ee1d628ced1573a58023d,6691931c2c63981b064e1f0c,6691bb5c36bed8eb2b8fdbe2,,,,,,,,,,,,,,,,,,,,,,,,,,,,,,,,,,,,,,,,,,,,,,,,,,,,,,,,,,,,1018.2326,1027.5195,-0.265642151,-0.023600439,1,0,0,3.2833,compass,0,15,15,5,1,SoundStimuli/JoyToTheWorld_ThreeDogNight_Original5S.wav,,,,,,,,,,,,,,,,,,,,,,,,,,,,,,,,,,,,,,,,,,,,,,,,,,,,
,,,,,505333,001,2024-07-12_16h27.05.858,experiment,2024.1.5,Win32,238.0952381,653ee1d628ced1573a58023d,6691931c2c63981b064e1f0c,6691bb5c36bed8eb2b8fdbe2,,,,,,,,,,,,,,,,,,,,,,,,,,,,,,,,,,,,,,,,,,,,,,,,,,,,,,,,,,,,1027.5248,1037.1319,0.154774973,-0.318880351,1,0,0,3.6041,compass,0,16,16,18,1,SoundStimuli/Weak_SWV_Cover5S.wav,,,,,,,,,,,,,,,,,,,,,,,,,,,,,,,,,,,,,,,,,,,,,,,,,,,,
,,,,,505333,001,2024-07-12_16h27.05.858,experiment,2024.1.5,Win32,238.0952381,653ee1d628ced1573a58023d,6691931c2c63981b064e1f0c,6691bb5c36bed8eb2b8fdbe2,,,,,,,,,,,,,,,,,,,,,,,,,,,,,,,,,,,,,,,,,,,,,,,,,,,,,,,,,,,,1037.1386,1045.1569,-0.077936334,0.135565313,1,0,0,2.0166,compass,0,17,17,4,1,SoundStimuli/Dreams_FleetwoodMac_Original5S.wav,,,,,,,,,,,,,,,,,,,,,,,,,,,,,,,,,,,,,,,,,,,,,,,,,,,,
,,,,,505333,001,2024-07-12_16h27.05.858,experiment,2024.1.5,Win32,238.0952381,653ee1d628ced1573a58023d,6691931c2c63981b064e1f0c,6691bb5c36bed8eb2b8fdbe2,,,,,,,,,,,,,,,,,,,,,,,,,,,,,,,,,,,,,,,,,,,,,,,,,,,,,,,,,,,,1045.1615,1051.7693,-0.31284303,-0.292535675,1,0,0,0.6038,compass,0,18,18,30,1,SoundStimuli/SomebodyThatIUsedtoKnow_Gotye_Original5S.wav,,,,,,,,,,,,,,,,,,,,,,,,,,,,,,,,,,,,,,,,,,,,,,,,,,,,
,,,,,505333,001,2024-07-12_16h27.05.858,experiment,2024.1.5,Win32,238.0952381,653ee1d628ced1573a58023d,6691931c2c63981b064e1f0c,6691bb5c36bed8eb2b8fdbe2,,,,,,,,,,,,,,,,,,,,,,,,,,,,,,,,,,,,,,,,,,,,,,,,,,,,,,,,,,,,1051.7739,1059.7401,-0.084522503,-0.136663008,1,0,0,1.9625,compass,0,19,19,8,1,SoundStimuli/EndlessLove_DianaRossLionelRichie_Cover5S.wav,,,,,,,,,,,,,,,,,,,,,,,,,,,,,,,,,,,,,,,,,,,,,,,,,,,,
,,,,,505333,001,2024-07-12_16h27.05.858,experiment,2024.1.5,Win32,238.0952381,653ee1d628ced1573a58023d,6691931c2c63981b064e1f0c,6691bb5c36bed8eb2b8fdbe2,,,,,,,,,,,,,,,,,,,,,,,,,,,,,,,,,,,,,,,,,,,,,,,,,,,,,,,,,,,,1059.745,1067.3358,0.001097695,-0.2233809,1,0,0,1.5873,compass,0,20,20,10,1,SoundStimuli/LeFreak_Chic_Cover5S.wav,,,,,,,,,,,,,,,,,,,,,,,,,,,,,,,,,,,,,,,,,,,,,,,,,,,,
,,,,,505333,001,2024-07-12_16h27.05.858,experiment,2024.1.5,Win32,238.0952381,653ee1d628ced1573a58023d,6691931c2c63981b064e1f0c,6691bb5c36bed8eb2b8fdbe2,,,,,,,,,,,,,,,,,,,,,,,,,,,,,,,,,,,,,,,,,,,,,,,,,,,,,,,,,,,,1067.3404,1073.9316,0.119648738,-0.148737651,1,0,0,0.5872,compass,0,21,21,24,1,SoundStimuli/Kiss_Prince_Cover5S.wav,,,,,,,,,,,,,,,,,,,,,,,,,,,,,,,,,,,,,,,,,,,,,,,,,,,,
,,,,,505333,001,2024-07-12_16h27.05.858,experiment,2024.1.5,Win32,238.0952381,653ee1d628ced1573a58023d,6691931c2c63981b064e1f0c,6691bb5c36bed8eb2b8fdbe2,,,,,,,,,,,,,,,,,,,,,,,,,,,,,,,,,,,,,,,,,,,,,,,,,,,,,,,,,,,,1073.9363,1080.5398,0.14050494,0.192645445,1,0,0,0.5994,compass,0,22,22,14,1,SoundStimuli/LikeARollingStone_BobDylan_Original5S.wav,,,,,,,,,,,,,,,,,,,,,,,,,,,,,,,,,,,,,,,,,,,,,,,,,,,,
,,,,,505333,001,2024-07-12_16h27.05.858,experiment,2024.1.5,Win32,238.0952381,653ee1d628ced1573a58023d,6691931c2c63981b064e1f0c,6691bb5c36bed8eb2b8fdbe2,,,,,,,,,,,,,,,,,,,,,,,,,,,,,,,,,,,,,,,,,,,,,,,,,,,,,,,,,,,,1080.5444,1086.7357,0.34248079,0.340834248,1,0,0,0.1876,compass,0,23,23,3,1,SoundStimuli/PartyRockAnthem_LMFAO_Original5S.wav,,,,,,,,,,,,,,,,,,,,,,,,,,,,,,,,,,,,,,,,,,,,,,,,,,,,
,,,,,505333,001,2024-07-12_16h27.05.858,experiment,2024.1.5,Win32,238.0952381,653ee1d628ced1573a58023d,6691931c2c63981b064e1f0c,6691bb5c36bed8eb2b8fdbe2,,,,,,,,,,,,,,,,,,,,,,,,,,,,,,,,,,,,,,,,,,,,,,,,,,,,,,,,,,,,1086.7403,1093.4314,-0.139407245,0.062019759,1,0,0,0.687,compass,0,24,24,2,1,SoundStimuli/SmellsLikeTeenSpirit_Nirvana_Original5S.wav,,,,,,,,,,,,,,,,,,,,,,,,,,,,,,,,,,,,,,,,,,,,,,,,,,,,
,,,,,505333,001,2024-07-12_16h27.05.858,experiment,2024.1.5,Win32,238.0952381,653ee1d628ced1573a58023d,6691931c2c63981b064e1f0c,6691bb5c36bed8eb2b8fdbe2,,,,,,,,,,,,,,,,,,,,,,,,,,,,,,,,,,,,,,,,,,,,,,,,,,,,,,,,,,,,1093.4367,1100.6689,0.137211855,0.136663008,1,0,0,1.2292,compass,0,25,25,1,1,SoundStimuli/Smooth_SantanaRobThomas_Original5S.wav,,,,,,,,,,,,,,,,,,,,,,,,,,,,,,,,,,,,,,,,,,,,,,,,,,,,
,,,,,505333,001,2024-07-12_16h27.05.858,experiment,2024.1.5,Win32,238.0952381,653ee1d628ced1573a58023d,6691931c2c63981b064e1f0c,6691bb5c36bed8eb2b8fdbe2,,,,,,,,,,,,,,,,,,,,,,,,,,,,,,,,,,,,,,,,,,,,,,,,,,,,,,,,,,,,1100.6739,1107.5938,-0.1064764,0.063117453,1,0,0,0.9163,compass,0,26,26,20,1,SoundStimuli/FlashdanceWhatAFeeling_IreneCara_Original5S.wav,,,,,,,,,,,,,,,,,,,,,,,,,,,,,,,,,,,,,,,,,,,,,,,,,,,,
,,,,,505333,001,2024-07-12_16h27.05.858,experiment,2024.1.5,Win32,238.0952381,653ee1d628ced1573a58023d,6691931c2c63981b064e1f0c,6691bb5c36bed8eb2b8fdbe2,,,,,,,,,,,,,,,,,,,,,,,,,,,,,,,,,,,,,,,,,,,,,,,,,,,,,,,,,,,,1107.5989,1114.9103,-0.150384193,-0.105927552,1,0,0,1.3084,compass,0,27,27,0,1,SoundStimuli/GimmeShelter_RollingStones_Original5S.wav,,,,,,,,,,,,,,,,,,,,,,,,,,,,,,,,,,,,,,,,,,,,,,,,,,,,
,,,,,505333,001,2024-07-12_16h27.05.858,experiment,2024.1.5,Win32,238.0952381,653ee1d628ced1573a58023d,6691931c2c63981b064e1f0c,6691bb5c36bed8eb2b8fdbe2,,,,,,,,,,,,,,,,,,,,,,,,,,,,,,,,,,,,,,,,,,,,,,,,,,,,,,,,,,,,1114.9149,1122.1977,0.243688255,0.156421515,1,0,0,1.2791,compass,0,28,28,11,1,SoundStimuli/BlurredLines_RobinThicke_Cover5S.wav,,,,,,,,,,,,,,,,,,,,,,,,,,,,,,,,,,,,,,,,,,,,,,,,,,,,
,,,,,505333,001,2024-07-12_16h27.05.858,experiment,2024.1.5,Win32,238.0952381,653ee1d628ced1573a58023d,6691931c2c63981b064e1f0c,6691bb5c36bed8eb2b8fdbe2,,,,,,,,,,,,,,,,,,,,,,,,,,,,,,,,,,,,,,,,,,,,,,,,,,,,,,,,,,,,1122.2024,1128.8602,-0.223929748,-0.098243688,1,0,0,0.6541,compass,0,29,29,29,1,SoundStimuli/BetteDavisEyes_KimCarnes_Original5S.wav,,,,,,,,,,,,,,,,,,,,,,,,,,,,,,,,,,,,,,,,,,,,,,,,,,,,
,,,,,505333,001,2024-07-12_16h27.05.858,experiment,2024.1.5,Win32,238.0952381,653ee1d628ced1573a58023d,6691931c2c63981b064e1f0c,6691bb5c36bed8eb2b8fdbe2,,,,,,,,,,,,,,,,,,,,,,,,,,,,,,,,,,,,,,,,,,,,,,,,,,,,,,,,,,,,1128.8647,1136.8351,-0.063666301,-0.351811196,1,0,0,1.4668,compass,0,30,30,23,1,SoundStimuli/IWalkTheLine_JohnnyCash_Original5S.wav,,,,,,,,,,,,,,,,,,,,,,,,,,,,,,,,,,,,,,,,,,,,,,,,,,,,
,,,,,505333,001,2024-07-12_16h27.05.858,experiment,2024.1.5,Win32,238.0952381,653ee1d628ced1573a58023d,6691931c2c63981b064e1f0c,6691bb5c36bed8eb2b8fdbe2,,,,,,,,,,,,,,,,,,,,,,,,,,,,,,,,,,,,,,,,,,,,,,,,,,,,,,,,,,,,1136.8353,1143.7975,-0.196487377,-0.345225027,1,0,0,0.9583,compass,0,31,31,7,1,SoundStimuli/MackTheKnife_BobbyDarin_Cover5S.wav,,,,,,,,,,,,,,,,,,,,,,,,,,,,,,,,,,,,,,,,,,,,,,,,,,,,
,,,,,505333,001,2024-07-12_16h27.05.858,experiment,2024.1.5,Win32,238.0952381,653ee1d628ced1573a58023d,6691931c2c63981b064e1f0c,6691bb5c36bed8eb2b8fdbe2,,,,,,,,,,,,,,,,,,,,,,,,,,,,,,,,,,,,,,,,,,,,,,,,,,,,,,,,,,,,1143.8022,1150.2391,0.161361142,0.173984632,1,0,0,0.4334,compass,0,32,32,27,1,SoundStimuli/EyeOfTheTiger_Survivor_Cover5S.wav,,,,,,,,,,,,,,,,,,,,,,,,,,,,,,,,,,,,,,,,,,,,,,,,,,,,
,,,,,505333,001,2024-07-12_16h27.05.858,experiment,2024.1.5,Win32,238.0952381,653ee1d628ced1573a58023d,6691931c2c63981b064e1f0c,6691bb5c36bed8eb2b8fdbe2,,,,,,,,,,,,,,,,,,,,,,,,,,,,,,,,,,,,,,,,,,,,,,,,,,,,,,,,,,,,1150.2438,1156.9016,0.349066959,0.263995609,1,0,0,0.6542,compass,0,33,33,17,1,SoundStimuli/IWannaDanceWithSomebody_WhitneyHouston_Original5S.wav,,,,,,,,,,,,,,,,,,,,,,,,,,,,,,,,,,,,,,,,,,,,,,,,,,,,
,,,,,505333,001,2024-07-12_16h27.05.858,experiment,2024.1.5,Win32,238.0952381,653ee1d628ced1573a58023d,6691931c2c63981b064e1f0c,6691bb5c36bed8eb2b8fdbe2,,,,,,,,,,,,,,,,,,,,,,,,,,,,,,,,,,,,,,,,,,,,,,,,,,,,,,,,,,,,1156.9066,1163.6556,0.087815587,-0.199231614,1,0,0,0.7458,compass,0,34,34,33,1,SoundStimuli/TheBoyIsMine_BrandyMonica_Original5S.wav,,,,,,,,,,,,,,,,,,,,,,,,,,,,,,,,,,,,,,,,,,,,,,,,,,,,
,,,,,505333,001,2024-07-12_16h27.05.858,experiment,2024.1.5,Win32,238.0952381,653ee1d628ced1573a58023d,6691931c2c63981b064e1f0c,6691bb5c36bed8eb2b8fdbe2,,,,,,,,,,,,,,,,,,,,,,,,,,,,,,,,,,,,,,,,,,,,,,,,,,,,,,,,,,,,,,,,,,,,,,,,,,,1163.6603,1174.0413,space,10.3713,,1174.0413,1274.8925,right,100.8439,,0,2,2,2,1,block_order/blockD.xlsx,,,,,,,,,,,,,,,,,,,,,,,,,,,,,,,,,,,,
,,,,,505333,001,2024-07-12_16h27.05.858,experiment,2024.1.5,Win32,238.0952381,653ee1d628ced1573a58023d,6691931c2c63981b064e1f0c,6691bb5c36bed8eb2b8fdbe2,,,,,,,,,,,,,,,,,,,,,,,,,,,,,,,,,,,,,,,,,,,,,,,,,,,,,,,,,,,,1274.8971,1281.4085,-0.250274424,0.15312843,1,0,0,0.5081,compass,0,0,0,7,1,SoundStimuli/NoOne_AliciaKeys_Cover5S.wav,,,,,,,,,,,,,,,,,,,,,,,,,,,,,,,,,,,,,,,,,,,,,,,,,,,,
,,,,,505333,001,2024-07-12_16h27.05.858,experiment,2024.1.5,Win32,238.0952381,653ee1d628ced1573a58023d,6691931c2c63981b064e1f0c,6691bb5c36bed8eb2b8fdbe2,,,,,,,,,,,,,,,,,,,,,,,,,,,,,,,,,,,,,,,,,,,,,,,,,,,,,,,,,,,,1281.4129,1287.7918,-0.227222832,-0.232162459,1,0,0,0.3749,compass,0,1,1,15,1,SoundStimuli/TikTok_Kesha_Cover5S.wav,,,,,,,,,,,,,,,,,,,,,,,,,,,,,,,,,,,,,,,,,,,,,,,,,,,,
,,,,,505333,001,2024-07-12_16h27.05.858,experiment,2024.1.5,Win32,238.0952381,653ee1d628ced1573a58023d,6691931c2c63981b064e1f0c,6691bb5c36bed8eb2b8fdbe2,,,,,,,,,,,,,,,,,,,,,,,,,,,,,,,,,,,,,,,,,,,,,,,,,,,,,,,,,,,,1287.7963,1294.1167,-0.182217344,-0.301317234,1,0,0,0.3167,compass,0,2,2,13,1,SoundStimuli/GodOnlyKnows_TheBeachBoys_Cover5S.wav,,,,,,,,,,,,,,,,,,,,,,,,,,,,,,,,,,,,,,,,,,,,,,,,,,,,
,,,,,505333,001,2024-07-12_16h27.05.858,experiment,2024.1.5,Win32,238.0952381,653ee1d628ced1573a58023d,6691931c2c63981b064e1f0c,6691bb5c36bed8eb2b8fdbe2,,,,,,,,,,,,,,,,,,,,,,,,,,,,,,,,,,,,,,,,,,,,,,,,,,,,,,,,,,,,1294.124,1300.4625,0.092206367,0.160812294,1,0,0,0.3375,compass,0,3,3,4,1,SoundStimuli/GetUrFreakOn_MissyElliot_Original5S.wav,,,,,,,,,,,,,,,,,,,,,,,,,,,,,,,,,,,,,,,,,,,,,,,,,,,,
,,,,,505333,001,2024-07-12_16h27.05.858,experiment,2024.1.5,Win32,238.0952381,653ee1d628ced1573a58023d,6691931c2c63981b064e1f0c,6691bb5c36bed8eb2b8fdbe2,,,,,,,,,,,,,,,,,,,,,,,,,,,,,,,,,,,,,,,,,,,,,,,,,,,,,,,,,,,,1300.4669,1306.5499,0.341383095,0.341931943,1,0,0,0.0789,compass,0,4,4,27,1,SoundStimuli/ShapeofYou_EdSheeran_Original5S.wav,,,,,,,,,,,,,,,,,,,,,,,,,,,,,,,,,,,,,,,,,,,,,,,,,,,,
,,,,,505333,001,2024-07-12_16h27.05.858,experiment,2024.1.5,Win32,238.0952381,653ee1d628ced1573a58023d,6691931c2c63981b064e1f0c,6691bb5c36bed8eb2b8fdbe2,,,,,,,,,,,,,,,,,,,,,,,,,,,,,,,,,,,,,,,,,,,,,,,,,,,,,,,,,,,,1306.5544,1313.6331,0.001097695,-0.348518112,1,0,0,1.0751,compass,0,5,5,31,1,SoundStimuli/TheBattleOfNewOrleans_JohnnyHorton_Cover5S.wav,,,,,,,,,,,,,,,,,,,,,,,,,,,,,,,,,,,,,,,,,,,,,,,,,,,,
,,,,,505333,001,2024-07-12_16h27.05.858,experiment,2024.1.5,Win32,238.0952381,653ee1d628ced1573a58023d,6691931c2c63981b064e1f0c,6691bb5c36bed8eb2b8fdbe2,,,,,,,,,,,,,,,,,,,,,,,,,,,,,,,,,,,,,,,,,,,,,,,,,,,,,,,,,,,,1313.6379,1319.7872,0.343578485,0.343029638,1,0,0,0.1459,compass,0,6,6,14,1,SoundStimuli/BlindingLights_TheWeeknd_Original5S.wav,,,,,,,,,,,,,,,,,,,,,,,,,,,,,,,,,,,,,,,,,,,,,,,,,,,,
,,,,,505333,001,2024-07-12_16h27.05.858,experiment,2024.1.5,Win32,238.0952381,653ee1d628ced1573a58023d,6691931c2c63981b064e1f0c,6691bb5c36bed8eb2b8fdbe2,,,,,,,,,,,,,,,,,,,,,,,,,,,,,,,,,,,,,,,,,,,,,,,,,,,,,,,,,,,,1319.7919,1326.5371,0.127332602,-0.201427003,1,0,0,0.7417,compass,0,7,7,10,1,SoundStimuli/BadDay_DanielPowter_Cover5S.wav,,,,,,,,,,,,,,,,,,,,,,,,,,,,,,,,,,,,,,,,,,,,,,,,,,,,
,,,,,505333,001,2024-07-12_16h27.05.858,experiment,2024.1.5,Win32,238.0952381,653ee1d628ced1573a58023d,6691931c2c63981b064e1f0c,6691bb5c36bed8eb2b8fdbe2,,,,,,,,,,,,,,,,,,,,,,,,,,,,,,,,,,,,,,,,,,,,,,,,,,,,,,,,,,,,1326.5416,1332.7912,0.043907794,-0.201427003,1,0,0,0.2459,compass,0,8,8,5,1,SoundStimuli/MyGirl_TheTemptations_Original5S.wav,,,,,,,,,,,,,,,,,,,,,,,,,,,,,,,,,,,,,,,,,,,,,,,,,,,,
,,,,,505333,001,2024-07-12_16h27.05.858,experiment,2024.1.5,Win32,238.0952381,653ee1d628ced1573a58023d,6691931c2c63981b064e1f0c,6691bb5c36bed8eb2b8fdbe2,,,,,,,,,,,,,,,,,,,,,,,,,,,,,,,,,,,,,,,,,,,,,,,,,,,,,,,,,,,,1332.7957,1339.1703,0.214050494,0.206915477,1,0,0,0.3708,compass,0,9,9,23,1,SoundStimuli/StrawberryFieldsForever_TheBeatles_Original5S.wav,,,,,,,,,,,,,,,,,,,,,,,,,,,,,,,,,,,,,,,,,,,,,,,,,,,,
,,,,,505333,001,2024-07-12_16h27.05.858,experiment,2024.1.5,Win32,238.0952381,653ee1d628ced1573a58023d,6691931c2c63981b064e1f0c,6691bb5c36bed8eb2b8fdbe2,,,,,,,,,,,,,,,,,,,,,,,,,,,,,,,,,,,,,,,,,,,,,,,,,,,,,,,,,,,,1339.1752,1346.8369,-0.186608123,-0.188254665,1,0,0,1.6583,compass,0,10,10,20,1,SoundStimuli/HeyYa_Outkast_Cover5S.wav,,,,,,,,,,,,,,,,,,,,,,,,,,,,,,,,,,,,,,,,,,,,,,,,,,,,
,,,,,505333,001,2024-07-12_16h27.05.858,experiment,2024.1.5,Win32,238.0952381,653ee1d628ced1573a58023d,6691931c2c63981b064e1f0c,6691bb5c36bed8eb2b8fdbe2,,,,,,,,,,,,,,,,,,,,,,,,,,,,,,,,,,,,,,,,,,,,,,,,,,,,,,,,,,,,1346.8414,1353.3201,0.082327113,0.18715697,1,0,0,0.475,compass,0,11,11,22,1,SoundStimuli/RockWithYou_MichaelJackson_Original5S.wav,,,,,,,,,,,,,,,,,,,,,,,,,,,,,,,,,,,,,,,,,,,,,,,,,,,,
,,,,,505333,001,2024-07-12_16h27.05.858,experiment,2024.1.5,Win32,238.0952381,653ee1d628ced1573a58023d,6691931c2c63981b064e1f0c,6691bb5c36bed8eb2b8fdbe2,,,,,,,,,,,,,,,,,,,,,,,,,,,,,,,,,,,,,,,,,,,,,,,,,,,,,,,,,,,,1353.325,1360.3743,0.009879254,0.348518112,1,0,0,1.0458,compass,0,12,12,34,1,SoundStimuli/AChangeIsGonnaCome_SamCooke_Cover5S.wav,,,,,,,,,,,,,,,,,,,,,,,,,,,,,,,,,,,,,,,,,,,,,,,,,,,,
,,,,,505333,001,2024-07-12_16h27.05.858,experiment,2024.1.5,Win32,238.0952381,653ee1d628ced1573a58023d,6691931c2c63981b064e1f0c,6691bb5c36bed8eb2b8fdbe2,,,,,,,,,,,,,,,,,,,,,,,,,,,,,,,,,,,,,,,,,,,,,,,,,,,,,,,,,,,,1360.3746,1367.5825,-0.115257958,-0.04884742,1,0,0,1.2042,compass,0,13,13,16,1,SoundStimuli/BohemianRhapsody_Queen_Original5S.wav,,,,,,,,,,,,,,,,,,,,,,,,,,,,,,,,,,,,,,,,,,,,,,,,,,,,
,,,,,505333,001,2024-07-12_16h27.05.858,experiment,2024.1.5,Win32,238.0952381,653ee1d628ced1573a58023d,6691931c2c63981b064e1f0c,6691bb5c36bed8eb2b8fdbe2,,,,,,,,,,,,,,,,,,,,,,,,,,,,,,,,,,,,,,,,,,,,,,,,,,,,,,,,,,,,1367.5877,1374.0996,-0.153677278,0.265093304,1,0,0,0.5084,compass,0,14,14,1,1,SoundStimuli/Stronger_KanyeWest_Original5S.wav,,,,,,,,,,,,,,,,,,,,,,,,,,,,,,,,,,,,,,,,,,,,,,,,,,,,
,,,,,505333,001,2024-07-12_16h27.05.858,experiment,2024.1.5,Win32,238.0952381,653ee1d628ced1573a58023d,6691931c2c63981b064e1f0c,6691bb5c36bed8eb2b8fdbe2,,,,,,,,,,,,,,,,,,,,,,,,,,,,,,,,,,,,,,,,,,,,,,,,,,,,,,,,,,,,1374.1039,1381.7867,0.165751921,0.274972558,1,0,0,1.6793,compass,0,15,15,6,1,SoundStimuli/Levitating_DuaLipa_Cover5S.wav,,,,,,,,,,,,,,,,,,,,,,,,,,,,,,,,,,,,,,,,,,,,,,,,,,,,
,,,,,505333,001,2024-07-12_16h27.05.858,experiment,2024.1.5,Win32,238.0952381,653ee1d628ced1573a58023d,6691931c2c63981b064e1f0c,6691bb5c36bed8eb2b8fdbe2,,,,,,,,,,,,,,,,,,,,,,,,,,,,,,,,,,,,,,,,,,,,,,,,,,,,,,,,,,,,1381.7917,1388.7621,-0.151481888,-0.265093304,1,0,0,0.9669,compass,0,16,16,26,1,SoundStimuli/LivinOnAPrayer_BonJovi_Cover5S.wav,,,,,,,,,,,,,,,,,,,,,,,,,,,,,,,,,,,,,,,,,,,,,,,,,,,,
,,,,,505333,001,2024-07-12_16h27.05.858,experiment,2024.1.5,Win32,238.0952381,653ee1d628ced1573a58023d,6691931c2c63981b064e1f0c,6691bb5c36bed8eb2b8fdbe2,,,,,,,,,,,,,,,,,,,,,,,,,,,,,,,,,,,,,,,,,,,,,,,,,,,,,,,,,,,,1388.7665,1396.3492,0.019758507,-0.137760703,1,0,0,1.5795,compass,0,17,17,11,1,SoundStimuli/Superstition_StevieWonder_Cover5S.wav,,,,,,,,,,,,,,,,,,,,,,,,,,,,,,,,,,,,,,,,,,,,,,,,,,,,
,,,,,505333,001,2024-07-12_16h27.05.858,experiment,2024.1.5,Win32,238.0952381,653ee1d628ced1573a58023d,6691931c2c63981b064e1f0c,6691bb5c36bed8eb2b8fdbe2,,,,,,,,,,,,,,,,,,,,,,,,,,,,,,,,,,,,,,,,,,,,,,,,,,,,,,,,,,,,1396.3541,1403.803,0.111964874,0.064215148,1,0,0,1.4456,compass,0,18,18,9,1,SoundStimuli/Despacito_LuisFonsiDaddyYankee_Cover5S.wav,,,,,,,,,,,,,,,,,,,,,,,,,,,,,,,,,,,,,,,,,,,,,,,,,,,,
,,,,,505333,001,2024-07-12_16h27.05.858,experiment,2024.1.5,Win32,238.0952381,653ee1d628ced1573a58023d,6691931c2c63981b064e1f0c,6691bb5c36bed8eb2b8fdbe2,,,,,,,,,,,,,,,,,,,,,,,,,,,,,,,,,,,,,,,,,,,,,,,,,,,,,,,,,,,,1403.8076,1414.2116,-0.302963776,0.258507135,1,0,0,4.4004,compass,0,19,19,12,1,SoundStimuli/IWillAlwaysLoveYou_WhitneyHouston_Cover5S.wav,,,,,,,,,,,,,,,,,,,,,,,,,,,,,,,,,,,,,,,,,,,,,,,,,,,,
,,,,,505333,001,2024-07-12_16h27.05.858,experiment,2024.1.5,Win32,238.0952381,653ee1d628ced1573a58023d,6691931c2c63981b064e1f0c,6691bb5c36bed8eb2b8fdbe2,,,,,,,,,,,,,,,,,,,,,,,,,,,,,,,,,,,,,,,,,,,,,,,,,,,,,,,,,,,,1414.2179,1420.2611,0.339187706,0.339736553,1,0,0,0.0414,compass,0,20,20,30,1,SoundStimuli/PokerFace_LadyGaga_Original5S.wav,,,,,,,,,,,,,,,,,,,,,,,,,,,,,,,,,,,,,,,,,,,,,,,,,,,,
,,,,,505333,001,2024-07-12_16h27.05.858,experiment,2024.1.5,Win32,238.0952381,653ee1d628ced1573a58023d,6691931c2c63981b064e1f0c,6691bb5c36bed8eb2b8fdbe2,,,,,,,,,,,,,,,,,,,,,,,,,,,,,,,,,,,,,,,,,,,,,,,,,,,,,,,,,,,,1420.2661,1426.6152,-0.176728869,0.164105379,1,0,0,0.3457,compass,0,21,21,8,1,SoundStimuli/LikeAPrayer_Madonna_Original5S.wav,,,,,,,,,,,,,,,,,,,,,,,,,,,,,,,,,,,,,,,,,,,,,,,,,,,,
,,,,,505333,001,2024-07-12_16h27.05.858,experiment,2024.1.5,Win32,238.0952381,653ee1d628ced1573a58023d,6691931c2c63981b064e1f0c,6691bb5c36bed8eb2b8fdbe2,,,,,,,,,,,,,,,,,,,,,,,,,,,,,,,,,,,,,,,,,,,,,,,,,,,,,,,,,,,,1426.6198,1433.3067,0.243688255,-0.175082327,1,0,0,0.6833,compass,0,22,22,3,1,SoundStimuli/NoScrubs_TLC_Original5S.wav,,,,,,,,,,,,,,,,,,,,,,,,,,,,,,,,,,,,,,,,,,,,,,,,,,,,
,,,,,505333,001,2024-07-12_16h27.05.858,experiment,2024.1.5,Win32,238.0952381,653ee1d628ced1573a58023d,6691931c2c63981b064e1f0c,6691bb5c36bed8eb2b8fdbe2,,,,,,,,,,,,,,,,,,,,,,,,,,,,,,,,,,,,,,,,,,,,,,,,,,,,,,,,,,,,1433.3115,1439.9234,0.193194292,0.057628979,1,0,0,0.6081,compass,0,23,23,28,1,SoundStimuli/ComeAndGetYourLove_Redbone_Original5S.wav,,,,,,,,,,,,,,,,,,,,,,,,,,,,,,,,,,,,,,,,,,,,,,,,,,,,
,,,,,505333,001,2024-07-12_16h27.05.858,experiment,2024.1.5,Win32,238.0952381,653ee1d628ced1573a58023d,6691931c2c63981b064e1f0c,6691bb5c36bed8eb2b8fdbe2,,,,,,,,,,,,,,,,,,,,,,,,,,,,,,,,,,,,,,,,,,,,,,,,,,,,,,,,,,,,1439.9283,1446.1901,-0.197585071,-0.032381998,1,0,0,0.2583,compass,0,24,24,33,1,SoundStimuli/StandByMe_BenEKing_Cover5S.wav,,,,,,,,,,,,,,,,,,,,,,,,,,,,,,,,,,,,,,,,,,,,,,,,,,,,
,,,,,505333,001,2024-07-12_16h27.05.858,experiment,2024.1.5,Win32,238.0952381,653ee1d628ced1573a58023d,6691931c2c63981b064e1f0c,6691bb5c36bed8eb2b8fdbe2,,,,,,,,,,,,,,,,,,,,,,,,,,,,,,,,,,,,,,,,,,,,,,,,,,,,,,,,,,,,1446.1947,1452.5524,0.341383095,0.180570801,1,0,0,0.3542,compass,0,25,25,32,1,SoundStimuli/HeatWaves_GlassAnimals_Original5S.wav,,,,,,,,,,,,,,,,,,,,,,,,,,,,,,,,,,,,,,,,,,,,,,,,,,,,
,,,,,505333,001,2024-07-12_16h27.05.858,experiment,2024.1.5,Win32,238.0952381,653ee1d628ced1573a58023d,6691931c2c63981b064e1f0c,6691bb5c36bed8eb2b8fdbe2,,,,,,,,,,,,,,,,,,,,,,,,,,,,,,,,,,,,,,,,,,,,,,,,,,,,,,,,,,,,1452.5573,1459.5066,-0.180021954,0.243139407,1,0,0,0.9459,compass,0,26,26,18,1,SoundStimuli/AnotherOneBitesTheDust_Queen_Original5S.wav,,,,,,,,,,,,,,,,,,,,,,,,,,,,,,,,,,,,,,,,,,,,,,,,,,,,
,,,,,505333,001,2024-07-12_16h27.05.858,experiment,2024.1.5,Win32,238.0952381,653ee1d628ced1573a58023d,6691931c2c63981b064e1f0c,6691bb5c36bed8eb2b8fdbe2,,,,,,,,,,,,,,,,,,,,,,,,,,,,,,,,,,,,,,,,,,,,,,,,,,,,,,,,,,,,1459.5115,1465.8149,-0.318331504,-0.211306257,1,0,0,0.3001,compass,0,27,27,2,1,SoundStimuli/Mood_24kGoldnianndior_Cover5S.wav,,,,,,,,,,,,,,,,,,,,,,,,,,,,,,,,,,,,,,,,,,,,,,,,,,,,
,,,,,505333,001,2024-07-12_16h27.05.858,experiment,2024.1.5,Win32,238.0952381,653ee1d628ced1573a58023d,6691931c2c63981b064e1f0c,6691bb5c36bed8eb2b8fdbe2,,,,,,,,,,,,,,,,,,,,,,,,,,,,,,,,,,,,,,,,,,,,,,,,,,,,,,,,,,,,1465.8194,1471.9564,0.339187706,0.340834248,1,0,0,0.1333,compass,0,28,28,24,1,SoundStimuli/UptownFunk_MarkRonson_Original5S.wav,,,,,,,,,,,,,,,,,,,,,,,,,,,,,,,,,,,,,,,,,,,,,,,,,,,,
,,,,,505333,001,2024-07-12_16h27.05.858,experiment,2024.1.5,Win32,238.0952381,653ee1d628ced1573a58023d,6691931c2c63981b064e1f0c,6691bb5c36bed8eb2b8fdbe2,,,,,,,,,,,,,,,,,,,,,,,,,,,,,,,,,,,,,,,,,,,,,,,,,,,,,,,,,,,,1471.9611,1478.3981,-0.34467618,-0.341931943,1,0,0,0.4332,compass,0,29,29,19,1,SoundStimuli/LetsGetItOn_MarvinGaye_Cover5S.wav,,,,,,,,,,,,,,,,,,,,,,,,,,,,,,,,,,,,,,,,,,,,,,,,,,,,
,,,,,505333,001,2024-07-12_16h27.05.858,experiment,2024.1.5,Win32,238.0952381,653ee1d628ced1573a58023d,6691931c2c63981b064e1f0c,6691bb5c36bed8eb2b8fdbe2,,,,,,,,,,,,,,,,,,,,,,,,,,,,,,,,,,,,,,,,,,,,,,,,,,,,,,,,,,,,1478.4026,1484.6354,0.167947311,0.340834248,1,0,0,0.2288,compass,0,30,30,29,1,SoundStimuli/OldTownRoad_LilNasX_Original5S.wav,,,,,,,,,,,,,,,,,,,,,,,,,,,,,,,,,,,,,,,,,,,,,,,,,,,,
,,,,,505333,001,2024-07-12_16h27.05.858,experiment,2024.1.5,Win32,238.0952381,653ee1d628ced1573a58023d,6691931c2c63981b064e1f0c,6691bb5c36bed8eb2b8fdbe2,,,,,,,,,,,,,,,,,,,,,,,,,,,,,,,,,,,,,,,,,,,,,,,,,,,,,,,,,,,,1484.6401,1491.2729,-0.184412733,0.143249177,1,0,0,0.6292,compass,0,31,31,21,1,SoundStimuli/GoodGollyMissMolly_LittleRichard_Cover5S.wav,,,,,,,,,,,,,,,,,,,,,,,,,,,,,,,,,,,,,,,,,,,,,,,,,,,,
,,,,,505333,001,2024-07-12_16h27.05.858,experiment,2024.1.5,Win32,238.0952381,653ee1d628ced1573a58023d,6691931c2c63981b064e1f0c,6691bb5c36bed8eb2b8fdbe2,,,,,,,,,,,,,,,,,,,,,,,,,,,,,,,,,,,,,,,,,,,,,,,,,,,,,,,,,,,,1491.2776,1498.9603,0.066959385,0.300219539,1,0,0,1.6792,compass,0,32,32,0,1,SoundStimuli/StayinAlive_BeeGees_Original5S.wav,,,,,,,,,,,,,,,,,,,,,,,,,,,,,,,,,,,,,,,,,,,,,,,,,,,,
,,,,,505333,001,2024-07-12_16h27.05.858,experiment,2024.1.5,Win32,238.0952381,653ee1d628ced1573a58023d,6691931c2c63981b064e1f0c,6691bb5c36bed8eb2b8fdbe2,,,,,,,,,,,,,,,,,,,,,,,,,,,,,,,,,,,,,,,,,,,,,,,,,,,,,,,,,,,,1498.9651,1505.3686,-0.133918771,0.197036224,1,0,0,0.3997,compass,0,33,33,25,1,SoundStimuli/Respect_ArethaFranklin_Original5S.wav,,,,,,,,,,,,,,,,,,,,,,,,,,,,,,,,,,,,,,,,,,,,,,,,,,,,
,,,,,505333,001,2024-07-12_16h27.05.858,experiment,2024.1.5,Win32,238.0952381,653ee1d628ced1573a58023d,6691931c2c63981b064e1f0c,6691bb5c36bed8eb2b8fdbe2,,,,,,,,,,,,,,,,,,,,,,,,,,,,,,,,,,,,,,,,,,,,,,,,,,,,,,,,,,,,1505.373,1511.8312,-0.188803513,0.063117453,1,0,0,0.454,compass,0,34,34,17,1,SoundStimuli/Fallin_AliciaKeys_Original5S.wav,,,,,,,,,,,,,,,,,,,,,,,,,,,,,,,,,,,,,,,,,,,,,,,,,,,,
,,,,,505333,001,2024-07-12_16h27.05.858,experiment,2024.1.5,Win32,238.0952381,653ee1d628ced1573a58023d,6691931c2c63981b064e1f0c,6691bb5c36bed8eb2b8fdbe2,,,,,,,,,,,,,,,,,,,,,,,,,,,,,,,,,,,,,,,,,,,,,,,,,,,,,,,,,,,,,,,,,,,,,,,,,,,1511.836,1511.8361,,,,1511.8361,1511.8362,,,,0,3,3,3,1,block_order/blockA.xlsx,,,,,,,,,,,,,,,,,,,,,,,,,,,,,,,,,,,,
,,,,,505333,001,2024-07-12_16h27.05.858,experiment,2024.1.5,Win32,238.0952381,653ee1d628ced1573a58023d,6691931c2c63981b064e1f0c,6691bb5c36bed8eb2b8fdbe2,,,,,,,,,,,,,,,,,,,,,,,,,,,,,,,,,,,,,,,,,,,,,,,,,,,,,,,,,,,,,,,,,,,,,,,,,,,,,,,,,,,,,,,,,,,25,Item 2,"Learned violin from 7-15, not a musician",Item 5,Spotify,4,7,"Driving, exercising, walking",Often,Rarely,Sometimes,Often,Often,Never,Never,Rarely,Never,Rarely,Never,Rarely,Never,Often,Always,Never,contemporary,hip hop,pop,r&b,I listen to a lot less than when I was in school (I listened to music maybe 8 hours a day). ,0,0,0,0,1,,
,,,,,505333,001,2024-07-12_16h27.05.858,experiment,2024.1.5,Win32,238.0952381,653ee1d628ced1573a58023d,6691931c2c63981b064e1f0c,6691bb5c36bed8eb2b8fdbe2,,,,,,,,,,,,,,,,,,,,,,,,,,,,,,,,,,,,,,,,,,,,,,,,,,,,,,,,,,,,,,,,,,,,,,,,,,,,,,,,,,,,,,,,,,,,,,,,,,,,,,,,,,,,,,,,,,,,,,,,,,,,,1744.4068,1746.4203
