welcome.started,welcome.stopped,space_to_continue.keys,space_to_continue.rt,space_to_continue.duration,participant,session,date,expName,psychopyVersion,OS,frameRate,PROLIFIC_PID,STUDY_ID,SESSION_ID,consent.consent,consent.consent_recontact,consent_check.started,consent_check.stopped,calibration_ready.started,calibration_ready.stopped,cal_ready.keys,cal_ready.rt,cal_ready.duration,calibration.started,calibration.stopped,mouse.x,mouse.y,mouse.leftButton,mouse.midButton,mouse.rightButton,mouse.time,mouse.clicked_name,move_on.keys,move_on.rt,move_on.duration,run_cal.thisRepN,run_cal.thisTrialN,run_cal.thisN,run_cal.thisIndex,run_cal.ran,emotion_training_ready.started,emotion_training_ready.stopped,training_move_on.keys,training_move_on.rt,training_move_on.duration,examples.started,examples.stopped,emotion_scale.started,emotion_scale.stopped,scale_next.keys,scale_next.rt,scale_next.duration,instructions.started,instructions.stopped,next.keys,next.rt,next.duration,practice_task.started,practice_task.stopped,mouse_rating_2.x,mouse_rating_2.y,mouse_rating_2.leftButton,mouse_rating_2.midButton,mouse_rating_2.rightButton,mouse_rating_2.time,mouse_rating_2.clicked_name,ready.started,ready.stopped,key_resp.keys,key_resp.rt,key_resp.duration,set_group.started,set_group.stopped,task.started,task.stopped,mouse_rating.x,mouse_rating.y,mouse_rating.leftButton,mouse_rating.midButton,mouse_rating.rightButton,mouse_rating.time,mouse_rating.clicked_name,trials.thisRepN,trials.thisTrialN,trials.thisN,trials.thisIndex,trials.ran,clip,short_break.started,short_break.stopped,space_to_move_on.keys,space_to_move_on.rt,space_to_move_on.duration,instruction_reminder.started,instruction_reminder.stopped,reminder_move_on.keys,reminder_move_on.rt,reminder_move_on.duration,blocks.thisRepN,blocks.thisTrialN,blocks.thisN,blocks.thisIndex,blocks.ran,block,post_survey.age,post_survey.musician,post_survey.music_making,post_survey.listen_time,post_survey.medium,post_survey.music_seeking,post_survey.music_choice,post_survey.activities,post_survey.question1.Country,post_survey.question1.Hip hop,post_survey.question1.R&B,post_survey.question1.Alternative rock,post_survey.question1.Metal,post_survey.question1.A cappella,post_survey.question1.Reggae,post_survey.question1.Ambient,post_survey.question1.Classical,post_survey.question1.Folk/indie,post_survey.question1.Classic rock,post_survey.question1.Disco,post_survey.question1.Latin,post_survey.question1.Electronic (EDM),post_survey.question1.Jazz,post_survey.other_genres,post_survey.genres_ranked.text1,post_survey.genres_ranked.text2,post_survey.genres_ranked.text3,post_survey.habit_change,post_survey.habits,show_exp.thisRepN,show_exp.thisTrialN,show_exp.thisN,show_exp.thisIndex,show_exp.ran,goodbye.started,goodbye.stopped
0.0004,2.0751,space,2.0425,,516664,001,2024-07-12_18h06.28.174,experiment,2024.1.5,Win32,58.47953216,6682bc923a62b9b1519eba14,6691931c2c63981b064e1f0c,6691b621f1df4ac97631a842,,,,,,,,,,,,,,,,,,,,,,,,,,,,,,,,,,,,,,,,,,,,,,,,,,,,,,,,,,,,,,,,,,,,,,,,,,,,,,,,,,,,,,,,,,,,,,,,,,,,,,,,,,,,,,,,,,,,,,,,,,,,,,
,,,,,516664,001,2024-07-12_18h06.28.174,experiment,2024.1.5,Win32,58.47953216,6682bc923a62b9b1519eba14,6691931c2c63981b064e1f0c,6691b621f1df4ac97631a842,yes,yes,,,,,,,,,,,,,,,,,,,,,,,,,,,,,,,,,,,,,,,,,,,,,,,,,,,,,,,,,,,,,,,,,,,,,,,,,,,,,,,,,,,,,,,,,,,,,,,,,,,,,,,,,,,,,,,,,,,,,,,,,,,,
,,,,,516664,001,2024-07-12_18h06.28.174,experiment,2024.1.5,Win32,58.47953216,6682bc923a62b9b1519eba14,6691931c2c63981b064e1f0c,6691b621f1df4ac97631a842,,,24.2539,24.254,,,,,,,,,,,,,,,,,,,,,,,,,,,,,,,,,,,,,,,,,,,,,,,,,,,,,,,,,,,,,,,,,,,,,,,,,,,,,,,,,,,,,,,,,,,,,,,,,,,,,,,,,,,,,,,,,,,,,,,,,,
,,,,,516664,001,2024-07-12_18h06.28.174,experiment,2024.1.5,Win32,58.47953216,6682bc923a62b9b1519eba14,6691931c2c63981b064e1f0c,6691b621f1df4ac97631a842,,,,,24.2564,64.321,space,40.0317,,64.4049,78.4728,"[0.005000067816840278,-0.0661111111111111]","[-0.42777777777777776,-0.16777777777777778]","[1,1]","[0,0]","[0,0]","[2.7798000000119316,9.186300000011926]","[""play_button""]",y,12.9452,,0,0,0,0,1,,,,,,,,,,,,,,,,,,,,,,,,,,,,,,,,,,,,,,,,,,,,,,,,,,,,,,,,,,,,,,,,,,,,,,,,,,,,,,,,,,,,,,,,,,,,,,,,,,,,
,,,,,516664,001,2024-07-12_18h06.28.174,experiment,2024.1.5,Win32,58.47953216,6682bc923a62b9b1519eba14,6691931c2c63981b064e1f0c,6691b621f1df4ac97631a842,,,,,,,,,,,,,,,,,,,,,,,,,,,78.475,110.0102,space,31.4214,,110.0109,230.0205,230.0207,249.6057,right,16.0269,,249.6062,259.6736,space,9.9363,,259.6746,266.3615,0.236666667,-0.221111111,1,0,0,0.6776,compass_2,266.3624,269.0012,space,2.5939,,269.0017,269.0839,269.2176,275.7043,0.245555556,-0.198888889,1,0,0,0.4697,compass,0,0,0,23,1,SoundStimuli/IWalkTheLine_JohnnyCash_Original5S.wav,,,,,,,,,,,,,,,,,,,,,,,,,,,,,,,,,,,,,,,,,,,,,,,,,,,,
,,,,,516664,001,2024-07-12_18h06.28.174,experiment,2024.1.5,Win32,58.47953216,6682bc923a62b9b1519eba14,6691931c2c63981b064e1f0c,6691b621f1df4ac97631a842,,,,,,,,,,,,,,,,,,,,,,,,,,,,,,,,,,,,,,,,,,,,,,,,,,,,,,,,,,,,275.7683,282.391,0.198888889,0.256111111,1,0,0,0.621,compass,0,1,1,32,1,SoundStimuli/Dilemma_NellyKellyRowland_Cover5S.wav,,,,,,,,,,,,,,,,,,,,,,,,,,,,,,,,,,,,,,,,,,,,,,,,,,,,
,,,,,516664,001,2024-07-12_18h06.28.174,experiment,2024.1.5,Win32,58.47953216,6682bc923a62b9b1519eba14,6691931c2c63981b064e1f0c,6691b621f1df4ac97631a842,,,,,,,,,,,,,,,,,,,,,,,,,,,,,,,,,,,,,,,,,,,,,,,,,,,,,,,,,,,,282.4483,288.8824,0.282777778,0.189444444,1,0,0,0.4255,compass,0,2,2,29,1,SoundStimuli/BetteDavisEyes_KimCarnes_Original5S.wav,,,,,,,,,,,,,,,,,,,,,,,,,,,,,,,,,,,,,,,,,,,,,,,,,,,,
,,,,,516664,001,2024-07-12_18h06.28.174,experiment,2024.1.5,Win32,58.47953216,6682bc923a62b9b1519eba14,6691931c2c63981b064e1f0c,6691b621f1df4ac97631a842,,,,,,,,,,,,,,,,,,,,,,,,,,,,,,,,,,,,,,,,,,,,,,,,,,,,,,,,,,,,288.9704,295.613,0.29,-0.161111111,1,0,0,0.6325,compass,0,3,3,19,1,SoundStimuli/YouLightUpMyLife_DebbyBoone_Original5S.wav,,,,,,,,,,,,,,,,,,,,,,,,,,,,,,,,,,,,,,,,,,,,,,,,,,,,
,,,,,516664,001,2024-07-12_18h06.28.174,experiment,2024.1.5,Win32,58.47953216,6682bc923a62b9b1519eba14,6691931c2c63981b064e1f0c,6691b621f1df4ac97631a842,,,,,,,,,,,,,,,,,,,,,,,,,,,,,,,,,,,,,,,,,,,,,,,,,,,,,,,,,,,,295.6141,301.9827,-0.246111111,0.26,1,0,0,0.3653,compass,0,4,4,27,1,SoundStimuli/EyeOfTheTiger_Survivor_Cover5S.wav,,,,,,,,,,,,,,,,,,,,,,,,,,,,,,,,,,,,,,,,,,,,,,,,,,,,
,,,,,516664,001,2024-07-12_18h06.28.174,experiment,2024.1.5,Win32,58.47953216,6682bc923a62b9b1519eba14,6691931c2c63981b064e1f0c,6691b621f1df4ac97631a842,,,,,,,,,,,,,,,,,,,,,,,,,,,,,,,,,,,,,,,,,,,,,,,,,,,,,,,,,,,,302.0419,308.3734,0.327222222,0.332777778,1,0,0,0.3226,compass,0,5,5,22,1,SoundStimuli/Happy_PharellWilliams_Original5S.wav,,,,,,,,,,,,,,,,,,,,,,,,,,,,,,,,,,,,,,,,,,,,,,,,,,,,
,,,,,516664,001,2024-07-12_18h06.28.174,experiment,2024.1.5,Win32,58.47953216,6682bc923a62b9b1519eba14,6691931c2c63981b064e1f0c,6691b621f1df4ac97631a842,,,,,,,,,,,,,,,,,,,,,,,,,,,,,,,,,,,,,,,,,,,,,,,,,,,,,,,,,,,,308.4366,314.9832,-0.297222222,-0.30222229,1,0,0,0.5409,compass,0,6,6,33,1,SoundStimuli/TheBoyIsMine_BrandyMonica_Original5S.wav,,,,,,,,,,,,,,,,,,,,,,,,,,,,,,,,,,,,,,,,,,,,,,,,,,,,
,,,,,516664,001,2024-07-12_18h06.28.174,experiment,2024.1.5,Win32,58.47953216,6682bc923a62b9b1519eba14,6691931c2c63981b064e1f0c,6691b621f1df4ac97631a842,,,,,,,,,,,,,,,,,,,,,,,,,,,,,,,,,,,,,,,,,,,,,,,,,,,,,,,,,,,,315.049,321.4991,-0.296666667,-0.30222229,1,0,0,0.4312,compass,0,7,7,24,1,SoundStimuli/Kiss_Prince_Cover5S.wav,,,,,,,,,,,,,,,,,,,,,,,,,,,,,,,,,,,,,,,,,,,,,,,,,,,,
,,,,,516664,001,2024-07-12_18h06.28.174,experiment,2024.1.5,Win32,58.47953216,6682bc923a62b9b1519eba14,6691931c2c63981b064e1f0c,6691b621f1df4ac97631a842,,,,,,,,,,,,,,,,,,,,,,,,,,,,,,,,,,,,,,,,,,,,,,,,,,,,,,,,,,,,321.5384,329.347,-0.32,0.307222222,1,0,0,1.8039,compass,0,8,8,10,1,SoundStimuli/LeFreak_Chic_Cover5S.wav,,,,,,,,,,,,,,,,,,,,,,,,,,,,,,,,,,,,,,,,,,,,,,,,,,,,
,,,,,516664,001,2024-07-12_18h06.28.174,experiment,2024.1.5,Win32,58.47953216,6682bc923a62b9b1519eba14,6691931c2c63981b064e1f0c,6691b621f1df4ac97631a842,,,,,,,,,,,,,,,,,,,,,,,,,,,,,,,,,,,,,,,,,,,,,,,,,,,,,,,,,,,,329.3651,336.0508,-0.287777778,0.32,1,0,0,0.662,compass,0,9,9,26,1,SoundStimuli/TheSign_AceOfBase_Cover5S.wav,,,,,,,,,,,,,,,,,,,,,,,,,,,,,,,,,,,,,,,,,,,,,,,,,,,,
,,,,,516664,001,2024-07-12_18h06.28.174,experiment,2024.1.5,Win32,58.47953216,6682bc923a62b9b1519eba14,6691931c2c63981b064e1f0c,6691b621f1df4ac97631a842,,,,,,,,,,,,,,,,,,,,,,,,,,,,,,,,,,,,,,,,,,,,,,,,,,,,,,,,,,,,336.1186,342.4821,0.327777778,-0.319444444,1,0,0,0.3571,compass,0,10,10,21,1,SoundStimuli/BridgeOverTroubledWater_SimonAndGarfunkel_Original5S.wav,,,,,,,,,,,,,,,,,,,,,,,,,,,,,,,,,,,,,,,,,,,,,,,,,,,,
,,,,,516664,001,2024-07-12_18h06.28.174,experiment,2024.1.5,Win32,58.47953216,6682bc923a62b9b1519eba14,6691931c2c63981b064e1f0c,6691b621f1df4ac97631a842,,,,,,,,,,,,,,,,,,,,,,,,,,,,,,,,,,,,,,,,,,,,,,,,,,,,,,,,,,,,342.5497,349.368,-0.322777778,0.32166665,1,0,0,0.7978,compass,0,11,11,1,1,SoundStimuli/Smooth_SantanaRobThomas_Original5S.wav,,,,,,,,,,,,,,,,,,,,,,,,,,,,,,,,,,,,,,,,,,,,,,,,,,,,
,,,,,516664,001,2024-07-12_18h06.28.174,experiment,2024.1.5,Win32,58.47953216,6682bc923a62b9b1519eba14,6691931c2c63981b064e1f0c,6691b621f1df4ac97631a842,,,,,,,,,,,,,,,,,,,,,,,,,,,,,,,,,,,,,,,,,,,,,,,,,,,,,,,,,,,,349.4394,355.9658,-0.31,0.25,1,0,0,0.5219,compass,0,12,12,31,1,SoundStimuli/TossinAndTurnin_BobbyLewis_Original5S.wav,,,,,,,,,,,,,,,,,,,,,,,,,,,,,,,,,,,,,,,,,,,,,,,,,,,,
,,,,,516664,001,2024-07-12_18h06.28.174,experiment,2024.1.5,Win32,58.47953216,6682bc923a62b9b1519eba14,6691931c2c63981b064e1f0c,6691b621f1df4ac97631a842,,,,,,,,,,,,,,,,,,,,,,,,,,,,,,,,,,,,,,,,,,,,,,,,,,,,,,,,,,,,355.9856,363.3175,0.235555623,-0.295555556,1,0,0,1.3166,compass,0,13,13,7,1,SoundStimuli/MackTheKnife_BobbyDarin_Cover5S.wav,,,,,,,,,,,,,,,,,,,,,,,,,,,,,,,,,,,,,,,,,,,,,,,,,,,,
,,,,,516664,001,2024-07-12_18h06.28.174,experiment,2024.1.5,Win32,58.47953216,6682bc923a62b9b1519eba14,6691931c2c63981b064e1f0c,6691b621f1df4ac97631a842,,,,,,,,,,,,,,,,,,,,,,,,,,,,,,,,,,,,,,,,,,,,,,,,,,,,,,,,,,,,363.3524,370.1529,-0.304444444,-0.248888889,1,0,0,0.7855,compass,0,14,14,28,1,SoundStimuli/IWantToHoldYourHand_TheBeatles_Original5S.wav,,,,,,,,,,,,,,,,,,,,,,,,,,,,,,,,,,,,,,,,,,,,,,,,,,,,
,,,,,516664,001,2024-07-12_18h06.28.174,experiment,2024.1.5,Win32,58.47953216,6682bc923a62b9b1519eba14,6691931c2c63981b064e1f0c,6691b621f1df4ac97631a842,,,,,,,,,,,,,,,,,,,,,,,,,,,,,,,,,,,,,,,,,,,,,,,,,,,,,,,,,,,,370.2151,377.8696,0.319444444,0.307222222,1,0,0,1.6508,compass,0,15,15,3,1,SoundStimuli/PartyRockAnthem_LMFAO_Original5S.wav,,,,,,,,,,,,,,,,,,,,,,,,,,,,,,,,,,,,,,,,,,,,,,,,,,,,
,,,,,516664,001,2024-07-12_18h06.28.174,experiment,2024.1.5,Win32,58.47953216,6682bc923a62b9b1519eba14,6691931c2c63981b064e1f0c,6691b621f1df4ac97631a842,,,,,,,,,,,,,,,,,,,,,,,,,,,,,,,,,,,,,,,,,,,,,,,,,,,,,,,,,,,,377.9345,384.4822,-0.331111111,-0.348888889,1,0,0,0.5406,compass,0,16,16,12,1,SoundStimuli/UnbreakMyHeart_ToniBraxton_Original5S.wav,,,,,,,,,,,,,,,,,,,,,,,,,,,,,,,,,,,,,,,,,,,,,,,,,,,,
,,,,,516664,001,2024-07-12_18h06.28.174,experiment,2024.1.5,Win32,58.47953216,6682bc923a62b9b1519eba14,6691931c2c63981b064e1f0c,6691b621f1df4ac97631a842,,,,,,,,,,,,,,,,,,,,,,,,,,,,,,,,,,,,,,,,,,,,,,,,,,,,,,,,,,,,384.548,390.8022,0.322777778,0.336666667,1,0,0,0.2409,compass,0,17,17,17,1,SoundStimuli/IWannaDanceWithSomebody_WhitneyHouston_Original5S.wav,,,,,,,,,,,,,,,,,,,,,,,,,,,,,,,,,,,,,,,,,,,,,,,,,,,,
,,,,,516664,001,2024-07-12_18h06.28.174,experiment,2024.1.5,Win32,58.47953216,6682bc923a62b9b1519eba14,6691931c2c63981b064e1f0c,6691b621f1df4ac97631a842,,,,,,,,,,,,,,,,,,,,,,,,,,,,,,,,,,,,,,,,,,,,,,,,,,,,,,,,,,,,390.8776,397.5417,0.310555556,-0.330000068,1,0,0,0.6592,compass,0,18,18,13,1,SoundStimuli/Perfect_EdSheeran_Cover5S.wav,,,,,,,,,,,,,,,,,,,,,,,,,,,,,,,,,,,,,,,,,,,,,,,,,,,,
,,,,,516664,001,2024-07-12_18h06.28.174,experiment,2024.1.5,Win32,58.47953216,6682bc923a62b9b1519eba14,6691931c2c63981b064e1f0c,6691b621f1df4ac97631a842,,,,,,,,,,,,,,,,,,,,,,,,,,,,,,,,,,,,,,,,,,,,,,,,,,,,,,,,,,,,397.6079,404.1239,0.312777778,0.167222222,1,0,0,0.4964,compass,0,19,19,11,1,SoundStimuli/BlurredLines_RobinThicke_Cover5S.wav,,,,,,,,,,,,,,,,,,,,,,,,,,,,,,,,,,,,,,,,,,,,,,,,,,,,
,,,,,516664,001,2024-07-12_18h06.28.174,experiment,2024.1.5,Win32,58.47953216,6682bc923a62b9b1519eba14,6691931c2c63981b064e1f0c,6691b621f1df4ac97631a842,,,,,,,,,,,,,,,,,,,,,,,,,,,,,,,,,,,,,,,,,,,,,,,,,,,,,,,,,,,,404.1687,410.95,0.287222222,-0.289444444,1,0,0,0.762,compass,0,20,20,18,1,SoundStimuli/Weak_SWV_Cover5S.wav,,,,,,,,,,,,,,,,,,,,,,,,,,,,,,,,,,,,,,,,,,,,,,,,,,,,
,,,,,516664,001,2024-07-12_18h06.28.174,experiment,2024.1.5,Win32,58.47953216,6682bc923a62b9b1519eba14,6691931c2c63981b064e1f0c,6691b621f1df4ac97631a842,,,,,,,,,,,,,,,,,,,,,,,,,,,,,,,,,,,,,,,,,,,,,,,,,,,,,,,,,,,,411.0106,417.5019,-0.265,0.254999983,1,0,0,0.4891,compass,0,21,21,2,1,SoundStimuli/SmellsLikeTeenSpirit_Nirvana_Original5S.wav,,,,,,,,,,,,,,,,,,,,,,,,,,,,,,,,,,,,,,,,,,,,,,,,,,,,
,,,,,516664,001,2024-07-12_18h06.28.174,experiment,2024.1.5,Win32,58.47953216,6682bc923a62b9b1519eba14,6691931c2c63981b064e1f0c,6691b621f1df4ac97631a842,,,,,,,,,,,,,,,,,,,,,,,,,,,,,,,,,,,,,,,,,,,,,,,,,,,,,,,,,,,,417.58,425.8103,-0.248333333,-0.26,1,0,0,2.2246,compass,0,22,22,6,1,SoundStimuli/SaveYourTears_TheWeekndArianaGrande_Cover5S.wav,,,,,,,,,,,,,,,,,,,,,,,,,,,,,,,,,,,,,,,,,,,,,,,,,,,,
,,,,,516664,001,2024-07-12_18h06.28.174,experiment,2024.1.5,Win32,58.47953216,6682bc923a62b9b1519eba14,6691931c2c63981b064e1f0c,6691b621f1df4ac97631a842,,,,,,,,,,,,,,,,,,,,,,,,,,,,,,,,,,,,,,,,,,,,,,,,,,,,,,,,,,,,425.8864,433.4895,0.316111111,0.119444444,1,0,0,1.5994,compass,0,23,23,4,1,SoundStimuli/Dreams_FleetwoodMac_Original5S.wav,,,,,,,,,,,,,,,,,,,,,,,,,,,,,,,,,,,,,,,,,,,,,,,,,,,,
,,,,,516664,001,2024-07-12_18h06.28.174,experiment,2024.1.5,Win32,58.47953216,6682bc923a62b9b1519eba14,6691931c2c63981b064e1f0c,6691b621f1df4ac97631a842,,,,,,,,,,,,,,,,,,,,,,,,,,,,,,,,,,,,,,,,,,,,,,,,,,,,,,,,,,,,433.5275,442.9024,0.202777778,0.178888889,1,0,0,3.3729,compass,0,24,24,15,1,SoundStimuli/CrazyInLove_BeyonceFtJayZ_Cover5S.wav,,,,,,,,,,,,,,,,,,,,,,,,,,,,,,,,,,,,,,,,,,,,,,,,,,,,
,,,,,516664,001,2024-07-12_18h06.28.174,experiment,2024.1.5,Win32,58.47953216,6682bc923a62b9b1519eba14,6691931c2c63981b064e1f0c,6691b621f1df4ac97631a842,,,,,,,,,,,,,,,,,,,,,,,,,,,,,,,,,,,,,,,,,,,,,,,,,,,,,,,,,,,,442.9302,450.9447,0.24,0.26,1,0,0,2.0035,compass,0,25,25,34,1,SoundStimuli/Irreplaceable_Beyonce_Cover5S.wav,,,,,,,,,,,,,,,,,,,,,,,,,,,,,,,,,,,,,,,,,,,,,,,,,,,,
,,,,,516664,001,2024-07-12_18h06.28.174,experiment,2024.1.5,Win32,58.47953216,6682bc923a62b9b1519eba14,6691931c2c63981b064e1f0c,6691b621f1df4ac97631a842,,,,,,,,,,,,,,,,,,,,,,,,,,,,,,,,,,,,,,,,,,,,,,,,,,,,,,,,,,,,451.0038,460.1134,0.303888889,0.308333333,1,0,0,3.0901,compass,0,26,26,14,1,SoundStimuli/LikeARollingStone_BobDylan_Original5S.wav,,,,,,,,,,,,,,,,,,,,,,,,,,,,,,,,,,,,,,,,,,,,,,,,,,,,
,,,,,516664,001,2024-07-12_18h06.28.174,experiment,2024.1.5,Win32,58.47953216,6682bc923a62b9b1519eba14,6691931c2c63981b064e1f0c,6691b621f1df4ac97631a842,,,,,,,,,,,,,,,,,,,,,,,,,,,,,,,,,,,,,,,,,,,,,,,,,,,,,,,,,,,,460.1849,466.9326,-0.302222222,0.233333333,1,0,0,0.7328,compass,0,27,27,5,1,SoundStimuli/JoyToTheWorld_ThreeDogNight_Original5S.wav,,,,,,,,,,,,,,,,,,,,,,,,,,,,,,,,,,,,,,,,,,,,,,,,,,,,
,,,,,516664,001,2024-07-12_18h06.28.174,experiment,2024.1.5,Win32,58.47953216,6682bc923a62b9b1519eba14,6691931c2c63981b064e1f0c,6691b621f1df4ac97631a842,,,,,,,,,,,,,,,,,,,,,,,,,,,,,,,,,,,,,,,,,,,,,,,,,,,,,,,,,,,,466.961,473.5292,0.34,-0.326666667,1,0,0,0.5672,compass,0,28,28,25,1,SoundStimuli/IllMakeLoveToYou_BoyzIIMen_Cover5S.wav,,,,,,,,,,,,,,,,,,,,,,,,,,,,,,,,,,,,,,,,,,,,,,,,,,,,
,,,,,516664,001,2024-07-12_18h06.28.174,experiment,2024.1.5,Win32,58.47953216,6682bc923a62b9b1519eba14,6691931c2c63981b064e1f0c,6691b621f1df4ac97631a842,,,,,,,,,,,,,,,,,,,,,,,,,,,,,,,,,,,,,,,,,,,,,,,,,,,,,,,,,,,,473.5869,480.5639,-0.286666667,-0.236111111,1,0,0,0.9727,compass,0,29,29,16,1,SoundStimuli/ItsAllInTheGame_TommyEdwards_Cover5S.wav,,,,,,,,,,,,,,,,,,,,,,,,,,,,,,,,,,,,,,,,,,,,,,,,,,,,
,,,,,516664,001,2024-07-12_18h06.28.174,experiment,2024.1.5,Win32,58.47953216,6682bc923a62b9b1519eba14,6691931c2c63981b064e1f0c,6691b621f1df4ac97631a842,,,,,,,,,,,,,,,,,,,,,,,,,,,,,,,,,,,,,,,,,,,,,,,,,,,,,,,,,,,,480.6171,487.0276,0.217777778,0.254444444,1,0,0,0.4073,compass,0,30,30,9,1,SoundStimuli/HowDoILive_LeAnnRimes_Cover5S.wav,,,,,,,,,,,,,,,,,,,,,,,,,,,,,,,,,,,,,,,,,,,,,,,,,,,,
,,,,,516664,001,2024-07-12_18h06.28.174,experiment,2024.1.5,Win32,58.47953216,6682bc923a62b9b1519eba14,6691931c2c63981b064e1f0c,6691b621f1df4ac97631a842,,,,,,,,,,,,,,,,,,,,,,,,,,,,,,,,,,,,,,,,,,,,,,,,,,,,,,,,,,,,487.0842,493.5124,-0.180555556,0.32,1,0,0,0.4217,compass,0,31,31,20,1,SoundStimuli/FlashdanceWhatAFeeling_IreneCara_Original5S.wav,,,,,,,,,,,,,,,,,,,,,,,,,,,,,,,,,,,,,,,,,,,,,,,,,,,,
,,,,,516664,001,2024-07-12_18h06.28.174,experiment,2024.1.5,Win32,58.47953216,6682bc923a62b9b1519eba14,6691931c2c63981b064e1f0c,6691b621f1df4ac97631a842,,,,,,,,,,,,,,,,,,,,,,,,,,,,,,,,,,,,,,,,,,,,,,,,,,,,,,,,,,,,493.5358,500.7901,0.273333333,-0.271666734,1,0,0,1.2505,compass,0,32,32,8,1,SoundStimuli/EndlessLove_DianaRossLionelRichie_Cover5S.wav,,,,,,,,,,,,,,,,,,,,,,,,,,,,,,,,,,,,,,,,,,,,,,,,,,,,
,,,,,516664,001,2024-07-12_18h06.28.174,experiment,2024.1.5,Win32,58.47953216,6682bc923a62b9b1519eba14,6691931c2c63981b064e1f0c,6691b621f1df4ac97631a842,,,,,,,,,,,,,,,,,,,,,,,,,,,,,,,,,,,,,,,,,,,,,,,,,,,,,,,,,,,,500.8929,507.5142,-0.181666667,-0.161111111,1,0,0,0.6202,compass,0,33,33,30,1,SoundStimuli/SomebodyThatIUsedtoKnow_Gotye_Original5S.wav,,,,,,,,,,,,,,,,,,,,,,,,,,,,,,,,,,,,,,,,,,,,,,,,,,,,
,,,,,516664,001,2024-07-12_18h06.28.174,experiment,2024.1.5,Win32,58.47953216,6682bc923a62b9b1519eba14,6691931c2c63981b064e1f0c,6691b621f1df4ac97631a842,,,,,,,,,,,,,,,,,,,,,,,,,,,,,,,,,,,,,,,,,,,,,,,,,,,,,,,,,,,,507.5346,515.0548,-0.338888889,0.258333333,1,0,0,1.5108,compass,0,34,34,0,1,SoundStimuli/GimmeShelter_RollingStones_Original5S.wav,,,,,,,,,,,,,,,,,,,,,,,,,,,,,,,,,,,,,,,,,,,,,,,,,,,,
,,,,,516664,001,2024-07-12_18h06.28.174,experiment,2024.1.5,Win32,58.47953216,6682bc923a62b9b1519eba14,6691931c2c63981b064e1f0c,6691b621f1df4ac97631a842,,,,,,,,,,,,,,,,,,,,,,,,,,,,,,,,,,,,,,,,,,,,,,,,,,,,,,,,,,,,,,,,,,,,,,,,,,,515.1169,519.6986,space,4.5502,,519.6989,528.5392,right,8.8138,,0,0,0,0,1,block_order/blockD.xlsx,,,,,,,,,,,,,,,,,,,,,,,,,,,,,,,,,,,,
,,,,,516664,001,2024-07-12_18h06.28.174,experiment,2024.1.5,Win32,58.47953216,6682bc923a62b9b1519eba14,6691931c2c63981b064e1f0c,6691b621f1df4ac97631a842,,,,,,,,,,,,,,,,,,,,,,,,,,,,,,,,,,,,,,,,,,,,,,,,,,,,,,,,,,,,528.5632,538.7758,0.228333333,-0.329444444,1,0,0,4.204,compass,0,0,0,22,1,SoundStimuli/RockWithYou_MichaelJackson_Cover5S.wav,,,,,,,,,,,,,,,,,,,,,,,,,,,,,,,,,,,,,,,,,,,,,,,,,,,,
,,,,,516664,001,2024-07-12_18h06.28.174,experiment,2024.1.5,Win32,58.47953216,6682bc923a62b9b1519eba14,6691931c2c63981b064e1f0c,6691b621f1df4ac97631a842,,,,,,,,,,,,,,,,,,,,,,,,,,,,,,,,,,,,,,,,,,,,,,,,,,,,,,,,,,,,538.7941,545.3911,-0.216111111,0.326111111,1,0,0,0.5908,compass,0,1,1,15,1,SoundStimuli/TikTok_Kesha_Original5S.wav,,,,,,,,,,,,,,,,,,,,,,,,,,,,,,,,,,,,,,,,,,,,,,,,,,,,
,,,,,516664,001,2024-07-12_18h06.28.174,experiment,2024.1.5,Win32,58.47953216,6682bc923a62b9b1519eba14,6691931c2c63981b064e1f0c,6691b621f1df4ac97631a842,,,,,,,,,,,,,,,,,,,,,,,,,,,,,,,,,,,,,,,,,,,,,,,,,,,,,,,,,,,,545.4399,552.0414,0.288888889,0.310555539,1,0,0,0.6003,compass,0,2,2,9,1,SoundStimuli/Despacito_LuisFonsiDaddyYankee_Original5S.wav,,,,,,,,,,,,,,,,,,,,,,,,,,,,,,,,,,,,,,,,,,,,,,,,,,,,
,,,,,516664,001,2024-07-12_18h06.28.174,experiment,2024.1.5,Win32,58.47953216,6682bc923a62b9b1519eba14,6691931c2c63981b064e1f0c,6691b621f1df4ac97631a842,,,,,,,,,,,,,,,,,,,,,,,,,,,,,,,,,,,,,,,,,,,,,,,,,,,,,,,,,,,,552.0661,558.6796,-0.221111111,0.337777778,1,0,0,0.5988,compass,0,3,3,21,1,SoundStimuli/GoodGollyMissMolly_LittleRichard_Original5S.wav,,,,,,,,,,,,,,,,,,,,,,,,,,,,,,,,,,,,,,,,,,,,,,,,,,,,
,,,,,516664,001,2024-07-12_18h06.28.174,experiment,2024.1.5,Win32,58.47953216,6682bc923a62b9b1519eba14,6691931c2c63981b064e1f0c,6691b621f1df4ac97631a842,,,,,,,,,,,,,,,,,,,,,,,,,,,,,,,,,,,,,,,,,,,,,,,,,,,,,,,,,,,,558.7364,565.4979,-0.233333333,-0.300555556,1,0,0,0.7599,compass,0,4,4,1,1,SoundStimuli/Stronger_KanyeWest_Cover5S.wav,,,,,,,,,,,,,,,,,,,,,,,,,,,,,,,,,,,,,,,,,,,,,,,,,,,,
,,,,,516664,001,2024-07-12_18h06.28.174,experiment,2024.1.5,Win32,58.47953216,6682bc923a62b9b1519eba14,6691931c2c63981b064e1f0c,6691b621f1df4ac97631a842,,,,,,,,,,,,,,,,,,,,,,,,,,,,,,,,,,,,,,,,,,,,,,,,,,,,,,,,,,,,565.5167,573.7235,-0.287777778,0.242777778,1,0,0,2.1998,compass,0,5,5,20,1,SoundStimuli/HeyYa_Outkast_Original5S.wav,,,,,,,,,,,,,,,,,,,,,,,,,,,,,,,,,,,,,,,,,,,,,,,,,,,,
,,,,,516664,001,2024-07-12_18h06.28.174,experiment,2024.1.5,Win32,58.47953216,6682bc923a62b9b1519eba14,6691931c2c63981b064e1f0c,6691b621f1df4ac97631a842,,,,,,,,,,,,,,,,,,,,,,,,,,,,,,,,,,,,,,,,,,,,,,,,,,,,,,,,,,,,573.7571,584.1119,0.218888957,-0.290555556,1,0,0,4.3457,compass,0,6,6,5,1,SoundStimuli/MyGirl_TheTemptations_Cover5S.wav,,,,,,,,,,,,,,,,,,,,,,,,,,,,,,,,,,,,,,,,,,,,,,,,,,,,
,,,,,516664,001,2024-07-12_18h06.28.174,experiment,2024.1.5,Win32,58.47953216,6682bc923a62b9b1519eba14,6691931c2c63981b064e1f0c,6691b621f1df4ac97631a842,,,,,,,,,,,,,,,,,,,,,,,,,,,,,,,,,,,,,,,,,,,,,,,,,,,,,,,,,,,,584.1281,591.5219,0.298888889,0.216111094,1,0,0,1.3907,compass,0,7,7,14,1,SoundStimuli/BlindingLights_TheWeeknd_Cover5S.wav,,,,,,,,,,,,,,,,,,,,,,,,,,,,,,,,,,,,,,,,,,,,,,,,,,,,
,,,,,516664,001,2024-07-12_18h06.28.174,experiment,2024.1.5,Win32,58.47953216,6682bc923a62b9b1519eba14,6691931c2c63981b064e1f0c,6691b621f1df4ac97631a842,,,,,,,,,,,,,,,,,,,,,,,,,,,,,,,,,,,,,,,,,,,,,,,,,,,,,,,,,,,,591.5784,601.5837,0.318333333,-0.234444444,1,0,0,3.9986,compass,0,8,8,8,1,SoundStimuli/LikeAPrayer_Madonna_Cover5S.wav,,,,,,,,,,,,,,,,,,,,,,,,,,,,,,,,,,,,,,,,,,,,,,,,,,,,
,,,,,516664,001,2024-07-12_18h06.28.174,experiment,2024.1.5,Win32,58.47953216,6682bc923a62b9b1519eba14,6691931c2c63981b064e1f0c,6691b621f1df4ac97631a842,,,,,,,,,,,,,,,,,,,,,,,,,,,,,,,,,,,,,,,,,,,,,,,,,,,,,,,,,,,,601.6506,609.7163,0.318333333,0.149444444,1,0,0,2.0639,compass,0,9,9,30,1,SoundStimuli/PokerFace_LadyGaga_Cover5S.wav,,,,,,,,,,,,,,,,,,,,,,,,,,,,,,,,,,,,,,,,,,,,,,,,,,,,
,,,,,516664,001,2024-07-12_18h06.28.174,experiment,2024.1.5,Win32,58.47953216,6682bc923a62b9b1519eba14,6691931c2c63981b064e1f0c,6691b621f1df4ac97631a842,,,,,,,,,,,,,,,,,,,,,,,,,,,,,,,,,,,,,,,,,,,,,,,,,,,,,,,,,,,,609.7881,616.813,-0.186111111,0.201111111,1,0,0,1.0183,compass,0,10,10,11,1,SoundStimuli/Superstition_StevieWonder_Original5S.wav,,,,,,,,,,,,,,,,,,,,,,,,,,,,,,,,,,,,,,,,,,,,,,,,,,,,
,,,,,516664,001,2024-07-12_18h06.28.174,experiment,2024.1.5,Win32,58.47953216,6682bc923a62b9b1519eba14,6691931c2c63981b064e1f0c,6691b621f1df4ac97631a842,,,,,,,,,,,,,,,,,,,,,,,,,,,,,,,,,,,,,,,,,,,,,,,,,,,,,,,,,,,,616.8933,623.4664,0.227777778,0.225,1,0,0,0.5683,compass,0,11,11,17,1,SoundStimuli/Fallin_AliciaKeys_Cover5S.wav,,,,,,,,,,,,,,,,,,,,,,,,,,,,,,,,,,,,,,,,,,,,,,,,,,,,
,,,,,516664,001,2024-07-12_18h06.28.174,experiment,2024.1.5,Win32,58.47953216,6682bc923a62b9b1519eba14,6691931c2c63981b064e1f0c,6691b621f1df4ac97631a842,,,,,,,,,,,,,,,,,,,,,,,,,,,,,,,,,,,,,,,,,,,,,,,,,,,,,,,,,,,,623.5067,630.1014,0.347222222,-0.331111111,1,0,0,0.5883,compass,0,12,12,10,1,SoundStimuli/BadDay_DanielPowter_Original5S.wav,,,,,,,,,,,,,,,,,,,,,,,,,,,,,,,,,,,,,,,,,,,,,,,,,,,,
,,,,,516664,001,2024-07-12_18h06.28.174,experiment,2024.1.5,Win32,58.47953216,6682bc923a62b9b1519eba14,6691931c2c63981b064e1f0c,6691b621f1df4ac97631a842,,,,,,,,,,,,,,,,,,,,,,,,,,,,,,,,,,,,,,,,,,,,,,,,,,,,,,,,,,,,630.1607,636.7833,-0.335555556,0.348888889,1,0,0,0.6011,compass,0,13,13,24,1,SoundStimuli/UptownFunk_MarkRonson_Cover5S.wav,,,,,,,,,,,,,,,,,,,,,,,,,,,,,,,,,,,,,,,,,,,,,,,,,,,,
,,,,,516664,001,2024-07-12_18h06.28.174,experiment,2024.1.5,Win32,58.47953216,6682bc923a62b9b1519eba14,6691931c2c63981b064e1f0c,6691b621f1df4ac97631a842,,,,,,,,,,,,,,,,,,,,,,,,,,,,,,,,,,,,,,,,,,,,,,,,,,,,,,,,,,,,636.8472,643.8466,0.334444444,0.342777778,1,0,0,0.994,compass,0,14,14,33,1,SoundStimuli/StandByMe_BenEKing_Original5S.wav,,,,,,,,,,,,,,,,,,,,,,,,,,,,,,,,,,,,,,,,,,,,,,,,,,,,
,,,,,516664,001,2024-07-12_18h06.28.174,experiment,2024.1.5,Win32,58.47953216,6682bc923a62b9b1519eba14,6691931c2c63981b064e1f0c,6691b621f1df4ac97631a842,,,,,,,,,,,,,,,,,,,,,,,,,,,,,,,,,,,,,,,,,,,,,,,,,,,,,,,,,,,,643.9073,651.5157,0.331666667,-0.345,1,0,0,1.5988,compass,0,15,15,7,1,SoundStimuli/NoOne_AliciaKeys_Original5S.wav,,,,,,,,,,,,,,,,,,,,,,,,,,,,,,,,,,,,,,,,,,,,,,,,,,,,
,,,,,516664,001,2024-07-12_18h06.28.174,experiment,2024.1.5,Win32,58.47953216,6682bc923a62b9b1519eba14,6691931c2c63981b064e1f0c,6691b621f1df4ac97631a842,,,,,,,,,,,,,,,,,,,,,,,,,,,,,,,,,,,,,,,,,,,,,,,,,,,,,,,,,,,,651.5317,659.9746,0.315,-0.29,1,0,0,2.4336,compass,0,16,16,27,1,SoundStimuli/ShapeofYou_EdSheeran_Cover5S.wav,,,,,,,,,,,,,,,,,,,,,,,,,,,,,,,,,,,,,,,,,,,,,,,,,,,,
,,,,,516664,001,2024-07-12_18h06.28.174,experiment,2024.1.5,Win32,58.47953216,6682bc923a62b9b1519eba14,6691931c2c63981b064e1f0c,6691b621f1df4ac97631a842,,,,,,,,,,,,,,,,,,,,,,,,,,,,,,,,,,,,,,,,,,,,,,,,,,,,,,,,,,,,659.9896,666.5322,-0.322777778,-0.330000068,1,0,0,0.5387,compass,0,17,17,13,1,SoundStimuli/GodOnlyKnows_TheBeachBoys_Original5S.wav,,,,,,,,,,,,,,,,,,,,,,,,,,,,,,,,,,,,,,,,,,,,,,,,,,,,
,,,,,516664,001,2024-07-12_18h06.28.174,experiment,2024.1.5,Win32,58.47953216,6682bc923a62b9b1519eba14,6691931c2c63981b064e1f0c,6691b621f1df4ac97631a842,,,,,,,,,,,,,,,,,,,,,,,,,,,,,,,,,,,,,,,,,,,,,,,,,,,,,,,,,,,,666.6212,673.6721,0.333333333,-0.321666734,1,0,0,1.044,compass,0,18,18,34,1,SoundStimuli/AChangeIsGonnaCome_SamCooke_Original5S.wav,,,,,,,,,,,,,,,,,,,,,,,,,,,,,,,,,,,,,,,,,,,,,,,,,,,,
,,,,,516664,001,2024-07-12_18h06.28.174,experiment,2024.1.5,Win32,58.47953216,6682bc923a62b9b1519eba14,6691931c2c63981b064e1f0c,6691b621f1df4ac97631a842,,,,,,,,,,,,,,,,,,,,,,,,,,,,,,,,,,,,,,,,,,,,,,,,,,,,,,,,,,,,673.7356,679.8608,-0.281666667,0.237777778,1,0,0,0.1006,compass,0,19,19,28,1,SoundStimuli/ComeAndGetYourLove_Redbone_Cover5S.wav,,,,,,,,,,,,,,,,,,,,,,,,,,,,,,,,,,,,,,,,,,,,,,,,,,,,
,,,,,516664,001,2024-07-12_18h06.28.174,experiment,2024.1.5,Win32,58.47953216,6682bc923a62b9b1519eba14,6691931c2c63981b064e1f0c,6691b621f1df4ac97631a842,,,,,,,,,,,,,,,,,,,,,,,,,,,,,,,,,,,,,,,,,,,,,,,,,,,,,,,,,,,,679.9358,686.3568,0.292222222,0.325,1,0,0,0.4084,compass,0,20,20,6,1,SoundStimuli/Levitating_DuaLipa_Original5S.wav,,,,,,,,,,,,,,,,,,,,,,,,,,,,,,,,,,,,,,,,,,,,,,,,,,,,
,,,,,516664,001,2024-07-12_18h06.28.174,experiment,2024.1.5,Win32,58.47953216,6682bc923a62b9b1519eba14,6691931c2c63981b064e1f0c,6691b621f1df4ac97631a842,,,,,,,,,,,,,,,,,,,,,,,,,,,,,,,,,,,,,,,,,,,,,,,,,,,,,,,,,,,,686.3925,694.7591,0.203333333,0.086666667,1,0,0,2.3626,compass,0,21,21,18,1,SoundStimuli/AnotherOneBitesTheDust_Queen_Cover5S.wav,,,,,,,,,,,,,,,,,,,,,,,,,,,,,,,,,,,,,,,,,,,,,,,,,,,,
,,,,,516664,001,2024-07-12_18h06.28.174,experiment,2024.1.5,Win32,58.47953216,6682bc923a62b9b1519eba14,6691931c2c63981b064e1f0c,6691b621f1df4ac97631a842,,,,,,,,,,,,,,,,,,,,,,,,,,,,,,,,,,,,,,,,,,,,,,,,,,,,,,,,,,,,694.8198,702.2513,0.275555556,0.19,1,0,0,1.4287,compass,0,22,22,32,1,SoundStimuli/HeatWaves_GlassAnimals_Cover5S.wav,,,,,,,,,,,,,,,,,,,,,,,,,,,,,,,,,,,,,,,,,,,,,,,,,,,,
,,,,,516664,001,2024-07-12_18h06.28.174,experiment,2024.1.5,Win32,58.47953216,6682bc923a62b9b1519eba14,6691931c2c63981b064e1f0c,6691b621f1df4ac97631a842,,,,,,,,,,,,,,,,,,,,,,,,,,,,,,,,,,,,,,,,,,,,,,,,,,,,,,,,,,,,702.3146,710.5859,0.266666667,0.209444444,1,0,0,2.2684,compass,0,23,23,2,1,SoundStimuli/Mood_24kGoldnianndior_Original5S.wav,,,,,,,,,,,,,,,,,,,,,,,,,,,,,,,,,,,,,,,,,,,,,,,,,,,,
,,,,,516664,001,2024-07-12_18h06.28.174,experiment,2024.1.5,Win32,58.47953216,6682bc923a62b9b1519eba14,6691931c2c63981b064e1f0c,6691b621f1df4ac97631a842,,,,,,,,,,,,,,,,,,,,,,,,,,,,,,,,,,,,,,,,,,,,,,,,,,,,,,,,,,,,710.65,717.1418,-0.216111111,0.256666667,1,0,0,0.4817,compass,0,24,24,4,1,SoundStimuli/GetUrFreakOn_MissyElliot_Cover5S.wav,,,,,,,,,,,,,,,,,,,,,,,,,,,,,,,,,,,,,,,,,,,,,,,,,,,,
,,,,,516664,001,2024-07-12_18h06.28.174,experiment,2024.1.5,Win32,58.47953216,6682bc923a62b9b1519eba14,6691931c2c63981b064e1f0c,6691b621f1df4ac97631a842,,,,,,,,,,,,,,,,,,,,,,,,,,,,,,,,,,,,,,,,,,,,,,,,,,,,,,,,,,,,717.1605,724.4007,-0.21,-0.233333333,1,0,0,1.2229,compass,0,25,25,3,1,SoundStimuli/NoScrubs_TLC_Cover5S.wav,,,,,,,,,,,,,,,,,,,,,,,,,,,,,,,,,,,,,,,,,,,,,,,,,,,,
,,,,,516664,001,2024-07-12_18h06.28.174,experiment,2024.1.5,Win32,58.47953216,6682bc923a62b9b1519eba14,6691931c2c63981b064e1f0c,6691b621f1df4ac97631a842,,,,,,,,,,,,,,,,,,,,,,,,,,,,,,,,,,,,,,,,,,,,,,,,,,,,,,,,,,,,724.433,733.2247,-0.205555556,-0.213333401,1,0,0,2.783,compass,0,26,26,0,1,SoundStimuli/StayinAlive_BeeGees_Cover5S.wav,,,,,,,,,,,,,,,,,,,,,,,,,,,,,,,,,,,,,,,,,,,,,,,,,,,,
,,,,,516664,001,2024-07-12_18h06.28.174,experiment,2024.1.5,Win32,58.47953216,6682bc923a62b9b1519eba14,6691931c2c63981b064e1f0c,6691b621f1df4ac97631a842,,,,,,,,,,,,,,,,,,,,,,,,,,,,,,,,,,,,,,,,,,,,,,,,,,,,,,,,,,,,733.2996,742.3009,-0.272777778,-0.287777778,1,0,0,2.9805,compass,0,27,27,16,1,SoundStimuli/BohemianRhapsody_Queen_Cover5S.wav,,,,,,,,,,,,,,,,,,,,,,,,,,,,,,,,,,,,,,,,,,,,,,,,,,,,
,,,,,516664,001,2024-07-12_18h06.28.174,experiment,2024.1.5,Win32,58.47953216,6682bc923a62b9b1519eba14,6691931c2c63981b064e1f0c,6691b621f1df4ac97631a842,,,,,,,,,,,,,,,,,,,,,,,,,,,,,,,,,,,,,,,,,,,,,,,,,,,,,,,,,,,,742.3403,750.3795,-0.279444444,0.091666667,1,0,0,2.0282,compass,0,28,28,31,1,SoundStimuli/TheBattleOfNewOrleans_JohnnyHorton_Original5S.wav,,,,,,,,,,,,,,,,,,,,,,,,,,,,,,,,,,,,,,,,,,,,,,,,,,,,
,,,,,516664,001,2024-07-12_18h06.28.174,experiment,2024.1.5,Win32,58.47953216,6682bc923a62b9b1519eba14,6691931c2c63981b064e1f0c,6691b621f1df4ac97631a842,,,,,,,,,,,,,,,,,,,,,,,,,,,,,,,,,,,,,,,,,,,,,,,,,,,,,,,,,,,,750.442,757.0518,-0.33,0.333333333,1,0,0,0.5937,compass,0,29,29,26,1,SoundStimuli/LivinOnAPrayer_BonJovi_Original5S.wav,,,,,,,,,,,,,,,,,,,,,,,,,,,,,,,,,,,,,,,,,,,,,,,,,,,,
,,,,,516664,001,2024-07-12_18h06.28.174,experiment,2024.1.5,Win32,58.47953216,6682bc923a62b9b1519eba14,6691931c2c63981b064e1f0c,6691b621f1df4ac97631a842,,,,,,,,,,,,,,,,,,,,,,,,,,,,,,,,,,,,,,,,,,,,,,,,,,,,,,,,,,,,757.1255,764.3402,0.301111111,0.32166665,1,0,0,1.2016,compass,0,30,30,29,1,SoundStimuli/OldTownRoad_LilNasX_Cover5S.wav,,,,,,,,,,,,,,,,,,,,,,,,,,,,,,,,,,,,,,,,,,,,,,,,,,,,
,,,,,516664,001,2024-07-12_18h06.28.174,experiment,2024.1.5,Win32,58.47953216,6682bc923a62b9b1519eba14,6691931c2c63981b064e1f0c,6691b621f1df4ac97631a842,,,,,,,,,,,,,,,,,,,,,,,,,,,,,,,,,,,,,,,,,,,,,,,,,,,,,,,,,,,,764.3994,771.4586,-0.354444411,0.342222222,1,0,0,0.4586,compass,0,31,31,25,1,SoundStimuli/Respect_ArethaFranklin_Cover5S.wav,,,,,,,,,,,,,,,,,,,,,,,,,,,,,,,,,,,,,,,,,,,,,,,,,,,,
,,,,,516664,001,2024-07-12_18h06.28.174,experiment,2024.1.5,Win32,58.47953216,6682bc923a62b9b1519eba14,6691931c2c63981b064e1f0c,6691b621f1df4ac97631a842,,,,,,,,,,,,,,,,,,,,,,,,,,,,,,,,,,,,,,,,,,,,,,,,,,,,,,,,,,,,771.5214,778.1368,0.338333333,-0.343333333,1,0,0,0.6063,compass,0,32,32,19,1,SoundStimuli/LetsGetItOn_MarvinGaye_Original5S.wav,,,,,,,,,,,,,,,,,,,,,,,,,,,,,,,,,,,,,,,,,,,,,,,,,,,,
,,,,,516664,001,2024-07-12_18h06.28.174,experiment,2024.1.5,Win32,58.47953216,6682bc923a62b9b1519eba14,6691931c2c63981b064e1f0c,6691b621f1df4ac97631a842,,,,,,,,,,,,,,,,,,,,,,,,,,,,,,,,,,,,,,,,,,,,,,,,,,,,,,,,,,,,778.1531,784.8332,0.349444444,-0.338333401,1,0,0,0.6699,compass,0,33,33,12,1,SoundStimuli/IWillAlwaysLoveYou_WhitneyHouston_Original5S.wav,,,,,,,,,,,,,,,,,,,,,,,,,,,,,,,,,,,,,,,,,,,,,,,,,,,,
,,,,,516664,001,2024-07-12_18h06.28.174,experiment,2024.1.5,Win32,58.47953216,6682bc923a62b9b1519eba14,6691931c2c63981b064e1f0c,6691b621f1df4ac97631a842,,,,,,,,,,,,,,,,,,,,,,,,,,,,,,,,,,,,,,,,,,,,,,,,,,,,,,,,,,,,784.9181,791.5729,-0.191666667,0.285555539,1,0,0,0.6417,compass,0,34,34,23,1,SoundStimuli/StrawberryFieldsForever_TheBeatles_Cover5S.wav,,,,,,,,,,,,,,,,,,,,,,,,,,,,,,,,,,,,,,,,,,,,,,,,,,,,
,,,,,516664,001,2024-07-12_18h06.28.174,experiment,2024.1.5,Win32,58.47953216,6682bc923a62b9b1519eba14,6691931c2c63981b064e1f0c,6691b621f1df4ac97631a842,,,,,,,,,,,,,,,,,,,,,,,,,,,,,,,,,,,,,,,,,,,,,,,,,,,,,,,,,,,,,,,,,,,,,,,,,,,791.5737,796.5791,space,4.9871,,796.5792,805.0363,right,8.4459,,0,1,1,1,1,block_order/blockC.xlsx,,,,,,,,,,,,,,,,,,,,,,,,,,,,,,,,,,,,
,,,,,516664,001,2024-07-12_18h06.28.174,experiment,2024.1.5,Win32,58.47953216,6682bc923a62b9b1519eba14,6691931c2c63981b064e1f0c,6691b621f1df4ac97631a842,,,,,,,,,,,,,,,,,,,,,,,,,,,,,,,,,,,,,,,,,,,,,,,,,,,,,,,,,,,,805.1281,811.1983,-0.226666667,0.238333316,1,0,0,0.0629,compass,0,0,0,1,1,SoundStimuli/Smooth_SantanaRobThomas_Cover5S.wav,,,,,,,,,,,,,,,,,,,,,,,,,,,,,,,,,,,,,,,,,,,,,,,,,,,,
,,,,,516664,001,2024-07-12_18h06.28.174,experiment,2024.1.5,Win32,58.47953216,6682bc923a62b9b1519eba14,6691931c2c63981b064e1f0c,6691b621f1df4ac97631a842,,,,,,,,,,,,,,,,,,,,,,,,,,,,,,,,,,,,,,,,,,,,,,,,,,,,,,,,,,,,811.2675,818.2759,0.326111111,-0.332222222,1,0,0,1.002,compass,0,1,1,4,1,SoundStimuli/Dreams_FleetwoodMac_Cover5S.wav,,,,,,,,,,,,,,,,,,,,,,,,,,,,,,,,,,,,,,,,,,,,,,,,,,,,
,,,,,516664,001,2024-07-12_18h06.28.174,experiment,2024.1.5,Win32,58.47953216,6682bc923a62b9b1519eba14,6691931c2c63981b064e1f0c,6691b621f1df4ac97631a842,,,,,,,,,,,,,,,,,,,,,,,,,,,,,,,,,,,,,,,,,,,,,,,,,,,,,,,,,,,,818.2946,827.3719,0.205000068,-0.309444444,1,0,0,3.0706,compass,0,2,2,19,1,SoundStimuli/YouLightUpMyLife_DebbyBoone_Cover5S.wav,,,,,,,,,,,,,,,,,,,,,,,,,,,,,,,,,,,,,,,,,,,,,,,,,,,,
,,,,,516664,001,2024-07-12_18h06.28.174,experiment,2024.1.5,Win32,58.47953216,6682bc923a62b9b1519eba14,6691931c2c63981b064e1f0c,6691b621f1df4ac97631a842,,,,,,,,,,,,,,,,,,,,,,,,,,,,,,,,,,,,,,,,,,,,,,,,,,,,,,,,,,,,827.4423,834.0751,-0.263888889,0.273333333,1,0,0,0.6257,compass,0,3,3,11,1,SoundStimuli/BlurredLines_RobinThicke_Original5S.wav,,,,,,,,,,,,,,,,,,,,,,,,,,,,,,,,,,,,,,,,,,,,,,,,,,,,
,,,,,516664,001,2024-07-12_18h06.28.174,experiment,2024.1.5,Win32,58.47953216,6682bc923a62b9b1519eba14,6691931c2c63981b064e1f0c,6691b621f1df4ac97631a842,,,,,,,,,,,,,,,,,,,,,,,,,,,,,,,,,,,,,,,,,,,,,,,,,,,,,,,,,,,,834.1327,841.6732,0.306111111,0.301666667,1,0,0,1.5272,compass,0,4,4,34,1,SoundStimuli/Irreplaceable_Beyonce_Original5S.wav,,,,,,,,,,,,,,,,,,,,,,,,,,,,,,,,,,,,,,,,,,,,,,,,,,,,
,,,,,516664,001,2024-07-12_18h06.28.174,experiment,2024.1.5,Win32,58.47953216,6682bc923a62b9b1519eba14,6691931c2c63981b064e1f0c,6691b621f1df4ac97631a842,,,,,,,,,,,,,,,,,,,,,,,,,,,,,,,,,,,,,,,,,,,,,,,,,,,,,,,,,,,,841.7086,849.3588,-0.295,-0.303888889,1,0,0,1.6393,compass,0,5,5,33,1,SoundStimuli/TheBoyIsMine_BrandyMonica_Cover5S.wav,,,,,,,,,,,,,,,,,,,,,,,,,,,,,,,,,,,,,,,,,,,,,,,,,,,,
,,,,,516664,001,2024-07-12_18h06.28.174,experiment,2024.1.5,Win32,58.47953216,6682bc923a62b9b1519eba14,6691931c2c63981b064e1f0c,6691b621f1df4ac97631a842,,,,,,,,,,,,,,,,,,,,,,,,,,,,,,,,,,,,,,,,,,,,,,,,,,,,,,,,,,,,849.4259,856.4388,-0.328333333,-0.343888957,1,0,0,1.0054,compass,0,6,6,17,1,SoundStimuli/IWannaDanceWithSomebody_WhitneyHouston_Cover5S.wav,,,,,,,,,,,,,,,,,,,,,,,,,,,,,,,,,,,,,,,,,,,,,,,,,,,,
,,,,,516664,001,2024-07-12_18h06.28.174,experiment,2024.1.5,Win32,58.47953216,6682bc923a62b9b1519eba14,6691931c2c63981b064e1f0c,6691b621f1df4ac97631a842,,,,,,,,,,,,,,,,,,,,,,,,,,,,,,,,,,,,,,,,,,,,,,,,,,,,,,,,,,,,856.4558,863.7631,0.334444444,-0.309444444,1,0,0,1.2995,compass,0,7,7,8,1,SoundStimuli/EndlessLove_DianaRossLionelRichie_Original5S.wav,,,,,,,,,,,,,,,,,,,,,,,,,,,,,,,,,,,,,,,,,,,,,,,,,,,,
,,,,,516664,001,2024-07-12_18h06.28.174,experiment,2024.1.5,Win32,58.47953216,6682bc923a62b9b1519eba14,6691931c2c63981b064e1f0c,6691b621f1df4ac97631a842,,,,,,,,,,,,,,,,,,,,,,,,,,,,,,,,,,,,,,,,,,,,,,,,,,,,,,,,,,,,863.8256,870.9338,0.33,-0.324444512,1,0,0,1.0851,compass,0,8,8,13,1,SoundStimuli/Perfect_EdSheeran_Original5S.wav,,,,,,,,,,,,,,,,,,,,,,,,,,,,,,,,,,,,,,,,,,,,,,,,,,,,
,,,,,516664,001,2024-07-12_18h06.28.174,experiment,2024.1.5,Win32,58.47953216,6682bc923a62b9b1519eba14,6691931c2c63981b064e1f0c,6691b621f1df4ac97631a842,,,,,,,,,,,,,,,,,,,,,,,,,,,,,,,,,,,,,,,,,,,,,,,,,,,,,,,,,,,,870.9905,878.5095,-0.26,-0.164444444,1,0,0,1.492,compass,0,9,9,30,1,SoundStimuli/SomebodyThatIUsedtoKnow_Gotye_Cover5S.wav,,,,,,,,,,,,,,,,,,,,,,,,,,,,,,,,,,,,,,,,,,,,,,,,,,,,
,,,,,516664,001,2024-07-12_18h06.28.174,experiment,2024.1.5,Win32,58.47953216,6682bc923a62b9b1519eba14,6691931c2c63981b064e1f0c,6691b621f1df4ac97631a842,,,,,,,,,,,,,,,,,,,,,,,,,,,,,,,,,,,,,,,,,,,,,,,,,,,,,,,,,,,,878.5783,887.5441,0.272222222,0.1,1,0,0,2.9516,compass,0,10,10,18,1,SoundStimuli/Weak_SWV_Original5S.wav,,,,,,,,,,,,,,,,,,,,,,,,,,,,,,,,,,,,,,,,,,,,,,,,,,,,
,,,,,516664,001,2024-07-12_18h06.28.174,experiment,2024.1.5,Win32,58.47953216,6682bc923a62b9b1519eba14,6691931c2c63981b064e1f0c,6691b621f1df4ac97631a842,,,,,,,,,,,,,,,,,,,,,,,,,,,,,,,,,,,,,,,,,,,,,,,,,,,,,,,,,,,,887.5609,896.5355,0.231111111,0.185,1,0,0,2.9616,compass,0,11,11,6,1,SoundStimuli/SaveYourTears_TheWeekndArianaGrande_Original5S.wav,,,,,,,,,,,,,,,,,,,,,,,,,,,,,,,,,,,,,,,,,,,,,,,,,,,,
,,,,,516664,001,2024-07-12_18h06.28.174,experiment,2024.1.5,Win32,58.47953216,6682bc923a62b9b1519eba14,6691931c2c63981b064e1f0c,6691b621f1df4ac97631a842,,,,,,,,,,,,,,,,,,,,,,,,,,,,,,,,,,,,,,,,,,,,,,,,,,,,,,,,,,,,896.5518,905.4069,-0.1672222,0.115000011,1,0,0,2.8392,compass,0,12,12,27,1,SoundStimuli/EyeOfTheTiger_Survivor_Original5S.wav,,,,,,,,,,,,,,,,,,,,,,,,,,,,,,,,,,,,,,,,,,,,,,,,,,,,
,,,,,516664,001,2024-07-12_18h06.28.174,experiment,2024.1.5,Win32,58.47953216,6682bc923a62b9b1519eba14,6691931c2c63981b064e1f0c,6691b621f1df4ac97631a842,,,,,,,,,,,,,,,,,,,,,,,,,,,,,,,,,,,,,,,,,,,,,,,,,,,,,,,,,,,,905.4809,912.9215,-0.16222229,-0.121666633,1,0,0,1.4385,compass,0,13,13,29,1,SoundStimuli/BetteDavisEyes_KimCarnes_Cover5S.wav,,,,,,,,,,,,,,,,,,,,,,,,,,,,,,,,,,,,,,,,,,,,,,,,,,,,
,,,,,516664,001,2024-07-12_18h06.28.174,experiment,2024.1.5,Win32,58.47953216,6682bc923a62b9b1519eba14,6691931c2c63981b064e1f0c,6691b621f1df4ac97631a842,,,,,,,,,,,,,,,,,,,,,,,,,,,,,,,,,,,,,,,,,,,,,,,,,,,,,,,,,,,,912.9543,920.467,0.268888798,-0.192777733,1,0,0,1.5001,compass,0,14,14,21,1,SoundStimuli/BridgeOverTroubledWater_SimonAndGarfunkel_Cover5S.wav,,,,,,,,,,,,,,,,,,,,,,,,,,,,,,,,,,,,,,,,,,,,,,,,,,,,
,,,,,516664,001,2024-07-12_18h06.28.174,experiment,2024.1.5,Win32,58.47953216,6682bc923a62b9b1519eba14,6691931c2c63981b064e1f0c,6691b621f1df4ac97631a842,,,,,,,,,,,,,,,,,,,,,,,,,,,,,,,,,,,,,,,,,,,,,,,,,,,,,,,,,,,,920.4877,927.5421,-0.250000057,0.1211111,1,0,0,1.0407,compass,0,15,15,26,1,SoundStimuli/TheSign_AceOfBase_Original5S.wav,,,,,,,,,,,,,,,,,,,,,,,,,,,,,,,,,,,,,,,,,,,,,,,,,,,,
,,,,,516664,001,2024-07-12_18h06.28.174,experiment,2024.1.5,Win32,58.47953216,6682bc923a62b9b1519eba14,6691931c2c63981b064e1f0c,6691b621f1df4ac97631a842,,,,,,,,,,,,,,,,,,,,,,,,,,,,,,,,,,,,,,,,,,,,,,,,,,,,,,,,,,,,927.6117,934.7054,-0.225555589,-0.240555488,1,0,0,1.0818,compass,0,16,16,7,1,SoundStimuli/MackTheKnife_BobbyDarin_Original5S.wav,,,,,,,,,,,,,,,,,,,,,,,,,,,,,,,,,,,,,,,,,,,,,,,,,,,,
,,,,,516664,001,2024-07-12_18h06.28.174,experiment,2024.1.5,Win32,58.47953216,6682bc923a62b9b1519eba14,6691931c2c63981b064e1f0c,6691b621f1df4ac97631a842,,,,,,,,,,,,,,,,,,,,,,,,,,,,,,,,,,,,,,,,,,,,,,,,,,,,,,,,,,,,934.7306,941.2951,-0.143333379,0.294444459,1,0,0,0.5491,compass,0,17,17,0,1,SoundStimuli/GimmeShelter_RollingStones_Cover5S.wav,,,,,,,,,,,,,,,,,,,,,,,,,,,,,,,,,,,,,,,,,,,,,,,,,,,,
,,,,,516664,001,2024-07-12_18h06.28.174,experiment,2024.1.5,Win32,58.47953216,6682bc923a62b9b1519eba14,6691931c2c63981b064e1f0c,6691b621f1df4ac97631a842,,,,,,,,,,,,,,,,,,,,,,,,,,,,,,,,,,,,,,,,,,,,,,,,,,,,,,,,,,,,941.3526,948.6268,-0.141111134,0.186111139,1,0,0,1.2652,compass,0,18,18,12,1,SoundStimuli/UnbreakMyHeart_ToniBraxton_Cover5S.wav,,,,,,,,,,,,,,,,,,,,,,,,,,,,,,,,,,,,,,,,,,,,,,,,,,,,
,,,,,516664,001,2024-07-12_18h06.28.174,experiment,2024.1.5,Win32,58.47953216,6682bc923a62b9b1519eba14,6691931c2c63981b064e1f0c,6691b621f1df4ac97631a842,,,,,,,,,,,,,,,,,,,,,,,,,,,,,,,,,,,,,,,,,,,,,,,,,,,,,,,,,,,,948.6938,955.6462,-0.128888957,0.232777772,1,0,0,0.9406,compass,0,19,19,15,1,SoundStimuli/CrazyInLove_BeyonceFtJayZ_Original5S.wav,,,,,,,,,,,,,,,,,,,,,,,,,,,,,,,,,,,,,,,,,,,,,,,,,,,,
,,,,,516664,001,2024-07-12_18h06.28.174,experiment,2024.1.5,Win32,58.47953216,6682bc923a62b9b1519eba14,6691931c2c63981b064e1f0c,6691b621f1df4ac97631a842,,,,,,,,,,,,,,,,,,,,,,,,,,,,,,,,,,,,,,,,,,,,,,,,,,,,,,,,,,,,955.717,963.4003,-0.151111179,0.201111122,1,0,0,1.6686,compass,0,20,20,2,1,SoundStimuli/SmellsLikeTeenSpirit_Nirvana_Cover5S.wav,,,,,,,,,,,,,,,,,,,,,,,,,,,,,,,,,,,,,,,,,,,,,,,,,,,,
,,,,,516664,001,2024-07-12_18h06.28.174,experiment,2024.1.5,Win32,58.47953216,6682bc923a62b9b1519eba14,6691931c2c63981b064e1f0c,6691b621f1df4ac97631a842,,,,,,,,,,,,,,,,,,,,,,,,,,,,,,,,,,,,,,,,,,,,,,,,,,,,,,,,,,,,963.4175,970.0205,0.339999955,0.332777786,1,0,0,0.5879,compass,0,21,21,32,1,SoundStimuli/Dilemma_NellyKellyRowland_Original5S.wav,,,,,,,,,,,,,,,,,,,,,,,,,,,,,,,,,,,,,,,,,,,,,,,,,,,,
,,,,,516664,001,2024-07-12_18h06.28.174,experiment,2024.1.5,Win32,58.47953216,6682bc923a62b9b1519eba14,6691931c2c63981b064e1f0c,6691b621f1df4ac97631a842,,,,,,,,,,,,,,,,,,,,,,,,,,,,,,,,,,,,,,,,,,,,,,,,,,,,,,,,,,,,970.0956,976.6455,-0.16222229,0.349444453,1,0,0,0.5294,compass,0,22,22,10,1,SoundStimuli/LeFreak_Chic_Original5S.wav,,,,,,,,,,,,,,,,,,,,,,,,,,,,,,,,,,,,,,,,,,,,,,,,,,,,
,,,,,516664,001,2024-07-12_18h06.28.174,experiment,2024.1.5,Win32,58.47953216,6682bc923a62b9b1519eba14,6691931c2c63981b064e1f0c,6691b621f1df4ac97631a842,,,,,,,,,,,,,,,,,,,,,,,,,,,,,,,,,,,,,,,,,,,,,,,,,,,,,,,,,,,,976.6637,983.9368,-0.220555623,-0.259444399,1,0,0,1.2703,compass,0,23,23,14,1,SoundStimuli/LikeARollingStone_BobDylan_Cover5S.wav,,,,,,,,,,,,,,,,,,,,,,,,,,,,,,,,,,,,,,,,,,,,,,,,,,,,
,,,,,516664,001,2024-07-12_18h06.28.174,experiment,2024.1.5,Win32,58.47953216,6682bc923a62b9b1519eba14,6691931c2c63981b064e1f0c,6691b621f1df4ac97631a842,,,,,,,,,,,,,,,,,,,,,,,,,,,,,,,,,,,,,,,,,,,,,,,,,,,,,,,,,,,,983.9539,990.9325,-0.309444456,0.31055555,1,0,0,0.9619,compass,0,24,24,31,1,SoundStimuli/TossinAndTurnin_BobbyLewis_Cover5S.wav,,,,,,,,,,,,,,,,,,,,,,,,,,,,,,,,,,,,,,,,,,,,,,,,,,,,
,,,,,516664,001,2024-07-12_18h06.28.174,experiment,2024.1.5,Win32,58.47953216,6682bc923a62b9b1519eba14,6691931c2c63981b064e1f0c,6691b621f1df4ac97631a842,,,,,,,,,,,,,,,,,,,,,,,,,,,,,,,,,,,,,,,,,,,,,,,,,,,,,,,,,,,,990.95,997.4305,-0.312222234,0.302222217,1,0,0,0.4632,compass,0,25,25,3,1,SoundStimuli/PartyRockAnthem_LMFAO_Cover5S.wav,,,,,,,,,,,,,,,,,,,,,,,,,,,,,,,,,,,,,,,,,,,,,,,,,,,,
,,,,,516664,001,2024-07-12_18h06.28.174,experiment,2024.1.5,Win32,58.47953216,6682bc923a62b9b1519eba14,6691931c2c63981b064e1f0c,6691b621f1df4ac97631a842,,,,,,,,,,,,,,,,,,,,,,,,,,,,,,,,,,,,,,,,,,,,,,,,,,,,,,,,,,,,997.4922,1003.9906,0.319999977,-0.330000023,1,0,0,0.4834,compass,0,26,26,9,1,SoundStimuli/HowDoILive_LeAnnRimes_Original5S.wav,,,,,,,,,,,,,,,,,,,,,,,,,,,,,,,,,,,,,,,,,,,,,,,,,,,,
,,,,,516664,001,2024-07-12_18h06.28.174,experiment,2024.1.5,Win32,58.47953216,6682bc923a62b9b1519eba14,6691931c2c63981b064e1f0c,6691b621f1df4ac97631a842,,,,,,,,,,,,,,,,,,,,,,,,,,,,,,,,,,,,,,,,,,,,,,,,,,,,,,,,,,,,1004.0157,1010.9975,0.325555533,-0.318333266,1,0,0,0.9743,compass,0,27,27,25,1,SoundStimuli/IllMakeLoveToYou_BoyzIIMen_Original5S.wav,,,,,,,,,,,,,,,,,,,,,,,,,,,,,,,,,,,,,,,,,,,,,,,,,,,,
,,,,,516664,001,2024-07-12_18h06.28.174,experiment,2024.1.5,Win32,58.47953216,6682bc923a62b9b1519eba14,6691931c2c63981b064e1f0c,6691b621f1df4ac97631a842,,,,,,,,,,,,,,,,,,,,,,,,,,,,,,,,,,,,,,,,,,,,,,,,,,,,,,,,,,,,1011.0129,1017.6024,-0.244444501,-0.199444411,1,0,0,0.5714,compass,0,28,28,20,1,SoundStimuli/FlashdanceWhatAFeeling_IreneCara_Cover5S.wav,,,,,,,,,,,,,,,,,,,,,,,,,,,,,,,,,,,,,,,,,,,,,,,,,,,,
,,,,,516664,001,2024-07-12_18h06.28.174,experiment,2024.1.5,Win32,58.47953216,6682bc923a62b9b1519eba14,6691931c2c63981b064e1f0c,6691b621f1df4ac97631a842,,,,,,,,,,,,,,,,,,,,,,,,,,,,,,,,,,,,,,,,,,,,,,,,,,,,,,,,,,,,1017.6634,1025.3746,-0.184444512,0.111666701,1,0,0,1.6994,compass,0,29,29,16,1,SoundStimuli/ItsAllInTheGame_TommyEdwards_Original5S.wav,,,,,,,,,,,,,,,,,,,,,,,,,,,,,,,,,,,,,,,,,,,,,,,,,,,,
,,,,,516664,001,2024-07-12_18h06.28.174,experiment,2024.1.5,Win32,58.47953216,6682bc923a62b9b1519eba14,6691931c2c63981b064e1f0c,6691b621f1df4ac97631a842,,,,,,,,,,,,,,,,,,,,,,,,,,,,,,,,,,,,,,,,,,,,,,,,,,,,,,,,,,,,1025.4367,1032.0064,0.341666554,0.338333342,1,0,0,0.5654,compass,0,30,30,22,1,SoundStimuli/Happy_PharellWilliams_Cover5S.wav,,,,,,,,,,,,,,,,,,,,,,,,,,,,,,,,,,,,,,,,,,,,,,,,,,,,
,,,,,516664,001,2024-07-12_18h06.28.174,experiment,2024.1.5,Win32,58.47953216,6682bc923a62b9b1519eba14,6691931c2c63981b064e1f0c,6691b621f1df4ac97631a842,,,,,,,,,,,,,,,,,,,,,,,,,,,,,,,,,,,,,,,,,,,,,,,,,,,,,,,,,,,,1032.0804,1039.3611,-0.165555601,0.172777783,1,0,0,1.2684,compass,0,31,31,24,1,SoundStimuli/Kiss_Prince_Original5S.wav,,,,,,,,,,,,,,,,,,,,,,,,,,,,,,,,,,,,,,,,,,,,,,,,,,,,
,,,,,516664,001,2024-07-12_18h06.28.174,experiment,2024.1.5,Win32,58.47953216,6682bc923a62b9b1519eba14,6691931c2c63981b064e1f0c,6691b621f1df4ac97631a842,,,,,,,,,,,,,,,,,,,,,,,,,,,,,,,,,,,,,,,,,,,,,,,,,,,,,,,,,,,,1039.3805,1046.3765,-0.25833339,0.231111117,1,0,0,0.9833,compass,0,32,32,5,1,SoundStimuli/JoyToTheWorld_ThreeDogNight_Cover5S.wav,,,,,,,,,,,,,,,,,,,,,,,,,,,,,,,,,,,,,,,,,,,,,,,,,,,,
,,,,,516664,001,2024-07-12_18h06.28.174,experiment,2024.1.5,Win32,58.47953216,6682bc923a62b9b1519eba14,6691931c2c63981b064e1f0c,6691b621f1df4ac97631a842,,,,,,,,,,,,,,,,,,,,,,,,,,,,,,,,,,,,,,,,,,,,,,,,,,,,,,,,,,,,1046.3968,1055.4382,-0.190555601,-0.293888911,1,0,0,3.0294,compass,0,33,33,28,1,SoundStimuli/IWantToHoldYourHand_TheBeatles_Cover5S.wav,,,,,,,,,,,,,,,,,,,,,,,,,,,,,,,,,,,,,,,,,,,,,,,,,,,,
,,,,,516664,001,2024-07-12_18h06.28.174,experiment,2024.1.5,Win32,58.47953216,6682bc923a62b9b1519eba14,6691931c2c63981b064e1f0c,6691b621f1df4ac97631a842,,,,,,,,,,,,,,,,,,,,,,,,,,,,,,,,,,,,,,,,,,,,,,,,,,,,,,,,,,,,1055.5044,1062.226,0.286666644,-0.246666689,1,0,0,0.714,compass,0,34,34,23,1,SoundStimuli/IWalkTheLine_JohnnyCash_Cover5S.wav,,,,,,,,,,,,,,,,,,,,,,,,,,,,,,,,,,,,,,,,,,,,,,,,,,,,
,,,,,516664,001,2024-07-12_18h06.28.174,experiment,2024.1.5,Win32,58.47953216,6682bc923a62b9b1519eba14,6691931c2c63981b064e1f0c,6691b621f1df4ac97631a842,,,,,,,,,,,,,,,,,,,,,,,,,,,,,,,,,,,,,,,,,,,,,,,,,,,,,,,,,,,,,,,,,,,,,,,,,,,1062.2262,1073.556,space,11.3126,,1073.5563,1076.5417,right,2.972,,0,2,2,2,1,block_order/blockB.xlsx,,,,,,,,,,,,,,,,,,,,,,,,,,,,,,,,,,,,
,,,,,516664,001,2024-07-12_18h06.28.174,experiment,2024.1.5,Win32,58.47953216,6682bc923a62b9b1519eba14,6691931c2c63981b064e1f0c,6691b621f1df4ac97631a842,,,,,,,,,,,,,,,,,,,,,,,,,,,,,,,,,,,,,,,,,,,,,,,,,,,,,,,,,,,,1076.6158,1083.9852,-0.245000034,0.144444473,1,0,0,1.3519,compass,0,0,0,11,1,SoundStimuli/Superstition_StevieWonder_Cover5S.wav,,,,,,,,,,,,,,,,,,,,,,,,,,,,,,,,,,,,,,,,,,,,,,,,,,,,
,,,,,516664,001,2024-07-12_18h06.28.174,experiment,2024.1.5,Win32,58.47953216,6682bc923a62b9b1519eba14,6691931c2c63981b064e1f0c,6691b621f1df4ac97631a842,,,,,,,,,,,,,,,,,,,,,,,,,,,,,,,,,,,,,,,,,,,,,,,,,,,,,,,,,,,,1084.0509,1090.9023,-0.220555623,-0.213888832,1,0,0,0.8341,compass,0,1,1,12,1,SoundStimuli/IWillAlwaysLoveYou_WhitneyHouston_Cover5S.wav,,,,,,,,,,,,,,,,,,,,,,,,,,,,,,,,,,,,,,,,,,,,,,,,,,,,
,,,,,516664,001,2024-07-12_18h06.28.174,experiment,2024.1.5,Win32,58.47953216,6682bc923a62b9b1519eba14,6691931c2c63981b064e1f0c,6691b621f1df4ac97631a842,,,,,,,,,,,,,,,,,,,,,,,,,,,,,,,,,,,,,,,,,,,,,,,,,,,,,,,,,,,,1090.9338,1097.5099,0.268888798,0.283333347,1,0,0,0.5648,compass,0,2,2,32,1,SoundStimuli/HeatWaves_GlassAnimals_Original5S.wav,,,,,,,,,,,,,,,,,,,,,,,,,,,,,,,,,,,,,,,,,,,,,,,,,,,,
,,,,,516664,001,2024-07-12_18h06.28.174,experiment,2024.1.5,Win32,58.47953216,6682bc923a62b9b1519eba14,6691931c2c63981b064e1f0c,6691b621f1df4ac97631a842,,,,,,,,,,,,,,,,,,,,,,,,,,,,,,,,,,,,,,,,,,,,,,,,,,,,,,,,,,,,1097.5714,1104.1092,-0.139444422,0.347222236,1,0,0,0.5209,compass,0,3,3,1,1,SoundStimuli/Stronger_KanyeWest_Original5S.wav,,,,,,,,,,,,,,,,,,,,,,,,,,,,,,,,,,,,,,,,,,,,,,,,,,,,
,,,,,516664,001,2024-07-12_18h06.28.174,experiment,2024.1.5,Win32,58.47953216,6682bc923a62b9b1519eba14,6691931c2c63981b064e1f0c,6691b621f1df4ac97631a842,,,,,,,,,,,,,,,,,,,,,,,,,,,,,,,,,,,,,,,,,,,,,,,,,,,,,,,,,,,,1104.1387,1111.3084,0.276666599,-0.280000023,1,0,0,1.1686,compass,0,4,4,13,1,SoundStimuli/GodOnlyKnows_TheBeachBoys_Cover5S.wav,,,,,,,,,,,,,,,,,,,,,,,,,,,,,,,,,,,,,,,,,,,,,,,,,,,,
,,,,,516664,001,2024-07-12_18h06.28.174,experiment,2024.1.5,Win32,58.47953216,6682bc923a62b9b1519eba14,6691931c2c63981b064e1f0c,6691b621f1df4ac97631a842,,,,,,,,,,,,,,,,,,,,,,,,,,,,,,,,,,,,,,,,,,,,,,,,,,,,,,,,,,,,1111.3395,1117.8827,-0.158888866,-0.165555488,1,0,0,0.5165,compass,0,5,5,17,1,SoundStimuli/Fallin_AliciaKeys_Original5S.wav,,,,,,,,,,,,,,,,,,,,,,,,,,,,,,,,,,,,,,,,,,,,,,,,,,,,
,,,,,516664,001,2024-07-12_18h06.28.174,experiment,2024.1.5,Win32,58.47953216,6682bc923a62b9b1519eba14,6691931c2c63981b064e1f0c,6691b621f1df4ac97631a842,,,,,,,,,,,,,,,,,,,,,,,,,,,,,,,,,,,,,,,,,,,,,,,,,,,,,,,,,,,,1117.9409,1127.9751,-0.125555533,-0.351111066,1,0,0,2.658,compass,0,6,6,31,1,SoundStimuli/TheBattleOfNewOrleans_JohnnyHorton_Cover5S.wav,,,,,,,,,,,,,,,,,,,,,,,,,,,,,,,,,,,,,,,,,,,,,,,,,,,,
,,,,,516664,001,2024-07-12_18h06.28.174,experiment,2024.1.5,Win32,58.47953216,6682bc923a62b9b1519eba14,6691931c2c63981b064e1f0c,6691b621f1df4ac97631a842,,,,,,,,,,,,,,,,,,,,,,,,,,,,,,,,,,,,,,,,,,,,,,,,,,,,,,,,,,,,1128.0461,1136.1166,-0.066111134,-0.341111134,1,0,0,2.0519,compass,0,7,7,19,1,SoundStimuli/LetsGetItOn_MarvinGaye_Cover5S.wav,,,,,,,,,,,,,,,,,,,,,,,,,,,,,,,,,,,,,,,,,,,,,,,,,,,,
,,,,,516664,001,2024-07-12_18h06.28.174,experiment,2024.1.5,Win32,58.47953216,6682bc923a62b9b1519eba14,6691931c2c63981b064e1f0c,6691b621f1df4ac97631a842,,,,,,,,,,,,,,,,,,,,,,,,,,,,,,,,,,,,,,,,,,,,,,,,,,,,,,,,,,,,1136.1522,1143.771,-0.337777766,0.358333347,1,0,0,1.0833,compass,0,8,8,7,1,SoundStimuli/NoOne_AliciaKeys_Cover5S.wav,,,,,,,,,,,,,,,,,,,,,,,,,,,,,,,,,,,,,,,,,,,,,,,,,,,,
,,,,,516664,001,2024-07-12_18h06.28.174,experiment,2024.1.5,Win32,58.47953216,6682bc923a62b9b1519eba14,6691931c2c63981b064e1f0c,6691b621f1df4ac97631a842,,,,,,,,,,,,,,,,,,,,,,,,,,,,,,,,,,,,,,,,,,,,,,,,,,,,,,,,,,,,1143.8276,1152.8383,-0.202777834,-0.16666661,1,0,0,2.9985,compass,0,9,9,20,1,SoundStimuli/HeyYa_Outkast_Cover5S.wav,,,,,,,,,,,,,,,,,,,,,,,,,,,,,,,,,,,,,,,,,,,,,,,,,,,,
,,,,,516664,001,2024-07-12_18h06.28.174,experiment,2024.1.5,Win32,58.47953216,6682bc923a62b9b1519eba14,6691931c2c63981b064e1f0c,6691b621f1df4ac97631a842,,,,,,,,,,,,,,,,,,,,,,,,,,,,,,,,,,,,,,,,,,,,,,,,,,,,,,,,,,,,1152.9354,1161.4954,-0.241111134,-0.129999966,1,0,0,2.552,compass,0,10,10,0,1,SoundStimuli/StayinAlive_BeeGees_Original5S.wav,,,,,,,,,,,,,,,,,,,,,,,,,,,,,,,,,,,,,,,,,,,,,,,,,,,,
,,,,,516664,001,2024-07-12_18h06.28.174,experiment,2024.1.5,Win32,58.47953216,6682bc923a62b9b1519eba14,6691931c2c63981b064e1f0c,6691b621f1df4ac97631a842,,,,,,,,,,,,,,,,,,,,,,,,,,,,,,,,,,,,,,,,,,,,,,,,,,,,,,,,,,,,1161.5347,1169.1585,-0.217777846,-0.113888832,1,0,0,1.6066,compass,0,11,11,22,1,SoundStimuli/RockWithYou_MichaelJackson_Original5S.wav,,,,,,,,,,,,,,,,,,,,,,,,,,,,,,,,,,,,,,,,,,,,,,,,,,,,
,,,,,516664,001,2024-07-12_18h06.28.174,experiment,2024.1.5,Win32,58.47953216,6682bc923a62b9b1519eba14,6691931c2c63981b064e1f0c,6691b621f1df4ac97631a842,,,,,,,,,,,,,,,,,,,,,,,,,,,,,,,,,,,,,,,,,,,,,,,,,,,,,,,,,,,,1169.1765,1179.115,0.137222177,-0.192777733,1,0,0,3.9338,compass,0,12,12,15,1,SoundStimuli/TikTok_Kesha_Cover5S.wav,,,,,,,,,,,,,,,,,,,,,,,,,,,,,,,,,,,,,,,,,,,,,,,,,,,,
,,,,,516664,001,2024-07-12_18h06.28.174,experiment,2024.1.5,Win32,58.47953216,6682bc923a62b9b1519eba14,6691931c2c63981b064e1f0c,6691b621f1df4ac97631a842,,,,,,,,,,,,,,,,,,,,,,,,,,,,,,,,,,,,,,,,,,,,,,,,,,,,,,,,,,,,1179.1322,1186.7057,0.29555551,0.171666689,1,0,0,1.5528,compass,0,13,13,3,1,SoundStimuli/NoScrubs_TLC_Original5S.wav,,,,,,,,,,,,,,,,,,,,,,,,,,,,,,,,,,,,,,,,,,,,,,,,,,,,
,,,,,516664,001,2024-07-12_18h06.28.174,experiment,2024.1.5,Win32,58.47953216,6682bc923a62b9b1519eba14,6691931c2c63981b064e1f0c,6691b621f1df4ac97631a842,,,,,,,,,,,,,,,,,,,,,,,,,,,,,,,,,,,,,,,,,,,,,,,,,,,,,,,,,,,,1186.7423,1193.4671,0.297222109,-0.237222177,1,0,0,0.7177,compass,0,14,14,2,1,SoundStimuli/Mood_24kGoldnianndior_Cover5S.wav,,,,,,,,,,,,,,,,,,,,,,,,,,,,,,,,,,,,,,,,,,,,,,,,,,,,
,,,,,516664,001,2024-07-12_18h06.28.174,experiment,2024.1.5,Win32,58.47953216,6682bc923a62b9b1519eba14,6691931c2c63981b064e1f0c,6691b621f1df4ac97631a842,,,,,,,,,,,,,,,,,,,,,,,,,,,,,,,,,,,,,,,,,,,,,,,,,,,,,,,,,,,,1193.5359,1200.3774,-0.238333356,-0.127777721,1,0,0,0.8191,compass,0,15,15,18,1,SoundStimuli/AnotherOneBitesTheDust_Queen_Original5S.wav,,,,,,,,,,,,,,,,,,,,,,,,,,,,,,,,,,,,,,,,,,,,,,,,,,,,
,,,,,516664,001,2024-07-12_18h06.28.174,experiment,2024.1.5,Win32,58.47953216,6682bc923a62b9b1519eba14,6691931c2c63981b064e1f0c,6691b621f1df4ac97631a842,,,,,,,,,,,,,,,,,,,,,,,,,,,,,,,,,,,,,,,,,,,,,,,,,,,,,,,,,,,,1200.393,1207.2041,-0.188888945,0.111666701,1,0,0,0.8017,compass,0,16,16,34,1,SoundStimuli/AChangeIsGonnaCome_SamCooke_Cover5S.wav,,,,,,,,,,,,,,,,,,,,,,,,,,,,,,,,,,,,,,,,,,,,,,,,,,,,
,,,,,516664,001,2024-07-12_18h06.28.174,experiment,2024.1.5,Win32,58.47953216,6682bc923a62b9b1519eba14,6691931c2c63981b064e1f0c,6691b621f1df4ac97631a842,,,,,,,,,,,,,,,,,,,,,,,,,,,,,,,,,,,,,,,,,,,,,,,,,,,,,,,,,,,,1207.2397,1213.7379,0.214999955,0.288888903,1,0,0,0.4832,compass,0,17,17,4,1,SoundStimuli/GetUrFreakOn_MissyElliot_Original5S.wav,,,,,,,,,,,,,,,,,,,,,,,,,,,,,,,,,,,,,,,,,,,,,,,,,,,,
,,,,,516664,001,2024-07-12_18h06.28.174,experiment,2024.1.5,Win32,58.47953216,6682bc923a62b9b1519eba14,6691931c2c63981b064e1f0c,6691b621f1df4ac97631a842,,,,,,,,,,,,,,,,,,,,,,,,,,,,,,,,,,,,,,,,,,,,,,,,,,,,,,,,,,,,1213.7656,1220.2933,0.26277771,0.21833335,1,0,0,0.5184,compass,0,18,18,9,1,SoundStimuli/Despacito_LuisFonsiDaddyYankee_Cover5S.wav,,,,,,,,,,,,,,,,,,,,,,,,,,,,,,,,,,,,,,,,,,,,,,,,,,,,
,,,,,516664,001,2024-07-12_18h06.28.174,experiment,2024.1.5,Win32,58.47953216,6682bc923a62b9b1519eba14,6691931c2c63981b064e1f0c,6691b621f1df4ac97631a842,,,,,,,,,,,,,,,,,,,,,,,,,,,,,,,,,,,,,,,,,,,,,,,,,,,,,,,,,,,,1220.3499,1227.417,0.168888911,-0.122777755,1,0,0,1.0646,compass,0,19,19,33,1,SoundStimuli/StandByMe_BenEKing_Cover5S.wav,,,,,,,,,,,,,,,,,,,,,,,,,,,,,,,,,,,,,,,,,,,,,,,,,,,,
,,,,,516664,001,2024-07-12_18h06.28.174,experiment,2024.1.5,Win32,58.47953216,6682bc923a62b9b1519eba14,6691931c2c63981b064e1f0c,6691b621f1df4ac97631a842,,,,,,,,,,,,,,,,,,,,,,,,,,,,,,,,,,,,,,,,,,,,,,,,,,,,,,,,,,,,1227.4487,1234.3962,-0.171666689,-0.173888821,1,0,0,0.935,compass,0,20,20,25,1,SoundStimuli/Respect_ArethaFranklin_Original5S.wav,,,,,,,,,,,,,,,,,,,,,,,,,,,,,,,,,,,,,,,,,,,,,,,,,,,,
,,,,,516664,001,2024-07-12_18h06.28.174,experiment,2024.1.5,Win32,58.47953216,6682bc923a62b9b1519eba14,6691931c2c63981b064e1f0c,6691b621f1df4ac97631a842,,,,,,,,,,,,,,,,,,,,,,,,,,,,,,,,,,,,,,,,,,,,,,,,,,,,,,,,,,,,1234.4235,1241.5386,0.291666554,-0.287222177,1,0,0,1.1072,compass,0,21,21,10,1,SoundStimuli/BadDay_DanielPowter_Cover5S.wav,,,,,,,,,,,,,,,,,,,,,,,,,,,,,,,,,,,,,,,,,,,,,,,,,,,,
,,,,,516664,001,2024-07-12_18h06.28.174,experiment,2024.1.5,Win32,58.47953216,6682bc923a62b9b1519eba14,6691931c2c63981b064e1f0c,6691b621f1df4ac97631a842,,,,,,,,,,,,,,,,,,,,,,,,,,,,,,,,,,,,,,,,,,,,,,,,,,,,,,,,,,,,1241.6093,1249.2285,0.1827778,-0.306111089,1,0,0,1.6176,compass,0,22,22,29,1,SoundStimuli/OldTownRoad_LilNasX_Original5S.wav,,,,,,,,,,,,,,,,,,,,,,,,,,,,,,,,,,,,,,,,,,,,,,,,,,,,
,,,,,516664,001,2024-07-12_18h06.28.174,experiment,2024.1.5,Win32,58.47953216,6682bc923a62b9b1519eba14,6691931c2c63981b064e1f0c,6691b621f1df4ac97631a842,,,,,,,,,,,,,,,,,,,,,,,,,,,,,,,,,,,,,,,,,,,,,,,,,,,,,,,,,,,,1249.2872,1256.8499,-0.196666689,0.19333335,1,0,0,1.5479,compass,0,23,23,21,1,SoundStimuli/GoodGollyMissMolly_LittleRichard_Cover5S.wav,,,,,,,,,,,,,,,,,,,,,,,,,,,,,,,,,,,,,,,,,,,,,,,,,,,,
,,,,,516664,001,2024-07-12_18h06.28.174,experiment,2024.1.5,Win32,58.47953216,6682bc923a62b9b1519eba14,6691931c2c63981b064e1f0c,6691b621f1df4ac97631a842,,,,,,,,,,,,,,,,,,,,,,,,,,,,,,,,,,,,,,,,,,,,,,,,,,,,,,,,,,,,1256.8676,1263.5648,0.254444377,0.204444461,1,0,0,0.6955,compass,0,24,24,5,1,SoundStimuli/MyGirl_TheTemptations_Original5S.wav,,,,,,,,,,,,,,,,,,,,,,,,,,,,,,,,,,,,,,,,,,,,,,,,,,,,
,,,,,516664,001,2024-07-12_18h06.28.174,experiment,2024.1.5,Win32,58.47953216,6682bc923a62b9b1519eba14,6691931c2c63981b064e1f0c,6691b621f1df4ac97631a842,,,,,,,,,,,,,,,,,,,,,,,,,,,,,,,,,,,,,,,,,,,,,,,,,,,,,,,,,,,,1263.5813,1270.454,0.241111134,0.267222242,1,0,0,0.8604,compass,0,25,25,30,1,SoundStimuli/PokerFace_LadyGaga_Original5S.wav,,,,,,,,,,,,,,,,,,,,,,,,,,,,,,,,,,,,,,,,,,,,,,,,,,,,
,,,,,516664,001,2024-07-12_18h06.28.174,experiment,2024.1.5,Win32,58.47953216,6682bc923a62b9b1519eba14,6691931c2c63981b064e1f0c,6691b621f1df4ac97631a842,,,,,,,,,,,,,,,,,,,,,,,,,,,,,,,,,,,,,,,,,,,,,,,,,,,,,,,,,,,,1270.4798,1278.777,0.066111134,0.261111139,1,0,0,2.2828,compass,0,26,26,28,1,SoundStimuli/ComeAndGetYourLove_Redbone_Original5S.wav,,,,,,,,,,,,,,,,,,,,,,,,,,,,,,,,,,,,,,,,,,,,,,,,,,,,
,,,,,516664,001,2024-07-12_18h06.28.174,experiment,2024.1.5,Win32,58.47953216,6682bc923a62b9b1519eba14,6691931c2c63981b064e1f0c,6691b621f1df4ac97631a842,,,,,,,,,,,,,,,,,,,,,,,,,,,,,,,,,,,,,,,,,,,,,,,,,,,,,,,,,,,,1278.8118,1287.5125,-0.081111089,-0.2327778,1,0,0,2.6853,compass,0,27,27,23,1,SoundStimuli/StrawberryFieldsForever_TheBeatles_Original5S.wav,,,,,,,,,,,,,,,,,,,,,,,,,,,,,,,,,,,,,,,,,,,,,,,,,,,,
,,,,,516664,001,2024-07-12_18h06.28.174,experiment,2024.1.5,Win32,58.47953216,6682bc923a62b9b1519eba14,6691931c2c63981b064e1f0c,6691b621f1df4ac97631a842,,,,,,,,,,,,,,,,,,,,,,,,,,,,,,,,,,,,,,,,,,,,,,,,,,,,,,,,,,,,1287.5834,1294.6316,0.222222109,0.223888906,1,0,0,1.0317,compass,0,28,28,27,1,SoundStimuli/ShapeofYou_EdSheeran_Original5S.wav,,,,,,,,,,,,,,,,,,,,,,,,,,,,,,,,,,,,,,,,,,,,,,,,,,,,
,,,,,516664,001,2024-07-12_18h06.28.174,experiment,2024.1.5,Win32,58.47953216,6682bc923a62b9b1519eba14,6691931c2c63981b064e1f0c,6691b621f1df4ac97631a842,,,,,,,,,,,,,,,,,,,,,,,,,,,,,,,,,,,,,,,,,,,,,,,,,,,,,,,,,,,,1294.6738,1303,-0.260555578,0.206666678,1,0,0,2.3023,compass,0,29,29,6,1,SoundStimuli/Levitating_DuaLipa_Cover5S.wav,,,,,,,,,,,,,,,,,,,,,,,,,,,,,,,,,,,,,,,,,,,,,,,,,,,,
,,,,,516664,001,2024-07-12_18h06.28.174,experiment,2024.1.5,Win32,58.47953216,6682bc923a62b9b1519eba14,6691931c2c63981b064e1f0c,6691b621f1df4ac97631a842,,,,,,,,,,,,,,,,,,,,,,,,,,,,,,,,,,,,,,,,,,,,,,,,,,,,,,,,,,,,1303.0219,1309.7147,0.274444354,0.281111131,1,0,0,0.6764,compass,0,30,30,14,1,SoundStimuli/BlindingLights_TheWeeknd_Original5S.wav,,,,,,,,,,,,,,,,,,,,,,,,,,,,,,,,,,,,,,,,,,,,,,,,,,,,
,,,,,516664,001,2024-07-12_18h06.28.174,experiment,2024.1.5,Win32,58.47953216,6682bc923a62b9b1519eba14,6691931c2c63981b064e1f0c,6691b621f1df4ac97631a842,,,,,,,,,,,,,,,,,,,,,,,,,,,,,,,,,,,,,,,,,,,,,,,,,,,,,,,,,,,,1309.7689,1316.2918,-0.241666723,-0.178888844,1,0,0,0.5072,compass,0,31,31,16,1,SoundStimuli/BohemianRhapsody_Queen_Original5S.wav,,,,,,,,,,,,,,,,,,,,,,,,,,,,,,,,,,,,,,,,,,,,,,,,,,,,
,,,,,516664,001,2024-07-12_18h06.28.174,experiment,2024.1.5,Win32,58.47953216,6682bc923a62b9b1519eba14,6691931c2c63981b064e1f0c,6691b621f1df4ac97631a842,,,,,,,,,,,,,,,,,,,,,,,,,,,,,,,,,,,,,,,,,,,,,,,,,,,,,,,,,,,,1316.3121,1323.9956,-0.195555623,-0.185555522,1,0,0,1.6735,compass,0,32,32,26,1,SoundStimuli/LivinOnAPrayer_BonJovi_Cover5S.wav,,,,,,,,,,,,,,,,,,,,,,,,,,,,,,,,,,,,,,,,,,,,,,,,,,,,
,,,,,516664,001,2024-07-12_18h06.28.174,experiment,2024.1.5,Win32,58.47953216,6682bc923a62b9b1519eba14,6691931c2c63981b064e1f0c,6691b621f1df4ac97631a842,,,,,,,,,,,,,,,,,,,,,,,,,,,,,,,,,,,,,,,,,,,,,,,,,,,,,,,,,,,,1324.0615,1331.0143,-0.255000023,0.207222239,1,0,0,0.9405,compass,0,33,33,24,1,SoundStimuli/UptownFunk_MarkRonson_Original5S.wav,,,,,,,,,,,,,,,,,,,,,,,,,,,,,,,,,,,,,,,,,,,,,,,,,,,,
,,,,,516664,001,2024-07-12_18h06.28.174,experiment,2024.1.5,Win32,58.47953216,6682bc923a62b9b1519eba14,6691931c2c63981b064e1f0c,6691b621f1df4ac97631a842,,,,,,,,,,,,,,,,,,,,,,,,,,,,,,,,,,,,,,,,,,,,,,,,,,,,,,,,,,,,1331.0861,1338.5444,-0.268888911,0.179444461,1,0,0,1.4517,compass,0,34,34,8,1,SoundStimuli/LikeAPrayer_Madonna_Original5S.wav,,,,,,,,,,,,,,,,,,,,,,,,,,,,,,,,,,,,,,,,,,,,,,,,,,,,
,,,,,516664,001,2024-07-12_18h06.28.174,experiment,2024.1.5,Win32,58.47953216,6682bc923a62b9b1519eba14,6691931c2c63981b064e1f0c,6691b621f1df4ac97631a842,,,,,,,,,,,,,,,,,,,,,,,,,,,,,,,,,,,,,,,,,,,,,,,,,,,,,,,,,,,,,,,,,,,,,,,,,,,1338.5446,1338.5448,,,,1338.545,1338.5451,,,,0,3,3,3,1,block_order/blockA.xlsx,,,,,,,,,,,,,,,,,,,,,,,,,,,,,,,,,,,,
,,,,,516664,001,2024-07-12_18h06.28.174,experiment,2024.1.5,Win32,58.47953216,6682bc923a62b9b1519eba14,6691931c2c63981b064e1f0c,6691b621f1df4ac97631a842,,,,,,,,,,,,,,,,,,,,,,,,,,,,,,,,,,,,,,,,,,,,,,,,,,,,,,,,,,,,,,,,,,,,,,,,,,,,,,,,,,,,,,,,,,,34,Item 2,Music-loving non musician,Item 3,"Apple music, spotify",5,6,"Exercising, driving, hanging with friends",Always,Always,Sometimes,Sometimes,Rarely,Rarely,Sometimes,Rarely,Sometimes,Rarely,Sometimes,Rarely,Never,Rarely,Rarely,N/A,Hip hop,R&B,Country,No,Everything has been captured by previous questions,0,0,0,0,1,,
,,,,,516664,001,2024-07-12_18h06.28.174,experiment,2024.1.5,Win32,58.47953216,6682bc923a62b9b1519eba14,6691931c2c63981b064e1f0c,6691b621f1df4ac97631a842,,,,,,,,,,,,,,,,,,,,,,,,,,,,,,,,,,,,,,,,,,,,,,,,,,,,,,,,,,,,,,,,,,,,,,,,,,,,,,,,,,,,,,,,,,,,,,,,,,,,,,,,,,,,,,,,,,,,,,,,,,,,,1602.9304,1602.94
