welcome.started,welcome.stopped,space_to_continue.keys,space_to_continue.rt,space_to_continue.duration,participant,session,date,expName,psychopyVersion,OS,frameRate,PROLIFIC_PID,STUDY_ID,SESSION_ID,consent.consent,consent.consent_recontact,consent_check.started,consent_check.stopped,calibration_ready.started,calibration_ready.stopped,cal_ready.keys,cal_ready.rt,cal_ready.duration,calibration.started,calibration.stopped,mouse.x,mouse.y,mouse.leftButton,mouse.midButton,mouse.rightButton,mouse.time,mouse.clicked_name,move_on.keys,move_on.rt,move_on.duration,run_cal.thisRepN,run_cal.thisTrialN,run_cal.thisN,run_cal.thisIndex,run_cal.ran,emotion_training_ready.started,emotion_training_ready.stopped,training_move_on.keys,training_move_on.rt,training_move_on.duration,examples.started,examples.stopped,emotion_scale.started,emotion_scale.stopped,scale_next.keys,scale_next.rt,scale_next.duration,instructions.started,instructions.stopped,next.keys,next.rt,next.duration,practice_task.started,practice_task.stopped,mouse_rating_2.x,mouse_rating_2.y,mouse_rating_2.leftButton,mouse_rating_2.midButton,mouse_rating_2.rightButton,mouse_rating_2.time,mouse_rating_2.clicked_name,ready.started,ready.stopped,key_resp.keys,key_resp.rt,key_resp.duration,set_group.started,set_group.stopped,task.started,task.stopped,mouse_rating.x,mouse_rating.y,mouse_rating.leftButton,mouse_rating.midButton,mouse_rating.rightButton,mouse_rating.time,mouse_rating.clicked_name,trials.thisRepN,trials.thisTrialN,trials.thisN,trials.thisIndex,trials.ran,clip,short_break.started,short_break.stopped,space_to_move_on.keys,space_to_move_on.rt,space_to_move_on.duration,instruction_reminder.started,instruction_reminder.stopped,reminder_move_on.keys,reminder_move_on.rt,reminder_move_on.duration,blocks.thisRepN,blocks.thisTrialN,blocks.thisN,blocks.thisIndex,blocks.ran,block,post_survey.age,post_survey.musician,post_survey.listen_time,post_survey.music_making,post_survey.medium,post_survey.music_seeking,post_survey.music_choice,post_survey.activities,post_survey.question1.Disco,post_survey.question1.Pop,post_survey.question1.Classic rock,post_survey.question1.Jazz,post_survey.question1.Ambient,post_survey.question1.Electronic (EDM),post_survey.question1.Alternative rock,post_survey.question1.Country,post_survey.question1.R&B,post_survey.question1.A cappella,post_survey.question1.Folk/indie,post_survey.question1.Reggae,post_survey.question1.Latin,post_survey.question1.Hip hop,post_survey.question1.Metal,post_survey.question1.Classical,post_survey.other_genres,post_survey.genres_ranked.text1,post_survey.genres_ranked.text2,post_survey.genres_ranked.text3,post_survey.habit_change,show_exp.thisRepN,show_exp.thisTrialN,show_exp.thisN,show_exp.thisIndex,show_exp.ran,goodbye.started,goodbye.stopped
0,2.1399,space,2.1325,,614933,001,2024-07-12_19h33.02.080,experiment,2024.1.5,Win32,59.88023952,6333dafae0a6b172dd2bd2af,6691931c2c63981b064e1f0c,6691bd0df74762198a268168,,,,,,,,,,,,,,,,,,,,,,,,,,,,,,,,,,,,,,,,,,,,,,,,,,,,,,,,,,,,,,,,,,,,,,,,,,,,,,,,,,,,,,,,,,,,,,,,,,,,,,,,,,,,,,,,,,,,,,,,,,,,,,
,,,,,614933,001,2024-07-12_19h33.02.080,experiment,2024.1.5,Win32,59.88023952,6333dafae0a6b172dd2bd2af,6691931c2c63981b064e1f0c,6691bd0df74762198a268168,yes,yes,,,,,,,,,,,,,,,,,,,,,,,,,,,,,,,,,,,,,,,,,,,,,,,,,,,,,,,,,,,,,,,,,,,,,,,,,,,,,,,,,,,,,,,,,,,,,,,,,,,,,,,,,,,,,,,,,,,,,,,,,,,,
,,,,,614933,001,2024-07-12_19h33.02.080,experiment,2024.1.5,Win32,59.88023952,6333dafae0a6b172dd2bd2af,6691931c2c63981b064e1f0c,6691bd0df74762198a268168,,,17.5051,17.5052,,,,,,,,,,,,,,,,,,,,,,,,,,,,,,,,,,,,,,,,,,,,,,,,,,,,,,,,,,,,,,,,,,,,,,,,,,,,,,,,,,,,,,,,,,,,,,,,,,,,,,,,,,,,,,,,,,,,,,,,,,
,,,,,614933,001,2024-07-12_19h33.02.080,experiment,2024.1.5,Win32,59.88023952,6333dafae0a6b172dd2bd2af,6691931c2c63981b064e1f0c,6691bd0df74762198a268168,,,,,17.5062,20.6231,space,3.0995,,20.6237,56.7284,"[-0.037037037037037035,0.003703703703703704,-0.012037037037037037]","[-0.41203703703703703,-0.412962962962963,-0.42685185185185187]","[1,1,1]","[0,0,0]","[0,0,0]","[7.966999999999999,10.083499999999994,29.350400000005955]","[""play_button"",""play_button""]",y,35.0701,,0,0,0,0,1,,,,,,,,,,,,,,,,,,,,,,,,,,,,,,,,,,,,,,,,,,,,,,,,,,,,,,,,,,,,,,,,,,,,,,,,,,,,,,,,,,,,,,,,,,,,,,,,,,,,
,,,,,614933,001,2024-07-12_19h33.02.080,experiment,2024.1.5,Win32,59.88023952,6333dafae0a6b172dd2bd2af,6691931c2c63981b064e1f0c,6691bd0df74762198a268168,,,,,,,,,,,,,,,,,,,,,,,,,,,56.7287,72.8572,space,16.124,,72.8572,192.8586,192.8587,201.4253,right,5.0396,,201.4253,209.1086,space,7.6753,,209.1087,219.9587,0.148148148,-0.169444444,1,0,0,4.8336,compass_2,219.9589,223.1754,space,3.1992,,223.1754,223.1797,223.195,235.1924,-0.002777778,-0.203703704,1,0,0,5.9837,compass,0,0,0,17,1,SoundStimuli/IWannaDanceWithSomebody_WhitneyHouston_Cover5S.wav,,,,,,,,,,,,,,,,,,,,,,,,,,,,,,,,,,,,,,,,,,,,,,,,,,,,
,,,,,614933,001,2024-07-12_19h33.02.080,experiment,2024.1.5,Win32,59.88023952,6333dafae0a6b172dd2bd2af,6691931c2c63981b064e1f0c,6691bd0df74762198a268168,,,,,,,,,,,,,,,,,,,,,,,,,,,,,,,,,,,,,,,,,,,,,,,,,,,,,,,,,,,,235.197,245.7255,-0.033333333,-0.175,1,0,0,4.5166,compass,0,1,1,18,1,SoundStimuli/Weak_SWV_Original5S.wav,,,,,,,,,,,,,,,,,,,,,,,,,,,,,,,,,,,,,,,,,,,,,,,,,,,,
,,,,,614933,001,2024-07-12_19h33.02.080,experiment,2024.1.5,Win32,59.88023952,6333dafae0a6b172dd2bd2af,6691931c2c63981b064e1f0c,6691bd0df74762198a268168,,,,,,,,,,,,,,,,,,,,,,,,,,,,,,,,,,,,,,,,,,,,,,,,,,,,,,,,,,,,245.7301,257.2255,0.075925926,-0.189814815,1,0,0,5.4834,compass,0,2,2,13,1,SoundStimuli/Perfect_EdSheeran_Original5S.wav,,,,,,,,,,,,,,,,,,,,,,,,,,,,,,,,,,,,,,,,,,,,,,,,,,,,
,,,,,614933,001,2024-07-12_19h33.02.080,experiment,2024.1.5,Win32,59.88023952,6333dafae0a6b172dd2bd2af,6691931c2c63981b064e1f0c,6691bd0df74762198a268168,,,,,,,,,,,,,,,,,,,,,,,,,,,,,,,,,,,,,,,,,,,,,,,,,,,,,,,,,,,,257.23,267.0422,-0.000925926,-0.262037037,1,0,0,3.8,compass,0,3,3,28,1,SoundStimuli/IWantToHoldYourHand_TheBeatles_Cover5S.wav,,,,,,,,,,,,,,,,,,,,,,,,,,,,,,,,,,,,,,,,,,,,,,,,,,,,
,,,,,614933,001,2024-07-12_19h33.02.080,experiment,2024.1.5,Win32,59.88023952,6333dafae0a6b172dd2bd2af,6691931c2c63981b064e1f0c,6691bd0df74762198a268168,,,,,,,,,,,,,,,,,,,,,,,,,,,,,,,,,,,,,,,,,,,,,,,,,,,,,,,,,,,,267.0468,275.409,0,-0.271296296,1,0,0,2.35,compass,0,4,4,29,1,SoundStimuli/BetteDavisEyes_KimCarnes_Cover5S.wav,,,,,,,,,,,,,,,,,,,,,,,,,,,,,,,,,,,,,,,,,,,,,,,,,,,,
,,,,,614933,001,2024-07-12_19h33.02.080,experiment,2024.1.5,Win32,59.88023952,6333dafae0a6b172dd2bd2af,6691931c2c63981b064e1f0c,6691bd0df74762198a268168,,,,,,,,,,,,,,,,,,,,,,,,,,,,,,,,,,,,,,,,,,,,,,,,,,,,,,,,,,,,275.4138,289.2426,-0.277777778,-0.065740741,1,0,0,7.8168,compass,0,5,5,6,1,SoundStimuli/SaveYourTears_TheWeekndArianaGrande_Original5S.wav,,,,,,,,,,,,,,,,,,,,,,,,,,,,,,,,,,,,,,,,,,,,,,,,,,,,
,,,,,614933,001,2024-07-12_19h33.02.080,experiment,2024.1.5,Win32,59.88023952,6333dafae0a6b172dd2bd2af,6691931c2c63981b064e1f0c,6691bd0df74762198a268168,,,,,,,,,,,,,,,,,,,,,,,,,,,,,,,,,,,,,,,,,,,,,,,,,,,,,,,,,,,,289.2473,298.7094,-0.264814815,-0.271296296,1,0,0,3.4502,compass,0,6,6,19,1,SoundStimuli/YouLightUpMyLife_DebbyBoone_Cover5S.wav,,,,,,,,,,,,,,,,,,,,,,,,,,,,,,,,,,,,,,,,,,,,,,,,,,,,
,,,,,614933,001,2024-07-12_19h33.02.080,experiment,2024.1.5,Win32,59.88023952,6333dafae0a6b172dd2bd2af,6691931c2c63981b064e1f0c,6691bd0df74762198a268168,,,,,,,,,,,,,,,,,,,,,,,,,,,,,,,,,,,,,,,,,,,,,,,,,,,,,,,,,,,,298.7138,306.0927,0.20462963,0.223148148,1,0,0,1.3665,compass,0,7,7,20,1,SoundStimuli/FlashdanceWhatAFeeling_IreneCara_Cover5S.wav,,,,,,,,,,,,,,,,,,,,,,,,,,,,,,,,,,,,,,,,,,,,,,,,,,,,
,,,,,614933,001,2024-07-12_19h33.02.080,experiment,2024.1.5,Win32,59.88023952,6333dafae0a6b172dd2bd2af,6691931c2c63981b064e1f0c,6691bd0df74762198a268168,,,,,,,,,,,,,,,,,,,,,,,,,,,,,,,,,,,,,,,,,,,,,,,,,,,,,,,,,,,,306.0975,315.5263,-0.011111111,0.115740741,1,0,0,3.4169,compass,0,8,8,0,1,SoundStimuli/GimmeShelter_RollingStones_Cover5S.wav,,,,,,,,,,,,,,,,,,,,,,,,,,,,,,,,,,,,,,,,,,,,,,,,,,,,
,,,,,614933,001,2024-07-12_19h33.02.080,experiment,2024.1.5,Win32,59.88023952,6333dafae0a6b172dd2bd2af,6691931c2c63981b064e1f0c,6691bd0df74762198a268168,,,,,,,,,,,,,,,,,,,,,,,,,,,,,,,,,,,,,,,,,,,,,,,,,,,,,,,,,,,,315.5309,324.093,-0.331481481,-0.326851852,1,0,0,2.5501,compass,0,9,9,21,1,SoundStimuli/BridgeOverTroubledWater_SimonAndGarfunkel_Cover5S.wav,,,,,,,,,,,,,,,,,,,,,,,,,,,,,,,,,,,,,,,,,,,,,,,,,,,,
,,,,,614933,001,2024-07-12_19h33.02.080,experiment,2024.1.5,Win32,59.88023952,6333dafae0a6b172dd2bd2af,6691931c2c63981b064e1f0c,6691bd0df74762198a268168,,,,,,,,,,,,,,,,,,,,,,,,,,,,,,,,,,,,,,,,,,,,,,,,,,,,,,,,,,,,324.0975,332.7432,-0.351851852,-0.348148148,1,0,0,1.8332,compass,0,10,10,9,1,SoundStimuli/HowDoILive_LeAnnRimes_Original5S.wav,,,,,,,,,,,,,,,,,,,,,,,,,,,,,,,,,,,,,,,,,,,,,,,,,,,,
,,,,,614933,001,2024-07-12_19h33.02.080,experiment,2024.1.5,Win32,59.88023952,6333dafae0a6b172dd2bd2af,6691931c2c63981b064e1f0c,6691bd0df74762198a268168,,,,,,,,,,,,,,,,,,,,,,,,,,,,,,,,,,,,,,,,,,,,,,,,,,,,,,,,,,,,332.7477,343.1599,-0.24537037,0.244444444,1,0,0,4.4,compass,0,11,11,5,1,SoundStimuli/JoyToTheWorld_ThreeDogNight_Cover5S.wav,,,,,,,,,,,,,,,,,,,,,,,,,,,,,,,,,,,,,,,,,,,,,,,,,,,,
,,,,,614933,001,2024-07-12_19h33.02.080,experiment,2024.1.5,Win32,59.88023952,6333dafae0a6b172dd2bd2af,6691931c2c63981b064e1f0c,6691bd0df74762198a268168,,,,,,,,,,,,,,,,,,,,,,,,,,,,,,,,,,,,,,,,,,,,,,,,,,,,,,,,,,,,343.1645,353.4266,-0.058333333,0.269444444,1,0,0,4.2503,compass,0,12,12,30,1,SoundStimuli/SomebodyThatIUsedtoKnow_Gotye_Cover5S.wav,,,,,,,,,,,,,,,,,,,,,,,,,,,,,,,,,,,,,,,,,,,,,,,,,,,,
,,,,,614933,001,2024-07-12_19h33.02.080,experiment,2024.1.5,Win32,59.88023952,6333dafae0a6b172dd2bd2af,6691931c2c63981b064e1f0c,6691bd0df74762198a268168,,,,,,,,,,,,,,,,,,,,,,,,,,,,,,,,,,,,,,,,,,,,,,,,,,,,,,,,,,,,353.4311,361.4099,0.181481481,-0.203703704,1,0,0,1.9667,compass,0,13,13,23,1,SoundStimuli/IWalkTheLine_JohnnyCash_Cover5S.wav,,,,,,,,,,,,,,,,,,,,,,,,,,,,,,,,,,,,,,,,,,,,,,,,,,,,
,,,,,614933,001,2024-07-12_19h33.02.080,experiment,2024.1.5,Win32,59.88023952,6333dafae0a6b172dd2bd2af,6691931c2c63981b064e1f0c,6691bd0df74762198a268168,,,,,,,,,,,,,,,,,,,,,,,,,,,,,,,,,,,,,,,,,,,,,,,,,,,,,,,,,,,,361.4142,367.9267,0.17037037,-0.180555556,1,0,0,0.5001,compass,0,14,14,14,1,SoundStimuli/LikeARollingStone_BobDylan_Cover5S.wav,,,,,,,,,,,,,,,,,,,,,,,,,,,,,,,,,,,,,,,,,,,,,,,,,,,,
,,,,,614933,001,2024-07-12_19h33.02.080,experiment,2024.1.5,Win32,59.88023952,6333dafae0a6b172dd2bd2af,6691931c2c63981b064e1f0c,6691bd0df74762198a268168,,,,,,,,,,,,,,,,,,,,,,,,,,,,,,,,,,,,,,,,,,,,,,,,,,,,,,,,,,,,367.9311,375.2765,0.187962963,0.206481481,1,0,0,1.3332,compass,0,15,15,34,1,SoundStimuli/Irreplaceable_Beyonce_Original5S.wav,,,,,,,,,,,,,,,,,,,,,,,,,,,,,,,,,,,,,,,,,,,,,,,,,,,,
,,,,,614933,001,2024-07-12_19h33.02.080,experiment,2024.1.5,Win32,59.88023952,6333dafae0a6b172dd2bd2af,6691931c2c63981b064e1f0c,6691bd0df74762198a268168,,,,,,,,,,,,,,,,,,,,,,,,,,,,,,,,,,,,,,,,,,,,,,,,,,,,,,,,,,,,375.281,382.1434,0.317592593,0.32037037,1,0,0,0.8501,compass,0,16,16,27,1,SoundStimuli/EyeOfTheTiger_Survivor_Original5S.wav,,,,,,,,,,,,,,,,,,,,,,,,,,,,,,,,,,,,,,,,,,,,,,,,,,,,
,,,,,614933,001,2024-07-12_19h33.02.080,experiment,2024.1.5,Win32,59.88023952,6333dafae0a6b172dd2bd2af,6691931c2c63981b064e1f0c,6691bd0df74762198a268168,,,,,,,,,,,,,,,,,,,,,,,,,,,,,,,,,,,,,,,,,,,,,,,,,,,,,,,,,,,,382.148,389.9603,0.284259259,0.292592593,1,0,0,1.8,compass,0,17,17,11,1,SoundStimuli/BlurredLines_RobinThicke_Original5S.wav,,,,,,,,,,,,,,,,,,,,,,,,,,,,,,,,,,,,,,,,,,,,,,,,,,,,
,,,,,614933,001,2024-07-12_19h33.02.080,experiment,2024.1.5,Win32,59.88023952,6333dafae0a6b172dd2bd2af,6691931c2c63981b064e1f0c,6691bd0df74762198a268168,,,,,,,,,,,,,,,,,,,,,,,,,,,,,,,,,,,,,,,,,,,,,,,,,,,,,,,,,,,,389.9649,399.8604,-0.238888889,0.016666667,1,0,0,3.8834,compass,0,18,18,33,1,SoundStimuli/TheBoyIsMine_BrandyMonica_Cover5S.wav,,,,,,,,,,,,,,,,,,,,,,,,,,,,,,,,,,,,,,,,,,,,,,,,,,,,
,,,,,614933,001,2024-07-12_19h33.02.080,experiment,2024.1.5,Win32,59.88023952,6333dafae0a6b172dd2bd2af,6691931c2c63981b064e1f0c,6691bd0df74762198a268168,,,,,,,,,,,,,,,,,,,,,,,,,,,,,,,,,,,,,,,,,,,,,,,,,,,,,,,,,,,,399.8652,408.5769,-0.149074074,-0.162037037,1,0,0,2.6999,compass,0,19,19,4,1,SoundStimuli/Dreams_FleetwoodMac_Cover5S.wav,,,,,,,,,,,,,,,,,,,,,,,,,,,,,,,,,,,,,,,,,,,,,,,,,,,,
,,,,,614933,001,2024-07-12_19h33.02.080,experiment,2024.1.5,Win32,59.88023952,6333dafae0a6b172dd2bd2af,6691931c2c63981b064e1f0c,6691bd0df74762198a268168,,,,,,,,,,,,,,,,,,,,,,,,,,,,,,,,,,,,,,,,,,,,,,,,,,,,,,,,,,,,408.5814,419.0104,-0.002777778,-0.166666667,1,0,0,4.4166,compass,0,20,20,32,1,SoundStimuli/Dilemma_NellyKellyRowland_Original5S.wav,,,,,,,,,,,,,,,,,,,,,,,,,,,,,,,,,,,,,,,,,,,,,,,,,,,,
,,,,,614933,001,2024-07-12_19h33.02.080,experiment,2024.1.5,Win32,59.88023952,6333dafae0a6b172dd2bd2af,6691931c2c63981b064e1f0c,6691bd0df74762198a268168,,,,,,,,,,,,,,,,,,,,,,,,,,,,,,,,,,,,,,,,,,,,,,,,,,,,,,,,,,,,419.0154,427.3607,-0.025925926,0.266666667,1,0,0,2.3333,compass,0,21,21,31,1,SoundStimuli/TossinAndTurnin_BobbyLewis_Cover5S.wav,,,,,,,,,,,,,,,,,,,,,,,,,,,,,,,,,,,,,,,,,,,,,,,,,,,,
,,,,,614933,001,2024-07-12_19h33.02.080,experiment,2024.1.5,Win32,59.88023952,6333dafae0a6b172dd2bd2af,6691931c2c63981b064e1f0c,6691bd0df74762198a268168,,,,,,,,,,,,,,,,,,,,,,,,,,,,,,,,,,,,,,,,,,,,,,,,,,,,,,,,,,,,427.3653,436.0107,0.175925926,0.319444444,1,0,0,2.6335,compass,0,22,22,10,1,SoundStimuli/LeFreak_Chic_Original5S.wav,,,,,,,,,,,,,,,,,,,,,,,,,,,,,,,,,,,,,,,,,,,,,,,,,,,,
,,,,,614933,001,2024-07-12_19h33.02.080,experiment,2024.1.5,Win32,59.88023952,6333dafae0a6b172dd2bd2af,6691931c2c63981b064e1f0c,6691bd0df74762198a268168,,,,,,,,,,,,,,,,,,,,,,,,,,,,,,,,,,,,,,,,,,,,,,,,,,,,,,,,,,,,436.0156,445.3777,-0.000925926,0.200925926,1,0,0,3.3502,compass,0,23,23,24,1,SoundStimuli/Kiss_Prince_Original5S.wav,,,,,,,,,,,,,,,,,,,,,,,,,,,,,,,,,,,,,,,,,,,,,,,,,,,,
,,,,,614933,001,2024-07-12_19h33.02.080,experiment,2024.1.5,Win32,59.88023952,6333dafae0a6b172dd2bd2af,6691931c2c63981b064e1f0c,6691bd0df74762198a268168,,,,,,,,,,,,,,,,,,,,,,,,,,,,,,,,,,,,,,,,,,,,,,,,,,,,,,,,,,,,445.3822,453.0942,0.253703704,-0.275,1,0,0,1.7,compass,0,24,24,7,1,SoundStimuli/MackTheKnife_BobbyDarin_Original5S.wav,,,,,,,,,,,,,,,,,,,,,,,,,,,,,,,,,,,,,,,,,,,,,,,,,,,,
,,,,,614933,001,2024-07-12_19h33.02.080,experiment,2024.1.5,Win32,59.88023952,6333dafae0a6b172dd2bd2af,6691931c2c63981b064e1f0c,6691bd0df74762198a268168,,,,,,,,,,,,,,,,,,,,,,,,,,,,,,,,,,,,,,,,,,,,,,,,,,,,,,,,,,,,453.0985,461.5775,-0.190740741,0.207407407,1,0,0,2.4665,compass,0,25,25,2,1,SoundStimuli/SmellsLikeTeenSpirit_Nirvana_Cover5S.wav,,,,,,,,,,,,,,,,,,,,,,,,,,,,,,,,,,,,,,,,,,,,,,,,,,,,
,,,,,614933,001,2024-07-12_19h33.02.080,experiment,2024.1.5,Win32,59.88023952,6333dafae0a6b172dd2bd2af,6691931c2c63981b064e1f0c,6691bd0df74762198a268168,,,,,,,,,,,,,,,,,,,,,,,,,,,,,,,,,,,,,,,,,,,,,,,,,,,,,,,,,,,,461.5819,469.3944,-0.167592593,0.17962963,1,0,0,1.8001,compass,0,26,26,15,1,SoundStimuli/CrazyInLove_BeyonceFtJayZ_Original5S.wav,,,,,,,,,,,,,,,,,,,,,,,,,,,,,,,,,,,,,,,,,,,,,,,,,,,,
,,,,,614933,001,2024-07-12_19h33.02.080,experiment,2024.1.5,Win32,59.88023952,6333dafae0a6b172dd2bd2af,6691931c2c63981b064e1f0c,6691bd0df74762198a268168,,,,,,,,,,,,,,,,,,,,,,,,,,,,,,,,,,,,,,,,,,,,,,,,,,,,,,,,,,,,469.3988,478.3111,-0.184259259,0.001851852,1,0,0,2.9001,compass,0,27,27,12,1,SoundStimuli/UnbreakMyHeart_ToniBraxton_Cover5S.wav,,,,,,,,,,,,,,,,,,,,,,,,,,,,,,,,,,,,,,,,,,,,,,,,,,,,
,,,,,614933,001,2024-07-12_19h33.02.080,experiment,2024.1.5,Win32,59.88023952,6333dafae0a6b172dd2bd2af,6691931c2c63981b064e1f0c,6691bd0df74762198a268168,,,,,,,,,,,,,,,,,,,,,,,,,,,,,,,,,,,,,,,,,,,,,,,,,,,,,,,,,,,,478.3161,485.2445,0.210185185,0.224074074,1,0,0,0.9168,compass,0,28,28,26,1,SoundStimuli/TheSign_AceOfBase_Original5S.wav,,,,,,,,,,,,,,,,,,,,,,,,,,,,,,,,,,,,,,,,,,,,,,,,,,,,
,,,,,614933,001,2024-07-12_19h33.02.080,experiment,2024.1.5,Win32,59.88023952,6333dafae0a6b172dd2bd2af,6691931c2c63981b064e1f0c,6691bd0df74762198a268168,,,,,,,,,,,,,,,,,,,,,,,,,,,,,,,,,,,,,,,,,,,,,,,,,,,,,,,,,,,,485.249,494.4613,0.193518519,-0.176851852,1,0,0,3.2003,compass,0,29,29,8,1,SoundStimuli/EndlessLove_DianaRossLionelRichie_Original5S.wav,,,,,,,,,,,,,,,,,,,,,,,,,,,,,,,,,,,,,,,,,,,,,,,,,,,,
,,,,,614933,001,2024-07-12_19h33.02.080,experiment,2024.1.5,Win32,59.88023952,6333dafae0a6b172dd2bd2af,6691931c2c63981b064e1f0c,6691bd0df74762198a268168,,,,,,,,,,,,,,,,,,,,,,,,,,,,,,,,,,,,,,,,,,,,,,,,,,,,,,,,,,,,494.4659,501.7614,0.3,-0.312962963,1,0,0,1.2836,compass,0,30,30,25,1,SoundStimuli/IllMakeLoveToYou_BoyzIIMen_Original5S.wav,,,,,,,,,,,,,,,,,,,,,,,,,,,,,,,,,,,,,,,,,,,,,,,,,,,,
,,,,,614933,001,2024-07-12_19h33.02.080,experiment,2024.1.5,Win32,59.88023952,6333dafae0a6b172dd2bd2af,6691931c2c63981b064e1f0c,6691bd0df74762198a268168,,,,,,,,,,,,,,,,,,,,,,,,,,,,,,,,,,,,,,,,,,,,,,,,,,,,,,,,,,,,501.766,511.5447,0.339814815,0,1,0,0,3.7666,compass,0,31,31,22,1,SoundStimuli/Happy_PharellWilliams_Cover5S.wav,,,,,,,,,,,,,,,,,,,,,,,,,,,,,,,,,,,,,,,,,,,,,,,,,,,,
,,,,,614933,001,2024-07-12_19h33.02.080,experiment,2024.1.5,Win32,59.88023952,6333dafae0a6b172dd2bd2af,6691931c2c63981b064e1f0c,6691bd0df74762198a268168,,,,,,,,,,,,,,,,,,,,,,,,,,,,,,,,,,,,,,,,,,,,,,,,,,,,,,,,,,,,511.5494,519.928,0.339814815,0.043518519,1,0,0,2.3667,compass,0,32,32,3,1,SoundStimuli/PartyRockAnthem_LMFAO_Cover5S.wav,,,,,,,,,,,,,,,,,,,,,,,,,,,,,,,,,,,,,,,,,,,,,,,,,,,,
,,,,,614933,001,2024-07-12_19h33.02.080,experiment,2024.1.5,Win32,59.88023952,6333dafae0a6b172dd2bd2af,6691931c2c63981b064e1f0c,6691bd0df74762198a268168,,,,,,,,,,,,,,,,,,,,,,,,,,,,,,,,,,,,,,,,,,,,,,,,,,,,,,,,,,,,519.9325,529.0951,0.226851852,-0.325925926,1,0,0,3.15,compass,0,33,33,16,1,SoundStimuli/ItsAllInTheGame_TommyEdwards_Original5S.wav,,,,,,,,,,,,,,,,,,,,,,,,,,,,,,,,,,,,,,,,,,,,,,,,,,,,
,,,,,614933,001,2024-07-12_19h33.02.080,experiment,2024.1.5,Win32,59.88023952,6333dafae0a6b172dd2bd2af,6691931c2c63981b064e1f0c,6691bd0df74762198a268168,,,,,,,,,,,,,,,,,,,,,,,,,,,,,,,,,,,,,,,,,,,,,,,,,,,,,,,,,,,,529.0999,538.1118,0.338888889,-0.113888889,1,0,0,3.0001,compass,0,34,34,1,1,SoundStimuli/Smooth_SantanaRobThomas_Cover5S.wav,,,,,,,,,,,,,,,,,,,,,,,,,,,,,,,,,,,,,,,,,,,,,,,,,,,,
,,,,,614933,001,2024-07-12_19h33.02.080,experiment,2024.1.5,Win32,59.88023952,6333dafae0a6b172dd2bd2af,6691931c2c63981b064e1f0c,6691bd0df74762198a268168,,,,,,,,,,,,,,,,,,,,,,,,,,,,,,,,,,,,,,,,,,,,,,,,,,,,,,,,,,,,,,,,,,,,,,,,,,,538.1164,544.0328,space,5.8982,,544.0329,550.4957,right,6.4533,,0,0,0,0,1,block_order/blockB.xlsx,,,,,,,,,,,,,,,,,,,,,,,,,,,,,,,,,,,,
,,,,,614933,001,2024-07-12_19h33.02.080,experiment,2024.1.5,Win32,59.88023952,6333dafae0a6b172dd2bd2af,6691931c2c63981b064e1f0c,6691bd0df74762198a268168,,,,,,,,,,,,,,,,,,,,,,,,,,,,,,,,,,,,,,,,,,,,,,,,,,,,,,,,,,,,550.5062,559.9954,0.072222222,0.287962963,1,0,0,3.4834,compass,0,0,0,4,1,SoundStimuli/GetUrFreakOn_MissyElliot_Cover5S.wav,,,,,,,,,,,,,,,,,,,,,,,,,,,,,,,,,,,,,,,,,,,,,,,,,,,,
,,,,,614933,001,2024-07-12_19h33.02.080,experiment,2024.1.5,Win32,59.88023952,6333dafae0a6b172dd2bd2af,6691931c2c63981b064e1f0c,6691bd0df74762198a268168,,,,,,,,,,,,,,,,,,,,,,,,,,,,,,,,,,,,,,,,,,,,,,,,,,,,,,,,,,,,560,566.6954,-0.27962963,0.237037037,1,0,0,0.6837,compass,0,1,1,23,1,SoundStimuli/StrawberryFieldsForever_TheBeatles_Cover5S.wav,,,,,,,,,,,,,,,,,,,,,,,,,,,,,,,,,,,,,,,,,,,,,,,,,,,,
,,,,,614933,001,2024-07-12_19h33.02.080,experiment,2024.1.5,Win32,59.88023952,6333dafae0a6b172dd2bd2af,6691931c2c63981b064e1f0c,6691bd0df74762198a268168,,,,,,,,,,,,,,,,,,,,,,,,,,,,,,,,,,,,,,,,,,,,,,,,,,,,,,,,,,,,566.6999,574.1121,0.236111111,0.327777778,1,0,0,1.4001,compass,0,2,2,21,1,SoundStimuli/GoodGollyMissMolly_LittleRichard_Original5S.wav,,,,,,,,,,,,,,,,,,,,,,,,,,,,,,,,,,,,,,,,,,,,,,,,,,,,
,,,,,614933,001,2024-07-12_19h33.02.080,experiment,2024.1.5,Win32,59.88023952,6333dafae0a6b172dd2bd2af,6691931c2c63981b064e1f0c,6691bd0df74762198a268168,,,,,,,,,,,,,,,,,,,,,,,,,,,,,,,,,,,,,,,,,,,,,,,,,,,,,,,,,,,,574.1173,581.0955,0.300925926,0.3,1,0,0,0.9667,compass,0,3,3,14,1,SoundStimuli/BlindingLights_TheWeeknd_Cover5S.wav,,,,,,,,,,,,,,,,,,,,,,,,,,,,,,,,,,,,,,,,,,,,,,,,,,,,
,,,,,614933,001,2024-07-12_19h33.02.080,experiment,2024.1.5,Win32,59.88023952,6333dafae0a6b172dd2bd2af,6691931c2c63981b064e1f0c,6691bd0df74762198a268168,,,,,,,,,,,,,,,,,,,,,,,,,,,,,,,,,,,,,,,,,,,,,,,,,,,,,,,,,,,,581.0999,589.0957,-0.298148148,-0.02037037,1,0,0,1.9834,compass,0,4,4,7,1,SoundStimuli/NoOne_AliciaKeys_Original5S.wav,,,,,,,,,,,,,,,,,,,,,,,,,,,,,,,,,,,,,,,,,,,,,,,,,,,,
,,,,,614933,001,2024-07-12_19h33.02.080,experiment,2024.1.5,Win32,59.88023952,6333dafae0a6b172dd2bd2af,6691931c2c63981b064e1f0c,6691bd0df74762198a268168,,,,,,,,,,,,,,,,,,,,,,,,,,,,,,,,,,,,,,,,,,,,,,,,,,,,,,,,,,,,589.1001,598.0623,0.225925926,-0.072222222,1,0,0,2.9501,compass,0,5,5,6,1,SoundStimuli/Levitating_DuaLipa_Original5S.wav,,,,,,,,,,,,,,,,,,,,,,,,,,,,,,,,,,,,,,,,,,,,,,,,,,,,
,,,,,614933,001,2024-07-12_19h33.02.080,experiment,2024.1.5,Win32,59.88023952,6333dafae0a6b172dd2bd2af,6691931c2c63981b064e1f0c,6691bd0df74762198a268168,,,,,,,,,,,,,,,,,,,,,,,,,,,,,,,,,,,,,,,,,,,,,,,,,,,,,,,,,,,,598.0668,606.4957,-0.137962963,0.213888889,1,0,0,2.4166,compass,0,6,6,25,1,SoundStimuli/Respect_ArethaFranklin_Cover5S.wav,,,,,,,,,,,,,,,,,,,,,,,,,,,,,,,,,,,,,,,,,,,,,,,,,,,,
,,,,,614933,001,2024-07-12_19h33.02.080,experiment,2024.1.5,Win32,59.88023952,6333dafae0a6b172dd2bd2af,6691931c2c63981b064e1f0c,6691bd0df74762198a268168,,,,,,,,,,,,,,,,,,,,,,,,,,,,,,,,,,,,,,,,,,,,,,,,,,,,,,,,,,,,606.5001,613.5959,-0.252777778,-0.241666667,1,0,0,1.0834,compass,0,7,7,5,1,SoundStimuli/MyGirl_TheTemptations_Cover5S.wav,,,,,,,,,,,,,,,,,,,,,,,,,,,,,,,,,,,,,,,,,,,,,,,,,,,,
,,,,,614933,001,2024-07-12_19h33.02.080,experiment,2024.1.5,Win32,59.88023952,6333dafae0a6b172dd2bd2af,6691931c2c63981b064e1f0c,6691bd0df74762198a268168,,,,,,,,,,,,,,,,,,,,,,,,,,,,,,,,,,,,,,,,,,,,,,,,,,,,,,,,,,,,613.6003,623.5959,0.067592593,-0.049074074,1,0,0,3.9832,compass,0,8,8,0,1,SoundStimuli/StayinAlive_BeeGees_Cover5S.wav,,,,,,,,,,,,,,,,,,,,,,,,,,,,,,,,,,,,,,,,,,,,,,,,,,,,
,,,,,614933,001,2024-07-12_19h33.02.080,experiment,2024.1.5,Win32,59.88023952,6333dafae0a6b172dd2bd2af,6691931c2c63981b064e1f0c,6691bd0df74762198a268168,,,,,,,,,,,,,,,,,,,,,,,,,,,,,,,,,,,,,,,,,,,,,,,,,,,,,,,,,,,,623.6006,632.5961,-0.091666667,-0.24537037,1,0,0,2.9835,compass,0,9,9,34,1,SoundStimuli/AChangeIsGonnaCome_SamCooke_Original5S.wav,,,,,,,,,,,,,,,,,,,,,,,,,,,,,,,,,,,,,,,,,,,,,,,,,,,,
,,,,,614933,001,2024-07-12_19h33.02.080,experiment,2024.1.5,Win32,59.88023952,6333dafae0a6b172dd2bd2af,6691931c2c63981b064e1f0c,6691bd0df74762198a268168,,,,,,,,,,,,,,,,,,,,,,,,,,,,,,,,,,,,,,,,,,,,,,,,,,,,,,,,,,,,632.6011,643.3461,0.25462963,-0.268518519,1,0,0,4.7334,compass,0,10,10,9,1,SoundStimuli/Despacito_LuisFonsiDaddyYankee_Original5S.wav,,,,,,,,,,,,,,,,,,,,,,,,,,,,,,,,,,,,,,,,,,,,,,,,,,,,
,,,,,614933,001,2024-07-12_19h33.02.080,experiment,2024.1.5,Win32,59.88023952,6333dafae0a6b172dd2bd2af,6691931c2c63981b064e1f0c,6691bd0df74762198a268168,,,,,,,,,,,,,,,,,,,,,,,,,,,,,,,,,,,,,,,,,,,,,,,,,,,,,,,,,,,,643.3506,652.8631,0.205555556,-0.218518519,1,0,0,3.5001,compass,0,11,11,17,1,SoundStimuli/Fallin_AliciaKeys_Cover5S.wav,,,,,,,,,,,,,,,,,,,,,,,,,,,,,,,,,,,,,,,,,,,,,,,,,,,,
,,,,,614933,001,2024-07-12_19h33.02.080,experiment,2024.1.5,Win32,59.88023952,6333dafae0a6b172dd2bd2af,6691931c2c63981b064e1f0c,6691bd0df74762198a268168,,,,,,,,,,,,,,,,,,,,,,,,,,,,,,,,,,,,,,,,,,,,,,,,,,,,,,,,,,,,652.8677,662.2963,0.338888889,0.006481481,1,0,0,3.4168,compass,0,12,12,30,1,SoundStimuli/PokerFace_LadyGaga_Cover5S.wav,,,,,,,,,,,,,,,,,,,,,,,,,,,,,,,,,,,,,,,,,,,,,,,,,,,,
,,,,,614933,001,2024-07-12_19h33.02.080,experiment,2024.1.5,Win32,59.88023952,6333dafae0a6b172dd2bd2af,6691931c2c63981b064e1f0c,6691bd0df74762198a268168,,,,,,,,,,,,,,,,,,,,,,,,,,,,,,,,,,,,,,,,,,,,,,,,,,,,,,,,,,,,662.3011,672.2631,-0.113888889,-0.00462963,1,0,0,3.9501,compass,0,13,13,1,1,SoundStimuli/Stronger_KanyeWest_Cover5S.wav,,,,,,,,,,,,,,,,,,,,,,,,,,,,,,,,,,,,,,,,,,,,,,,,,,,,
,,,,,614933,001,2024-07-12_19h33.02.080,experiment,2024.1.5,Win32,59.88023952,6333dafae0a6b172dd2bd2af,6691931c2c63981b064e1f0c,6691bd0df74762198a268168,,,,,,,,,,,,,,,,,,,,,,,,,,,,,,,,,,,,,,,,,,,,,,,,,,,,,,,,,,,,672.2681,680.3966,0.341666667,0.190740741,1,0,0,2.1167,compass,0,14,14,20,1,SoundStimuli/HeyYa_Outkast_Original5S.wav,,,,,,,,,,,,,,,,,,,,,,,,,,,,,,,,,,,,,,,,,,,,,,,,,,,,
,,,,,614933,001,2024-07-12_19h33.02.080,experiment,2024.1.5,Win32,59.88023952,6333dafae0a6b172dd2bd2af,6691931c2c63981b064e1f0c,6691bd0df74762198a268168,,,,,,,,,,,,,,,,,,,,,,,,,,,,,,,,,,,,,,,,,,,,,,,,,,,,,,,,,,,,680.4012,693.1799,-0.000925926,0.113888889,1,0,0,6.7668,compass,0,15,15,3,1,SoundStimuli/NoScrubs_TLC_Cover5S.wav,,,,,,,,,,,,,,,,,,,,,,,,,,,,,,,,,,,,,,,,,,,,,,,,,,,,
,,,,,614933,001,2024-07-12_19h33.02.080,experiment,2024.1.5,Win32,59.88023952,6333dafae0a6b172dd2bd2af,6691931c2c63981b064e1f0c,6691bd0df74762198a268168,,,,,,,,,,,,,,,,,,,,,,,,,,,,,,,,,,,,,,,,,,,,,,,,,,,,,,,,,,,,693.1848,701.6634,-0.167592593,-0.327777778,1,0,0,2.4668,compass,0,16,16,33,1,SoundStimuli/StandByMe_BenEKing_Original5S.wav,,,,,,,,,,,,,,,,,,,,,,,,,,,,,,,,,,,,,,,,,,,,,,,,,,,,
,,,,,614933,001,2024-07-12_19h33.02.080,experiment,2024.1.5,Win32,59.88023952,6333dafae0a6b172dd2bd2af,6691931c2c63981b064e1f0c,6691bd0df74762198a268168,,,,,,,,,,,,,,,,,,,,,,,,,,,,,,,,,,,,,,,,,,,,,,,,,,,,,,,,,,,,701.6678,711.2801,0.051851852,-0.305555556,1,0,0,3.6,compass,0,17,17,13,1,SoundStimuli/GodOnlyKnows_TheBeachBoys_Original5S.wav,,,,,,,,,,,,,,,,,,,,,,,,,,,,,,,,,,,,,,,,,,,,,,,,,,,,
,,,,,614933,001,2024-07-12_19h33.02.080,experiment,2024.1.5,Win32,59.88023952,6333dafae0a6b172dd2bd2af,6691931c2c63981b064e1f0c,6691bd0df74762198a268168,,,,,,,,,,,,,,,,,,,,,,,,,,,,,,,,,,,,,,,,,,,,,,,,,,,,,,,,,,,,711.2846,718.3804,0,0.260185185,1,0,0,1.0835,compass,0,18,18,15,1,SoundStimuli/TikTok_Kesha_Original5S.wav,,,,,,,,,,,,,,,,,,,,,,,,,,,,,,,,,,,,,,,,,,,,,,,,,,,,
,,,,,614933,001,2024-07-12_19h33.02.080,experiment,2024.1.5,Win32,59.88023952,6333dafae0a6b172dd2bd2af,6691931c2c63981b064e1f0c,6691bd0df74762198a268168,,,,,,,,,,,,,,,,,,,,,,,,,,,,,,,,,,,,,,,,,,,,,,,,,,,,,,,,,,,,718.3848,730.6304,-0.003703704,0.263888889,1,0,0,6.2335,compass,0,19,19,16,1,SoundStimuli/BohemianRhapsody_Queen_Cover5S.wav,,,,,,,,,,,,,,,,,,,,,,,,,,,,,,,,,,,,,,,,,,,,,,,,,,,,
,,,,,614933,001,2024-07-12_19h33.02.080,experiment,2024.1.5,Win32,59.88023952,6333dafae0a6b172dd2bd2af,6691931c2c63981b064e1f0c,6691bd0df74762198a268168,,,,,,,,,,,,,,,,,,,,,,,,,,,,,,,,,,,,,,,,,,,,,,,,,,,,,,,,,,,,730.6348,738.4137,-0.001851852,-0.176851852,1,0,0,1.7665,compass,0,20,20,22,1,SoundStimuli/RockWithYou_MichaelJackson_Cover5S.wav,,,,,,,,,,,,,,,,,,,,,,,,,,,,,,,,,,,,,,,,,,,,,,,,,,,,
,,,,,614933,001,2024-07-12_19h33.02.080,experiment,2024.1.5,Win32,59.88023952,6333dafae0a6b172dd2bd2af,6691931c2c63981b064e1f0c,6691bd0df74762198a268168,,,,,,,,,,,,,,,,,,,,,,,,,,,,,,,,,,,,,,,,,,,,,,,,,,,,,,,,,,,,738.418,749.664,-0.312962963,-0.197222222,1,0,0,5.2335,compass,0,21,21,29,1,SoundStimuli/OldTownRoad_LilNasX_Cover5S.wav,,,,,,,,,,,,,,,,,,,,,,,,,,,,,,,,,,,,,,,,,,,,,,,,,,,,
,,,,,614933,001,2024-07-12_19h33.02.080,experiment,2024.1.5,Win32,59.88023952,6333dafae0a6b172dd2bd2af,6691931c2c63981b064e1f0c,6691bd0df74762198a268168,,,,,,,,,,,,,,,,,,,,,,,,,,,,,,,,,,,,,,,,,,,,,,,,,,,,,,,,,,,,749.6689,760.314,-0.111111111,0,1,0,0,4.6333,compass,0,22,22,28,1,SoundStimuli/ComeAndGetYourLove_Redbone_Cover5S.wav,,,,,,,,,,,,,,,,,,,,,,,,,,,,,,,,,,,,,,,,,,,,,,,,,,,,
,,,,,614933,001,2024-07-12_19h33.02.080,experiment,2024.1.5,Win32,59.88023952,6333dafae0a6b172dd2bd2af,6691931c2c63981b064e1f0c,6691bd0df74762198a268168,,,,,,,,,,,,,,,,,,,,,,,,,,,,,,,,,,,,,,,,,,,,,,,,,,,,,,,,,,,,760.3187,770.2142,-0.080555556,-0.05462963,1,0,0,3.8835,compass,0,23,23,2,1,SoundStimuli/Mood_24kGoldnianndior_Original5S.wav,,,,,,,,,,,,,,,,,,,,,,,,,,,,,,,,,,,,,,,,,,,,,,,,,,,,
,,,,,614933,001,2024-07-12_19h33.02.080,experiment,2024.1.5,Win32,59.88023952,6333dafae0a6b172dd2bd2af,6691931c2c63981b064e1f0c,6691bd0df74762198a268168,,,,,,,,,,,,,,,,,,,,,,,,,,,,,,,,,,,,,,,,,,,,,,,,,,,,,,,,,,,,770.2187,778.7474,0.137037037,0.130555556,1,0,0,2.5166,compass,0,24,24,8,1,SoundStimuli/LikeAPrayer_Madonna_Cover5S.wav,,,,,,,,,,,,,,,,,,,,,,,,,,,,,,,,,,,,,,,,,,,,,,,,,,,,
,,,,,614933,001,2024-07-12_19h33.02.080,experiment,2024.1.5,Win32,59.88023952,6333dafae0a6b172dd2bd2af,6691931c2c63981b064e1f0c,6691bd0df74762198a268168,,,,,,,,,,,,,,,,,,,,,,,,,,,,,,,,,,,,,,,,,,,,,,,,,,,,,,,,,,,,778.7519,788.5311,0.246296296,0.207407407,1,0,0,3.7669,compass,0,25,25,32,1,SoundStimuli/HeatWaves_GlassAnimals_Cover5S.wav,,,,,,,,,,,,,,,,,,,,,,,,,,,,,,,,,,,,,,,,,,,,,,,,,,,,
,,,,,614933,001,2024-07-12_19h33.02.080,experiment,2024.1.5,Win32,59.88023952,6333dafae0a6b172dd2bd2af,6691931c2c63981b064e1f0c,6691bd0df74762198a268168,,,,,,,,,,,,,,,,,,,,,,,,,,,,,,,,,,,,,,,,,,,,,,,,,,,,,,,,,,,,788.5356,795.5144,0.341666667,0.341666667,1,0,0,0.9669,compass,0,26,26,26,1,SoundStimuli/LivinOnAPrayer_BonJovi_Original5S.wav,,,,,,,,,,,,,,,,,,,,,,,,,,,,,,,,,,,,,,,,,,,,,,,,,,,,
,,,,,614933,001,2024-07-12_19h33.02.080,experiment,2024.1.5,Win32,59.88023952,6333dafae0a6b172dd2bd2af,6691931c2c63981b064e1f0c,6691bd0df74762198a268168,,,,,,,,,,,,,,,,,,,,,,,,,,,,,,,,,,,,,,,,,,,,,,,,,,,,,,,,,,,,795.5191,804.6643,0.175925926,-0.311111111,1,0,0,3.1333,compass,0,27,27,12,1,SoundStimuli/IWillAlwaysLoveYou_WhitneyHouston_Original5S.wav,,,,,,,,,,,,,,,,,,,,,,,,,,,,,,,,,,,,,,,,,,,,,,,,,,,,
,,,,,614933,001,2024-07-12_19h33.02.080,experiment,2024.1.5,Win32,59.88023952,6333dafae0a6b172dd2bd2af,6691931c2c63981b064e1f0c,6691bd0df74762198a268168,,,,,,,,,,,,,,,,,,,,,,,,,,,,,,,,,,,,,,,,,,,,,,,,,,,,,,,,,,,,804.6689,815.6645,-0.040740741,-0.334259259,1,0,0,4.9834,compass,0,28,28,10,1,SoundStimuli/BadDay_DanielPowter_Original5S.wav,,,,,,,,,,,,,,,,,,,,,,,,,,,,,,,,,,,,,,,,,,,,,,,,,,,,
,,,,,614933,001,2024-07-12_19h33.02.080,experiment,2024.1.5,Win32,59.88023952,6333dafae0a6b172dd2bd2af,6691931c2c63981b064e1f0c,6691bd0df74762198a268168,,,,,,,,,,,,,,,,,,,,,,,,,,,,,,,,,,,,,,,,,,,,,,,,,,,,,,,,,,,,815.6692,823.5147,0.290740741,0.325925926,1,0,0,1.8334,compass,0,29,29,24,1,SoundStimuli/UptownFunk_MarkRonson_Cover5S.wav,,,,,,,,,,,,,,,,,,,,,,,,,,,,,,,,,,,,,,,,,,,,,,,,,,,,
,,,,,614933,001,2024-07-12_19h33.02.080,experiment,2024.1.5,Win32,59.88023952,6333dafae0a6b172dd2bd2af,6691931c2c63981b064e1f0c,6691bd0df74762198a268168,,,,,,,,,,,,,,,,,,,,,,,,,,,,,,,,,,,,,,,,,,,,,,,,,,,,,,,,,,,,823.5192,831.9812,0.334259259,0.043518519,1,0,0,2.4499,compass,0,30,30,31,1,SoundStimuli/TheBattleOfNewOrleans_JohnnyHorton_Original5S.wav,,,,,,,,,,,,,,,,,,,,,,,,,,,,,,,,,,,,,,,,,,,,,,,,,,,,
,,,,,614933,001,2024-07-12_19h33.02.080,experiment,2024.1.5,Win32,59.88023952,6333dafae0a6b172dd2bd2af,6691931c2c63981b064e1f0c,6691bd0df74762198a268168,,,,,,,,,,,,,,,,,,,,,,,,,,,,,,,,,,,,,,,,,,,,,,,,,,,,,,,,,,,,831.9858,843.715,-0.275925926,-0.333333333,1,0,0,5.7167,compass,0,31,31,18,1,SoundStimuli/AnotherOneBitesTheDust_Queen_Cover5S.wav,,,,,,,,,,,,,,,,,,,,,,,,,,,,,,,,,,,,,,,,,,,,,,,,,,,,
,,,,,614933,001,2024-07-12_19h33.02.080,experiment,2024.1.5,Win32,59.88023952,6333dafae0a6b172dd2bd2af,6691931c2c63981b064e1f0c,6691bd0df74762198a268168,,,,,,,,,,,,,,,,,,,,,,,,,,,,,,,,,,,,,,,,,,,,,,,,,,,,,,,,,,,,843.7199,858.0317,0.016666667,-0.25,1,0,0,8.3,compass,0,32,32,27,1,SoundStimuli/ShapeofYou_EdSheeran_Cover5S.wav,,,,,,,,,,,,,,,,,,,,,,,,,,,,,,,,,,,,,,,,,,,,,,,,,,,,
,,,,,614933,001,2024-07-12_19h33.02.080,experiment,2024.1.5,Win32,59.88023952,6333dafae0a6b172dd2bd2af,6691931c2c63981b064e1f0c,6691bd0df74762198a268168,,,,,,,,,,,,,,,,,,,,,,,,,,,,,,,,,,,,,,,,,,,,,,,,,,,,,,,,,,,,858.0365,866.1818,0.162962963,-0.001851852,1,0,0,2.1334,compass,0,33,33,11,1,SoundStimuli/Superstition_StevieWonder_Original5S.wav,,,,,,,,,,,,,,,,,,,,,,,,,,,,,,,,,,,,,,,,,,,,,,,,,,,,
,,,,,614933,001,2024-07-12_19h33.02.080,experiment,2024.1.5,Win32,59.88023952,6333dafae0a6b172dd2bd2af,6691931c2c63981b064e1f0c,6691bd0df74762198a268168,,,,,,,,,,,,,,,,,,,,,,,,,,,,,,,,,,,,,,,,,,,,,,,,,,,,,,,,,,,,866.1862,875.7319,0.249074074,-0.199074074,1,0,0,3.5335,compass,0,34,34,19,1,SoundStimuli/LetsGetItOn_MarvinGaye_Original5S.wav,,,,,,,,,,,,,,,,,,,,,,,,,,,,,,,,,,,,,,,,,,,,,,,,,,,,
,,,,,614933,001,2024-07-12_19h33.02.080,experiment,2024.1.5,Win32,59.88023952,6333dafae0a6b172dd2bd2af,6691931c2c63981b064e1f0c,6691bd0df74762198a268168,,,,,,,,,,,,,,,,,,,,,,,,,,,,,,,,,,,,,,,,,,,,,,,,,,,,,,,,,,,,,,,,,,,,,,,,,,,875.7365,900.3031,space,24.5595,,900.3032,902.5821,right,2.2645,,0,1,1,1,1,block_order/blockC.xlsx,,,,,,,,,,,,,,,,,,,,,,,,,,,,,,,,,,,,
,,,,,614933,001,2024-07-12_19h33.02.080,experiment,2024.1.5,Win32,59.88023952,6333dafae0a6b172dd2bd2af,6691931c2c63981b064e1f0c,6691bd0df74762198a268168,,,,,,,,,,,,,,,,,,,,,,,,,,,,,,,,,,,,,,,,,,,,,,,,,,,,,,,,,,,,902.5884,910.582,0.194444444,0.338888889,1,0,0,1.9831,compass,0,0,0,22,1,SoundStimuli/Happy_PharellWilliams_Original5S.wav,,,,,,,,,,,,,,,,,,,,,,,,,,,,,,,,,,,,,,,,,,,,,,,,,,,,
,,,,,614933,001,2024-07-12_19h33.02.080,experiment,2024.1.5,Win32,59.88023952,6333dafae0a6b172dd2bd2af,6691931c2c63981b064e1f0c,6691bd0df74762198a268168,,,,,,,,,,,,,,,,,,,,,,,,,,,,,,,,,,,,,,,,,,,,,,,,,,,,,,,,,,,,910.5865,918.2989,-0.216666667,0.340740741,1,0,0,1.7,compass,0,1,1,10,1,SoundStimuli/LeFreak_Chic_Cover5S.wav,,,,,,,,,,,,,,,,,,,,,,,,,,,,,,,,,,,,,,,,,,,,,,,,,,,,
,,,,,614933,001,2024-07-12_19h33.02.080,experiment,2024.1.5,Win32,59.88023952,6333dafae0a6b172dd2bd2af,6691931c2c63981b064e1f0c,6691bd0df74762198a268168,,,,,,,,,,,,,,,,,,,,,,,,,,,,,,,,,,,,,,,,,,,,,,,,,,,,,,,,,,,,918.3033,925.6656,-0.343518519,-0.30462963,1,0,0,1.35,compass,0,2,2,12,1,SoundStimuli/UnbreakMyHeart_ToniBraxton_Original5S.wav,,,,,,,,,,,,,,,,,,,,,,,,,,,,,,,,,,,,,,,,,,,,,,,,,,,,
,,,,,614933,001,2024-07-12_19h33.02.080,experiment,2024.1.5,Win32,59.88023952,6333dafae0a6b172dd2bd2af,6691931c2c63981b064e1f0c,6691bd0df74762198a268168,,,,,,,,,,,,,,,,,,,,,,,,,,,,,,,,,,,,,,,,,,,,,,,,,,,,,,,,,,,,925.6703,935.6325,0.000925926,-0.336111111,1,0,0,3.9501,compass,0,3,3,18,1,SoundStimuli/Weak_SWV_Cover5S.wav,,,,,,,,,,,,,,,,,,,,,,,,,,,,,,,,,,,,,,,,,,,,,,,,,,,,
,,,,,614933,001,2024-07-12_19h33.02.080,experiment,2024.1.5,Win32,59.88023952,6333dafae0a6b172dd2bd2af,6691931c2c63981b064e1f0c,6691bd0df74762198a268168,,,,,,,,,,,,,,,,,,,,,,,,,,,,,,,,,,,,,,,,,,,,,,,,,,,,,,,,,,,,935.637,947.2825,0.000925926,-0.342592593,1,0,0,5.6334,compass,0,4,4,9,1,SoundStimuli/HowDoILive_LeAnnRimes_Cover5S.wav,,,,,,,,,,,,,,,,,,,,,,,,,,,,,,,,,,,,,,,,,,,,,,,,,,,,
,,,,,614933,001,2024-07-12_19h33.02.080,experiment,2024.1.5,Win32,59.88023952,6333dafae0a6b172dd2bd2af,6691931c2c63981b064e1f0c,6691bd0df74762198a268168,,,,,,,,,,,,,,,,,,,,,,,,,,,,,,,,,,,,,,,,,,,,,,,,,,,,,,,,,,,,947.2871,956.5827,0.343518519,0.006481481,1,0,0,3.2834,compass,0,5,5,23,1,SoundStimuli/IWalkTheLine_JohnnyCash_Original5S.wav,,,,,,,,,,,,,,,,,,,,,,,,,,,,,,,,,,,,,,,,,,,,,,,,,,,,
,,,,,614933,001,2024-07-12_19h33.02.080,experiment,2024.1.5,Win32,59.88023952,6333dafae0a6b172dd2bd2af,6691931c2c63981b064e1f0c,6691bd0df74762198a268168,,,,,,,,,,,,,,,,,,,,,,,,,,,,,,,,,,,,,,,,,,,,,,,,,,,,,,,,,,,,956.5873,964.9661,0.34537037,0.042592593,1,0,0,2.3668,compass,0,6,6,28,1,SoundStimuli/IWantToHoldYourHand_TheBeatles_Original5S.wav,,,,,,,,,,,,,,,,,,,,,,,,,,,,,,,,,,,,,,,,,,,,,,,,,,,,
,,,,,614933,001,2024-07-12_19h33.02.080,experiment,2024.1.5,Win32,59.88023952,6333dafae0a6b172dd2bd2af,6691931c2c63981b064e1f0c,6691bd0df74762198a268168,,,,,,,,,,,,,,,,,,,,,,,,,,,,,,,,,,,,,,,,,,,,,,,,,,,,,,,,,,,,964.9708,972.8161,0.340740741,0.041666667,1,0,0,1.8334,compass,0,7,7,15,1,SoundStimuli/CrazyInLove_BeyonceFtJayZ_Cover5S.wav,,,,,,,,,,,,,,,,,,,,,,,,,,,,,,,,,,,,,,,,,,,,,,,,,,,,
,,,,,614933,001,2024-07-12_19h33.02.080,experiment,2024.1.5,Win32,59.88023952,6333dafae0a6b172dd2bd2af,6691931c2c63981b064e1f0c,6691bd0df74762198a268168,,,,,,,,,,,,,,,,,,,,,,,,,,,,,,,,,,,,,,,,,,,,,,,,,,,,,,,,,,,,972.821,981.3163,0.312037037,0.341666667,1,0,0,2.4834,compass,0,8,8,3,1,SoundStimuli/PartyRockAnthem_LMFAO_Original5S.wav,,,,,,,,,,,,,,,,,,,,,,,,,,,,,,,,,,,,,,,,,,,,,,,,,,,,
,,,,,614933,001,2024-07-12_19h33.02.080,experiment,2024.1.5,Win32,59.88023952,6333dafae0a6b172dd2bd2af,6691931c2c63981b064e1f0c,6691bd0df74762198a268168,,,,,,,,,,,,,,,,,,,,,,,,,,,,,,,,,,,,,,,,,,,,,,,,,,,,,,,,,,,,981.321,990.333,-0.340740741,-0.293518519,1,0,0,3.0001,compass,0,9,9,16,1,SoundStimuli/ItsAllInTheGame_TommyEdwards_Cover5S.wav,,,,,,,,,,,,,,,,,,,,,,,,,,,,,,,,,,,,,,,,,,,,,,,,,,,,
,,,,,614933,001,2024-07-12_19h33.02.080,experiment,2024.1.5,Win32,59.88023952,6333dafae0a6b172dd2bd2af,6691931c2c63981b064e1f0c,6691bd0df74762198a268168,,,,,,,,,,,,,,,,,,,,,,,,,,,,,,,,,,,,,,,,,,,,,,,,,,,,,,,,,,,,990.3375,1000.3997,-0.053703704,-0.335185185,1,0,0,4.0501,compass,0,10,10,8,1,SoundStimuli/EndlessLove_DianaRossLionelRichie_Cover5S.wav,,,,,,,,,,,,,,,,,,,,,,,,,,,,,,,,,,,,,,,,,,,,,,,,,,,,
,,,,,614933,001,2024-07-12_19h33.02.080,experiment,2024.1.5,Win32,59.88023952,6333dafae0a6b172dd2bd2af,6691931c2c63981b064e1f0c,6691bd0df74762198a268168,,,,,,,,,,,,,,,,,,,,,,,,,,,,,,,,,,,,,,,,,,,,,,,,,,,,,,,,,,,,1000.4043,1012.8667,-0.256481481,-0.309259259,1,0,0,6.4503,compass,0,11,11,33,1,SoundStimuli/TheBoyIsMine_BrandyMonica_Original5S.wav,,,,,,,,,,,,,,,,,,,,,,,,,,,,,,,,,,,,,,,,,,,,,,,,,,,,
,,,,,614933,001,2024-07-12_19h33.02.080,experiment,2024.1.5,Win32,59.88023952,6333dafae0a6b172dd2bd2af,6691931c2c63981b064e1f0c,6691bd0df74762198a268168,,,,,,,,,,,,,,,,,,,,,,,,,,,,,,,,,,,,,,,,,,,,,,,,,,,,,,,,,,,,1012.8714,1022.3832,0.125,0.249074074,1,0,0,3.5001,compass,0,12,12,1,1,SoundStimuli/Smooth_SantanaRobThomas_Original5S.wav,,,,,,,,,,,,,,,,,,,,,,,,,,,,,,,,,,,,,,,,,,,,,,,,,,,,
,,,,,614933,001,2024-07-12_19h33.02.080,experiment,2024.1.5,Win32,59.88023952,6333dafae0a6b172dd2bd2af,6691931c2c63981b064e1f0c,6691bd0df74762198a268168,,,,,,,,,,,,,,,,,,,,,,,,,,,,,,,,,,,,,,,,,,,,,,,,,,,,,,,,,,,,1022.3875,1033.8834,0.150925926,-0.286111111,1,0,0,5.4835,compass,0,13,13,34,1,SoundStimuli/Irreplaceable_Beyonce_Cover5S.wav,,,,,,,,,,,,,,,,,,,,,,,,,,,,,,,,,,,,,,,,,,,,,,,,,,,,
,,,,,614933,001,2024-07-12_19h33.02.080,experiment,2024.1.5,Win32,59.88023952,6333dafae0a6b172dd2bd2af,6691931c2c63981b064e1f0c,6691bd0df74762198a268168,,,,,,,,,,,,,,,,,,,,,,,,,,,,,,,,,,,,,,,,,,,,,,,,,,,,,,,,,,,,1033.8881,1048.8003,0.062037037,-0.084259259,1,0,0,8.9001,compass,0,14,14,14,1,SoundStimuli/LikeARollingStone_BobDylan_Original5S.wav,,,,,,,,,,,,,,,,,,,,,,,,,,,,,,,,,,,,,,,,,,,,,,,,,,,,
,,,,,614933,001,2024-07-12_19h33.02.080,experiment,2024.1.5,Win32,59.88023952,6333dafae0a6b172dd2bd2af,6691931c2c63981b064e1f0c,6691bd0df74762198a268168,,,,,,,,,,,,,,,,,,,,,,,,,,,,,,,,,,,,,,,,,,,,,,,,,,,,,,,,,,,,1048.8049,1056.9337,0.076851852,0.090740741,1,0,0,2.1167,compass,0,15,15,17,1,SoundStimuli/IWannaDanceWithSomebody_WhitneyHouston_Original5S.wav,,,,,,,,,,,,,,,,,,,,,,,,,,,,,,,,,,,,,,,,,,,,,,,,,,,,
,,,,,614933,001,2024-07-12_19h33.02.080,experiment,2024.1.5,Win32,59.88023952,6333dafae0a6b172dd2bd2af,6691931c2c63981b064e1f0c,6691bd0df74762198a268168,,,,,,,,,,,,,,,,,,,,,,,,,,,,,,,,,,,,,,,,,,,,,,,,,,,,,,,,,,,,1056.9381,1065.284,0.099074074,0.303703704,1,0,0,2.3333,compass,0,16,16,26,1,SoundStimuli/TheSign_AceOfBase_Cover5S.wav,,,,,,,,,,,,,,,,,,,,,,,,,,,,,,,,,,,,,,,,,,,,,,,,,,,,
,,,,,614933,001,2024-07-12_19h33.02.080,experiment,2024.1.5,Win32,59.88023952,6333dafae0a6b172dd2bd2af,6691931c2c63981b064e1f0c,6691bd0df74762198a268168,,,,,,,,,,,,,,,,,,,,,,,,,,,,,,,,,,,,,,,,,,,,,,,,,,,,,,,,,,,,1065.2884,1073.0672,-0.000925926,0.239814815,1,0,0,1.7667,compass,0,17,17,24,1,SoundStimuli/Kiss_Prince_Cover5S.wav,,,,,,,,,,,,,,,,,,,,,,,,,,,,,,,,,,,,,,,,,,,,,,,,,,,,
,,,,,614933,001,2024-07-12_19h33.02.080,experiment,2024.1.5,Win32,59.88023952,6333dafae0a6b172dd2bd2af,6691931c2c63981b064e1f0c,6691bd0df74762198a268168,,,,,,,,,,,,,,,,,,,,,,,,,,,,,,,,,,,,,,,,,,,,,,,,,,,,,,,,,,,,1073.0717,1083.1672,-0.178703704,-0.307407407,1,0,0,4.0832,compass,0,18,18,6,1,SoundStimuli/SaveYourTears_TheWeekndArianaGrande_Cover5S.wav,,,,,,,,,,,,,,,,,,,,,,,,,,,,,,,,,,,,,,,,,,,,,,,,,,,,
,,,,,614933,001,2024-07-12_19h33.02.080,experiment,2024.1.5,Win32,59.88023952,6333dafae0a6b172dd2bd2af,6691931c2c63981b064e1f0c,6691bd0df74762198a268168,,,,,,,,,,,,,,,,,,,,,,,,,,,,,,,,,,,,,,,,,,,,,,,,,,,,,,,,,,,,1083.1718,1094.2507,0.176851852,0.253703704,1,0,0,5.0668,compass,0,19,19,27,1,SoundStimuli/EyeOfTheTiger_Survivor_Cover5S.wav,,,,,,,,,,,,,,,,,,,,,,,,,,,,,,,,,,,,,,,,,,,,,,,,,,,,
,,,,,614933,001,2024-07-12_19h33.02.080,experiment,2024.1.5,Win32,59.88023952,6333dafae0a6b172dd2bd2af,6691931c2c63981b064e1f0c,6691bd0df74762198a268168,,,,,,,,,,,,,,,,,,,,,,,,,,,,,,,,,,,,,,,,,,,,,,,,,,,,,,,,,,,,1094.2554,1103.2176,0.186111111,-0.312962963,1,0,0,2.95,compass,0,20,20,13,1,SoundStimuli/Perfect_EdSheeran_Cover5S.wav,,,,,,,,,,,,,,,,,,,,,,,,,,,,,,,,,,,,,,,,,,,,,,,,,,,,
,,,,,614933,001,2024-07-12_19h33.02.080,experiment,2024.1.5,Win32,59.88023952,6333dafae0a6b172dd2bd2af,6691931c2c63981b064e1f0c,6691bd0df74762198a268168,,,,,,,,,,,,,,,,,,,,,,,,,,,,,,,,,,,,,,,,,,,,,,,,,,,,,,,,,,,,1103.2222,1115.1842,0.25,-0.327777778,1,0,0,5.9502,compass,0,21,21,25,1,SoundStimuli/IllMakeLoveToYou_BoyzIIMen_Cover5S.wav,,,,,,,,,,,,,,,,,,,,,,,,,,,,,,,,,,,,,,,,,,,,,,,,,,,,
,,,,,614933,001,2024-07-12_19h33.02.080,experiment,2024.1.5,Win32,59.88023952,6333dafae0a6b172dd2bd2af,6691931c2c63981b064e1f0c,6691bd0df74762198a268168,,,,,,,,,,,,,,,,,,,,,,,,,,,,,,,,,,,,,,,,,,,,,,,,,,,,,,,,,,,,1115.1888,1131.1511,0.017592593,-0.022222222,1,0,0,9.9503,compass,0,22,22,5,1,SoundStimuli/JoyToTheWorld_ThreeDogNight_Original5S.wav,,,,,,,,,,,,,,,,,,,,,,,,,,,,,,,,,,,,,,,,,,,,,,,,,,,,
,,,,,614933,001,2024-07-12_19h33.02.080,experiment,2024.1.5,Win32,59.88023952,6333dafae0a6b172dd2bd2af,6691931c2c63981b064e1f0c,6691bd0df74762198a268168,,,,,,,,,,,,,,,,,,,,,,,,,,,,,,,,,,,,,,,,,,,,,,,,,,,,,,,,,,,,1131.1557,1140.3179,0.344444444,-0.188888889,1,0,0,3.15,compass,0,23,23,19,1,SoundStimuli/YouLightUpMyLife_DebbyBoone_Original5S.wav,,,,,,,,,,,,,,,,,,,,,,,,,,,,,,,,,,,,,,,,,,,,,,,,,,,,
,,,,,614933,001,2024-07-12_19h33.02.080,experiment,2024.1.5,Win32,59.88023952,6333dafae0a6b172dd2bd2af,6691931c2c63981b064e1f0c,6691bd0df74762198a268168,,,,,,,,,,,,,,,,,,,,,,,,,,,,,,,,,,,,,,,,,,,,,,,,,,,,,,,,,,,,1140.3225,1150.3177,0.34537037,0.15462963,1,0,0,3.9833,compass,0,24,24,20,1,SoundStimuli/FlashdanceWhatAFeeling_IreneCara_Original5S.wav,,,,,,,,,,,,,,,,,,,,,,,,,,,,,,,,,,,,,,,,,,,,,,,,,,,,
,,,,,614933,001,2024-07-12_19h33.02.080,experiment,2024.1.5,Win32,59.88023952,6333dafae0a6b172dd2bd2af,6691931c2c63981b064e1f0c,6691bd0df74762198a268168,,,,,,,,,,,,,,,,,,,,,,,,,,,,,,,,,,,,,,,,,,,,,,,,,,,,,,,,,,,,1150.3223,1159.4682,0.337962963,0.314814815,1,0,0,3.1336,compass,0,25,25,31,1,SoundStimuli/TossinAndTurnin_BobbyLewis_Original5S.wav,,,,,,,,,,,,,,,,,,,,,,,,,,,,,,,,,,,,,,,,,,,,,,,,,,,,
,,,,,614933,001,2024-07-12_19h33.02.080,experiment,2024.1.5,Win32,59.88023952,6333dafae0a6b172dd2bd2af,6691931c2c63981b064e1f0c,6691bd0df74762198a268168,,,,,,,,,,,,,,,,,,,,,,,,,,,,,,,,,,,,,,,,,,,,,,,,,,,,,,,,,,,,1159.473,1171.6181,-0.100925926,0.084259259,1,0,0,6.1334,compass,0,26,26,30,1,SoundStimuli/SomebodyThatIUsedtoKnow_Gotye_Original5S.wav,,,,,,,,,,,,,,,,,,,,,,,,,,,,,,,,,,,,,,,,,,,,,,,,,,,,
,,,,,614933,001,2024-07-12_19h33.02.080,experiment,2024.1.5,Win32,59.88023952,6333dafae0a6b172dd2bd2af,6691931c2c63981b064e1f0c,6691bd0df74762198a268168,,,,,,,,,,,,,,,,,,,,,,,,,,,,,,,,,,,,,,,,,,,,,,,,,,,,,,,,,,,,1171.6228,1180.0515,0.183333333,0.003703704,1,0,0,2.4166,compass,0,27,27,4,1,SoundStimuli/Dreams_FleetwoodMac_Original5S.wav,,,,,,,,,,,,,,,,,,,,,,,,,,,,,,,,,,,,,,,,,,,,,,,,,,,,
,,,,,614933,001,2024-07-12_19h33.02.080,experiment,2024.1.5,Win32,59.88023952,6333dafae0a6b172dd2bd2af,6691931c2c63981b064e1f0c,6691bd0df74762198a268168,,,,,,,,,,,,,,,,,,,,,,,,,,,,,,,,,,,,,,,,,,,,,,,,,,,,,,,,,,,,1180.056,1189.585,0.162037037,0.2,1,0,0,3.5167,compass,0,28,28,11,1,SoundStimuli/BlurredLines_RobinThicke_Cover5S.wav,,,,,,,,,,,,,,,,,,,,,,,,,,,,,,,,,,,,,,,,,,,,,,,,,,,,
,,,,,614933,001,2024-07-12_19h33.02.080,experiment,2024.1.5,Win32,59.88023952,6333dafae0a6b172dd2bd2af,6691931c2c63981b064e1f0c,6691bd0df74762198a268168,,,,,,,,,,,,,,,,,,,,,,,,,,,,,,,,,,,,,,,,,,,,,,,,,,,,,,,,,,,,1189.5897,1201.1851,-0.172222222,0.144444444,1,0,0,5.5834,compass,0,29,29,2,1,SoundStimuli/SmellsLikeTeenSpirit_Nirvana_Original5S.wav,,,,,,,,,,,,,,,,,,,,,,,,,,,,,,,,,,,,,,,,,,,,,,,,,,,,
,,,,,614933,001,2024-07-12_19h33.02.080,experiment,2024.1.5,Win32,59.88023952,6333dafae0a6b172dd2bd2af,6691931c2c63981b064e1f0c,6691bd0df74762198a268168,,,,,,,,,,,,,,,,,,,,,,,,,,,,,,,,,,,,,,,,,,,,,,,,,,,,,,,,,,,,1201.1898,1211.4185,0.112037037,0.130555556,1,0,0,4.2168,compass,0,30,30,0,1,SoundStimuli/GimmeShelter_RollingStones_Original5S.wav,,,,,,,,,,,,,,,,,,,,,,,,,,,,,,,,,,,,,,,,,,,,,,,,,,,,
,,,,,614933,001,2024-07-12_19h33.02.080,experiment,2024.1.5,Win32,59.88023952,6333dafae0a6b172dd2bd2af,6691931c2c63981b064e1f0c,6691bd0df74762198a268168,,,,,,,,,,,,,,,,,,,,,,,,,,,,,,,,,,,,,,,,,,,,,,,,,,,,,,,,,,,,1211.4228,1221.1854,-0.041666667,0.001851852,1,0,0,3.7501,compass,0,31,31,29,1,SoundStimuli/BetteDavisEyes_KimCarnes_Original5S.wav,,,,,,,,,,,,,,,,,,,,,,,,,,,,,,,,,,,,,,,,,,,,,,,,,,,,
,,,,,614933,001,2024-07-12_19h33.02.080,experiment,2024.1.5,Win32,59.88023952,6333dafae0a6b172dd2bd2af,6691931c2c63981b064e1f0c,6691bd0df74762198a268168,,,,,,,,,,,,,,,,,,,,,,,,,,,,,,,,,,,,,,,,,,,,,,,,,,,,,,,,,,,,1221.1899,1231.1188,-0.096296296,-0.209259259,1,0,0,3.9166,compass,0,32,32,21,1,SoundStimuli/BridgeOverTroubledWater_SimonAndGarfunkel_Original5S.wav,,,,,,,,,,,,,,,,,,,,,,,,,,,,,,,,,,,,,,,,,,,,,,,,,,,,
,,,,,614933,001,2024-07-12_19h33.02.080,experiment,2024.1.5,Win32,59.88023952,6333dafae0a6b172dd2bd2af,6691931c2c63981b064e1f0c,6691bd0df74762198a268168,,,,,,,,,,,,,,,,,,,,,,,,,,,,,,,,,,,,,,,,,,,,,,,,,,,,,,,,,,,,1231.1233,1241.7189,0.067592593,-0.041666667,1,0,0,4.5833,compass,0,33,33,32,1,SoundStimuli/Dilemma_NellyKellyRowland_Cover5S.wav,,,,,,,,,,,,,,,,,,,,,,,,,,,,,,,,,,,,,,,,,,,,,,,,,,,,
,,,,,614933,001,2024-07-12_19h33.02.080,experiment,2024.1.5,Win32,59.88023952,6333dafae0a6b172dd2bd2af,6691931c2c63981b064e1f0c,6691bd0df74762198a268168,,,,,,,,,,,,,,,,,,,,,,,,,,,,,,,,,,,,,,,,,,,,,,,,,,,,,,,,,,,,1241.7235,1254.3523,-0.091666667,0.051851852,1,0,0,6.6168,compass,0,34,34,7,1,SoundStimuli/MackTheKnife_BobbyDarin_Cover5S.wav,,,,,,,,,,,,,,,,,,,,,,,,,,,,,,,,,,,,,,,,,,,,,,,,,,,,
,,,,,614933,001,2024-07-12_19h33.02.080,experiment,2024.1.5,Win32,59.88023952,6333dafae0a6b172dd2bd2af,6691931c2c63981b064e1f0c,6691bd0df74762198a268168,,,,,,,,,,,,,,,,,,,,,,,,,,,,,,,,,,,,,,,,,,,,,,,,,,,,,,,,,,,,,,,,,,,,,,,,,,,1254.3568,1256.4191,space,2.0514,,1256.4192,1258.1357,right,1.701,,0,2,2,2,1,block_order/blockD.xlsx,,,,,,,,,,,,,,,,,,,,,,,,,,,,,,,,,,,,
,,,,,614933,001,2024-07-12_19h33.02.080,experiment,2024.1.5,Win32,59.88023952,6333dafae0a6b172dd2bd2af,6691931c2c63981b064e1f0c,6691bd0df74762198a268168,,,,,,,,,,,,,,,,,,,,,,,,,,,,,,,,,,,,,,,,,,,,,,,,,,,,,,,,,,,,1258.1416,1267.2026,0.239814815,0.074074074,1,0,0,3.0502,compass,0,0,0,27,1,SoundStimuli/ShapeofYou_EdSheeran_Original5S.wav,,,,,,,,,,,,,,,,,,,,,,,,,,,,,,,,,,,,,,,,,,,,,,,,,,,,
,,,,,614933,001,2024-07-12_19h33.02.080,experiment,2024.1.5,Win32,59.88023952,6333dafae0a6b172dd2bd2af,6691931c2c63981b064e1f0c,6691bd0df74762198a268168,,,,,,,,,,,,,,,,,,,,,,,,,,,,,,,,,,,,,,,,,,,,,,,,,,,,,,,,,,,,1267.2073,1278.1859,0.04537037,-0.262037037,1,0,0,4.9667,compass,0,1,1,10,1,SoundStimuli/BadDay_DanielPowter_Cover5S.wav,,,,,,,,,,,,,,,,,,,,,,,,,,,,,,,,,,,,,,,,,,,,,,,,,,,,
,,,,,614933,001,2024-07-12_19h33.02.080,experiment,2024.1.5,Win32,59.88023952,6333dafae0a6b172dd2bd2af,6691931c2c63981b064e1f0c,6691bd0df74762198a268168,,,,,,,,,,,,,,,,,,,,,,,,,,,,,,,,,,,,,,,,,,,,,,,,,,,,,,,,,,,,1278.1906,1286.736,-0.183333333,-0.24537037,1,0,0,2.5335,compass,0,2,2,16,1,SoundStimuli/BohemianRhapsody_Queen_Original5S.wav,,,,,,,,,,,,,,,,,,,,,,,,,,,,,,,,,,,,,,,,,,,,,,,,,,,,
,,,,,614933,001,2024-07-12_19h33.02.080,experiment,2024.1.5,Win32,59.88023952,6333dafae0a6b172dd2bd2af,6691931c2c63981b064e1f0c,6691bd0df74762198a268168,,,,,,,,,,,,,,,,,,,,,,,,,,,,,,,,,,,,,,,,,,,,,,,,,,,,,,,,,,,,1286.7409,1294.5529,0.187962963,-0.25,1,0,0,1.8002,compass,0,3,3,5,1,SoundStimuli/MyGirl_TheTemptations_Original5S.wav,,,,,,,,,,,,,,,,,,,,,,,,,,,,,,,,,,,,,,,,,,,,,,,,,,,,
,,,,,614933,001,2024-07-12_19h33.02.080,experiment,2024.1.5,Win32,59.88023952,6333dafae0a6b172dd2bd2af,6691931c2c63981b064e1f0c,6691bd0df74762198a268168,,,,,,,,,,,,,,,,,,,,,,,,,,,,,,,,,,,,,,,,,,,,,,,,,,,,,,,,,,,,1294.5573,1306.7695,0.026851852,-0.332407407,1,0,0,6.2001,compass,0,4,4,15,1,SoundStimuli/TikTok_Kesha_Cover5S.wav,,,,,,,,,,,,,,,,,,,,,,,,,,,,,,,,,,,,,,,,,,,,,,,,,,,,
,,,,,614933,001,2024-07-12_19h33.02.080,experiment,2024.1.5,Win32,59.88023952,6333dafae0a6b172dd2bd2af,6691931c2c63981b064e1f0c,6691bd0df74762198a268168,,,,,,,,,,,,,,,,,,,,,,,,,,,,,,,,,,,,,,,,,,,,,,,,,,,,,,,,,,,,1306.774,1316.703,-0.249074074,0.012037037,1,0,0,3.9166,compass,0,5,5,18,1,SoundStimuli/AnotherOneBitesTheDust_Queen_Original5S.wav,,,,,,,,,,,,,,,,,,,,,,,,,,,,,,,,,,,,,,,,,,,,,,,,,,,,
,,,,,614933,001,2024-07-12_19h33.02.080,experiment,2024.1.5,Win32,59.88023952,6333dafae0a6b172dd2bd2af,6691931c2c63981b064e1f0c,6691bd0df74762198a268168,,,,,,,,,,,,,,,,,,,,,,,,,,,,,,,,,,,,,,,,,,,,,,,,,,,,,,,,,,,,1316.7076,1326.8199,-0.000925926,-0.000925926,1,0,0,4.1002,compass,0,6,6,25,1,SoundStimuli/Respect_ArethaFranklin_Original5S.wav,,,,,,,,,,,,,,,,,,,,,,,,,,,,,,,,,,,,,,,,,,,,,,,,,,,,
,,,,,614933,001,2024-07-12_19h33.02.080,experiment,2024.1.5,Win32,59.88023952,6333dafae0a6b172dd2bd2af,6691931c2c63981b064e1f0c,6691bd0df74762198a268168,,,,,,,,,,,,,,,,,,,,,,,,,,,,,,,,,,,,,,,,,,,,,,,,,,,,,,,,,,,,1326.8246,1338.2365,0.290740741,-0.123148148,1,0,0,5.3999,compass,0,7,7,26,1,SoundStimuli/LivinOnAPrayer_BonJovi_Cover5S.wav,,,,,,,,,,,,,,,,,,,,,,,,,,,,,,,,,,,,,,,,,,,,,,,,,,,,
,,,,,614933,001,2024-07-12_19h33.02.080,experiment,2024.1.5,Win32,59.88023952,6333dafae0a6b172dd2bd2af,6691931c2c63981b064e1f0c,6691bd0df74762198a268168,,,,,,,,,,,,,,,,,,,,,,,,,,,,,,,,,,,,,,,,,,,,,,,,,,,,,,,,,,,,1338.2411,1346.1699,0.32037037,0.023148148,1,0,0,1.9167,compass,0,8,8,28,1,SoundStimuli/ComeAndGetYourLove_Redbone_Original5S.wav,,,,,,,,,,,,,,,,,,,,,,,,,,,,,,,,,,,,,,,,,,,,,,,,,,,,
,,,,,614933,001,2024-07-12_19h33.02.080,experiment,2024.1.5,Win32,59.88023952,6333dafae0a6b172dd2bd2af,6691931c2c63981b064e1f0c,6691bd0df74762198a268168,,,,,,,,,,,,,,,,,,,,,,,,,,,,,,,,,,,,,,,,,,,,,,,,,,,,,,,,,,,,1346.1742,1354.4866,0.287962963,0.122222222,1,0,0,2.2998,compass,0,9,9,8,1,SoundStimuli/LikeAPrayer_Madonna_Original5S.wav,,,,,,,,,,,,,,,,,,,,,,,,,,,,,,,,,,,,,,,,,,,,,,,,,,,,
,,,,,614933,001,2024-07-12_19h33.02.080,experiment,2024.1.5,Win32,59.88023952,6333dafae0a6b172dd2bd2af,6691931c2c63981b064e1f0c,6691bd0df74762198a268168,,,,,,,,,,,,,,,,,,,,,,,,,,,,,,,,,,,,,,,,,,,,,,,,,,,,,,,,,,,,1354.4911,1365.6702,0.12037037,0.003703704,1,0,0,5.1669,compass,0,10,10,31,1,SoundStimuli/TheBattleOfNewOrleans_JohnnyHorton_Cover5S.wav,,,,,,,,,,,,,,,,,,,,,,,,,,,,,,,,,,,,,,,,,,,,,,,,,,,,
,,,,,614933,001,2024-07-12_19h33.02.080,experiment,2024.1.5,Win32,59.88023952,6333dafae0a6b172dd2bd2af,6691931c2c63981b064e1f0c,6691bd0df74762198a268168,,,,,,,,,,,,,,,,,,,,,,,,,,,,,,,,,,,,,,,,,,,,,,,,,,,,,,,,,,,,1365.6749,1372.8036,-0.04537037,-0.287962963,1,0,0,1.1167,compass,0,11,11,13,1,SoundStimuli/GodOnlyKnows_TheBeachBoys_Cover5S.wav,,,,,,,,,,,,,,,,,,,,,,,,,,,,,,,,,,,,,,,,,,,,,,,,,,,,
,,,,,614933,001,2024-07-12_19h33.02.080,experiment,2024.1.5,Win32,59.88023952,6333dafae0a6b172dd2bd2af,6691931c2c63981b064e1f0c,6691bd0df74762198a268168,,,,,,,,,,,,,,,,,,,,,,,,,,,,,,,,,,,,,,,,,,,,,,,,,,,,,,,,,,,,1372.8079,1381.7203,-0.011111111,-0.249074074,1,0,0,2.9001,compass,0,12,12,23,1,SoundStimuli/StrawberryFieldsForever_TheBeatles_Original5S.wav,,,,,,,,,,,,,,,,,,,,,,,,,,,,,,,,,,,,,,,,,,,,,,,,,,,,
,,,,,614933,001,2024-07-12_19h33.02.080,experiment,2024.1.5,Win32,59.88023952,6333dafae0a6b172dd2bd2af,6691931c2c63981b064e1f0c,6691bd0df74762198a268168,,,,,,,,,,,,,,,,,,,,,,,,,,,,,,,,,,,,,,,,,,,,,,,,,,,,,,,,,,,,1381.7249,1390.1244,0.039814815,-0.340740741,0,0,1,2.3873,compass,0,13,13,20,1,SoundStimuli/HeyYa_Outkast_Cover5S.wav,,,,,,,,,,,,,,,,,,,,,,,,,,,,,,,,,,,,,,,,,,,,,,,,,,,,
,,,,,614933,001,2024-07-12_19h33.02.080,experiment,2024.1.5,Win32,59.88023952,6333dafae0a6b172dd2bd2af,6691931c2c63981b064e1f0c,6691bd0df74762198a268168,,,,,,,,,,,,,,,,,,,,,,,,,,,,,,,,,,,,,,,,,,,,,,,,,,,,,,,,,,,,1390.1245,1402.4205,0.037962963,0.181481481,1,0,0,6.2835,compass,0,14,14,14,1,SoundStimuli/BlindingLights_TheWeeknd_Original5S.wav,,,,,,,,,,,,,,,,,,,,,,,,,,,,,,,,,,,,,,,,,,,,,,,,,,,,
,,,,,614933,001,2024-07-12_19h33.02.080,experiment,2024.1.5,Win32,59.88023952,6333dafae0a6b172dd2bd2af,6691931c2c63981b064e1f0c,6691bd0df74762198a268168,,,,,,,,,,,,,,,,,,,,,,,,,,,,,,,,,,,,,,,,,,,,,,,,,,,,,,,,,,,,1402.4251,1412.4705,0,0.043518519,1,0,0,4.0333,compass,0,15,15,34,1,SoundStimuli/AChangeIsGonnaCome_SamCooke_Cover5S.wav,,,,,,,,,,,,,,,,,,,,,,,,,,,,,,,,,,,,,,,,,,,,,,,,,,,,
,,,,,614933,001,2024-07-12_19h33.02.080,experiment,2024.1.5,Win32,59.88023952,6333dafae0a6b172dd2bd2af,6691931c2c63981b064e1f0c,6691bd0df74762198a268168,,,,,,,,,,,,,,,,,,,,,,,,,,,,,,,,,,,,,,,,,,,,,,,,,,,,,,,,,,,,1412.4748,1422.804,-0.00462963,0.003703704,1,0,0,4.3168,compass,0,16,16,32,1,SoundStimuli/HeatWaves_GlassAnimals_Original5S.wav,,,,,,,,,,,,,,,,,,,,,,,,,,,,,,,,,,,,,,,,,,,,,,,,,,,,
,,,,,614933,001,2024-07-12_19h33.02.080,experiment,2024.1.5,Win32,59.88023952,6333dafae0a6b172dd2bd2af,6691931c2c63981b064e1f0c,6691bd0df74762198a268168,,,,,,,,,,,,,,,,,,,,,,,,,,,,,,,,,,,,,,,,,,,,,,,,,,,,,,,,,,,,1422.8086,1436.0708,0.019444444,0.302777778,1,0,0,7.25,compass,0,17,17,30,1,SoundStimuli/PokerFace_LadyGaga_Original5S.wav,,,,,,,,,,,,,,,,,,,,,,,,,,,,,,,,,,,,,,,,,,,,,,,,,,,,
,,,,,614933,001,2024-07-12_19h33.02.080,experiment,2024.1.5,Win32,59.88023952,6333dafae0a6b172dd2bd2af,6691931c2c63981b064e1f0c,6691bd0df74762198a268168,,,,,,,,,,,,,,,,,,,,,,,,,,,,,,,,,,,,,,,,,,,,,,,,,,,,,,,,,,,,1436.0754,1444.3376,0.088888889,0.184259259,1,0,0,2.25,compass,0,18,18,22,1,SoundStimuli/RockWithYou_MichaelJackson_Original5S.wav,,,,,,,,,,,,,,,,,,,,,,,,,,,,,,,,,,,,,,,,,,,,,,,,,,,,
,,,,,614933,001,2024-07-12_19h33.02.080,experiment,2024.1.5,Win32,59.88023952,6333dafae0a6b172dd2bd2af,6691931c2c63981b064e1f0c,6691bd0df74762198a268168,,,,,,,,,,,,,,,,,,,,,,,,,,,,,,,,,,,,,,,,,,,,,,,,,,,,,,,,,,,,1444.342,1452.0877,0.307407407,0.25462963,1,0,0,1.7335,compass,0,19,19,24,1,SoundStimuli/UptownFunk_MarkRonson_Original5S.wav,,,,,,,,,,,,,,,,,,,,,,,,,,,,,,,,,,,,,,,,,,,,,,,,,,,,
,,,,,614933,001,2024-07-12_19h33.02.080,experiment,2024.1.5,Win32,59.88023952,6333dafae0a6b172dd2bd2af,6691931c2c63981b064e1f0c,6691bd0df74762198a268168,,,,,,,,,,,,,,,,,,,,,,,,,,,,,,,,,,,,,,,,,,,,,,,,,,,,,,,,,,,,1452.0922,1464.1046,-0.176851852,-0.027777778,1,0,0,6.0001,compass,0,20,20,2,1,SoundStimuli/Mood_24kGoldnianndior_Cover5S.wav,,,,,,,,,,,,,,,,,,,,,,,,,,,,,,,,,,,,,,,,,,,,,,,,,,,,
,,,,,614933,001,2024-07-12_19h33.02.080,experiment,2024.1.5,Win32,59.88023952,6333dafae0a6b172dd2bd2af,6691931c2c63981b064e1f0c,6691bd0df74762198a268168,,,,,,,,,,,,,,,,,,,,,,,,,,,,,,,,,,,,,,,,,,,,,,,,,,,,,,,,,,,,1464.1092,1474.5211,0,-0.291666667,1,0,0,4.3999,compass,0,21,21,3,1,SoundStimuli/NoScrubs_TLC_Original5S.wav,,,,,,,,,,,,,,,,,,,,,,,,,,,,,,,,,,,,,,,,,,,,,,,,,,,,
,,,,,614933,001,2024-07-12_19h33.02.080,experiment,2024.1.5,Win32,59.88023952,6333dafae0a6b172dd2bd2af,6691931c2c63981b064e1f0c,6691bd0df74762198a268168,,,,,,,,,,,,,,,,,,,,,,,,,,,,,,,,,,,,,,,,,,,,,,,,,,,,,,,,,,,,1474.5258,1481.0713,-0.087962963,-0.126851852,1,0,0,0.5332,compass,0,22,22,17,1,SoundStimuli/Fallin_AliciaKeys_Original5S.wav,,,,,,,,,,,,,,,,,,,,,,,,,,,,,,,,,,,,,,,,,,,,,,,,,,,,
,,,,,614933,001,2024-07-12_19h33.02.080,experiment,2024.1.5,Win32,59.88023952,6333dafae0a6b172dd2bd2af,6691931c2c63981b064e1f0c,6691bd0df74762198a268168,,,,,,,,,,,,,,,,,,,,,,,,,,,,,,,,,,,,,,,,,,,,,,,,,,,,,,,,,,,,1481.0758,1491.0048,0.203703704,-0.128703704,1,0,0,3.9168,compass,0,23,23,9,1,SoundStimuli/Despacito_LuisFonsiDaddyYankee_Cover5S.wav,,,,,,,,,,,,,,,,,,,,,,,,,,,,,,,,,,,,,,,,,,,,,,,,,,,,
,,,,,614933,001,2024-07-12_19h33.02.080,experiment,2024.1.5,Win32,59.88023952,6333dafae0a6b172dd2bd2af,6691931c2c63981b064e1f0c,6691bd0df74762198a268168,,,,,,,,,,,,,,,,,,,,,,,,,,,,,,,,,,,,,,,,,,,,,,,,,,,,,,,,,,,,1491.0097,1499.1548,0.000925926,-0.012037037,1,0,0,2.1335,compass,0,24,24,1,1,SoundStimuli/Stronger_KanyeWest_Original5S.wav,,,,,,,,,,,,,,,,,,,,,,,,,,,,,,,,,,,,,,,,,,,,,,,,,,,,
,,,,,614933,001,2024-07-12_19h33.02.080,experiment,2024.1.5,Win32,59.88023952,6333dafae0a6b172dd2bd2af,6691931c2c63981b064e1f0c,6691bd0df74762198a268168,,,,,,,,,,,,,,,,,,,,,,,,,,,,,,,,,,,,,,,,,,,,,,,,,,,,,,,,,,,,1499.1594,1508.3383,-0.000925926,-0.000925926,1,0,0,3.1667,compass,0,25,25,21,1,SoundStimuli/GoodGollyMissMolly_LittleRichard_Cover5S.wav,,,,,,,,,,,,,,,,,,,,,,,,,,,,,,,,,,,,,,,,,,,,,,,,,,,,
,,,,,614933,001,2024-07-12_19h33.02.080,experiment,2024.1.5,Win32,59.88023952,6333dafae0a6b172dd2bd2af,6691931c2c63981b064e1f0c,6691bd0df74762198a268168,,,,,,,,,,,,,,,,,,,,,,,,,,,,,,,,,,,,,,,,,,,,,,,,,,,,,,,,,,,,1508.3429,1515.5382,-0.171296296,-0.011111111,1,0,0,1.1832,compass,0,26,26,29,1,SoundStimuli/OldTownRoad_LilNasX_Original5S.wav,,,,,,,,,,,,,,,,,,,,,,,,,,,,,,,,,,,,,,,,,,,,,,,,,,,,
,,,,,614933,001,2024-07-12_19h33.02.080,experiment,2024.1.5,Win32,59.88023952,6333dafae0a6b172dd2bd2af,6691931c2c63981b064e1f0c,6691bd0df74762198a268168,,,,,,,,,,,,,,,,,,,,,,,,,,,,,,,,,,,,,,,,,,,,,,,,,,,,,,,,,,,,1515.5426,1523.105,-0.178703704,0.024074074,1,0,0,1.5499,compass,0,27,27,7,1,SoundStimuli/NoOne_AliciaKeys_Cover5S.wav,,,,,,,,,,,,,,,,,,,,,,,,,,,,,,,,,,,,,,,,,,,,,,,,,,,,
,,,,,614933,001,2024-07-12_19h33.02.080,experiment,2024.1.5,Win32,59.88023952,6333dafae0a6b172dd2bd2af,6691931c2c63981b064e1f0c,6691bd0df74762198a268168,,,,,,,,,,,,,,,,,,,,,,,,,,,,,,,,,,,,,,,,,,,,,,,,,,,,,,,,,,,,1523.1095,1529.2717,-0.188888889,0.151851852,1,0,0,0.1498,compass,0,28,28,6,1,SoundStimuli/Levitating_DuaLipa_Cover5S.wav,,,,,,,,,,,,,,,,,,,,,,,,,,,,,,,,,,,,,,,,,,,,,,,,,,,,
,,,,,614933,001,2024-07-12_19h33.02.080,experiment,2024.1.5,Win32,59.88023952,6333dafae0a6b172dd2bd2af,6691931c2c63981b064e1f0c,6691bd0df74762198a268168,,,,,,,,,,,,,,,,,,,,,,,,,,,,,,,,,,,,,,,,,,,,,,,,,,,,,,,,,,,,1529.2764,1536.7053,-0.012037037,0.15,1,0,0,1.4168,compass,0,29,29,4,1,SoundStimuli/GetUrFreakOn_MissyElliot_Original5S.wav,,,,,,,,,,,,,,,,,,,,,,,,,,,,,,,,,,,,,,,,,,,,,,,,,,,,
,,,,,614933,001,2024-07-12_19h33.02.080,experiment,2024.1.5,Win32,59.88023952,6333dafae0a6b172dd2bd2af,6691931c2c63981b064e1f0c,6691bd0df74762198a268168,,,,,,,,,,,,,,,,,,,,,,,,,,,,,,,,,,,,,,,,,,,,,,,,,,,,,,,,,,,,1536.7098,1543.0551,-0.05,0.047222222,1,0,0,0.3333,compass,0,30,30,0,1,SoundStimuli/StayinAlive_BeeGees_Original5S.wav,,,,,,,,,,,,,,,,,,,,,,,,,,,,,,,,,,,,,,,,,,,,,,,,,,,,
,,,,,614933,001,2024-07-12_19h33.02.080,experiment,2024.1.5,Win32,59.88023952,6333dafae0a6b172dd2bd2af,6691931c2c63981b064e1f0c,6691bd0df74762198a268168,,,,,,,,,,,,,,,,,,,,,,,,,,,,,,,,,,,,,,,,,,,,,,,,,,,,,,,,,,,,1543.0598,1550.4386,0.024074074,-0.027777778,1,0,0,1.3668,compass,0,31,31,12,1,SoundStimuli/IWillAlwaysLoveYou_WhitneyHouston_Cover5S.wav,,,,,,,,,,,,,,,,,,,,,,,,,,,,,,,,,,,,,,,,,,,,,,,,,,,,
,,,,,614933,001,2024-07-12_19h33.02.080,experiment,2024.1.5,Win32,59.88023952,6333dafae0a6b172dd2bd2af,6691931c2c63981b064e1f0c,6691bd0df74762198a268168,,,,,,,,,,,,,,,,,,,,,,,,,,,,,,,,,,,,,,,,,,,,,,,,,,,,,,,,,,,,1550.4432,1558.6054,0.300925926,-0.031481481,1,0,0,2.15,compass,0,32,32,19,1,SoundStimuli/LetsGetItOn_MarvinGaye_Cover5S.wav,,,,,,,,,,,,,,,,,,,,,,,,,,,,,,,,,,,,,,,,,,,,,,,,,,,,
,,,,,614933,001,2024-07-12_19h33.02.080,experiment,2024.1.5,Win32,59.88023952,6333dafae0a6b172dd2bd2af,6691931c2c63981b064e1f0c,6691bd0df74762198a268168,,,,,,,,,,,,,,,,,,,,,,,,,,,,,,,,,,,,,,,,,,,,,,,,,,,,,,,,,,,,1558.61,1566.4888,0.053703704,-0.163888889,1,0,0,1.8666,compass,0,33,33,33,1,SoundStimuli/StandByMe_BenEKing_Cover5S.wav,,,,,,,,,,,,,,,,,,,,,,,,,,,,,,,,,,,,,,,,,,,,,,,,,,,,
,,,,,614933,001,2024-07-12_19h33.02.080,experiment,2024.1.5,Win32,59.88023952,6333dafae0a6b172dd2bd2af,6691931c2c63981b064e1f0c,6691bd0df74762198a268168,,,,,,,,,,,,,,,,,,,,,,,,,,,,,,,,,,,,,,,,,,,,,,,,,,,,,,,,,,,,1566.4934,1574.6222,0.047222222,-0.063888889,1,0,0,2.1165,compass,0,34,34,11,1,SoundStimuli/Superstition_StevieWonder_Cover5S.wav,,,,,,,,,,,,,,,,,,,,,,,,,,,,,,,,,,,,,,,,,,,,,,,,,,,,
,,,,,614933,001,2024-07-12_19h33.02.080,experiment,2024.1.5,Win32,59.88023952,6333dafae0a6b172dd2bd2af,6691931c2c63981b064e1f0c,6691bd0df74762198a268168,,,,,,,,,,,,,,,,,,,,,,,,,,,,,,,,,,,,,,,,,,,,,,,,,,,,,,,,,,,,,,,,,,,,,,,,,,,1574.6267,1574.6267,,,,1574.6267,1574.6267,,,,0,3,3,3,1,block_order/blockA.xlsx,,,,,,,,,,,,,,,,,,,,,,,,,,,,,,,,,,,,
,,,,,614933,001,2024-07-12_19h33.02.080,experiment,2024.1.5,Win32,59.88023952,6333dafae0a6b172dd2bd2af,6691931c2c63981b064e1f0c,6691bd0df74762198a268168,,,,,,,,,,,,,,,,,,,,,,,,,,,,,,,,,,,,,,,,,,,,,,,,,,,,,,,,,,,,,,,,,,,,,,,,,,,,,,,,,,,,,,,,,,,34,Item 2,Item 4,Not a musician,YouTube,5,7,"Hanging out with friends, playing games, working",Rarely,Never,Sometimes,Sometimes,Often,Often,Often,Never,Rarely,Never,Rarely,Never,Never,Sometimes,Often,Sometimes,Instrumental,Instrumental,Metal,Alternative Rock,"I've incorporated more ""mainstream"" music recommended by my friends and family to my playlists. Other than that, my tastes haven't changed much since I was a kid.",0,0,0,0,1,,
,,,,,614933,001,2024-07-12_19h33.02.080,experiment,2024.1.5,Win32,59.88023952,6333dafae0a6b172dd2bd2af,6691931c2c63981b064e1f0c,6691bd0df74762198a268168,,,,,,,,,,,,,,,,,,,,,,,,,,,,,,,,,,,,,,,,,,,,,,,,,,,,,,,,,,,,,,,,,,,,,,,,,,,,,,,,,,,,,,,,,,,,,,,,,,,,,,,,,,,,,,,,,,,,,,,,,,,,,1793.293,1795.5245
