welcome.started,welcome.stopped,space_to_continue.keys,space_to_continue.rt,space_to_continue.duration,participant,session,date,expName,psychopyVersion,OS,frameRate,PROLIFIC_PID,STUDY_ID,SESSION_ID,consent.consent,consent.consent_recontact,consent_check.started,consent_check.stopped,calibration_ready.started,calibration_ready.stopped,cal_ready.keys,cal_ready.rt,cal_ready.duration,calibration.started,calibration.stopped,mouse.x,mouse.y,mouse.leftButton,mouse.midButton,mouse.rightButton,mouse.time,mouse.clicked_name,move_on.keys,move_on.rt,move_on.duration,run_cal.thisRepN,run_cal.thisTrialN,run_cal.thisN,run_cal.thisIndex,run_cal.ran,emotion_training_ready.started,emotion_training_ready.stopped,training_move_on.keys,training_move_on.rt,training_move_on.duration,examples.started,examples.stopped,emotion_scale.started,emotion_scale.stopped,scale_next.keys,scale_next.rt,scale_next.duration,instructions.started,instructions.stopped,next.keys,next.rt,next.duration,practice_task.started,practice_task.stopped,mouse_rating_2.x,mouse_rating_2.y,mouse_rating_2.leftButton,mouse_rating_2.midButton,mouse_rating_2.rightButton,mouse_rating_2.time,mouse_rating_2.clicked_name,ready.started,ready.stopped,key_resp.keys,key_resp.rt,key_resp.duration,set_group.started,set_group.stopped,task.started,task.stopped,mouse_rating.x,mouse_rating.y,mouse_rating.leftButton,mouse_rating.midButton,mouse_rating.rightButton,mouse_rating.time,mouse_rating.clicked_name,trials.thisRepN,trials.thisTrialN,trials.thisN,trials.thisIndex,trials.ran,clip,short_break.started,short_break.stopped,space_to_move_on.keys,space_to_move_on.rt,space_to_move_on.duration,instruction_reminder.started,instruction_reminder.stopped,reminder_move_on.keys,reminder_move_on.rt,reminder_move_on.duration,blocks.thisRepN,blocks.thisTrialN,blocks.thisN,blocks.thisIndex,blocks.ran,block,post_survey.age,post_survey.musician,post_survey.music_making,post_survey.listen_time,post_survey.medium,post_survey.music_seeking,post_survey.music_choice,post_survey.activities,post_survey.question1.Alternative rock,post_survey.question1.Reggae,post_survey.question1.A cappella,post_survey.question1.Folk/indie,post_survey.question1.Hip hop,post_survey.question1.Classic rock,post_survey.question1.Metal,post_survey.question1.R&B,post_survey.question1.Ambient,post_survey.question1.Electronic (EDM),post_survey.question1.Latin,post_survey.question1.Jazz,post_survey.question1.Disco,post_survey.question1.Classical,post_survey.question1.Pop,post_survey.question1.Country,post_survey.other_genres,post_survey.genres_ranked.text1,post_survey.genres_ranked.text2,post_survey.genres_ranked.text3,post_survey.habit_change,post_survey.habits,show_exp.thisRepN,show_exp.thisTrialN,show_exp.thisN,show_exp.thisIndex,show_exp.ran,goodbye.started,goodbye.stopped
0.0042,1.9852,space,1.9433,,621264,001,2024-07-12_18h22.06.292,experiment,2024.1.5,Linux x86_64,59.88023952,65cafb5b3bbfc7be04c48e3f,6691931c2c63981b064e1f0c,6691ba736d14fd83c2a18ea2,,,,,,,,,,,,,,,,,,,,,,,,,,,,,,,,,,,,,,,,,,,,,,,,,,,,,,,,,,,,,,,,,,,,,,,,,,,,,,,,,,,,,,,,,,,,,,,,,,,,,,,,,,,,,,,,,,,,,,,,,,,,,,,
,,,,,621264,001,2024-07-12_18h22.06.292,experiment,2024.1.5,Linux x86_64,59.88023952,65cafb5b3bbfc7be04c48e3f,6691931c2c63981b064e1f0c,6691ba736d14fd83c2a18ea2,yes,yes,,,,,,,,,,,,,,,,,,,,,,,,,,,,,,,,,,,,,,,,,,,,,,,,,,,,,,,,,,,,,,,,,,,,,,,,,,,,,,,,,,,,,,,,,,,,,,,,,,,,,,,,,,,,,,,,,,,,,,,,,,,,,
,,,,,621264,001,2024-07-12_18h22.06.292,experiment,2024.1.5,Linux x86_64,59.88023952,65cafb5b3bbfc7be04c48e3f,6691931c2c63981b064e1f0c,6691ba736d14fd83c2a18ea2,,,43.6289,43.6293,,,,,,,,,,,,,,,,,,,,,,,,,,,,,,,,,,,,,,,,,,,,,,,,,,,,,,,,,,,,,,,,,,,,,,,,,,,,,,,,,,,,,,,,,,,,,,,,,,,,,,,,,,,,,,,,,,,,,,,,,,,
,,,,,621264,001,2024-07-12_18h22.06.292,experiment,2024.1.5,Linux x86_64,59.88023952,65cafb5b3bbfc7be04c48e3f,6691931c2c63981b064e1f0c,6691ba736d14fd83c2a18ea2,,,,,43.6364,97.7058,space,54.0367,,97.7301,148.8227,"[-0.0075053900060519365,-0.0075053900060519365,-0.0075053900060519365]","[-0.41487859448356806,-0.41487859448356806,-0.41487859448356806]","[1,1,1]","[0,0,0]","[0,0,0]","[24.809900000000383,43.01309999999965,44.773800000000776]","[""play_button"",""play_button"",""play_button""]",y,50.0241,,0,0,0,0,1,,,,,,,,,,,,,,,,,,,,,,,,,,,,,,,,,,,,,,,,,,,,,,,,,,,,,,,,,,,,,,,,,,,,,,,,,,,,,,,,,,,,,,,,,,,,,,,,,,,,,
,,,,,621264,001,2024-07-12_18h22.06.292,experiment,2024.1.5,Linux x86_64,59.88023952,65cafb5b3bbfc7be04c48e3f,6691931c2c63981b064e1f0c,6691ba736d14fd83c2a18ea2,,,,,,,,,,,,,,,,,,,,,,,,,,,148.8244,191.147,space,42.2866,,191.1477,311.1599,311.1606,335.8737,right,21.1809,,335.8741,343.4435,space,7.5267,,343.444,369.4606,,,,,,,,369.4619,372.0409,space,2.5557,,372.0411,372.0555,372.1446,381.1434,-0.183528775,-0.005907587,1,0,0,2.9858,compass,0,0,0,30,1,SoundStimuli/SomebodyThatIUsedtoKnow_Gotye_Cover5S.wav,,,,,,,,,,,,,,,,,,,,,,,,,,,,,,,,,,,,,,,,,,,,,,,,,,,,,
,,,,,621264,001,2024-07-12_18h22.06.292,experiment,2024.1.5,Linux x86_64,59.88023952,65cafb5b3bbfc7be04c48e3f,6691931c2c63981b064e1f0c,6691ba736d14fd83c2a18ea2,,,,,,,,,,,,,,,,,,,,,,,,,,,,,,,,,,,,,,,,,,,,,,,,,,,,,,,,,,,,381.1617,407.1772,,,,,,,,0,1,1,27,1,SoundStimuli/EyeOfTheTiger_Survivor_Original5S.wav,,,,,,,,,,,,,,,,,,,,,,,,,,,,,,,,,,,,,,,,,,,,,,,,,,,,,
,,,,,621264,001,2024-07-12_18h22.06.292,experiment,2024.1.5,Linux x86_64,59.88023952,65cafb5b3bbfc7be04c48e3f,6691931c2c63981b064e1f0c,6691ba736d14fd83c2a18ea2,,,,,,,,,,,,,,,,,,,,,,,,,,,,,,,,,,,,,,,,,,,,,,,,,,,,,,,,,,,,407.1929,433.1958,,,,,,,,0,2,2,29,1,SoundStimuli/BetteDavisEyes_KimCarnes_Cover5S.wav,,,,,,,,,,,,,,,,,,,,,,,,,,,,,,,,,,,,,,,,,,,,,,,,,,,,,
,,,,,621264,001,2024-07-12_18h22.06.292,experiment,2024.1.5,Linux x86_64,59.88023952,65cafb5b3bbfc7be04c48e3f,6691931c2c63981b064e1f0c,6691ba736d14fd83c2a18ea2,,,,,,,,,,,,,,,,,,,,,,,,,,,,,,,,,,,,,,,,,,,,,,,,,,,,,,,,,,,,433.212,445.1799,0.165891692,0.20714698,1,0,0,5.9521,compass,0,3,3,12,1,SoundStimuli/UnbreakMyHeart_ToniBraxton_Cover5S.wav,,,,,,,,,,,,,,,,,,,,,,,,,,,,,,,,,,,,,,,,,,,,,,,,,,,,,
,,,,,621264,001,2024-07-12_18h22.06.292,experiment,2024.1.5,Linux x86_64,59.88023952,65cafb5b3bbfc7be04c48e3f,6691931c2c63981b064e1f0c,6691ba736d14fd83c2a18ea2,,,,,,,,,,,,,,,,,,,,,,,,,,,,,,,,,,,,,,,,,,,,,,,,,,,,,,,,,,,,445.1944,456.0967,7.9446E-05,-0.182554576,1,0,0,4.9003,compass,0,4,4,16,1,SoundStimuli/ItsAllInTheGame_TommyEdwards_Original5S.wav,,,,,,,,,,,,,,,,,,,,,,,,,,,,,,,,,,,,,,,,,,,,,,,,,,,,,
,,,,,621264,001,2024-07-12_18h22.06.292,experiment,2024.1.5,Linux x86_64,59.88023952,65cafb5b3bbfc7be04c48e3f,6691931c2c63981b064e1f0c,6691ba736d14fd83c2a18ea2,,,,,,,,,,,,,,,,,,,,,,,,,,,,,,,,,,,,,,,,,,,,,,,,,,,,,,,,,,,,456.1121,468.8977,0.229313452,0.250245806,1,0,0,6.7688,compass,0,5,5,3,1,SoundStimuli/PartyRockAnthem_LMFAO_Cover5S.wav,,,,,,,,,,,,,,,,,,,,,,,,,,,,,,,,,,,,,,,,,,,,,,,,,,,,,
,,,,,621264,001,2024-07-12_18h22.06.292,experiment,2024.1.5,Linux x86_64,59.88023952,65cafb5b3bbfc7be04c48e3f,6691931c2c63981b064e1f0c,6691ba736d14fd83c2a18ea2,,,,,,,,,,,,,,,,,,,,,,,,,,,,,,,,,,,,,,,,,,,,,,,,,,,,,,,,,,,,468.914,475.75,0.170907965,-0.142104888,1,0,0,0.8201,compass,0,6,6,7,1,SoundStimuli/MackTheKnife_BobbyDarin_Original5S.wav,,,,,,,,,,,,,,,,,,,,,,,,,,,,,,,,,,,,,,,,,,,,,,,,,,,,,
,,,,,621264,001,2024-07-12_18h22.06.292,experiment,2024.1.5,Linux x86_64,59.88023952,65cafb5b3bbfc7be04c48e3f,6691931c2c63981b064e1f0c,6691ba736d14fd83c2a18ea2,,,,,,,,,,,,,,,,,,,,,,,,,,,,,,,,,,,,,,,,,,,,,,,,,,,,,,,,,,,,475.7642,487.8538,0.170907965,-0.142104888,1,0,0,6.0857,compass,0,7,7,13,1,SoundStimuli/Perfect_EdSheeran_Original5S.wav,,,,,,,,,,,,,,,,,,,,,,,,,,,,,,,,,,,,,,,,,,,,,,,,,,,,,
,,,,,621264,001,2024-07-12_18h22.06.292,experiment,2024.1.5,Linux x86_64,59.88023952,65cafb5b3bbfc7be04c48e3f,6691931c2c63981b064e1f0c,6691ba736d14fd83c2a18ea2,,,,,,,,,,,,,,,,,,,,,,,,,,,,,,,,,,,,,,,,,,,,,,,,,,,,,,,,,,,,487.8696,496.4735,-0.179992389,-0.166545241,1,0,0,2.5911,compass,0,8,8,6,1,SoundStimuli/SaveYourTears_TheWeekndArianaGrande_Original5S.wav,,,,,,,,,,,,,,,,,,,,,,,,,,,,,,,,,,,,,,,,,,,,,,,,,,,,,
,,,,,621264,001,2024-07-12_18h22.06.292,experiment,2024.1.5,Linux x86_64,59.88023952,65cafb5b3bbfc7be04c48e3f,6691931c2c63981b064e1f0c,6691ba736d14fd83c2a18ea2,,,,,,,,,,,,,,,,,,,,,,,,,,,,,,,,,,,,,,,,,,,,,,,,,,,,,,,,,,,,496.49,504.4024,0.170344035,0.198502661,1,0,0,1.9041,compass,0,9,9,24,1,SoundStimuli/Kiss_Prince_Original5S.wav,,,,,,,,,,,,,,,,,,,,,,,,,,,,,,,,,,,,,,,,,,,,,,,,,,,,,
,,,,,621264,001,2024-07-12_18h22.06.292,experiment,2024.1.5,Linux x86_64,59.88023952,65cafb5b3bbfc7be04c48e3f,6691931c2c63981b064e1f0c,6691ba736d14fd83c2a18ea2,,,,,,,,,,,,,,,,,,,,,,,,,,,,,,,,,,,,,,,,,,,,,,,,,,,,,,,,,,,,504.4176,511.1491,0.170344035,0.198502661,1,0,0,0.7148,compass,0,10,10,1,1,SoundStimuli/Smooth_SantanaRobThomas_Cover5S.wav,,,,,,,,,,,,,,,,,,,,,,,,,,,,,,,,,,,,,,,,,,,,,,,,,,,,,
,,,,,621264,001,2024-07-12_18h22.06.292,experiment,2024.1.5,Linux x86_64,59.88023952,65cafb5b3bbfc7be04c48e3f,6691931c2c63981b064e1f0c,6691ba736d14fd83c2a18ea2,,,,,,,,,,,,,,,,,,,,,,,,,,,,,,,,,,,,,,,,,,,,,,,,,,,,,,,,,,,,511.1628,517.8907,0.16935601,-0.16741535,1,0,0,0.7213,compass,0,11,11,8,1,SoundStimuli/EndlessLove_DianaRossLionelRichie_Original5S.wav,,,,,,,,,,,,,,,,,,,,,,,,,,,,,,,,,,,,,,,,,,,,,,,,,,,,,
,,,,,621264,001,2024-07-12_18h22.06.292,experiment,2024.1.5,Linux x86_64,59.88023952,65cafb5b3bbfc7be04c48e3f,6691931c2c63981b064e1f0c,6691ba736d14fd83c2a18ea2,,,,,,,,,,,,,,,,,,,,,,,,,,,,,,,,,,,,,,,,,,,,,,,,,,,,,,,,,,,,517.9055,525.0526,0.164177693,0.205545864,1,0,0,1.1448,compass,0,12,12,15,1,SoundStimuli/CrazyInLove_BeyonceFtJayZ_Original5S.wav,,,,,,,,,,,,,,,,,,,,,,,,,,,,,,,,,,,,,,,,,,,,,,,,,,,,,
,,,,,621264,001,2024-07-12_18h22.06.292,experiment,2024.1.5,Linux x86_64,59.88023952,65cafb5b3bbfc7be04c48e3f,6691931c2c63981b064e1f0c,6691ba736d14fd83c2a18ea2,,,,,,,,,,,,,,,,,,,,,,,,,,,,,,,,,,,,,,,,,,,,,,,,,,,,,,,,,,,,525.0676,543.8836,0.148055242,0.19843174,1,0,0,12.8012,compass,0,13,13,31,1,SoundStimuli/TossinAndTurnin_BobbyLewis_Cover5S.wav,,,,,,,,,,,,,,,,,,,,,,,,,,,,,,,,,,,,,,,,,,,,,,,,,,,,,
,,,,,621264,001,2024-07-12_18h22.06.292,experiment,2024.1.5,Linux x86_64,59.88023952,65cafb5b3bbfc7be04c48e3f,6691931c2c63981b064e1f0c,6691ba736d14fd83c2a18ea2,,,,,,,,,,,,,,,,,,,,,,,,,,,,,,,,,,,,,,,,,,,,,,,,,,,,,,,,,,,,543.8979,551.785,0.166530054,-0.161811363,1,0,0,1.8792,compass,0,14,14,4,1,SoundStimuli/Dreams_FleetwoodMac_Cover5S.wav,,,,,,,,,,,,,,,,,,,,,,,,,,,,,,,,,,,,,,,,,,,,,,,,,,,,,
,,,,,621264,001,2024-07-12_18h22.06.292,experiment,2024.1.5,Linux x86_64,59.88023952,65cafb5b3bbfc7be04c48e3f,6691931c2c63981b064e1f0c,6691ba736d14fd83c2a18ea2,,,,,,,,,,,,,,,,,,,,,,,,,,,,,,,,,,,,,,,,,,,,,,,,,,,,,,,,,,,,551.7989,558.4546,0.166530054,-0.161811363,1,0,0,0.6528,compass,0,15,15,19,1,SoundStimuli/YouLightUpMyLife_DebbyBoone_Cover5S.wav,,,,,,,,,,,,,,,,,,,,,,,,,,,,,,,,,,,,,,,,,,,,,,,,,,,,,
,,,,,621264,001,2024-07-12_18h22.06.292,experiment,2024.1.5,Linux x86_64,59.88023952,65cafb5b3bbfc7be04c48e3f,6691931c2c63981b064e1f0c,6691ba736d14fd83c2a18ea2,,,,,,,,,,,,,,,,,,,,,,,,,,,,,,,,,,,,,,,,,,,,,,,,,,,,,,,,,,,,558.4704,564.7703,0.165865688,-0.152533804,1,0,0,0.2881,compass,0,16,16,34,1,SoundStimuli/Irreplaceable_Beyonce_Original5S.wav,,,,,,,,,,,,,,,,,,,,,,,,,,,,,,,,,,,,,,,,,,,,,,,,,,,,,
,,,,,621264,001,2024-07-12_18h22.06.292,experiment,2024.1.5,Linux x86_64,59.88023952,65cafb5b3bbfc7be04c48e3f,6691931c2c63981b064e1f0c,6691ba736d14fd83c2a18ea2,,,,,,,,,,,,,,,,,,,,,,,,,,,,,,,,,,,,,,,,,,,,,,,,,,,,,,,,,,,,564.7843,571.8431,0.167096062,0.202964819,1,0,0,1.0566,compass,0,17,17,10,1,SoundStimuli/LeFreak_Chic_Original5S.wav,,,,,,,,,,,,,,,,,,,,,,,,,,,,,,,,,,,,,,,,,,,,,,,,,,,,,
,,,,,621264,001,2024-07-12_18h22.06.292,experiment,2024.1.5,Linux x86_64,59.88023952,65cafb5b3bbfc7be04c48e3f,6691931c2c63981b064e1f0c,6691ba736d14fd83c2a18ea2,,,,,,,,,,,,,,,,,,,,,,,,,,,,,,,,,,,,,,,,,,,,,,,,,,,,,,,,,,,,571.8584,579.6598,0.165104109,-0.153896206,1,0,0,1.7847,compass,0,18,18,28,1,SoundStimuli/IWantToHoldYourHand_TheBeatles_Cover5S.wav,,,,,,,,,,,,,,,,,,,,,,,,,,,,,,,,,,,,,,,,,,,,,,,,,,,,,
,,,,,621264,001,2024-07-12_18h22.06.292,experiment,2024.1.5,Linux x86_64,59.88023952,65cafb5b3bbfc7be04c48e3f,6691931c2c63981b064e1f0c,6691ba736d14fd83c2a18ea2,,,,,,,,,,,,,,,,,,,,,,,,,,,,,,,,,,,,,,,,,,,,,,,,,,,,,,,,,,,,579.6763,588.8706,0.188171315,-0.092468262,1,0,0,3.1923,compass,0,19,19,18,1,SoundStimuli/Weak_SWV_Original5S.wav,,,,,,,,,,,,,,,,,,,,,,,,,,,,,,,,,,,,,,,,,,,,,,,,,,,,,
,,,,,621264,001,2024-07-12_18h22.06.292,experiment,2024.1.5,Linux x86_64,59.88023952,65cafb5b3bbfc7be04c48e3f,6691931c2c63981b064e1f0c,6691ba736d14fd83c2a18ea2,,,,,,,,,,,,,,,,,,,,,,,,,,,,,,,,,,,,,,,,,,,,,,,,,,,,,,,,,,,,588.8873,599.0784,0.151010146,-0.150938437,1,0,0,4.1751,compass,0,20,20,14,1,SoundStimuli/LikeARollingStone_BobDylan_Cover5S.wav,,,,,,,,,,,,,,,,,,,,,,,,,,,,,,,,,,,,,,,,,,,,,,,,,,,,,
,,,,,621264,001,2024-07-12_18h22.06.292,experiment,2024.1.5,Linux x86_64,59.88023952,65cafb5b3bbfc7be04c48e3f,6691931c2c63981b064e1f0c,6691ba736d14fd83c2a18ea2,,,,,,,,,,,,,,,,,,,,,,,,,,,,,,,,,,,,,,,,,,,,,,,,,,,,,,,,,,,,599.0929,608.738,0.322306888,0.324521383,1,0,0,3.6393,compass,0,21,21,22,1,SoundStimuli/Happy_PharellWilliams_Cover5S.wav,,,,,,,,,,,,,,,,,,,,,,,,,,,,,,,,,,,,,,,,,,,,,,,,,,,,,
,,,,,621264,001,2024-07-12_18h22.06.292,experiment,2024.1.5,Linux x86_64,59.88023952,65cafb5b3bbfc7be04c48e3f,6691931c2c63981b064e1f0c,6691ba736d14fd83c2a18ea2,,,,,,,,,,,,,,,,,,,,,,,,,,,,,,,,,,,,,,,,,,,,,,,,,,,,,,,,,,,,608.755,617.1912,-0.182869781,-0.151782542,1,0,0,2.4333,compass,0,22,22,9,1,SoundStimuli/HowDoILive_LeAnnRimes_Original5S.wav,,,,,,,,,,,,,,,,,,,,,,,,,,,,,,,,,,,,,,,,,,,,,,,,,,,,,
,,,,,621264,001,2024-07-12_18h22.06.292,experiment,2024.1.5,Linux x86_64,59.88023952,65cafb5b3bbfc7be04c48e3f,6691931c2c63981b064e1f0c,6691ba736d14fd83c2a18ea2,,,,,,,,,,,,,,,,,,,,,,,,,,,,,,,,,,,,,,,,,,,,,,,,,,,,,,,,,,,,617.2071,625.239,-0.172017917,-0.137680842,1,0,0,2.0289,compass,0,23,23,0,1,SoundStimuli/GimmeShelter_RollingStones_Cover5S.wav,,,,,,,,,,,,,,,,,,,,,,,,,,,,,,,,,,,,,,,,,,,,,,,,,,,,,
,,,,,621264,001,2024-07-12_18h22.06.292,experiment,2024.1.5,Linux x86_64,59.88023952,65cafb5b3bbfc7be04c48e3f,6691931c2c63981b064e1f0c,6691ba736d14fd83c2a18ea2,,,,,,,,,,,,,,,,,,,,,,,,,,,,,,,,,,,,,,,,,,,,,,,,,,,,,,,,,,,,625.2549,632.8748,0.148718892,-0.137667947,1,0,0,1.6163,compass,0,24,24,32,1,SoundStimuli/Dilemma_NellyKellyRowland_Original5S.wav,,,,,,,,,,,,,,,,,,,,,,,,,,,,,,,,,,,,,,,,,,,,,,,,,,,,,
,,,,,621264,001,2024-07-12_18h22.06.292,experiment,2024.1.5,Linux x86_64,59.88023952,65cafb5b3bbfc7be04c48e3f,6691931c2c63981b064e1f0c,6691ba736d14fd83c2a18ea2,,,,,,,,,,,,,,,,,,,,,,,,,,,,,,,,,,,,,,,,,,,,,,,,,,,,,,,,,,,,632.8895,642.2431,0.15556973,-0.153183771,1,0,0,3.3507,compass,0,25,25,17,1,SoundStimuli/IWannaDanceWithSomebody_WhitneyHouston_Cover5S.wav,,,,,,,,,,,,,,,,,,,,,,,,,,,,,,,,,,,,,,,,,,,,,,,,,,,,,
,,,,,621264,001,2024-07-12_18h22.06.292,experiment,2024.1.5,Linux x86_64,59.88023952,65cafb5b3bbfc7be04c48e3f,6691931c2c63981b064e1f0c,6691ba736d14fd83c2a18ea2,,,,,,,,,,,,,,,,,,,,,,,,,,,,,,,,,,,,,,,,,,,,,,,,,,,,,,,,,,,,642.259,652.9081,0.145596285,0.179773214,1,0,0,4.6409,compass,0,26,26,20,1,SoundStimuli/FlashdanceWhatAFeeling_IreneCara_Cover5S.wav,,,,,,,,,,,,,,,,,,,,,,,,,,,,,,,,,,,,,,,,,,,,,,,,,,,,,
,,,,,621264,001,2024-07-12_18h22.06.292,experiment,2024.1.5,Linux x86_64,59.88023952,65cafb5b3bbfc7be04c48e3f,6691931c2c63981b064e1f0c,6691ba736d14fd83c2a18ea2,,,,,,,,,,,,,,,,,,,,,,,,,,,,,,,,,,,,,,,,,,,,,,,,,,,,,,,,,,,,652.925,659.7934,0.32142546,-0.031974792,1,0,0,0.8672,compass,0,27,27,25,1,SoundStimuli/IllMakeLoveToYou_BoyzIIMen_Original5S.wav,,,,,,,,,,,,,,,,,,,,,,,,,,,,,,,,,,,,,,,,,,,,,,,,,,,,,
,,,,,621264,001,2024-07-12_18h22.06.292,experiment,2024.1.5,Linux x86_64,59.88023952,65cafb5b3bbfc7be04c48e3f,6691931c2c63981b064e1f0c,6691ba736d14fd83c2a18ea2,,,,,,,,,,,,,,,,,,,,,,,,,,,,,,,,,,,,,,,,,,,,,,,,,,,,,,,,,,,,659.8085,669.9164,0.064891403,-0.2656495,1,0,0,4.1071,compass,0,28,28,2,1,SoundStimuli/SmellsLikeTeenSpirit_Nirvana_Cover5S.wav,,,,,,,,,,,,,,,,,,,,,,,,,,,,,,,,,,,,,,,,,,,,,,,,,,,,,
,,,,,621264,001,2024-07-12_18h22.06.292,experiment,2024.1.5,Linux x86_64,59.88023952,65cafb5b3bbfc7be04c48e3f,6691931c2c63981b064e1f0c,6691ba736d14fd83c2a18ea2,,,,,,,,,,,,,,,,,,,,,,,,,,,,,,,,,,,,,,,,,,,,,,,,,,,,,,,,,,,,669.9321,679.2704,-0.02522371,-0.022052353,1,0,0,3.3258,compass,0,29,29,21,1,SoundStimuli/BridgeOverTroubledWater_SimonAndGarfunkel_Cover5S.wav,,,,,,,,,,,,,,,,,,,,,,,,,,,,,,,,,,,,,,,,,,,,,,,,,,,,,
,,,,,621264,001,2024-07-12_18h22.06.292,experiment,2024.1.5,Linux x86_64,59.88023952,65cafb5b3bbfc7be04c48e3f,6691931c2c63981b064e1f0c,6691ba736d14fd83c2a18ea2,,,,,,,,,,,,,,,,,,,,,,,,,,,,,,,,,,,,,,,,,,,,,,,,,,,,,,,,,,,,679.2864,691.132,0.012093343,-0.034369419,1,0,0,5.8388,compass,0,30,30,23,1,SoundStimuli/IWalkTheLine_JohnnyCash_Cover5S.wav,,,,,,,,,,,,,,,,,,,,,,,,,,,,,,,,,,,,,,,,,,,,,,,,,,,,,
,,,,,621264,001,2024-07-12_18h22.06.292,experiment,2024.1.5,Linux x86_64,59.88023952,65cafb5b3bbfc7be04c48e3f,6691931c2c63981b064e1f0c,6691ba736d14fd83c2a18ea2,,,,,,,,,,,,,,,,,,,,,,,,,,,,,,,,,,,,,,,,,,,,,,,,,,,,,,,,,,,,691.1476,697.5801,0.188718841,0.334382178,1,0,0,0.4199,compass,0,31,31,26,1,SoundStimuli/TheSign_AceOfBase_Original5S.wav,,,,,,,,,,,,,,,,,,,,,,,,,,,,,,,,,,,,,,,,,,,,,,,,,,,,,
,,,,,621264,001,2024-07-12_18h22.06.292,experiment,2024.1.5,Linux x86_64,59.88023952,65cafb5b3bbfc7be04c48e3f,6691931c2c63981b064e1f0c,6691ba736d14fd83c2a18ea2,,,,,,,,,,,,,,,,,,,,,,,,,,,,,,,,,,,,,,,,,,,,,,,,,,,,,,,,,,,,697.596,706.0324,-0.030664578,0.044512861,1,0,0,2.4306,compass,0,32,32,5,1,SoundStimuli/JoyToTheWorld_ThreeDogNight_Cover5S.wav,,,,,,,,,,,,,,,,,,,,,,,,,,,,,,,,,,,,,,,,,,,,,,,,,,,,,
,,,,,621264,001,2024-07-12_18h22.06.292,experiment,2024.1.5,Linux x86_64,59.88023952,65cafb5b3bbfc7be04c48e3f,6691931c2c63981b064e1f0c,6691ba736d14fd83c2a18ea2,,,,,,,,,,,,,,,,,,,,,,,,,,,,,,,,,,,,,,,,,,,,,,,,,,,,,,,,,,,,706.0479,712.897,0.342136294,0.34119709,1,0,0,0.8454,compass,0,33,33,11,1,SoundStimuli/BlurredLines_RobinThicke_Original5S.wav,,,,,,,,,,,,,,,,,,,,,,,,,,,,,,,,,,,,,,,,,,,,,,,,,,,,,
,,,,,621264,001,2024-07-12_18h22.06.292,experiment,2024.1.5,Linux x86_64,59.88023952,65cafb5b3bbfc7be04c48e3f,6691931c2c63981b064e1f0c,6691ba736d14fd83c2a18ea2,,,,,,,,,,,,,,,,,,,,,,,,,,,,,,,,,,,,,,,,,,,,,,,,,,,,,,,,,,,,712.9122,724.215,-0.035533565,0.087852012,1,0,0,5.2972,compass,0,34,34,33,1,SoundStimuli/TheBoyIsMine_BrandyMonica_Cover5S.wav,,,,,,,,,,,,,,,,,,,,,,,,,,,,,,,,,,,,,,,,,,,,,,,,,,,,,
,,,,,621264,001,2024-07-12_18h22.06.292,experiment,2024.1.5,Linux x86_64,59.88023952,65cafb5b3bbfc7be04c48e3f,6691931c2c63981b064e1f0c,6691ba736d14fd83c2a18ea2,,,,,,,,,,,,,,,,,,,,,,,,,,,,,,,,,,,,,,,,,,,,,,,,,,,,,,,,,,,,,,,,,,,,,,,,,,,724.2316,726.1976,space,1.9351,,726.198,731.7478,right,5.5271,,0,0,0,0,1,block_order/blockB.xlsx,,,,,,,,,,,,,,,,,,,,,,,,,,,,,,,,,,,,,
,,,,,621264,001,2024-07-12_18h22.06.292,experiment,2024.1.5,Linux x86_64,59.88023952,65cafb5b3bbfc7be04c48e3f,6691931c2c63981b064e1f0c,6691ba736d14fd83c2a18ea2,,,,,,,,,,,,,,,,,,,,,,,,,,,,,,,,,,,,,,,,,,,,,,,,,,,,,,,,,,,,731.798,740.509,0.337058627,-0.023828605,1,0,0,2.6817,compass,0,0,0,26,1,SoundStimuli/LivinOnAPrayer_BonJovi_Cover5S.wav,,,,,,,,,,,,,,,,,,,,,,,,,,,,,,,,,,,,,,,,,,,,,,,,,,,,,
,,,,,621264,001,2024-07-12_18h22.06.292,experiment,2024.1.5,Linux x86_64,59.88023952,65cafb5b3bbfc7be04c48e3f,6691931c2c63981b064e1f0c,6691ba736d14fd83c2a18ea2,,,,,,,,,,,,,,,,,,,,,,,,,,,,,,,,,,,,,,,,,,,,,,,,,,,,,,,,,,,,740.5342,753.2196,-0.002725162,-0.006320327,1,0,0,6.6673,compass,0,1,1,34,1,SoundStimuli/AChangeIsGonnaCome_SamCooke_Cover5S.wav,,,,,,,,,,,,,,,,,,,,,,,,,,,,,,,,,,,,,,,,,,,,,,,,,,,,,
,,,,,621264,001,2024-07-12_18h22.06.292,experiment,2024.1.5,Linux x86_64,59.88023952,65cafb5b3bbfc7be04c48e3f,6691931c2c63981b064e1f0c,6691ba736d14fd83c2a18ea2,,,,,,,,,,,,,,,,,,,,,,,,,,,,,,,,,,,,,,,,,,,,,,,,,,,,,,,,,,,,753.2399,761.7428,-0.013044545,-0.015456043,1,0,0,2.4981,compass,0,2,2,2,1,SoundStimuli/Mood_24kGoldnianndior_Cover5S.wav,,,,,,,,,,,,,,,,,,,,,,,,,,,,,,,,,,,,,,,,,,,,,,,,,,,,,
,,,,,621264,001,2024-07-12_18h22.06.292,experiment,2024.1.5,Linux x86_64,59.88023952,65cafb5b3bbfc7be04c48e3f,6691931c2c63981b064e1f0c,6691ba736d14fd83c2a18ea2,,,,,,,,,,,,,,,,,,,,,,,,,,,,,,,,,,,,,,,,,,,,,,,,,,,,,,,,,,,,761.759,770.9365,0.014306942,0.016008798,1,0,0,3.1756,compass,0,3,3,21,1,SoundStimuli/GoodGollyMissMolly_LittleRichard_Cover5S.wav,,,,,,,,,,,,,,,,,,,,,,,,,,,,,,,,,,,,,,,,,,,,,,,,,,,,,
,,,,,621264,001,2024-07-12_18h22.06.292,experiment,2024.1.5,Linux x86_64,59.88023952,65cafb5b3bbfc7be04c48e3f,6691931c2c63981b064e1f0c,6691ba736d14fd83c2a18ea2,,,,,,,,,,,,,,,,,,,,,,,,,,,,,,,,,,,,,,,,,,,,,,,,,,,,,,,,,,,,770.9537,781.6505,0.01308982,-0.01267769,1,0,0,4.6929,compass,0,4,4,29,1,SoundStimuli/OldTownRoad_LilNasX_Original5S.wav,,,,,,,,,,,,,,,,,,,,,,,,,,,,,,,,,,,,,,,,,,,,,,,,,,,,,
,,,,,621264,001,2024-07-12_18h22.06.292,experiment,2024.1.5,Linux x86_64,59.88023952,65cafb5b3bbfc7be04c48e3f,6691931c2c63981b064e1f0c,6691ba736d14fd83c2a18ea2,,,,,,,,,,,,,,,,,,,,,,,,,,,,,,,,,,,,,,,,,,,,,,,,,,,,,,,,,,,,781.6648,788.0895,0.022905735,0.215403543,1,0,0,0.417,compass,0,5,5,7,1,SoundStimuli/NoOne_AliciaKeys_Cover5S.wav,,,,,,,,,,,,,,,,,,,,,,,,,,,,,,,,,,,,,,,,,,,,,,,,,,,,,
,,,,,621264,001,2024-07-12_18h22.06.292,experiment,2024.1.5,Linux x86_64,59.88023952,65cafb5b3bbfc7be04c48e3f,6691931c2c63981b064e1f0c,6691ba736d14fd83c2a18ea2,,,,,,,,,,,,,,,,,,,,,,,,,,,,,,,,,,,,,,,,,,,,,,,,,,,,,,,,,,,,788.1091,798.6696,0.186312895,-0.125975201,1,0,0,4.5509,compass,0,6,6,15,1,SoundStimuli/TikTok_Kesha_Cover5S.wav,,,,,,,,,,,,,,,,,,,,,,,,,,,,,,,,,,,,,,,,,,,,,,,,,,,,,
,,,,,621264,001,2024-07-12_18h22.06.292,experiment,2024.1.5,Linux x86_64,59.88023952,65cafb5b3bbfc7be04c48e3f,6691931c2c63981b064e1f0c,6691ba736d14fd83c2a18ea2,,,,,,,,,,,,,,,,,,,,,,,,,,,,,,,,,,,,,,,,,,,,,,,,,,,,,,,,,,,,798.6866,805.5887,0.268086393,0.289569282,1,0,0,0.8922,compass,0,7,7,30,1,SoundStimuli/PokerFace_LadyGaga_Original5S.wav,,,,,,,,,,,,,,,,,,,,,,,,,,,,,,,,,,,,,,,,,,,,,,,,,,,,,
,,,,,621264,001,2024-07-12_18h22.06.292,experiment,2024.1.5,Linux x86_64,59.88023952,65cafb5b3bbfc7be04c48e3f,6691931c2c63981b064e1f0c,6691ba736d14fd83c2a18ea2,,,,,,,,,,,,,,,,,,,,,,,,,,,,,,,,,,,,,,,,,,,,,,,,,,,,,,,,,,,,805.6129,812.8696,0.118652272,-0.165230764,1,0,0,1.2515,compass,0,8,8,17,1,SoundStimuli/Fallin_AliciaKeys_Original5S.wav,,,,,,,,,,,,,,,,,,,,,,,,,,,,,,,,,,,,,,,,,,,,,,,,,,,,,
,,,,,621264,001,2024-07-12_18h22.06.292,experiment,2024.1.5,Linux x86_64,59.88023952,65cafb5b3bbfc7be04c48e3f,6691931c2c63981b064e1f0c,6691ba736d14fd83c2a18ea2,,,,,,,,,,,,,,,,,,,,,,,,,,,,,,,,,,,,,,,,,,,,,,,,,,,,,,,,,,,,812.8866,820.3874,0.190585213,0.210278399,1,0,0,1.4847,compass,0,9,9,0,1,SoundStimuli/StayinAlive_BeeGees_Original5S.wav,,,,,,,,,,,,,,,,,,,,,,,,,,,,,,,,,,,,,,,,,,,,,,,,,,,,,
,,,,,621264,001,2024-07-12_18h22.06.292,experiment,2024.1.5,Linux x86_64,59.88023952,65cafb5b3bbfc7be04c48e3f,6691931c2c63981b064e1f0c,6691ba736d14fd83c2a18ea2,,,,,,,,,,,,,,,,,,,,,,,,,,,,,,,,,,,,,,,,,,,,,,,,,,,,,,,,,,,,820.4082,827.2729,0.2144986,0.32940767,1,0,0,0.8609,compass,0,10,10,24,1,SoundStimuli/UptownFunk_MarkRonson_Original5S.wav,,,,,,,,,,,,,,,,,,,,,,,,,,,,,,,,,,,,,,,,,,,,,,,,,,,,,
,,,,,621264,001,2024-07-12_18h22.06.292,experiment,2024.1.5,Linux x86_64,59.88023952,65cafb5b3bbfc7be04c48e3f,6691931c2c63981b064e1f0c,6691ba736d14fd83c2a18ea2,,,,,,,,,,,,,,,,,,,,,,,,,,,,,,,,,,,,,,,,,,,,,,,,,,,,,,,,,,,,827.3024,834.933,0.14912916,0.334723996,1,0,0,1.6216,compass,0,11,11,1,1,SoundStimuli/Stronger_KanyeWest_Original5S.wav,,,,,,,,,,,,,,,,,,,,,,,,,,,,,,,,,,,,,,,,,,,,,,,,,,,,,
,,,,,621264,001,2024-07-12_18h22.06.292,experiment,2024.1.5,Linux x86_64,59.88023952,65cafb5b3bbfc7be04c48e3f,6691931c2c63981b064e1f0c,6691ba736d14fd83c2a18ea2,,,,,,,,,,,,,,,,,,,,,,,,,,,,,,,,,,,,,,,,,,,,,,,,,,,,,,,,,,,,834.9545,844.8874,-0.01530256,-0.025877402,1,0,0,3.9296,compass,0,12,12,23,1,SoundStimuli/StrawberryFieldsForever_TheBeatles_Original5S.wav,,,,,,,,,,,,,,,,,,,,,,,,,,,,,,,,,,,,,,,,,,,,,,,,,,,,,
,,,,,621264,001,2024-07-12_18h22.06.292,experiment,2024.1.5,Linux x86_64,59.88023952,65cafb5b3bbfc7be04c48e3f,6691931c2c63981b064e1f0c,6691ba736d14fd83c2a18ea2,,,,,,,,,,,,,,,,,,,,,,,,,,,,,,,,,,,,,,,,,,,,,,,,,,,,,,,,,,,,844.9067,855.8758,0.233277155,-0.06899394,1,0,0,4.9677,compass,0,13,13,22,1,SoundStimuli/RockWithYou_MichaelJackson_Original5S.wav,,,,,,,,,,,,,,,,,,,,,,,,,,,,,,,,,,,,,,,,,,,,,,,,,,,,,
,,,,,621264,001,2024-07-12_18h22.06.292,experiment,2024.1.5,Linux x86_64,59.88023952,65cafb5b3bbfc7be04c48e3f,6691931c2c63981b064e1f0c,6691ba736d14fd83c2a18ea2,,,,,,,,,,,,,,,,,,,,,,,,,,,,,,,,,,,,,,,,,,,,,,,,,,,,,,,,,,,,855.893,863.007,0.190367076,0.128445692,1,0,0,1.0977,compass,0,14,14,11,1,SoundStimuli/Superstition_StevieWonder_Cover5S.wav,,,,,,,,,,,,,,,,,,,,,,,,,,,,,,,,,,,,,,,,,,,,,,,,,,,,,
,,,,,621264,001,2024-07-12_18h22.06.292,experiment,2024.1.5,Linux x86_64,59.88023952,65cafb5b3bbfc7be04c48e3f,6691931c2c63981b064e1f0c,6691ba736d14fd83c2a18ea2,,,,,,,,,,,,,,,,,,,,,,,,,,,,,,,,,,,,,,,,,,,,,,,,,,,,,,,,,,,,863.022,869.6921,0.2452634,0.230698742,1,0,0,0.6589,compass,0,15,15,25,1,SoundStimuli/Respect_ArethaFranklin_Original5S.wav,,,,,,,,,,,,,,,,,,,,,,,,,,,,,,,,,,,,,,,,,,,,,,,,,,,,,
,,,,,621264,001,2024-07-12_18h22.06.292,experiment,2024.1.5,Linux x86_64,59.88023952,65cafb5b3bbfc7be04c48e3f,6691931c2c63981b064e1f0c,6691ba736d14fd83c2a18ea2,,,,,,,,,,,,,,,,,,,,,,,,,,,,,,,,,,,,,,,,,,,,,,,,,,,,,,,,,,,,869.7063,876.4097,0.312825234,0.326156885,1,0,0,0.6894,compass,0,16,16,28,1,SoundStimuli/ComeAndGetYourLove_Redbone_Original5S.wav,,,,,,,,,,,,,,,,,,,,,,,,,,,,,,,,,,,,,,,,,,,,,,,,,,,,,
,,,,,621264,001,2024-07-12_18h22.06.292,experiment,2024.1.5,Linux x86_64,59.88023952,65cafb5b3bbfc7be04c48e3f,6691931c2c63981b064e1f0c,6691ba736d14fd83c2a18ea2,,,,,,,,,,,,,,,,,,,,,,,,,,,,,,,,,,,,,,,,,,,,,,,,,,,,,,,,,,,,876.4261,883.0954,-0.320861745,-0.025108015,1,0,0,0.6637,compass,0,17,17,10,1,SoundStimuli/BadDay_DanielPowter_Cover5S.wav,,,,,,,,,,,,,,,,,,,,,,,,,,,,,,,,,,,,,,,,,,,,,,,,,,,,,
,,,,,621264,001,2024-07-12_18h22.06.292,experiment,2024.1.5,Linux x86_64,59.88023952,65cafb5b3bbfc7be04c48e3f,6691931c2c63981b064e1f0c,6691ba736d14fd83c2a18ea2,,,,,,,,,,,,,,,,,,,,,,,,,,,,,,,,,,,,,,,,,,,,,,,,,,,,,,,,,,,,883.1105,893.08,-0.034683299,-0.066710029,1,0,0,3.956,compass,0,18,18,32,1,SoundStimuli/HeatWaves_GlassAnimals_Original5S.wav,,,,,,,,,,,,,,,,,,,,,,,,,,,,,,,,,,,,,,,,,,,,,,,,,,,,,
,,,,,621264,001,2024-07-12_18h22.06.292,experiment,2024.1.5,Linux x86_64,59.88023952,65cafb5b3bbfc7be04c48e3f,6691931c2c63981b064e1f0c,6691ba736d14fd83c2a18ea2,,,,,,,,,,,,,,,,,,,,,,,,,,,,,,,,,,,,,,,,,,,,,,,,,,,,,,,,,,,,893.0949,901.1447,-0.095993543,-0.085578345,1,0,0,2.048,compass,0,19,19,16,1,SoundStimuli/BohemianRhapsody_Queen_Original5S.wav,,,,,,,,,,,,,,,,,,,,,,,,,,,,,,,,,,,,,,,,,,,,,,,,,,,,,
,,,,,621264,001,2024-07-12_18h22.06.292,experiment,2024.1.5,Linux x86_64,59.88023952,65cafb5b3bbfc7be04c48e3f,6691931c2c63981b064e1f0c,6691ba736d14fd83c2a18ea2,,,,,,,,,,,,,,,,,,,,,,,,,,,,,,,,,,,,,,,,,,,,,,,,,,,,,,,,,,,,901.1602,907.8926,0.02890688,0.101130777,1,0,0,0.713,compass,0,20,20,6,1,SoundStimuli/Levitating_DuaLipa_Cover5S.wav,,,,,,,,,,,,,,,,,,,,,,,,,,,,,,,,,,,,,,,,,,,,,,,,,,,,,
,,,,,621264,001,2024-07-12_18h22.06.292,experiment,2024.1.5,Linux x86_64,59.88023952,65cafb5b3bbfc7be04c48e3f,6691931c2c63981b064e1f0c,6691ba736d14fd83c2a18ea2,,,,,,,,,,,,,,,,,,,,,,,,,,,,,,,,,,,,,,,,,,,,,,,,,,,,,,,,,,,,907.9075,916.7803,0.191299009,0.073166646,1,0,0,2.8707,compass,0,21,21,33,1,SoundStimuli/StandByMe_BenEKing_Cover5S.wav,,,,,,,,,,,,,,,,,,,,,,,,,,,,,,,,,,,,,,,,,,,,,,,,,,,,,
,,,,,621264,001,2024-07-12_18h22.06.292,experiment,2024.1.5,Linux x86_64,59.88023952,65cafb5b3bbfc7be04c48e3f,6691931c2c63981b064e1f0c,6691ba736d14fd83c2a18ea2,,,,,,,,,,,,,,,,,,,,,,,,,,,,,,,,,,,,,,,,,,,,,,,,,,,,,,,,,,,,916.7971,926.1645,-0.0006807,0.001657477,1,0,0,3.3533,compass,0,22,22,31,1,SoundStimuli/TheBattleOfNewOrleans_JohnnyHorton_Cover5S.wav,,,,,,,,,,,,,,,,,,,,,,,,,,,,,,,,,,,,,,,,,,,,,,,,,,,,,
,,,,,621264,001,2024-07-12_18h22.06.292,experiment,2024.1.5,Linux x86_64,59.88023952,65cafb5b3bbfc7be04c48e3f,6691931c2c63981b064e1f0c,6691ba736d14fd83c2a18ea2,,,,,,,,,,,,,,,,,,,,,,,,,,,,,,,,,,,,,,,,,,,,,,,,,,,,,,,,,,,,926.18,933.8269,0.126574664,-0.016274466,1,0,0,1.638,compass,0,23,23,19,1,SoundStimuli/LetsGetItOn_MarvinGaye_Cover5S.wav,,,,,,,,,,,,,,,,,,,,,,,,,,,,,,,,,,,,,,,,,,,,,,,,,,,,,
,,,,,621264,001,2024-07-12_18h22.06.292,experiment,2024.1.5,Linux x86_64,59.88023952,65cafb5b3bbfc7be04c48e3f,6691931c2c63981b064e1f0c,6691ba736d14fd83c2a18ea2,,,,,,,,,,,,,,,,,,,,,,,,,,,,,,,,,,,,,,,,,,,,,,,,,,,,,,,,,,,,933.8425,941.5447,0.02786477,0.04532634,1,0,0,1.7003,compass,0,24,24,14,1,SoundStimuli/BlindingLights_TheWeeknd_Original5S.wav,,,,,,,,,,,,,,,,,,,,,,,,,,,,,,,,,,,,,,,,,,,,,,,,,,,,,
,,,,,621264,001,2024-07-12_18h22.06.292,experiment,2024.1.5,Linux x86_64,59.88023952,65cafb5b3bbfc7be04c48e3f,6691931c2c63981b064e1f0c,6691ba736d14fd83c2a18ea2,,,,,,,,,,,,,,,,,,,,,,,,,,,,,,,,,,,,,,,,,,,,,,,,,,,,,,,,,,,,941.5609,948.946,0.028333064,-0.017796619,1,0,0,1.3751,compass,0,25,25,3,1,SoundStimuli/NoScrubs_TLC_Original5S.wav,,,,,,,,,,,,,,,,,,,,,,,,,,,,,,,,,,,,,,,,,,,,,,,,,,,,,
,,,,,621264,001,2024-07-12_18h22.06.292,experiment,2024.1.5,Linux x86_64,59.88023952,65cafb5b3bbfc7be04c48e3f,6691931c2c63981b064e1f0c,6691ba736d14fd83c2a18ea2,,,,,,,,,,,,,,,,,,,,,,,,,,,,,,,,,,,,,,,,,,,,,,,,,,,,,,,,,,,,948.9607,956.9954,0.018434551,-0.024259397,1,0,0,2.0333,compass,0,26,26,12,1,SoundStimuli/IWillAlwaysLoveYou_WhitneyHouston_Cover5S.wav,,,,,,,,,,,,,,,,,,,,,,,,,,,,,,,,,,,,,,,,,,,,,,,,,,,,,
,,,,,621264,001,2024-07-12_18h22.06.292,experiment,2024.1.5,Linux x86_64,59.88023952,65cafb5b3bbfc7be04c48e3f,6691931c2c63981b064e1f0c,6691ba736d14fd83c2a18ea2,,,,,,,,,,,,,,,,,,,,,,,,,,,,,,,,,,,,,,,,,,,,,,,,,,,,,,,,,,,,957.0103,965.4461,-0.000827342,-0.003783213,1,0,0,2.4299,compass,0,27,27,20,1,SoundStimuli/HeyYa_Outkast_Cover5S.wav,,,,,,,,,,,,,,,,,,,,,,,,,,,,,,,,,,,,,,,,,,,,,,,,,,,,,
,,,,,621264,001,2024-07-12_18h22.06.292,experiment,2024.1.5,Linux x86_64,59.88023952,65cafb5b3bbfc7be04c48e3f,6691931c2c63981b064e1f0c,6691ba736d14fd83c2a18ea2,,,,,,,,,,,,,,,,,,,,,,,,,,,,,,,,,,,,,,,,,,,,,,,,,,,,,,,,,,,,965.461,972.1846,0.021403353,0.055532214,1,0,0,0.7176,compass,0,28,28,8,1,SoundStimuli/LikeAPrayer_Madonna_Original5S.wav,,,,,,,,,,,,,,,,,,,,,,,,,,,,,,,,,,,,,,,,,,,,,,,,,,,,,
,,,,,621264,001,2024-07-12_18h22.06.292,experiment,2024.1.5,Linux x86_64,59.88023952,65cafb5b3bbfc7be04c48e3f,6691931c2c63981b064e1f0c,6691ba736d14fd83c2a18ea2,,,,,,,,,,,,,,,,,,,,,,,,,,,,,,,,,,,,,,,,,,,,,,,,,,,,,,,,,,,,972.1995,979.6675,0.159759092,0.176621021,1,0,0,1.4537,compass,0,29,29,27,1,SoundStimuli/ShapeofYou_EdSheeran_Original5S.wav,,,,,,,,,,,,,,,,,,,,,,,,,,,,,,,,,,,,,,,,,,,,,,,,,,,,,
,,,,,621264,001,2024-07-12_18h22.06.292,experiment,2024.1.5,Linux x86_64,59.88023952,65cafb5b3bbfc7be04c48e3f,6691931c2c63981b064e1f0c,6691ba736d14fd83c2a18ea2,,,,,,,,,,,,,,,,,,,,,,,,,,,,,,,,,,,,,,,,,,,,,,,,,,,,,,,,,,,,979.682,986.5821,-0.070057184,-0.065506698,1,0,0,0.8853,compass,0,30,30,13,1,SoundStimuli/GodOnlyKnows_TheBeachBoys_Cover5S.wav,,,,,,,,,,,,,,,,,,,,,,,,,,,,,,,,,,,,,,,,,,,,,,,,,,,,,
,,,,,621264,001,2024-07-12_18h22.06.292,experiment,2024.1.5,Linux x86_64,59.88023952,65cafb5b3bbfc7be04c48e3f,6691931c2c63981b064e1f0c,6691ba736d14fd83c2a18ea2,,,,,,,,,,,,,,,,,,,,,,,,,,,,,,,,,,,,,,,,,,,,,,,,,,,,,,,,,,,,986.5985,993.2681,0.002302286,-0.002090633,1,0,0,0.6644,compass,0,31,31,9,1,SoundStimuli/Despacito_LuisFonsiDaddyYankee_Cover5S.wav,,,,,,,,,,,,,,,,,,,,,,,,,,,,,,,,,,,,,,,,,,,,,,,,,,,,,
,,,,,621264,001,2024-07-12_18h22.06.292,experiment,2024.1.5,Linux x86_64,59.88023952,65cafb5b3bbfc7be04c48e3f,6691931c2c63981b064e1f0c,6691ba736d14fd83c2a18ea2,,,,,,,,,,,,,,,,,,,,,,,,,,,,,,,,,,,,,,,,,,,,,,,,,,,,,,,,,,,,993.2832,999.6032,0.136831722,0.136779069,1,0,0,0.3048,compass,0,32,32,4,1,SoundStimuli/GetUrFreakOn_MissyElliot_Original5S.wav,,,,,,,,,,,,,,,,,,,,,,,,,,,,,,,,,,,,,,,,,,,,,,,,,,,,,
,,,,,621264,001,2024-07-12_18h22.06.292,experiment,2024.1.5,Linux x86_64,59.88023952,65cafb5b3bbfc7be04c48e3f,6691931c2c63981b064e1f0c,6691ba736d14fd83c2a18ea2,,,,,,,,,,,,,,,,,,,,,,,,,,,,,,,,,,,,,,,,,,,,,,,,,,,,,,,,,,,,999.6176,1007.8403,0.281925828,0.294405619,1,0,0,2.2221,compass,0,33,33,5,1,SoundStimuli/MyGirl_TheTemptations_Original5S.wav,,,,,,,,,,,,,,,,,,,,,,,,,,,,,,,,,,,,,,,,,,,,,,,,,,,,,
,,,,,621264,001,2024-07-12_18h22.06.292,experiment,2024.1.5,Linux x86_64,59.88023952,65cafb5b3bbfc7be04c48e3f,6691931c2c63981b064e1f0c,6691ba736d14fd83c2a18ea2,,,,,,,,,,,,,,,,,,,,,,,,,,,,,,,,,,,,,,,,,,,,,,,,,,,,,,,,,,,,1007.8563,1014.6672,-0.077947411,0.172883764,1,0,0,0.7995,compass,0,34,34,18,1,SoundStimuli/AnotherOneBitesTheDust_Queen_Original5S.wav,,,,,,,,,,,,,,,,,,,,,,,,,,,,,,,,,,,,,,,,,,,,,,,,,,,,,
,,,,,621264,001,2024-07-12_18h22.06.292,experiment,2024.1.5,Linux x86_64,59.88023952,65cafb5b3bbfc7be04c48e3f,6691931c2c63981b064e1f0c,6691ba736d14fd83c2a18ea2,,,,,,,,,,,,,,,,,,,,,,,,,,,,,,,,,,,,,,,,,,,,,,,,,,,,,,,,,,,,,,,,,,,,,,,,,,,1014.6836,1016.4493,space,1.751,,1016.4495,1019.65,right,3.1856,,0,1,1,1,1,block_order/blockA.xlsx,,,,,,,,,,,,,,,,,,,,,,,,,,,,,,,,,,,,,
,,,,,621264,001,2024-07-12_18h22.06.292,experiment,2024.1.5,Linux x86_64,59.88023952,65cafb5b3bbfc7be04c48e3f,6691931c2c63981b064e1f0c,6691ba736d14fd83c2a18ea2,,,,,,,,,,,,,,,,,,,,,,,,,,,,,,,,,,,,,,,,,,,,,,,,,,,,,,,,,,,,1019.6904,1026.3581,-0.117271961,0.136396918,1,0,0,0.6574,compass,0,0,0,7,1,SoundStimuli/MackTheKnife_BobbyDarin_Cover5S.wav,,,,,,,,,,,,,,,,,,,,,,,,,,,,,,,,,,,,,,,,,,,,,,,,,,,,,
,,,,,621264,001,2024-07-12_18h22.06.292,experiment,2024.1.5,Linux x86_64,59.88023952,65cafb5b3bbfc7be04c48e3f,6691931c2c63981b064e1f0c,6691ba736d14fd83c2a18ea2,,,,,,,,,,,,,,,,,,,,,,,,,,,,,,,,,,,,,,,,,,,,,,,,,,,,,,,,,,,,1026.3738,1032.8408,0.170141444,0.163165419,1,0,0,0.4527,compass,0,1,1,26,1,SoundStimuli/TheSign_AceOfBase_Cover5S.wav,,,,,,,,,,,,,,,,,,,,,,,,,,,,,,,,,,,,,,,,,,,,,,,,,,,,,
,,,,,621264,001,2024-07-12_18h22.06.292,experiment,2024.1.5,Linux x86_64,59.88023952,65cafb5b3bbfc7be04c48e3f,6691931c2c63981b064e1f0c,6691ba736d14fd83c2a18ea2,,,,,,,,,,,,,,,,,,,,,,,,,,,,,,,,,,,,,,,,,,,,,,,,,,,,,,,,,,,,1032.8559,1039.7893,0.300473782,0.315332153,1,0,0,0.9207,compass,0,2,2,3,1,SoundStimuli/PartyRockAnthem_LMFAO_Original5S.wav,,,,,,,,,,,,,,,,,,,,,,,,,,,,,,,,,,,,,,,,,,,,,,,,,,,,,
,,,,,621264,001,2024-07-12_18h22.06.292,experiment,2024.1.5,Linux x86_64,59.88023952,65cafb5b3bbfc7be04c48e3f,6691931c2c63981b064e1f0c,6691ba736d14fd83c2a18ea2,,,,,,,,,,,,,,,,,,,,,,,,,,,,,,,,,,,,,,,,,,,,,,,,,,,,,,,,,,,,1039.8042,1046.3122,0.082735733,-0.090746418,1,0,0,0.4944,compass,0,3,3,19,1,SoundStimuli/YouLightUpMyLife_DebbyBoone_Original5S.wav,,,,,,,,,,,,,,,,,,,,,,,,,,,,,,,,,,,,,,,,,,,,,,,,,,,,,
,,,,,621264,001,2024-07-12_18h22.06.292,experiment,2024.1.5,Linux x86_64,59.88023952,65cafb5b3bbfc7be04c48e3f,6691931c2c63981b064e1f0c,6691ba736d14fd83c2a18ea2,,,,,,,,,,,,,,,,,,,,,,,,,,,,,,,,,,,,,,,,,,,,,,,,,,,,,,,,,,,,1046.3268,1054.0859,-0.014795939,-0.021970829,1,0,0,1.7422,compass,0,4,4,33,1,SoundStimuli/TheBoyIsMine_BrandyMonica_Original5S.wav,,,,,,,,,,,,,,,,,,,,,,,,,,,,,,,,,,,,,,,,,,,,,,,,,,,,,
,,,,,621264,001,2024-07-12_18h22.06.292,experiment,2024.1.5,Linux x86_64,59.88023952,65cafb5b3bbfc7be04c48e3f,6691931c2c63981b064e1f0c,6691ba736d14fd83c2a18ea2,,,,,,,,,,,,,,,,,,,,,,,,,,,,,,,,,,,,,,,,,,,,,,,,,,,,,,,,,,,,1054.1011,1060.8049,0.000207391,-0.009052581,1,0,0,0.7013,compass,0,5,5,20,1,SoundStimuli/FlashdanceWhatAFeeling_IreneCara_Original5S.wav,,,,,,,,,,,,,,,,,,,,,,,,,,,,,,,,,,,,,,,,,,,,,,,,,,,,,
,,,,,621264,001,2024-07-12_18h22.06.292,experiment,2024.1.5,Linux x86_64,59.88023952,65cafb5b3bbfc7be04c48e3f,6691931c2c63981b064e1f0c,6691ba736d14fd83c2a18ea2,,,,,,,,,,,,,,,,,,,,,,,,,,,,,,,,,,,,,,,,,,,,,,,,,,,,,,,,,,,,1060.8194,1069.6571,0.085947816,-0.044401178,1,0,0,2.8367,compass,0,6,6,32,1,SoundStimuli/Dilemma_NellyKellyRowland_Cover5S.wav,,,,,,,,,,,,,,,,,,,,,,,,,,,,,,,,,,,,,,,,,,,,,,,,,,,,,
,,,,,621264,001,2024-07-12_18h22.06.292,experiment,2024.1.5,Linux x86_64,59.88023952,65cafb5b3bbfc7be04c48e3f,6691931c2c63981b064e1f0c,6691ba736d14fd83c2a18ea2,,,,,,,,,,,,,,,,,,,,,,,,,,,,,,,,,,,,,,,,,,,,,,,,,,,,,,,,,,,,1069.6725,1076.6536,0.31335965,0.318741991,1,0,0,0.9665,compass,0,7,7,22,1,SoundStimuli/Happy_PharellWilliams_Original5S.wav,,,,,,,,,,,,,,,,,,,,,,,,,,,,,,,,,,,,,,,,,,,,,,,,,,,,,
,,,,,621264,001,2024-07-12_18h22.06.292,experiment,2024.1.5,Linux x86_64,59.88023952,65cafb5b3bbfc7be04c48e3f,6691931c2c63981b064e1f0c,6691ba736d14fd83c2a18ea2,,,,,,,,,,,,,,,,,,,,,,,,,,,,,,,,,,,,,,,,,,,,,,,,,,,,,,,,,,,,1076.6675,1085.5886,0.036351092,-0.039366422,1,0,0,2.9076,compass,0,8,8,16,1,SoundStimuli/ItsAllInTheGame_TommyEdwards_Cover5S.wav,,,,,,,,,,,,,,,,,,,,,,,,,,,,,,,,,,,,,,,,,,,,,,,,,,,,,
,,,,,621264,001,2024-07-12_18h22.06.292,experiment,2024.1.5,Linux x86_64,59.88023952,65cafb5b3bbfc7be04c48e3f,6691931c2c63981b064e1f0c,6691ba736d14fd83c2a18ea2,,,,,,,,,,,,,,,,,,,,,,,,,,,,,,,,,,,,,,,,,,,,,,,,,,,,,,,,,,,,1085.6045,1092.1556,0.018927417,-0.021264627,1,0,0,0.5485,compass,0,9,9,24,1,SoundStimuli/Kiss_Prince_Cover5S.wav,,,,,,,,,,,,,,,,,,,,,,,,,,,,,,,,,,,,,,,,,,,,,,,,,,,,,
,,,,,621264,001,2024-07-12_18h22.06.292,experiment,2024.1.5,Linux x86_64,59.88023952,65cafb5b3bbfc7be04c48e3f,6691931c2c63981b064e1f0c,6691ba736d14fd83c2a18ea2,,,,,,,,,,,,,,,,,,,,,,,,,,,,,,,,,,,,,,,,,,,,,,,,,,,,,,,,,,,,1092.1706,1098.455,0.061405952,0.131328959,1,0,0,0.2828,compass,0,10,10,28,1,SoundStimuli/IWantToHoldYourHand_TheBeatles_Original5S.wav,,,,,,,,,,,,,,,,,,,,,,,,,,,,,,,,,,,,,,,,,,,,,,,,,,,,,
,,,,,621264,001,2024-07-12_18h22.06.292,experiment,2024.1.5,Linux x86_64,59.88023952,65cafb5b3bbfc7be04c48e3f,6691931c2c63981b064e1f0c,6691ba736d14fd83c2a18ea2,,,,,,,,,,,,,,,,,,,,,,,,,,,,,,,,,,,,,,,,,,,,,,,,,,,,,,,,,,,,1098.4691,1105.4946,0.226860727,0.213732563,1,0,0,1.0151,compass,0,11,11,27,1,SoundStimuli/EyeOfTheTiger_Survivor_Cover5S.wav,,,,,,,,,,,,,,,,,,,,,,,,,,,,,,,,,,,,,,,,,,,,,,,,,,,,,
,,,,,621264,001,2024-07-12_18h22.06.292,experiment,2024.1.5,Linux x86_64,59.88023952,65cafb5b3bbfc7be04c48e3f,6691931c2c63981b064e1f0c,6691ba736d14fd83c2a18ea2,,,,,,,,,,,,,,,,,,,,,,,,,,,,,,,,,,,,,,,,,,,,,,,,,,,,,,,,,,,,1105.5097,1112.2257,0.029133613,0.180225533,1,0,0,0.7048,compass,0,12,12,1,1,SoundStimuli/Smooth_SantanaRobThomas_Original5S.wav,,,,,,,,,,,,,,,,,,,,,,,,,,,,,,,,,,,,,,,,,,,,,,,,,,,,,
,,,,,621264,001,2024-07-12_18h22.06.292,experiment,2024.1.5,Linux x86_64,59.88023952,65cafb5b3bbfc7be04c48e3f,6691931c2c63981b064e1f0c,6691ba736d14fd83c2a18ea2,,,,,,,,,,,,,,,,,,,,,,,,,,,,,,,,,,,,,,,,,,,,,,,,,,,,,,,,,,,,1112.2412,1119.3067,0.017878286,-0.021659457,1,0,0,1.0605,compass,0,13,13,4,1,SoundStimuli/Dreams_FleetwoodMac_Original5S.wav,,,,,,,,,,,,,,,,,,,,,,,,,,,,,,,,,,,,,,,,,,,,,,,,,,,,,
,,,,,621264,001,2024-07-12_18h22.06.292,experiment,2024.1.5,Linux x86_64,59.88023952,65cafb5b3bbfc7be04c48e3f,6691931c2c63981b064e1f0c,6691ba736d14fd83c2a18ea2,,,,,,,,,,,,,,,,,,,,,,,,,,,,,,,,,,,,,,,,,,,,,,,,,,,,,,,,,,,,1119.3202,1127.5401,0.136482633,-0.025457785,1,0,0,2.2179,compass,0,14,14,25,1,SoundStimuli/IllMakeLoveToYou_BoyzIIMen_Cover5S.wav,,,,,,,,,,,,,,,,,,,,,,,,,,,,,,,,,,,,,,,,,,,,,,,,,,,,,
,,,,,621264,001,2024-07-12_18h22.06.292,experiment,2024.1.5,Linux x86_64,59.88023952,65cafb5b3bbfc7be04c48e3f,6691931c2c63981b064e1f0c,6691ba736d14fd83c2a18ea2,,,,,,,,,,,,,,,,,,,,,,,,,,,,,,,,,,,,,,,,,,,,,,,,,,,,,,,,,,,,1127.5543,1133.9588,0.322762933,0.320387075,1,0,0,0.3997,compass,0,15,15,17,1,SoundStimuli/IWannaDanceWithSomebody_WhitneyHouston_Original5S.wav,,,,,,,,,,,,,,,,,,,,,,,,,,,,,,,,,,,,,,,,,,,,,,,,,,,,,
,,,,,621264,001,2024-07-12_18h22.06.292,experiment,2024.1.5,Linux x86_64,59.88023952,65cafb5b3bbfc7be04c48e3f,6691931c2c63981b064e1f0c,6691ba736d14fd83c2a18ea2,,,,,,,,,,,,,,,,,,,,,,,,,,,,,,,,,,,,,,,,,,,,,,,,,,,,,,,,,,,,1133.974,1142.4825,6.43305E-05,0.17507451,1,0,0,2.4915,compass,0,16,16,0,1,SoundStimuli/GimmeShelter_RollingStones_Original5S.wav,,,,,,,,,,,,,,,,,,,,,,,,,,,,,,,,,,,,,,,,,,,,,,,,,,,,,
,,,,,621264,001,2024-07-12_18h22.06.292,experiment,2024.1.5,Linux x86_64,59.88023952,65cafb5b3bbfc7be04c48e3f,6691931c2c63981b064e1f0c,6691ba736d14fd83c2a18ea2,,,,,,,,,,,,,,,,,,,,,,,,,,,,,,,,,,,,,,,,,,,,,,,,,,,,,,,,,,,,1142.4994,1149.5262,0.034020867,0.300096073,1,0,0,1.0181,compass,0,17,17,10,1,SoundStimuli/LeFreak_Chic_Cover5S.wav,,,,,,,,,,,,,,,,,,,,,,,,,,,,,,,,,,,,,,,,,,,,,,,,,,,,,
,,,,,621264,001,2024-07-12_18h22.06.292,experiment,2024.1.5,Linux x86_64,59.88023952,65cafb5b3bbfc7be04c48e3f,6691931c2c63981b064e1f0c,6691ba736d14fd83c2a18ea2,,,,,,,,,,,,,,,,,,,,,,,,,,,,,,,,,,,,,,,,,,,,,,,,,,,,,,,,,,,,1149.5401,1158.8772,-0.025151642,-0.014066741,1,0,0,3.3333,compass,0,18,18,12,1,SoundStimuli/UnbreakMyHeart_ToniBraxton_Original5S.wav,,,,,,,,,,,,,,,,,,,,,,,,,,,,,,,,,,,,,,,,,,,,,,,,,,,,,
,,,,,621264,001,2024-07-12_18h22.06.292,experiment,2024.1.5,Linux x86_64,59.88023952,65cafb5b3bbfc7be04c48e3f,6691931c2c63981b064e1f0c,6691ba736d14fd83c2a18ea2,,,,,,,,,,,,,,,,,,,,,,,,,,,,,,,,,,,,,,,,,,,,,,,,,,,,,,,,,,,,1158.8979,1166.7446,-2.48582E-05,0.006835042,1,0,0,1.8428,compass,0,19,19,31,1,SoundStimuli/TossinAndTurnin_BobbyLewis_Original5S.wav,,,,,,,,,,,,,,,,,,,,,,,,,,,,,,,,,,,,,,,,,,,,,,,,,,,,,
,,,,,621264,001,2024-07-12_18h22.06.292,experiment,2024.1.5,Linux x86_64,59.88023952,65cafb5b3bbfc7be04c48e3f,6691931c2c63981b064e1f0c,6691ba736d14fd83c2a18ea2,,,,,,,,,,,,,,,,,,,,,,,,,,,,,,,,,,,,,,,,,,,,,,,,,,,,,,,,,,,,1166.7587,1173.4308,-0.020435674,0.035521709,1,0,0,0.6597,compass,0,20,20,5,1,SoundStimuli/JoyToTheWorld_ThreeDogNight_Original5S.wav,,,,,,,,,,,,,,,,,,,,,,,,,,,,,,,,,,,,,,,,,,,,,,,,,,,,,
,,,,,621264,001,2024-07-12_18h22.06.292,experiment,2024.1.5,Linux x86_64,59.88023952,65cafb5b3bbfc7be04c48e3f,6691931c2c63981b064e1f0c,6691ba736d14fd83c2a18ea2,,,,,,,,,,,,,,,,,,,,,,,,,,,,,,,,,,,,,,,,,,,,,,,,,,,,,,,,,,,,1173.4459,1180.0448,-0.020435674,0.035521709,1,0,0,0.5812,compass,0,21,21,29,1,SoundStimuli/BetteDavisEyes_KimCarnes_Original5S.wav,,,,,,,,,,,,,,,,,,,,,,,,,,,,,,,,,,,,,,,,,,,,,,,,,,,,,
,,,,,621264,001,2024-07-12_18h22.06.292,experiment,2024.1.5,Linux x86_64,59.88023952,65cafb5b3bbfc7be04c48e3f,6691931c2c63981b064e1f0c,6691ba736d14fd83c2a18ea2,,,,,,,,,,,,,,,,,,,,,,,,,,,,,,,,,,,,,,,,,,,,,,,,,,,,,,,,,,,,1180.0585,1186.8458,0.065256396,0.098170751,1,0,0,0.7834,compass,0,22,22,11,1,SoundStimuli/BlurredLines_RobinThicke_Cover5S.wav,,,,,,,,,,,,,,,,,,,,,,,,,,,,,,,,,,,,,,,,,,,,,,,,,,,,,
,,,,,621264,001,2024-07-12_18h22.06.292,experiment,2024.1.5,Linux x86_64,59.88023952,65cafb5b3bbfc7be04c48e3f,6691931c2c63981b064e1f0c,6691ba736d14fd83c2a18ea2,,,,,,,,,,,,,,,,,,,,,,,,,,,,,,,,,,,,,,,,,,,,,,,,,,,,,,,,,,,,1186.8596,1193.779,-0.043537695,-0.040513446,1,0,0,0.914,compass,0,23,23,6,1,SoundStimuli/SaveYourTears_TheWeekndArianaGrande_Cover5S.wav,,,,,,,,,,,,,,,,,,,,,,,,,,,,,,,,,,,,,,,,,,,,,,,,,,,,,
,,,,,621264,001,2024-07-12_18h22.06.292,experiment,2024.1.5,Linux x86_64,59.88023952,65cafb5b3bbfc7be04c48e3f,6691931c2c63981b064e1f0c,6691ba736d14fd83c2a18ea2,,,,,,,,,,,,,,,,,,,,,,,,,,,,,,,,,,,,,,,,,,,,,,,,,,,,,,,,,,,,1193.7941,1201.2237,0.017368442,-0.02154258,1,0,0,1.4268,compass,0,24,24,15,1,SoundStimuli/CrazyInLove_BeyonceFtJayZ_Cover5S.wav,,,,,,,,,,,,,,,,,,,,,,,,,,,,,,,,,,,,,,,,,,,,,,,,,,,,,
,,,,,621264,001,2024-07-12_18h22.06.292,experiment,2024.1.5,Linux x86_64,59.88023952,65cafb5b3bbfc7be04c48e3f,6691931c2c63981b064e1f0c,6691ba736d14fd83c2a18ea2,,,,,,,,,,,,,,,,,,,,,,,,,,,,,,,,,,,,,,,,,,,,,,,,,,,,,,,,,,,,1201.2388,1207.8485,-0.020354866,-0.020019997,1,0,0,0.6032,compass,0,25,25,34,1,SoundStimuli/Irreplaceable_Beyonce_Cover5S.wav,,,,,,,,,,,,,,,,,,,,,,,,,,,,,,,,,,,,,,,,,,,,,,,,,,,,,
,,,,,621264,001,2024-07-12_18h22.06.292,experiment,2024.1.5,Linux x86_64,59.88023952,65cafb5b3bbfc7be04c48e3f,6691931c2c63981b064e1f0c,6691ba736d14fd83c2a18ea2,,,,,,,,,,,,,,,,,,,,,,,,,,,,,,,,,,,,,,,,,,,,,,,,,,,,,,,,,,,,1207.8635,1214.0796,0.046871991,-0.015881462,1,0,0,0.1989,compass,0,26,26,9,1,SoundStimuli/HowDoILive_LeAnnRimes_Cover5S.wav,,,,,,,,,,,,,,,,,,,,,,,,,,,,,,,,,,,,,,,,,,,,,,,,,,,,,
,,,,,621264,001,2024-07-12_18h22.06.292,experiment,2024.1.5,Linux x86_64,59.88023952,65cafb5b3bbfc7be04c48e3f,6691931c2c63981b064e1f0c,6691ba736d14fd83c2a18ea2,,,,,,,,,,,,,,,,,,,,,,,,,,,,,,,,,,,,,,,,,,,,,,,,,,,,,,,,,,,,1214.0932,1220.9684,-0.022804368,-0.023265821,1,0,0,0.8581,compass,0,27,27,30,1,SoundStimuli/SomebodyThatIUsedtoKnow_Gotye_Original5S.wav,,,,,,,,,,,,,,,,,,,,,,,,,,,,,,,,,,,,,,,,,,,,,,,,,,,,,
,,,,,621264,001,2024-07-12_18h22.06.292,experiment,2024.1.5,Linux x86_64,59.88023952,65cafb5b3bbfc7be04c48e3f,6691931c2c63981b064e1f0c,6691ba736d14fd83c2a18ea2,,,,,,,,,,,,,,,,,,,,,,,,,,,,,,,,,,,,,,,,,,,,,,,,,,,,,,,,,,,,1220.983,1228.0822,0.133676019,-0.039499668,1,0,0,1.0918,compass,0,28,28,13,1,SoundStimuli/Perfect_EdSheeran_Cover5S.wav,,,,,,,,,,,,,,,,,,,,,,,,,,,,,,,,,,,,,,,,,,,,,,,,,,,,,
,,,,,621264,001,2024-07-12_18h22.06.292,experiment,2024.1.5,Linux x86_64,59.88023952,65cafb5b3bbfc7be04c48e3f,6691931c2c63981b064e1f0c,6691ba736d14fd83c2a18ea2,,,,,,,,,,,,,,,,,,,,,,,,,,,,,,,,,,,,,,,,,,,,,,,,,,,,,,,,,,,,1228.0967,1235.966,0.012987665,0.050574898,1,0,0,1.8622,compass,0,29,29,2,1,SoundStimuli/SmellsLikeTeenSpirit_Nirvana_Original5S.wav,,,,,,,,,,,,,,,,,,,,,,,,,,,,,,,,,,,,,,,,,,,,,,,,,,,,,
,,,,,621264,001,2024-07-12_18h22.06.292,experiment,2024.1.5,Linux x86_64,59.88023952,65cafb5b3bbfc7be04c48e3f,6691931c2c63981b064e1f0c,6691ba736d14fd83c2a18ea2,,,,,,,,,,,,,,,,,,,,,,,,,,,,,,,,,,,,,,,,,,,,,,,,,,,,,,,,,,,,1235.9808,1242.1877,0.015667768,-0.03177736,1,0,0,0.204,compass,0,30,30,23,1,SoundStimuli/IWalkTheLine_JohnnyCash_Original5S.wav,,,,,,,,,,,,,,,,,,,,,,,,,,,,,,,,,,,,,,,,,,,,,,,,,,,,,
,,,,,621264,001,2024-07-12_18h22.06.292,experiment,2024.1.5,Linux x86_64,59.88023952,65cafb5b3bbfc7be04c48e3f,6691931c2c63981b064e1f0c,6691ba736d14fd83c2a18ea2,,,,,,,,,,,,,,,,,,,,,,,,,,,,,,,,,,,,,,,,,,,,,,,,,,,,,,,,,,,,1242.2014,1249.8529,0.023618528,-0.024841022,1,0,0,1.6372,compass,0,31,31,18,1,SoundStimuli/Weak_SWV_Cover5S.wav,,,,,,,,,,,,,,,,,,,,,,,,,,,,,,,,,,,,,,,,,,,,,,,,,,,,,
,,,,,621264,001,2024-07-12_18h22.06.292,experiment,2024.1.5,Linux x86_64,59.88023952,65cafb5b3bbfc7be04c48e3f,6691931c2c63981b064e1f0c,6691ba736d14fd83c2a18ea2,,,,,,,,,,,,,,,,,,,,,,,,,,,,,,,,,,,,,,,,,,,,,,,,,,,,,,,,,,,,1249.8704,1256.9517,0.023449392,-0.025348645,1,0,0,1.0694,compass,0,32,32,8,1,SoundStimuli/EndlessLove_DianaRossLionelRichie_Cover5S.wav,,,,,,,,,,,,,,,,,,,,,,,,,,,,,,,,,,,,,,,,,,,,,,,,,,,,,
,,,,,621264,001,2024-07-12_18h22.06.292,experiment,2024.1.5,Linux x86_64,59.88023952,65cafb5b3bbfc7be04c48e3f,6691931c2c63981b064e1f0c,6691ba736d14fd83c2a18ea2,,,,,,,,,,,,,,,,,,,,,,,,,,,,,,,,,,,,,,,,,,,,,,,,,,,,,,,,,,,,1256.9675,1263.2366,0.000631485,-0.004095767,1,0,0,0.2534,compass,0,33,33,14,1,SoundStimuli/LikeARollingStone_BobDylan_Original5S.wav,,,,,,,,,,,,,,,,,,,,,,,,,,,,,,,,,,,,,,,,,,,,,,,,,,,,,
,,,,,621264,001,2024-07-12_18h22.06.292,experiment,2024.1.5,Linux x86_64,59.88023952,65cafb5b3bbfc7be04c48e3f,6691931c2c63981b064e1f0c,6691ba736d14fd83c2a18ea2,,,,,,,,,,,,,,,,,,,,,,,,,,,,,,,,,,,,,,,,,,,,,,,,,,,,,,,,,,,,1263.2515,1270.0337,0.001308029,-0.013400548,1,0,0,0.7812,compass,0,34,34,21,1,SoundStimuli/BridgeOverTroubledWater_SimonAndGarfunkel_Original5S.wav,,,,,,,,,,,,,,,,,,,,,,,,,,,,,,,,,,,,,,,,,,,,,,,,,,,,,
,,,,,621264,001,2024-07-12_18h22.06.292,experiment,2024.1.5,Linux x86_64,59.88023952,65cafb5b3bbfc7be04c48e3f,6691931c2c63981b064e1f0c,6691ba736d14fd83c2a18ea2,,,,,,,,,,,,,,,,,,,,,,,,,,,,,,,,,,,,,,,,,,,,,,,,,,,,,,,,,,,,,,,,,,,,,,,,,,,1270.034,1272.8331,space,2.7838,,1272.8332,1293.5017,right,20.6509,,0,2,2,2,1,block_order/blockD.xlsx,,,,,,,,,,,,,,,,,,,,,,,,,,,,,,,,,,,,,
,,,,,621264,001,2024-07-12_18h22.06.292,experiment,2024.1.5,Linux x86_64,59.88023952,65cafb5b3bbfc7be04c48e3f,6691931c2c63981b064e1f0c,6691ba736d14fd83c2a18ea2,,,,,,,,,,,,,,,,,,,,,,,,,,,,,,,,,,,,,,,,,,,,,,,,,,,,,,,,,,,,1293.533,1301.3076,0.192622297,-0.075810428,1,0,0,1.7674,compass,0,0,0,19,1,SoundStimuli/LetsGetItOn_MarvinGaye_Original5S.wav,,,,,,,,,,,,,,,,,,,,,,,,,,,,,,,,,,,,,,,,,,,,,,,,,,,,,
,,,,,621264,001,2024-07-12_18h22.06.292,experiment,2024.1.5,Linux x86_64,59.88023952,65cafb5b3bbfc7be04c48e3f,6691931c2c63981b064e1f0c,6691ba736d14fd83c2a18ea2,,,,,,,,,,,,,,,,,,,,,,,,,,,,,,,,,,,,,,,,,,,,,,,,,,,,,,,,,,,,1301.322,1308.2541,0.038840782,0.079860741,1,0,0,0.9302,compass,0,1,1,1,1,SoundStimuli/Stronger_KanyeWest_Cover5S.wav,,,,,,,,,,,,,,,,,,,,,,,,,,,,,,,,,,,,,,,,,,,,,,,,,,,,,
,,,,,621264,001,2024-07-12_18h22.06.292,experiment,2024.1.5,Linux x86_64,59.88023952,65cafb5b3bbfc7be04c48e3f,6691931c2c63981b064e1f0c,6691ba736d14fd83c2a18ea2,,,,,,,,,,,,,,,,,,,,,,,,,,,,,,,,,,,,,,,,,,,,,,,,,,,,,,,,,,,,1308.2698,1315.6699,-0.028466596,-0.020919907,1,0,0,1.3958,compass,0,2,2,18,1,SoundStimuli/AnotherOneBitesTheDust_Queen_Cover5S.wav,,,,,,,,,,,,,,,,,,,,,,,,,,,,,,,,,,,,,,,,,,,,,,,,,,,,,
,,,,,621264,001,2024-07-12_18h22.06.292,experiment,2024.1.5,Linux x86_64,59.88023952,65cafb5b3bbfc7be04c48e3f,6691931c2c63981b064e1f0c,6691ba736d14fd83c2a18ea2,,,,,,,,,,,,,,,,,,,,,,,,,,,,,,,,,,,,,,,,,,,,,,,,,,,,,,,,,,,,1315.685,1323.1697,0.038690343,0.192729287,1,0,0,1.4773,compass,0,3,3,6,1,SoundStimuli/Levitating_DuaLipa_Original5S.wav,,,,,,,,,,,,,,,,,,,,,,,,,,,,,,,,,,,,,,,,,,,,,,,,,,,,,
,,,,,621264,001,2024-07-12_18h22.06.292,experiment,2024.1.5,Linux x86_64,59.88023952,65cafb5b3bbfc7be04c48e3f,6691931c2c63981b064e1f0c,6691ba736d14fd83c2a18ea2,,,,,,,,,,,,,,,,,,,,,,,,,,,,,,,,,,,,,,,,,,,,,,,,,,,,,,,,,,,,1323.184,1330.6042,0.322774395,-0.028009083,1,0,0,1.4169,compass,0,4,4,5,1,SoundStimuli/MyGirl_TheTemptations_Cover5S.wav,,,,,,,,,,,,,,,,,,,,,,,,,,,,,,,,,,,,,,,,,,,,,,,,,,,,,
,,,,,621264,001,2024-07-12_18h22.06.292,experiment,2024.1.5,Linux x86_64,59.88023952,65cafb5b3bbfc7be04c48e3f,6691931c2c63981b064e1f0c,6691ba736d14fd83c2a18ea2,,,,,,,,,,,,,,,,,,,,,,,,,,,,,,,,,,,,,,,,,,,,,,,,,,,,,,,,,,,,1330.6195,1338.855,-0.058741538,0.140874406,1,0,0,2.2282,compass,0,5,5,30,1,SoundStimuli/PokerFace_LadyGaga_Cover5S.wav,,,,,,,,,,,,,,,,,,,,,,,,,,,,,,,,,,,,,,,,,,,,,,,,,,,,,
,,,,,621264,001,2024-07-12_18h22.06.292,experiment,2024.1.5,Linux x86_64,59.88023952,65cafb5b3bbfc7be04c48e3f,6691931c2c63981b064e1f0c,6691ba736d14fd83c2a18ea2,,,,,,,,,,,,,,,,,,,,,,,,,,,,,,,,,,,,,,,,,,,,,,,,,,,,,,,,,,,,1338.8699,1345.6144,0.025858275,-0.019904195,1,0,0,0.739,compass,0,6,6,29,1,SoundStimuli/OldTownRoad_LilNasX_Cover5S.wav,,,,,,,,,,,,,,,,,,,,,,,,,,,,,,,,,,,,,,,,,,,,,,,,,,,,,
,,,,,621264,001,2024-07-12_18h22.06.292,experiment,2024.1.5,Linux x86_64,59.88023952,65cafb5b3bbfc7be04c48e3f,6691931c2c63981b064e1f0c,6691ba736d14fd83c2a18ea2,,,,,,,,,,,,,,,,,,,,,,,,,,,,,,,,,,,,,,,,,,,,,,,,,,,,,,,,,,,,1345.6336,1352.4891,0.023868901,0.064042033,1,0,0,0.8492,compass,0,7,7,11,1,SoundStimuli/Superstition_StevieWonder_Original5S.wav,,,,,,,,,,,,,,,,,,,,,,,,,,,,,,,,,,,,,,,,,,,,,,,,,,,,,
,,,,,621264,001,2024-07-12_18h22.06.292,experiment,2024.1.5,Linux x86_64,59.88023952,65cafb5b3bbfc7be04c48e3f,6691931c2c63981b064e1f0c,6691ba736d14fd83c2a18ea2,,,,,,,,,,,,,,,,,,,,,,,,,,,,,,,,,,,,,,,,,,,,,,,,,,,,,,,,,,,,1352.5049,1361.7306,-0.020115526,0.021578722,1,0,0,3.2239,compass,0,8,8,2,1,SoundStimuli/Mood_24kGoldnianndior_Original5S.wav,,,,,,,,,,,,,,,,,,,,,,,,,,,,,,,,,,,,,,,,,,,,,,,,,,,,,
,,,,,621264,001,2024-07-12_18h22.06.292,experiment,2024.1.5,Linux x86_64,59.88023952,65cafb5b3bbfc7be04c48e3f,6691931c2c63981b064e1f0c,6691ba736d14fd83c2a18ea2,,,,,,,,,,,,,,,,,,,,,,,,,,,,,,,,,,,,,,,,,,,,,,,,,,,,,,,,,,,,1361.7469,1369.5921,-0.024125507,-0.025937434,1,0,0,1.8377,compass,0,9,9,34,1,SoundStimuli/AChangeIsGonnaCome_SamCooke_Original5S.wav,,,,,,,,,,,,,,,,,,,,,,,,,,,,,,,,,,,,,,,,,,,,,,,,,,,,,
,,,,,621264,001,2024-07-12_18h22.06.292,experiment,2024.1.5,Linux x86_64,59.88023952,65cafb5b3bbfc7be04c48e3f,6691931c2c63981b064e1f0c,6691ba736d14fd83c2a18ea2,,,,,,,,,,,,,,,,,,,,,,,,,,,,,,,,,,,,,,,,,,,,,,,,,,,,,,,,,,,,1369.6077,1376.2588,0.235982904,0.209759117,1,0,0,0.6441,compass,0,10,10,20,1,SoundStimuli/HeyYa_Outkast_Original5S.wav,,,,,,,,,,,,,,,,,,,,,,,,,,,,,,,,,,,,,,,,,,,,,,,,,,,,,
,,,,,621264,001,2024-07-12_18h22.06.292,experiment,2024.1.5,Linux x86_64,59.88023952,65cafb5b3bbfc7be04c48e3f,6691931c2c63981b064e1f0c,6691ba736d14fd83c2a18ea2,,,,,,,,,,,,,,,,,,,,,,,,,,,,,,,,,,,,,,,,,,,,,,,,,,,,,,,,,,,,1376.2731,1383.1461,0.130211915,0.183449436,1,0,0,0.8697,compass,0,11,11,24,1,SoundStimuli/UptownFunk_MarkRonson_Cover5S.wav,,,,,,,,,,,,,,,,,,,,,,,,,,,,,,,,,,,,,,,,,,,,,,,,,,,,,
,,,,,621264,001,2024-07-12_18h22.06.292,experiment,2024.1.5,Linux x86_64,59.88023952,65cafb5b3bbfc7be04c48e3f,6691931c2c63981b064e1f0c,6691ba736d14fd83c2a18ea2,,,,,,,,,,,,,,,,,,,,,,,,,,,,,,,,,,,,,,,,,,,,,,,,,,,,,,,,,,,,1383.1609,1389.8931,-0.091731828,-0.085443953,1,0,0,0.7175,compass,0,12,12,10,1,SoundStimuli/BadDay_DanielPowter_Original5S.wav,,,,,,,,,,,,,,,,,,,,,,,,,,,,,,,,,,,,,,,,,,,,,,,,,,,,,
,,,,,621264,001,2024-07-12_18h22.06.292,experiment,2024.1.5,Linux x86_64,59.88023952,65cafb5b3bbfc7be04c48e3f,6691931c2c63981b064e1f0c,6691ba736d14fd83c2a18ea2,,,,,,,,,,,,,,,,,,,,,,,,,,,,,,,,,,,,,,,,,,,,,,,,,,,,,,,,,,,,1389.9069,1401.0296,0.022163928,0.031124742,1,0,0,5.1157,compass,0,13,13,22,1,SoundStimuli/RockWithYou_MichaelJackson_Cover5S.wav,,,,,,,,,,,,,,,,,,,,,,,,,,,,,,,,,,,,,,,,,,,,,,,,,,,,,
,,,,,621264,001,2024-07-12_18h22.06.292,experiment,2024.1.5,Linux x86_64,59.88023952,65cafb5b3bbfc7be04c48e3f,6691931c2c63981b064e1f0c,6691ba736d14fd83c2a18ea2,,,,,,,,,,,,,,,,,,,,,,,,,,,,,,,,,,,,,,,,,,,,,,,,,,,,,,,,,,,,1401.0448,1407.5957,0.019015245,0.02776591,1,0,0,0.5324,compass,0,14,14,4,1,SoundStimuli/GetUrFreakOn_MissyElliot_Cover5S.wav,,,,,,,,,,,,,,,,,,,,,,,,,,,,,,,,,,,,,,,,,,,,,,,,,,,,,
,,,,,621264,001,2024-07-12_18h22.06.292,experiment,2024.1.5,Linux x86_64,59.88023952,65cafb5b3bbfc7be04c48e3f,6691931c2c63981b064e1f0c,6691ba736d14fd83c2a18ea2,,,,,,,,,,,,,,,,,,,,,,,,,,,,,,,,,,,,,,,,,,,,,,,,,,,,,,,,,,,,1407.611,1414.6202,0.002301212,0.003948373,1,0,0,0.9935,compass,0,15,15,14,1,SoundStimuli/BlindingLights_TheWeeknd_Cover5S.wav,,,,,,,,,,,,,,,,,,,,,,,,,,,,,,,,,,,,,,,,,,,,,,,,,,,,,
,,,,,621264,001,2024-07-12_18h22.06.292,experiment,2024.1.5,Linux x86_64,59.88023952,65cafb5b3bbfc7be04c48e3f,6691931c2c63981b064e1f0c,6691ba736d14fd83c2a18ea2,,,,,,,,,,,,,,,,,,,,,,,,,,,,,,,,,,,,,,,,,,,,,,,,,,,,,,,,,,,,1414.635,1422.3443,0.023311275,0.04995681,1,0,0,1.6964,compass,0,16,16,28,1,SoundStimuli/ComeAndGetYourLove_Redbone_Cover5S.wav,,,,,,,,,,,,,,,,,,,,,,,,,,,,,,,,,,,,,,,,,,,,,,,,,,,,,
,,,,,621264,001,2024-07-12_18h22.06.292,experiment,2024.1.5,Linux x86_64,59.88023952,65cafb5b3bbfc7be04c48e3f,6691931c2c63981b064e1f0c,6691ba736d14fd83c2a18ea2,,,,,,,,,,,,,,,,,,,,,,,,,,,,,,,,,,,,,,,,,,,,,,,,,,,,,,,,,,,,1422.3599,1432.195,0.019597658,0.071091594,1,0,0,3.8336,compass,0,17,17,31,1,SoundStimuli/TheBattleOfNewOrleans_JohnnyHorton_Original5S.wav,,,,,,,,,,,,,,,,,,,,,,,,,,,,,,,,,,,,,,,,,,,,,,,,,,,,,
,,,,,621264,001,2024-07-12_18h22.06.292,experiment,2024.1.5,Linux x86_64,59.88023952,65cafb5b3bbfc7be04c48e3f,6691931c2c63981b064e1f0c,6691ba736d14fd83c2a18ea2,,,,,,,,,,,,,,,,,,,,,,,,,,,,,,,,,,,,,,,,,,,,,,,,,,,,,,,,,,,,1432.211,1439.8391,0.202875128,-0.141999867,1,0,0,1.6245,compass,0,18,18,12,1,SoundStimuli/IWillAlwaysLoveYou_WhitneyHouston_Original5S.wav,,,,,,,,,,,,,,,,,,,,,,,,,,,,,,,,,,,,,,,,,,,,,,,,,,,,,
,,,,,621264,001,2024-07-12_18h22.06.292,experiment,2024.1.5,Linux x86_64,59.88023952,65cafb5b3bbfc7be04c48e3f,6691931c2c63981b064e1f0c,6691ba736d14fd83c2a18ea2,,,,,,,,,,,,,,,,,,,,,,,,,,,,,,,,,,,,,,,,,,,,,,,,,,,,,,,,,,,,1439.8536,1446.3958,0.047070284,0.053245652,1,0,0,0.5321,compass,0,19,19,21,1,SoundStimuli/GoodGollyMissMolly_LittleRichard_Original5S.wav,,,,,,,,,,,,,,,,,,,,,,,,,,,,,,,,,,,,,,,,,,,,,,,,,,,,,
,,,,,621264,001,2024-07-12_18h22.06.292,experiment,2024.1.5,Linux x86_64,59.88023952,65cafb5b3bbfc7be04c48e3f,6691931c2c63981b064e1f0c,6691ba736d14fd83c2a18ea2,,,,,,,,,,,,,,,,,,,,,,,,,,,,,,,,,,,,,,,,,,,,,,,,,,,,,,,,,,,,1446.4099,1457.3655,-0.045551067,0.108296103,1,0,0,4.9528,compass,0,20,20,16,1,SoundStimuli/BohemianRhapsody_Queen_Cover5S.wav,,,,,,,,,,,,,,,,,,,,,,,,,,,,,,,,,,,,,,,,,,,,,,,,,,,,,
,,,,,621264,001,2024-07-12_18h22.06.292,experiment,2024.1.5,Linux x86_64,59.88023952,65cafb5b3bbfc7be04c48e3f,6691931c2c63981b064e1f0c,6691ba736d14fd83c2a18ea2,,,,,,,,,,,,,,,,,,,,,,,,,,,,,,,,,,,,,,,,,,,,,,,,,,,,,,,,,,,,1457.3811,1464.6025,-0.045551067,0.105758452,1,0,0,1.2055,compass,0,21,21,32,1,SoundStimuli/HeatWaves_GlassAnimals_Cover5S.wav,,,,,,,,,,,,,,,,,,,,,,,,,,,,,,,,,,,,,,,,,,,,,,,,,,,,,
,,,,,621264,001,2024-07-12_18h22.06.292,experiment,2024.1.5,Linux x86_64,59.88023952,65cafb5b3bbfc7be04c48e3f,6691931c2c63981b064e1f0c,6691ba736d14fd83c2a18ea2,,,,,,,,,,,,,,,,,,,,,,,,,,,,,,,,,,,,,,,,,,,,,,,,,,,,,,,,,,,,1464.6175,1471.4472,-0.059873769,-0.085895162,1,0,0,0.816,compass,0,22,22,13,1,SoundStimuli/GodOnlyKnows_TheBeachBoys_Original5S.wav,,,,,,,,,,,,,,,,,,,,,,,,,,,,,,,,,,,,,,,,,,,,,,,,,,,,,
,,,,,621264,001,2024-07-12_18h22.06.292,experiment,2024.1.5,Linux x86_64,59.88023952,65cafb5b3bbfc7be04c48e3f,6691931c2c63981b064e1f0c,6691ba736d14fd83c2a18ea2,,,,,,,,,,,,,,,,,,,,,,,,,,,,,,,,,,,,,,,,,,,,,,,,,,,,,,,,,,,,1471.4618,1478.0185,0.089944401,0.101793137,1,0,0,0.5535,compass,0,23,23,17,1,SoundStimuli/Fallin_AliciaKeys_Cover5S.wav,,,,,,,,,,,,,,,,,,,,,,,,,,,,,,,,,,,,,,,,,,,,,,,,,,,,,
,,,,,621264,001,2024-07-12_18h22.06.292,experiment,2024.1.5,Linux x86_64,59.88023952,65cafb5b3bbfc7be04c48e3f,6691931c2c63981b064e1f0c,6691ba736d14fd83c2a18ea2,,,,,,,,,,,,,,,,,,,,,,,,,,,,,,,,,,,,,,,,,,,,,,,,,,,,,,,,,,,,1478.0335,1487.0661,0.008368622,0.014880221,1,0,0,3.0175,compass,0,24,24,23,1,SoundStimuli/StrawberryFieldsForever_TheBeatles_Cover5S.wav,,,,,,,,,,,,,,,,,,,,,,,,,,,,,,,,,,,,,,,,,,,,,,,,,,,,,
,,,,,621264,001,2024-07-12_18h22.06.292,experiment,2024.1.5,Linux x86_64,59.88023952,65cafb5b3bbfc7be04c48e3f,6691931c2c63981b064e1f0c,6691ba736d14fd83c2a18ea2,,,,,,,,,,,,,,,,,,,,,,,,,,,,,,,,,,,,,,,,,,,,,,,,,,,,,,,,,,,,1487.0814,1494.8868,0.024962734,-0.020355117,1,0,0,1.8005,compass,0,25,25,7,1,SoundStimuli/NoOne_AliciaKeys_Original5S.wav,,,,,,,,,,,,,,,,,,,,,,,,,,,,,,,,,,,,,,,,,,,,,,,,,,,,,
,,,,,621264,001,2024-07-12_18h22.06.292,experiment,2024.1.5,Linux x86_64,59.88023952,65cafb5b3bbfc7be04c48e3f,6691931c2c63981b064e1f0c,6691ba736d14fd83c2a18ea2,,,,,,,,,,,,,,,,,,,,,,,,,,,,,,,,,,,,,,,,,,,,,,,,,,,,,,,,,,,,1494.9026,1502.0658,-0.254588167,0.266765523,1,0,0,1.1499,compass,0,26,26,25,1,SoundStimuli/Respect_ArethaFranklin_Cover5S.wav,,,,,,,,,,,,,,,,,,,,,,,,,,,,,,,,,,,,,,,,,,,,,,,,,,,,,
,,,,,621264,001,2024-07-12_18h22.06.292,experiment,2024.1.5,Linux x86_64,59.88023952,65cafb5b3bbfc7be04c48e3f,6691931c2c63981b064e1f0c,6691ba736d14fd83c2a18ea2,,,,,,,,,,,,,,,,,,,,,,,,,,,,,,,,,,,,,,,,,,,,,,,,,,,,,,,,,,,,1502.081,1510.4174,-0.041406408,0.181988103,1,0,0,2.3276,compass,0,27,27,3,1,SoundStimuli/NoScrubs_TLC_Cover5S.wav,,,,,,,,,,,,,,,,,,,,,,,,,,,,,,,,,,,,,,,,,,,,,,,,,,,,,
,,,,,621264,001,2024-07-12_18h22.06.292,experiment,2024.1.5,Linux x86_64,59.88023952,65cafb5b3bbfc7be04c48e3f,6691931c2c63981b064e1f0c,6691ba736d14fd83c2a18ea2,,,,,,,,,,,,,,,,,,,,,,,,,,,,,,,,,,,,,,,,,,,,,,,,,,,,,,,,,,,,1510.4325,1517.0078,0.117533867,-0.092556125,1,0,0,0.5737,compass,0,28,28,27,1,SoundStimuli/ShapeofYou_EdSheeran_Cover5S.wav,,,,,,,,,,,,,,,,,,,,,,,,,,,,,,,,,,,,,,,,,,,,,,,,,,,,,
,,,,,621264,001,2024-07-12_18h22.06.292,experiment,2024.1.5,Linux x86_64,59.88023952,65cafb5b3bbfc7be04c48e3f,6691931c2c63981b064e1f0c,6691ba736d14fd83c2a18ea2,,,,,,,,,,,,,,,,,,,,,,,,,,,,,,,,,,,,,,,,,,,,,,,,,,,,,,,,,,,,1517.022,1523.8046,0.097449289,0.166087979,1,0,0,0.7703,compass,0,29,29,26,1,SoundStimuli/LivinOnAPrayer_BonJovi_Original5S.wav,,,,,,,,,,,,,,,,,,,,,,,,,,,,,,,,,,,,,,,,,,,,,,,,,,,,,
,,,,,621264,001,2024-07-12_18h22.06.292,experiment,2024.1.5,Linux x86_64,59.88023952,65cafb5b3bbfc7be04c48e3f,6691931c2c63981b064e1f0c,6691ba736d14fd83c2a18ea2,,,,,,,,,,,,,,,,,,,,,,,,,,,,,,,,,,,,,,,,,,,,,,,,,,,,,,,,,,,,1523.8179,1530.454,0.097449289,0.166087979,1,0,0,0.6301,compass,0,30,30,8,1,SoundStimuli/LikeAPrayer_Madonna_Cover5S.wav,,,,,,,,,,,,,,,,,,,,,,,,,,,,,,,,,,,,,,,,,,,,,,,,,,,,,
,,,,,621264,001,2024-07-12_18h22.06.292,experiment,2024.1.5,Linux x86_64,59.88023952,65cafb5b3bbfc7be04c48e3f,6691931c2c63981b064e1f0c,6691ba736d14fd83c2a18ea2,,,,,,,,,,,,,,,,,,,,,,,,,,,,,,,,,,,,,,,,,,,,,,,,,,,,,,,,,,,,1530.469,1537.0707,0.097449289,0.164734567,1,0,0,0.6008,compass,0,31,31,0,1,SoundStimuli/StayinAlive_BeeGees_Cover5S.wav,,,,,,,,,,,,,,,,,,,,,,,,,,,,,,,,,,,,,,,,,,,,,,,,,,,,,
,,,,,621264,001,2024-07-12_18h22.06.292,experiment,2024.1.5,Linux x86_64,59.88023952,65cafb5b3bbfc7be04c48e3f,6691931c2c63981b064e1f0c,6691ba736d14fd83c2a18ea2,,,,,,,,,,,,,,,,,,,,,,,,,,,,,,,,,,,,,,,,,,,,,,,,,,,,,,,,,,,,1537.0848,1543.5901,0.003355143,-0.000715695,1,0,0,0.504,compass,0,32,32,9,1,SoundStimuli/Despacito_LuisFonsiDaddyYankee_Original5S.wav,,,,,,,,,,,,,,,,,,,,,,,,,,,,,,,,,,,,,,,,,,,,,,,,,,,,,
,,,,,621264,001,2024-07-12_18h22.06.292,experiment,2024.1.5,Linux x86_64,59.88023952,65cafb5b3bbfc7be04c48e3f,6691931c2c63981b064e1f0c,6691ba736d14fd83c2a18ea2,,,,,,,,,,,,,,,,,,,,,,,,,,,,,,,,,,,,,,,,,,,,,,,,,,,,,,,,,,,,1543.6043,1550.47,0.204497216,0.222213154,1,0,0,0.8494,compass,0,33,33,15,1,SoundStimuli/TikTok_Kesha_Original5S.wav,,,,,,,,,,,,,,,,,,,,,,,,,,,,,,,,,,,,,,,,,,,,,,,,,,,,,
,,,,,621264,001,2024-07-12_18h22.06.292,experiment,2024.1.5,Linux x86_64,59.88023952,65cafb5b3bbfc7be04c48e3f,6691931c2c63981b064e1f0c,6691ba736d14fd83c2a18ea2,,,,,,,,,,,,,,,,,,,,,,,,,,,,,,,,,,,,,,,,,,,,,,,,,,,,,,,,,,,,1550.484,1561.4068,0.02008028,-0.093181879,1,0,0,4.9143,compass,0,34,34,33,1,SoundStimuli/StandByMe_BenEKing_Original5S.wav,,,,,,,,,,,,,,,,,,,,,,,,,,,,,,,,,,,,,,,,,,,,,,,,,,,,,
,,,,,621264,001,2024-07-12_18h22.06.292,experiment,2024.1.5,Linux x86_64,59.88023952,65cafb5b3bbfc7be04c48e3f,6691931c2c63981b064e1f0c,6691ba736d14fd83c2a18ea2,,,,,,,,,,,,,,,,,,,,,,,,,,,,,,,,,,,,,,,,,,,,,,,,,,,,,,,,,,,,,,,,,,,,,,,,,,,1561.4217,1561.422,,,,1561.422,1561.4221,,,,0,3,3,3,1,block_order/blockC.xlsx,,,,,,,,,,,,,,,,,,,,,,,,,,,,,,,,,,,,,
,,,,,621264,001,2024-07-12_18h22.06.292,experiment,2024.1.5,Linux x86_64,59.88023952,65cafb5b3bbfc7be04c48e3f,6691931c2c63981b064e1f0c,6691ba736d14fd83c2a18ea2,,,,,,,,,,,,,,,,,,,,,,,,,,,,,,,,,,,,,,,,,,,,,,,,,,,,,,,,,,,,,,,,,,,,,,,,,,,,,,,,,,,,,,,,,,,36,Item 2,not a musician,Item 4,Spotify,5,4,"driving, exercising, work, sleep, reading, housework",Never,Sometimes,Never,Rarely,Often,Never,Never,Always,Often,Rarely,Never,Sometimes,Sometimes,Rarely,Often,Often,none,R & B,Hip Hop,Pop,I've shifted to more R&B styles of music mostly instead of Hip hop,none,0,0,0,0,1,,
,,,,,621264,001,2024-07-12_18h22.06.292,experiment,2024.1.5,Linux x86_64,59.88023952,65cafb5b3bbfc7be04c48e3f,6691931c2c63981b064e1f0c,6691ba736d14fd83c2a18ea2,,,,,,,,,,,,,,,,,,,,,,,,,,,,,,,,,,,,,,,,,,,,,,,,,,,,,,,,,,,,,,,,,,,,,,,,,,,,,,,,,,,,,,,,,,,,,,,,,,,,,,,,,,,,,,,,,,,,,,,,,,,,,,1764.6345,1766.9179
