welcome.started,welcome.stopped,space_to_continue.keys,space_to_continue.rt,space_to_continue.duration,participant,session,date,expName,psychopyVersion,OS,frameRate,PROLIFIC_PID,STUDY_ID,SESSION_ID,consent.consent,consent.consent_recontact,consent_check.started,consent_check.stopped,calibration_ready.started,calibration_ready.stopped,cal_ready.keys,cal_ready.rt,cal_ready.duration,calibration.started,calibration.stopped,mouse.x,mouse.y,mouse.leftButton,mouse.midButton,mouse.rightButton,mouse.time,mouse.clicked_name,move_on.keys,move_on.rt,move_on.duration,run_cal.thisRepN,run_cal.thisTrialN,run_cal.thisN,run_cal.thisIndex,run_cal.ran,emotion_training_ready.started,emotion_training_ready.stopped,training_move_on.keys,training_move_on.rt,training_move_on.duration,examples.started,examples.stopped,emotion_scale.started,emotion_scale.stopped,scale_next.keys,scale_next.rt,scale_next.duration,instructions.started,instructions.stopped,next.keys,next.rt,next.duration,practice_task.started,practice_task.stopped,mouse_rating_2.x,mouse_rating_2.y,mouse_rating_2.leftButton,mouse_rating_2.midButton,mouse_rating_2.rightButton,mouse_rating_2.time,mouse_rating_2.clicked_name,ready.started,ready.stopped,key_resp.keys,key_resp.rt,key_resp.duration,set_group.started,set_group.stopped,task.started,task.stopped,mouse_rating.x,mouse_rating.y,mouse_rating.leftButton,mouse_rating.midButton,mouse_rating.rightButton,mouse_rating.time,mouse_rating.clicked_name,trials.thisRepN,trials.thisTrialN,trials.thisN,trials.thisIndex,trials.ran,clip,short_break.started,short_break.stopped,space_to_move_on.keys,space_to_move_on.rt,space_to_move_on.duration,instruction_reminder.started,instruction_reminder.stopped,reminder_move_on.keys,reminder_move_on.rt,reminder_move_on.duration,blocks.thisRepN,blocks.thisTrialN,blocks.thisN,blocks.thisIndex,blocks.ran,block,post_survey.age,post_survey.musician,post_survey.music_making,post_survey.listen_time,post_survey.medium,post_survey.music_seeking,post_survey.music_choice,post_survey.activities,post_survey.question1.R&B,post_survey.question1.Pop,post_survey.question1.Hip hop,post_survey.question1.Classic rock,post_survey.question1.Latin,post_survey.question1.Folk/indie,post_survey.question1.Metal,post_survey.question1.Reggae,post_survey.question1.Classical,post_survey.question1.Electronic (EDM),post_survey.question1.Disco,post_survey.question1.Country,post_survey.question1.Jazz,post_survey.question1.Ambient,post_survey.question1.Alternative rock,post_survey.question1.A cappella,post_survey.genres_ranked.text1,post_survey.genres_ranked.text2,post_survey.genres_ranked.text3,post_survey.habit_change,show_exp.thisRepN,show_exp.thisTrialN,show_exp.thisN,show_exp.thisIndex,show_exp.ran,goodbye.started,goodbye.stopped
0.001,3.7091,space,3.0801,0.0006,673889,001,2024-07-12_18h08.21.945,experiment,2024.1.5,MacIntel,3.52858151,5b967e547840dc0001e3392f,6691931c2c63981b064e1f0c,6691b71f36bed8eb2b8fdb44,,,,,,,,,,,,,,,,,,,,,,,,,,,,,,,,,,,,,,,,,,,,,,,,,,,,,,,,,,,,,,,,,,,,,,,,,,,,,,,,,,,,,,,,,,,,,,,,,,,,,,,,,,,,,,,,,,,,,,,,,,,,,
,,,,,673889,001,2024-07-12_18h08.21.945,experiment,2024.1.5,MacIntel,3.52858151,5b967e547840dc0001e3392f,6691931c2c63981b064e1f0c,6691b71f36bed8eb2b8fdb44,yes,yes,,,,,,,,,,,,,,,,,,,,,,,,,,,,,,,,,,,,,,,,,,,,,,,,,,,,,,,,,,,,,,,,,,,,,,,,,,,,,,,,,,,,,,,,,,,,,,,,,,,,,,,,,,,,,,,,,,,,,,,,,,,
,,,,,673889,001,2024-07-12_18h08.21.945,experiment,2024.1.5,MacIntel,3.52858151,5b967e547840dc0001e3392f,6691931c2c63981b064e1f0c,6691b71f36bed8eb2b8fdb44,,,168.0543,168.0545,,,,,,,,,,,,,,,,,,,,,,,,,,,,,,,,,,,,,,,,,,,,,,,,,,,,,,,,,,,,,,,,,,,,,,,,,,,,,,,,,,,,,,,,,,,,,,,,,,,,,,,,,,,,,,,,,,,,,,,,,
,,,,,673889,001,2024-07-12_18h08.21.945,experiment,2024.1.5,MacIntel,3.52858151,5b967e547840dc0001e3392f,6691931c2c63981b064e1f0c,6691b71f36bed8eb2b8fdb44,,,,,168.0559,172.7066,space,4.3603,0.0003,172.7155,381.139,"[-0.008617706298828125,-0.007992706298828124,-0.02408943176269531]","[-0.4178811645507812,-0.4178811645507812,-0.4020039367675781]","[1,1,1]","[0,0,0]","[0,0,0]","[55.14460000014304,183.48710000014302,190.22529999995226]","[""play_button"",""play_button""]",n,206.9267,0.0003,0,0,0,0,1,,,,,,,,,,,,,,,,,,,,,,,,,,,,,,,,,,,,,,,,,,,,,,,,,,,,,,,,,,,,,,,,,,,,,,,,,,,,,,,,,,,,,,,,,,,,,,,,,,,
,,,,,673889,001,2024-07-12_18h08.21.945,experiment,2024.1.5,MacIntel,3.52858151,5b967e547840dc0001e3392f,6691931c2c63981b064e1f0c,6691b71f36bed8eb2b8fdb44,,,,,,,,,,381.1476,406.8866,[-0.02114837646484375],[-0.41161346435546875],[1],[0],[0],[18.63890000009542],[],y,24.247,,1,0,1,0,1,,,,,,,,,,,,,,,,,,,,,,,,,,,,,,,,,,,,,,,,,,,,,,,,,,,,,,,,,,,,,,,,,,,,,,,,,,,,,,,,,,,,,,,,,,,,,,,,,,,
,,,,,673889,001,2024-07-12_18h08.21.945,experiment,2024.1.5,MacIntel,3.52858151,5b967e547840dc0001e3392f,6691931c2c63981b064e1f0c,6691b71f36bed8eb2b8fdb44,,,,,,,,,,,,,,,,,,,,,,,,,,,406.8873,422.0259,space,14.7255,0.0001,422.026,542.0332,542.0335,554.9212,right,8.9558,0.0002,554.9213,562.6305,space,7.3564,,562.6306,588.3181,0.158018875,-0.186034393,1,0,0,19.68,compass_2,588.3183,591.1301,space,2.4232,9.99999E-05,591.1302,591.139,591.1637,605.7897,0.318746185,0.312401714,1,0,0,8.3335,compass,0,0,0,22,1,SoundStimuli/Happy_PharellWilliams_Original5S.wav,,,,,,,,,,,,,,,,,,,,,,,,,,,,,,,,,,,,,,,,,,,,,,,,,,,
,,,,,673889,001,2024-07-12_18h08.21.945,experiment,2024.1.5,MacIntel,3.52858151,5b967e547840dc0001e3392f,6691931c2c63981b064e1f0c,6691b71f36bed8eb2b8fdb44,,,,,,,,,,,,,,,,,,,,,,,,,,,,,,,,,,,,,,,,,,,,,,,,,,,,,,,,,,,,605.7987,615.5422,-0.211605988,-0.224885559,1,0,0,3.4669,compass,0,1,1,21,1,SoundStimuli/BridgeOverTroubledWater_SimonAndGarfunkel_Original5S.wav,,,,,,,,,,,,,,,,,,,,,,,,,,,,,,,,,,,,,,,,,,,,,,,,,,,
,,,,,673889,001,2024-07-12_18h08.21.945,experiment,2024.1.5,MacIntel,3.52858151,5b967e547840dc0001e3392f,6691931c2c63981b064e1f0c,6691b71f36bed8eb2b8fdb44,,,,,,,,,,,,,,,,,,,,,,,,,,,,,,,,,,,,,,,,,,,,,,,,,,,,,,,,,,,,615.5517,628.608,0.214279404,0.169072189,1,0,0,6.9378,compass,0,2,2,28,1,SoundStimuli/IWantToHoldYourHand_TheBeatles_Original5S.wav,,,,,,,,,,,,,,,,,,,,,,,,,,,,,,,,,,,,,,,,,,,,,,,,,,,
,,,,,673889,001,2024-07-12_18h08.21.945,experiment,2024.1.5,MacIntel,3.52858151,5b967e547840dc0001e3392f,6691931c2c63981b064e1f0c,6691b71f36bed8eb2b8fdb44,,,,,,,,,,,,,,,,,,,,,,,,,,,,,,,,,,,,,,,,,,,,,,,,,,,,,,,,,,,,628.6187,654.1242,0.250214233,0.186811848,1,0,0,19.5016,compass,0,3,3,27,1,SoundStimuli/EyeOfTheTiger_Survivor_Cover5S.wav,,,,,,,,,,,,,,,,,,,,,,,,,,,,,,,,,,,,,,,,,,,,,,,,,,,
,,,,,673889,001,2024-07-12_18h08.21.945,experiment,2024.1.5,MacIntel,3.52858151,5b967e547840dc0001e3392f,6691931c2c63981b064e1f0c,6691b71f36bed8eb2b8fdb44,,,,,,,,,,,,,,,,,,,,,,,,,,,,,,,,,,,,,,,,,,,,,,,,,,,,,,,,,,,,654.1328,662.2871,0.270419769,0.121463509,1,0,0,1.9939,compass,0,4,4,1,1,SoundStimuli/Smooth_SantanaRobThomas_Original5S.wav,,,,,,,,,,,,,,,,,,,,,,,,,,,,,,,,,,,,,,,,,,,,,,,,,,,
,,,,,673889,001,2024-07-12_18h08.21.945,experiment,2024.1.5,MacIntel,3.52858151,5b967e547840dc0001e3392f,6691931c2c63981b064e1f0c,6691b71f36bed8eb2b8fdb44,,,,,,,,,,,,,,,,,,,,,,,,,,,,,,,,,,,,,,,,,,,,,,,,,,,,,,,,,,,,662.2971,677.21,0.201182709,-0.213194809,1,0,0,8.5824,compass,0,5,5,19,1,SoundStimuli/YouLightUpMyLife_DebbyBoone_Original5S.wav,,,,,,,,,,,,,,,,,,,,,,,,,,,,,,,,,,,,,,,,,,,,,,,,,,,
,,,,,673889,001,2024-07-12_18h08.21.945,experiment,2024.1.5,MacIntel,3.52858151,5b967e547840dc0001e3392f,6691931c2c63981b064e1f0c,6691b71f36bed8eb2b8fdb44,,,,,,,,,,,,,,,,,,,,,,,,,,,,,,,,,,,,,,,,,,,,,,,,,,,,,,,,,,,,677.2183,688.4051,0.196308517,0.122425232,1,0,0,4.8992,compass,0,6,6,20,1,SoundStimuli/FlashdanceWhatAFeeling_IreneCara_Original5S.wav,,,,,,,,,,,,,,,,,,,,,,,,,,,,,,,,,,,,,,,,,,,,,,,,,,,
,,,,,673889,001,2024-07-12_18h08.21.945,experiment,2024.1.5,MacIntel,3.52858151,5b967e547840dc0001e3392f,6691931c2c63981b064e1f0c,6691b71f36bed8eb2b8fdb44,,,,,,,,,,,,,,,,,,,,,,,,,,,,,,,,,,,,,,,,,,,,,,,,,,,,,,,,,,,,688.4156,695.9177,0.327095032,0.327019768,1,0,0,1.4796,compass,0,7,7,3,1,SoundStimuli/PartyRockAnthem_LMFAO_Original5S.wav,,,,,,,,,,,,,,,,,,,,,,,,,,,,,,,,,,,,,,,,,,,,,,,,,,,
,,,,,673889,001,2024-07-12_18h08.21.945,experiment,2024.1.5,MacIntel,3.52858151,5b967e547840dc0001e3392f,6691931c2c63981b064e1f0c,6691b71f36bed8eb2b8fdb44,,,,,,,,,,,,,,,,,,,,,,,,,,,,,,,,,,,,,,,,,,,,,,,,,,,,,,,,,,,,695.9265,707.1395,0.255091095,-0.24164238,1,0,0,5.1397,compass,0,8,8,13,1,SoundStimuli/Perfect_EdSheeran_Cover5S.wav,,,,,,,,,,,,,,,,,,,,,,,,,,,,,,,,,,,,,,,,,,,,,,,,,,,
,,,,,673889,001,2024-07-12_18h08.21.945,experiment,2024.1.5,MacIntel,3.52858151,5b967e547840dc0001e3392f,6691931c2c63981b064e1f0c,6691b71f36bed8eb2b8fdb44,,,,,,,,,,,,,,,,,,,,,,,,,,,,,,,,,,,,,,,,,,,,,,,,,,,,,,,,,,,,707.1484,724.6953,-0.127433777,-0.041740265,1,0,0,11.1109,compass,0,9,9,33,1,SoundStimuli/TheBoyIsMine_BrandyMonica_Original5S.wav,,,,,,,,,,,,,,,,,,,,,,,,,,,,,,,,,,,,,,,,,,,,,,,,,,,
,,,,,673889,001,2024-07-12_18h08.21.945,experiment,2024.1.5,MacIntel,3.52858151,5b967e547840dc0001e3392f,6691931c2c63981b064e1f0c,6691b71f36bed8eb2b8fdb44,,,,,,,,,,,,,,,,,,,,,,,,,,,,,,,,,,,,,,,,,,,,,,,,,,,,,,,,,,,,724.7042,734.5375,0.171698837,-0.17584053,1,0,0,3.7929,compass,0,10,10,25,1,SoundStimuli/IllMakeLoveToYou_BoyzIIMen_Cover5S.wav,,,,,,,,,,,,,,,,,,,,,,,,,,,,,,,,,,,,,,,,,,,,,,,,,,,
,,,,,673889,001,2024-07-12_18h08.21.945,experiment,2024.1.5,MacIntel,3.52858151,5b967e547840dc0001e3392f,6691931c2c63981b064e1f0c,6691b71f36bed8eb2b8fdb44,,,,,,,,,,,,,,,,,,,,,,,,,,,,,,,,,,,,,,,,,,,,,,,,,,,,,,,,,,,,734.5467,742.1333,0.216169434,0.223470287,1,0,0,1.2751,compass,0,11,11,17,1,SoundStimuli/IWannaDanceWithSomebody_WhitneyHouston_Original5S.wav,,,,,,,,,,,,,,,,,,,,,,,,,,,,,,,,,,,,,,,,,,,,,,,,,,,
,,,,,673889,001,2024-07-12_18h08.21.945,experiment,2024.1.5,MacIntel,3.52858151,5b967e547840dc0001e3392f,6691931c2c63981b064e1f0c,6691b71f36bed8eb2b8fdb44,,,,,,,,,,,,,,,,,,,,,,,,,,,,,,,,,,,,,,,,,,,,,,,,,,,,,,,,,,,,742.1421,766.7461,-0.085497513,-0.163073883,1,0,0,18.4204,compass,0,12,12,15,1,SoundStimuli/CrazyInLove_BeyonceFtJayZ_Cover5S.wav,,,,,,,,,,,,,,,,,,,,,,,,,,,,,,,,,,,,,,,,,,,,,,,,,,,
,,,,,673889,001,2024-07-12_18h08.21.945,experiment,2024.1.5,MacIntel,3.52858151,5b967e547840dc0001e3392f,6691931c2c63981b064e1f0c,6691b71f36bed8eb2b8fdb44,,,,,,,,,,,,,,,,,,,,,,,,,,,,,,,,,,,,,,,,,,,,,,,,,,,,,,,,,,,,766.7552,773.3076,0.17880394,0.281477127,1,0,0,0.4409,compass,0,13,13,26,1,SoundStimuli/TheSign_AceOfBase_Cover5S.wav,,,,,,,,,,,,,,,,,,,,,,,,,,,,,,,,,,,,,,,,,,,,,,,,,,,
,,,,,673889,001,2024-07-12_18h08.21.945,experiment,2024.1.5,MacIntel,3.52858151,5b967e547840dc0001e3392f,6691931c2c63981b064e1f0c,6691b71f36bed8eb2b8fdb44,,,,,,,,,,,,,,,,,,,,,,,,,,,,,,,,,,,,,,,,,,,,,,,,,,,,,,,,,,,,773.3169,781.2137,-0.023344727,-0.193978653,1,0,0,1.6295,compass,0,14,14,16,1,SoundStimuli/ItsAllInTheGame_TommyEdwards_Cover5S.wav,,,,,,,,,,,,,,,,,,,,,,,,,,,,,,,,,,,,,,,,,,,,,,,,,,,
,,,,,673889,001,2024-07-12_18h08.21.945,experiment,2024.1.5,MacIntel,3.52858151,5b967e547840dc0001e3392f,6691931c2c63981b064e1f0c,6691b71f36bed8eb2b8fdb44,,,,,,,,,,,,,,,,,,,,,,,,,,,,,,,,,,,,,,,,,,,,,,,,,,,,,,,,,,,,781.2222,790.6583,0.047383347,0.177676964,1,0,0,3.3179,compass,0,15,15,10,1,SoundStimuli/LeFreak_Chic_Cover5S.wav,,,,,,,,,,,,,,,,,,,,,,,,,,,,,,,,,,,,,,,,,,,,,,,,,,,
,,,,,673889,001,2024-07-12_18h08.21.945,experiment,2024.1.5,MacIntel,3.52858151,5b967e547840dc0001e3392f,6691931c2c63981b064e1f0c,6691b71f36bed8eb2b8fdb44,,,,,,,,,,,,,,,,,,,,,,,,,,,,,,,,,,,,,,,,,,,,,,,,,,,,,,,,,,,,790.6675,800.5445,-0.178188744,-0.015940208,1,0,0,3.8162,compass,0,16,16,9,1,SoundStimuli/HowDoILive_LeAnnRimes_Cover5S.wav,,,,,,,,,,,,,,,,,,,,,,,,,,,,,,,,,,,,,,,,,,,,,,,,,,,
,,,,,673889,001,2024-07-12_18h08.21.945,experiment,2024.1.5,MacIntel,3.52858151,5b967e547840dc0001e3392f,6691931c2c63981b064e1f0c,6691b71f36bed8eb2b8fdb44,,,,,,,,,,,,,,,,,,,,,,,,,,,,,,,,,,,,,,,,,,,,,,,,,,,,,,,,,,,,800.5532,814.0185,-0.142031708,-0.027308464,1,0,0,7.0512,compass,0,17,17,8,1,SoundStimuli/EndlessLove_DianaRossLionelRichie_Cover5S.wav,,,,,,,,,,,,,,,,,,,,,,,,,,,,,,,,,,,,,,,,,,,,,,,,,,,
,,,,,673889,001,2024-07-12_18h08.21.945,experiment,2024.1.5,MacIntel,3.52858151,5b967e547840dc0001e3392f,6691931c2c63981b064e1f0c,6691b71f36bed8eb2b8fdb44,,,,,,,,,,,,,,,,,,,,,,,,,,,,,,,,,,,,,,,,,,,,,,,,,,,,,,,,,,,,814.0274,832.1354,-0.119098587,-0.04278759,1,0,0,11.9493,compass,0,18,18,34,1,SoundStimuli/Irreplaceable_Beyonce_Cover5S.wav,,,,,,,,,,,,,,,,,,,,,,,,,,,,,,,,,,,,,,,,,,,,,,,,,,,
,,,,,673889,001,2024-07-12_18h08.21.945,experiment,2024.1.5,MacIntel,3.52858151,5b967e547840dc0001e3392f,6691931c2c63981b064e1f0c,6691b71f36bed8eb2b8fdb44,,,,,,,,,,,,,,,,,,,,,,,,,,,,,,,,,,,,,,,,,,,,,,,,,,,,,,,,,,,,832.1441,846.5222,0.069350433,-0.063998451,1,0,0,8.0577,compass,0,19,19,5,1,SoundStimuli/JoyToTheWorld_ThreeDogNight_Original5S.wav,,,,,,,,,,,,,,,,,,,,,,,,,,,,,,,,,,,,,,,,,,,,,,,,,,,
,,,,,673889,001,2024-07-12_18h08.21.945,experiment,2024.1.5,MacIntel,3.52858151,5b967e547840dc0001e3392f,6691931c2c63981b064e1f0c,6691b71f36bed8eb2b8fdb44,,,,,,,,,,,,,,,,,,,,,,,,,,,,,,,,,,,,,,,,,,,,,,,,,,,,,,,,,,,,846.5309,854.2584,0.073648605,-0.061079102,1,0,0,1.7093,compass,0,20,20,29,1,SoundStimuli/BetteDavisEyes_KimCarnes_Original5S.wav,,,,,,,,,,,,,,,,,,,,,,,,,,,,,,,,,,,,,,,,,,,,,,,,,,,
,,,,,673889,001,2024-07-12_18h08.21.945,experiment,2024.1.5,MacIntel,3.52858151,5b967e547840dc0001e3392f,6691931c2c63981b064e1f0c,6691b71f36bed8eb2b8fdb44,,,,,,,,,,,,,,,,,,,,,,,,,,,,,,,,,,,,,,,,,,,,,,,,,,,,,,,,,,,,854.2684,861.9414,-0.169616318,0.129269753,1,0,0,1.6444,compass,0,21,21,31,1,SoundStimuli/TossinAndTurnin_BobbyLewis_Original5S.wav,,,,,,,,,,,,,,,,,,,,,,,,,,,,,,,,,,,,,,,,,,,,,,,,,,,
,,,,,673889,001,2024-07-12_18h08.21.945,experiment,2024.1.5,MacIntel,3.52858151,5b967e547840dc0001e3392f,6691931c2c63981b064e1f0c,6691b71f36bed8eb2b8fdb44,,,,,,,,,,,,,,,,,,,,,,,,,,,,,,,,,,,,,,,,,,,,,,,,,,,,,,,,,,,,861.9503,872.0318,-0.155510178,-0.068204536,1,0,0,3.7738,compass,0,22,22,6,1,SoundStimuli/SaveYourTears_TheWeekndArianaGrande_Cover5S.wav,,,,,,,,,,,,,,,,,,,,,,,,,,,,,,,,,,,,,,,,,,,,,,,,,,,
,,,,,673889,001,2024-07-12_18h08.21.945,experiment,2024.1.5,MacIntel,3.52858151,5b967e547840dc0001e3392f,6691931c2c63981b064e1f0c,6691b71f36bed8eb2b8fdb44,,,,,,,,,,,,,,,,,,,,,,,,,,,,,,,,,,,,,,,,,,,,,,,,,,,,,,,,,,,,872.0437,879.1366,-0.161135178,-0.05783493,1,0,0,0.754,compass,0,23,23,18,1,SoundStimuli/Weak_SWV_Cover5S.wav,,,,,,,,,,,,,,,,,,,,,,,,,,,,,,,,,,,,,,,,,,,,,,,,,,,
,,,,,673889,001,2024-07-12_18h08.21.945,experiment,2024.1.5,MacIntel,3.52858151,5b967e547840dc0001e3392f,6691931c2c63981b064e1f0c,6691b71f36bed8eb2b8fdb44,,,,,,,,,,,,,,,,,,,,,,,,,,,,,,,,,,,,,,,,,,,,,,,,,,,,,,,,,,,,879.146,885.6824,-0.161135178,-0.05783493,1,0,0,0.4017,compass,0,24,24,12,1,SoundStimuli/UnbreakMyHeart_ToniBraxton_Original5S.wav,,,,,,,,,,,,,,,,,,,,,,,,,,,,,,,,,,,,,,,,,,,,,,,,,,,
,,,,,673889,001,2024-07-12_18h08.21.945,experiment,2024.1.5,MacIntel,3.52858151,5b967e547840dc0001e3392f,6691931c2c63981b064e1f0c,6691b71f36bed8eb2b8fdb44,,,,,,,,,,,,,,,,,,,,,,,,,,,,,,,,,,,,,,,,,,,,,,,,,,,,,,,,,,,,885.6913,895.6638,0.07815506,-0.031595192,1,0,0,3.8745,compass,0,25,25,14,1,SoundStimuli/LikeARollingStone_BobDylan_Original5S.wav,,,,,,,,,,,,,,,,,,,,,,,,,,,,,,,,,,,,,,,,,,,,,,,,,,,
,,,,,673889,001,2024-07-12_18h08.21.945,experiment,2024.1.5,MacIntel,3.52858151,5b967e547840dc0001e3392f,6691931c2c63981b064e1f0c,6691b71f36bed8eb2b8fdb44,,,,,,,,,,,,,,,,,,,,,,,,,,,,,,,,,,,,,,,,,,,,,,,,,,,,,,,,,,,,895.6732,910.8188,-0.214554062,0.023635368,1,0,0,8.793,compass,0,26,26,30,1,SoundStimuli/SomebodyThatIUsedtoKnow_Gotye_Original5S.wav,,,,,,,,,,,,,,,,,,,,,,,,,,,,,,,,,,,,,,,,,,,,,,,,,,,
,,,,,673889,001,2024-07-12_18h08.21.945,experiment,2024.1.5,MacIntel,3.52858151,5b967e547840dc0001e3392f,6691931c2c63981b064e1f0c,6691b71f36bed8eb2b8fdb44,,,,,,,,,,,,,,,,,,,,,,,,,,,,,,,,,,,,,,,,,,,,,,,,,,,,,,,,,,,,910.8289,918.4845,0.035744934,-0.147690735,1,0,0,1.319,compass,0,27,27,23,1,SoundStimuli/IWalkTheLine_JohnnyCash_Original5S.wav,,,,,,,,,,,,,,,,,,,,,,,,,,,,,,,,,,,,,,,,,,,,,,,,,,,
,,,,,673889,001,2024-07-12_18h08.21.945,experiment,2024.1.5,MacIntel,3.52858151,5b967e547840dc0001e3392f,6691931c2c63981b064e1f0c,6691b71f36bed8eb2b8fdb44,,,,,,,,,,,,,,,,,,,,,,,,,,,,,,,,,,,,,,,,,,,,,,,,,,,,,,,,,,,,918.4931,933.7619,0.084198761,0.040673027,1,0,0,8.8611,compass,0,28,28,2,1,SoundStimuli/SmellsLikeTeenSpirit_Nirvana_Original5S.wav,,,,,,,,,,,,,,,,,,,,,,,,,,,,,,,,,,,,,,,,,,,,,,,,,,,
,,,,,673889,001,2024-07-12_18h08.21.945,experiment,2024.1.5,MacIntel,3.52858151,5b967e547840dc0001e3392f,6691931c2c63981b064e1f0c,6691b71f36bed8eb2b8fdb44,,,,,,,,,,,,,,,,,,,,,,,,,,,,,,,,,,,,,,,,,,,,,,,,,,,,,,,,,,,,933.7711,941.2657,0.164842453,-0.123620338,1,0,0,1.2494,compass,0,29,29,32,1,SoundStimuli/Dilemma_NellyKellyRowland_Cover5S.wav,,,,,,,,,,,,,,,,,,,,,,,,,,,,,,,,,,,,,,,,,,,,,,,,,,,
,,,,,673889,001,2024-07-12_18h08.21.945,experiment,2024.1.5,MacIntel,3.52858151,5b967e547840dc0001e3392f,6691931c2c63981b064e1f0c,6691b71f36bed8eb2b8fdb44,,,,,,,,,,,,,,,,,,,,,,,,,,,,,,,,,,,,,,,,,,,,,,,,,,,,,,,,,,,,941.2762,951.3683,-0.180074883,0.074358139,1,0,0,3.7401,compass,0,30,30,7,1,SoundStimuli/MackTheKnife_BobbyDarin_Cover5S.wav,,,,,,,,,,,,,,,,,,,,,,,,,,,,,,,,,,,,,,,,,,,,,,,,,,,
,,,,,673889,001,2024-07-12_18h08.21.945,experiment,2024.1.5,MacIntel,3.52858151,5b967e547840dc0001e3392f,6691931c2c63981b064e1f0c,6691b71f36bed8eb2b8fdb44,,,,,,,,,,,,,,,,,,,,,,,,,,,,,,,,,,,,,,,,,,,,,,,,,,,,,,,,,,,,951.3769,964.8034,-0.136520996,0.049733925,1,0,0,7.0448,compass,0,31,31,0,1,SoundStimuli/GimmeShelter_RollingStones_Original5S.wav,,,,,,,,,,,,,,,,,,,,,,,,,,,,,,,,,,,,,,,,,,,,,,,,,,,
,,,,,673889,001,2024-07-12_18h08.21.945,experiment,2024.1.5,MacIntel,3.52858151,5b967e547840dc0001e3392f,6691931c2c63981b064e1f0c,6691b71f36bed8eb2b8fdb44,,,,,,,,,,,,,,,,,,,,,,,,,,,,,,,,,,,,,,,,,,,,,,,,,,,,,,,,,,,,964.8131,973.5178,-0.038888702,-0.147942352,1,0,0,2.669,compass,0,32,32,4,1,SoundStimuli/Dreams_FleetwoodMac_Original5S.wav,,,,,,,,,,,,,,,,,,,,,,,,,,,,,,,,,,,,,,,,,,,,,,,,,,,
,,,,,673889,001,2024-07-12_18h08.21.945,experiment,2024.1.5,MacIntel,3.52858151,5b967e547840dc0001e3392f,6691931c2c63981b064e1f0c,6691b71f36bed8eb2b8fdb44,,,,,,,,,,,,,,,,,,,,,,,,,,,,,,,,,,,,,,,,,,,,,,,,,,,,,,,,,,,,973.527,985.7343,-0.048338623,-0.187014313,1,0,0,6.1476,compass,0,33,33,24,1,SoundStimuli/Kiss_Prince_Cover5S.wav,,,,,,,,,,,,,,,,,,,,,,,,,,,,,,,,,,,,,,,,,,,,,,,,,,,
,,,,,673889,001,2024-07-12_18h08.21.945,experiment,2024.1.5,MacIntel,3.52858151,5b967e547840dc0001e3392f,6691931c2c63981b064e1f0c,6691b71f36bed8eb2b8fdb44,,,,,,,,,,,,,,,,,,,,,,,,,,,,,,,,,,,,,,,,,,,,,,,,,,,,,,,,,,,,985.7434,997.7876,0.12824028,0.074694061,1,0,0,5.7137,compass,0,34,34,11,1,SoundStimuli/BlurredLines_RobinThicke_Cover5S.wav,,,,,,,,,,,,,,,,,,,,,,,,,,,,,,,,,,,,,,,,,,,,,,,,,,,
,,,,,673889,001,2024-07-12_18h08.21.945,experiment,2024.1.5,MacIntel,3.52858151,5b967e547840dc0001e3392f,6691931c2c63981b064e1f0c,6691b71f36bed8eb2b8fdb44,,,,,,,,,,,,,,,,,,,,,,,,,,,,,,,,,,,,,,,,,,,,,,,,,,,,,,,,,,,,,,,,,,,,,,,,,,,997.7969,1000.724,space,2.5525,,1000.724,1006.0853,right,4.9937,0,0,0,0,0,1,block_order/blockD.xlsx,,,,,,,,,,,,,,,,,,,,,,,,,,,,,,,,,,,
,,,,,673889,001,2024-07-12_18h08.21.945,experiment,2024.1.5,MacIntel,3.52858151,5b967e547840dc0001e3392f,6691931c2c63981b064e1f0c,6691b71f36bed8eb2b8fdb44,,,,,,,,,,,,,,,,,,,,,,,,,,,,,,,,,,,,,,,,,,,,,,,,,,,,,,,,,,,,1006.1005,1012.7637,-0.098260803,-0.129616127,1,0,0,0.4295,compass,0,0,0,2,1,SoundStimuli/Mood_24kGoldnianndior_Cover5S.wav,,,,,,,,,,,,,,,,,,,,,,,,,,,,,,,,,,,,,,,,,,,,,,,,,,,
,,,,,673889,001,2024-07-12_18h08.21.945,experiment,2024.1.5,MacIntel,3.52858151,5b967e547840dc0001e3392f,6691931c2c63981b064e1f0c,6691b71f36bed8eb2b8fdb44,,,,,,,,,,,,,,,,,,,,,,,,,,,,,,,,,,,,,,,,,,,,,,,,,,,,,,,,,,,,1012.7727,1025.2605,0.115549774,0.029060211,1,0,0,6.1009,compass,0,1,1,9,1,SoundStimuli/Despacito_LuisFonsiDaddyYankee_Cover5S.wav,,,,,,,,,,,,,,,,,,,,,,,,,,,,,,,,,,,,,,,,,,,,,,,,,,,
,,,,,673889,001,2024-07-12_18h08.21.945,experiment,2024.1.5,MacIntel,3.52858151,5b967e547840dc0001e3392f,6691931c2c63981b064e1f0c,6691b71f36bed8eb2b8fdb44,,,,,,,,,,,,,,,,,,,,,,,,,,,,,,,,,,,,,,,,,,,,,,,,,,,,,,,,,,,,1025.2716,1033.8557,0.141530914,0.048462448,1,0,0,2.2695,compass,0,2,2,30,1,SoundStimuli/PokerFace_LadyGaga_Original5S.wav,,,,,,,,,,,,,,,,,,,,,,,,,,,,,,,,,,,,,,,,,,,,,,,,,,,
,,,,,673889,001,2024-07-12_18h08.21.945,experiment,2024.1.5,MacIntel,3.52858151,5b967e547840dc0001e3392f,6691931c2c63981b064e1f0c,6691b71f36bed8eb2b8fdb44,,,,,,,,,,,,,,,,,,,,,,,,,,,,,,,,,,,,,,,,,,,,,,,,,,,,,,,,,,,,1033.8645,1049.0065,0.001508179,0.001243057,1,0,0,8.8421,compass,0,3,3,31,1,SoundStimuli/TheBattleOfNewOrleans_JohnnyHorton_Cover5S.wav,,,,,,,,,,,,,,,,,,,,,,,,,,,,,,,,,,,,,,,,,,,,,,,,,,,
,,,,,673889,001,2024-07-12_18h08.21.945,experiment,2024.1.5,MacIntel,3.52858151,5b967e547840dc0001e3392f,6691931c2c63981b064e1f0c,6691b71f36bed8eb2b8fdb44,,,,,,,,,,,,,,,,,,,,,,,,,,,,,,,,,,,,,,,,,,,,,,,,,,,,,,,,,,,,1049.0148,1057.7851,0.213532333,-0.019687958,1,0,0,2.5691,compass,0,4,4,23,1,SoundStimuli/StrawberryFieldsForever_TheBeatles_Original5S.wav,,,,,,,,,,,,,,,,,,,,,,,,,,,,,,,,,,,,,,,,,,,,,,,,,,,
,,,,,673889,001,2024-07-12_18h08.21.945,experiment,2024.1.5,MacIntel,3.52858151,5b967e547840dc0001e3392f,6691931c2c63981b064e1f0c,6691b71f36bed8eb2b8fdb44,,,,,,,,,,,,,,,,,,,,,,,,,,,,,,,,,,,,,,,,,,,,,,,,,,,,,,,,,,,,1057.7937,1066.7619,-0.051989594,-0.138261528,1,0,0,2.7817,compass,0,5,5,11,1,SoundStimuli/Superstition_StevieWonder_Cover5S.wav,,,,,,,,,,,,,,,,,,,,,,,,,,,,,,,,,,,,,,,,,,,,,,,,,,,
,,,,,673889,001,2024-07-12_18h08.21.945,experiment,2024.1.5,MacIntel,3.52858151,5b967e547840dc0001e3392f,6691931c2c63981b064e1f0c,6691b71f36bed8eb2b8fdb44,,,,,,,,,,,,,,,,,,,,,,,,,,,,,,,,,,,,,,,,,,,,,,,,,,,,,,,,,,,,1066.7708,1077.1732,-0.052572708,-0.138261528,1,0,0,4.1738,compass,0,6,6,26,1,SoundStimuli/LivinOnAPrayer_BonJovi_Cover5S.wav,,,,,,,,,,,,,,,,,,,,,,,,,,,,,,,,,,,,,,,,,,,,,,,,,,,
,,,,,673889,001,2024-07-12_18h08.21.945,experiment,2024.1.5,MacIntel,3.52858151,5b967e547840dc0001e3392f,6691931c2c63981b064e1f0c,6691b71f36bed8eb2b8fdb44,,,,,,,,,,,,,,,,,,,,,,,,,,,,,,,,,,,,,,,,,,,,,,,,,,,,,,,,,,,,1077.1823,1088.1112,0.002855225,0.003858376,1,0,0,4.6235,compass,0,7,7,4,1,SoundStimuli/GetUrFreakOn_MissyElliot_Original5S.wav,,,,,,,,,,,,,,,,,,,,,,,,,,,,,,,,,,,,,,,,,,,,,,,,,,,
,,,,,673889,001,2024-07-12_18h08.21.945,experiment,2024.1.5,MacIntel,3.52858151,5b967e547840dc0001e3392f,6691931c2c63981b064e1f0c,6691b71f36bed8eb2b8fdb44,,,,,,,,,,,,,,,,,,,,,,,,,,,,,,,,,,,,,,,,,,,,,,,,,,,,,,,,,,,,1088.1208,1101.5133,0.001724014,-0.001373253,1,0,0,7.2139,compass,0,8,8,15,1,SoundStimuli/TikTok_Kesha_Cover5S.wav,,,,,,,,,,,,,,,,,,,,,,,,,,,,,,,,,,,,,,,,,,,,,,,,,,,
,,,,,673889,001,2024-07-12_18h08.21.945,experiment,2024.1.5,MacIntel,3.52858151,5b967e547840dc0001e3392f,6691931c2c63981b064e1f0c,6691b71f36bed8eb2b8fdb44,,,,,,,,,,,,,,,,,,,,,,,,,,,,,,,,,,,,,,,,,,,,,,,,,,,,,,,,,,,,1101.5222,1109.5472,0.034660492,-0.047744675,1,0,0,1.7797,compass,0,9,9,27,1,SoundStimuli/ShapeofYou_EdSheeran_Original5S.wav,,,,,,,,,,,,,,,,,,,,,,,,,,,,,,,,,,,,,,,,,,,,,,,,,,,
,,,,,673889,001,2024-07-12_18h08.21.945,experiment,2024.1.5,MacIntel,3.52858151,5b967e547840dc0001e3392f,6691931c2c63981b064e1f0c,6691b71f36bed8eb2b8fdb44,,,,,,,,,,,,,,,,,,,,,,,,,,,,,,,,,,,,,,,,,,,,,,,,,,,,,,,,,,,,1109.556,1117.8004,0.092808151,0.059531517,1,0,0,2.002,compass,0,10,10,12,1,SoundStimuli/IWillAlwaysLoveYou_WhitneyHouston_Cover5S.wav,,,,,,,,,,,,,,,,,,,,,,,,,,,,,,,,,,,,,,,,,,,,,,,,,,,
,,,,,673889,001,2024-07-12_18h08.21.945,experiment,2024.1.5,MacIntel,3.52858151,5b967e547840dc0001e3392f,6691931c2c63981b064e1f0c,6691b71f36bed8eb2b8fdb44,,,,,,,,,,,,,,,,,,,,,,,,,,,,,,,,,,,,,,,,,,,,,,,,,,,,,,,,,,,,1117.809,1125.335,-0.026889801,-0.061628685,1,0,0,1.4089,compass,0,11,11,29,1,SoundStimuli/OldTownRoad_LilNasX_Original5S.wav,,,,,,,,,,,,,,,,,,,,,,,,,,,,,,,,,,,,,,,,,,,,,,,,,,,
,,,,,673889,001,2024-07-12_18h08.21.945,experiment,2024.1.5,MacIntel,3.52858151,5b967e547840dc0001e3392f,6691931c2c63981b064e1f0c,6691b71f36bed8eb2b8fdb44,,,,,,,,,,,,,,,,,,,,,,,,,,,,,,,,,,,,,,,,,,,,,,,,,,,,,,,,,,,,1125.3437,1136.0775,-0.080537033,-0.02185955,1,0,0,4.6604,compass,0,12,12,13,1,SoundStimuli/GodOnlyKnows_TheBeachBoys_Cover5S.wav,,,,,,,,,,,,,,,,,,,,,,,,,,,,,,,,,,,,,,,,,,,,,,,,,,,
,,,,,673889,001,2024-07-12_18h08.21.945,experiment,2024.1.5,MacIntel,3.52858151,5b967e547840dc0001e3392f,6691931c2c63981b064e1f0c,6691b71f36bed8eb2b8fdb44,,,,,,,,,,,,,,,,,,,,,,,,,,,,,,,,,,,,,,,,,,,,,,,,,,,,,,,,,,,,1136.086,1143.2171,-0.0505159,-0.029930038,1,0,0,0.8357,compass,0,13,13,25,1,SoundStimuli/Respect_ArethaFranklin_Original5S.wav,,,,,,,,,,,,,,,,,,,,,,,,,,,,,,,,,,,,,,,,,,,,,,,,,,,
,,,,,673889,001,2024-07-12_18h08.21.945,experiment,2024.1.5,MacIntel,3.52858151,5b967e547840dc0001e3392f,6691931c2c63981b064e1f0c,6691b71f36bed8eb2b8fdb44,,,,,,,,,,,,,,,,,,,,,,,,,,,,,,,,,,,,,,,,,,,,,,,,,,,,,,,,,,,,1143.2258,1151.1789,0.073813095,0.050944901,1,0,0,1.9403,compass,0,14,14,32,1,SoundStimuli/HeatWaves_GlassAnimals_Original5S.wav,,,,,,,,,,,,,,,,,,,,,,,,,,,,,,,,,,,,,,,,,,,,,,,,,,,
,,,,,673889,001,2024-07-12_18h08.21.945,experiment,2024.1.5,MacIntel,3.52858151,5b967e547840dc0001e3392f,6691931c2c63981b064e1f0c,6691b71f36bed8eb2b8fdb44,,,,,,,,,,,,,,,,,,,,,,,,,,,,,,,,,,,,,,,,,,,,,,,,,,,,,,,,,,,,1151.1885,1160.0856,0.121809311,-0.061339493,1,0,0,2.8126,compass,0,15,15,0,1,SoundStimuli/StayinAlive_BeeGees_Original5S.wav,,,,,,,,,,,,,,,,,,,,,,,,,,,,,,,,,,,,,,,,,,,,,,,,,,,
,,,,,673889,001,2024-07-12_18h08.21.945,experiment,2024.1.5,MacIntel,3.52858151,5b967e547840dc0001e3392f,6691931c2c63981b064e1f0c,6691b71f36bed8eb2b8fdb44,,,,,,,,,,,,,,,,,,,,,,,,,,,,,,,,,,,,,,,,,,,,,,,,,,,,,,,,,,,,1160.0941,1175.0871,0.106580353,0.066158028,1,0,0,8.5926,compass,0,16,16,22,1,SoundStimuli/RockWithYou_MichaelJackson_Original5S.wav,,,,,,,,,,,,,,,,,,,,,,,,,,,,,,,,,,,,,,,,,,,,,,,,,,,
,,,,,673889,001,2024-07-12_18h08.21.945,experiment,2024.1.5,MacIntel,3.52858151,5b967e547840dc0001e3392f,6691931c2c63981b064e1f0c,6691b71f36bed8eb2b8fdb44,,,,,,,,,,,,,,,,,,,,,,,,,,,,,,,,,,,,,,,,,,,,,,,,,,,,,,,,,,,,1175.0966,1183.9991,0.108347244,0.059492455,1,0,0,2.519,compass,0,17,17,21,1,SoundStimuli/GoodGollyMissMolly_LittleRichard_Cover5S.wav,,,,,,,,,,,,,,,,,,,,,,,,,,,,,,,,,,,,,,,,,,,,,,,,,,,
,,,,,673889,001,2024-07-12_18h08.21.945,experiment,2024.1.5,MacIntel,3.52858151,5b967e547840dc0001e3392f,6691931c2c63981b064e1f0c,6691b71f36bed8eb2b8fdb44,,,,,,,,,,,,,,,,,,,,,,,,,,,,,,,,,,,,,,,,,,,,,,,,,,,,,,,,,,,,1184.0078,1191.3935,-0.000409546,-0.000521202,1,0,0,1.1406,compass,0,18,18,20,1,SoundStimuli/HeyYa_Outkast_Cover5S.wav,,,,,,,,,,,,,,,,,,,,,,,,,,,,,,,,,,,,,,,,,,,,,,,,,,,
,,,,,673889,001,2024-07-12_18h08.21.945,experiment,2024.1.5,MacIntel,3.52858151,5b967e547840dc0001e3392f,6691931c2c63981b064e1f0c,6691b71f36bed8eb2b8fdb44,,,,,,,,,,,,,,,,,,,,,,,,,,,,,,,,,,,,,,,,,,,,,,,,,,,,,,,,,,,,1191.4021,1208.3628,0.00144249,-0.001892319,1,0,0,10.7297,compass,0,19,19,6,1,SoundStimuli/Levitating_DuaLipa_Cover5S.wav,,,,,,,,,,,,,,,,,,,,,,,,,,,,,,,,,,,,,,,,,,,,,,,,,,,
,,,,,673889,001,2024-07-12_18h08.21.945,experiment,2024.1.5,MacIntel,3.52858151,5b967e547840dc0001e3392f,6691931c2c63981b064e1f0c,6691b71f36bed8eb2b8fdb44,,,,,,,,,,,,,,,,,,,,,,,,,,,,,,,,,,,,,,,,,,,,,,,,,,,,,,,,,,,,1208.3719,1217.3505,0.068200378,0.07048317,1,0,0,2.6936,compass,0,20,20,1,1,SoundStimuli/Stronger_KanyeWest_Original5S.wav,,,,,,,,,,,,,,,,,,,,,,,,,,,,,,,,,,,,,,,,,,,,,,,,,,,
,,,,,673889,001,2024-07-12_18h08.21.945,experiment,2024.1.5,MacIntel,3.52858151,5b967e547840dc0001e3392f,6691931c2c63981b064e1f0c,6691b71f36bed8eb2b8fdb44,,,,,,,,,,,,,,,,,,,,,,,,,,,,,,,,,,,,,,,,,,,,,,,,,,,,,,,,,,,,1217.3591,1241.0349,0.115315781,0.111238594,1,0,0,17.3086,compass,0,21,21,18,1,SoundStimuli/AnotherOneBitesTheDust_Queen_Original5S.wav,,,,,,,,,,,,,,,,,,,,,,,,,,,,,,,,,,,,,,,,,,,,,,,,,,,
,,,,,673889,001,2024-07-12_18h08.21.945,experiment,2024.1.5,MacIntel,3.52858151,5b967e547840dc0001e3392f,6691931c2c63981b064e1f0c,6691b71f36bed8eb2b8fdb44,,,,,,,,,,,,,,,,,,,,,,,,,,,,,,,,,,,,,,,,,,,,,,,,,,,,,,,,,,,,1241.0439,1247.521,-0.120600204,0.094925041,1,0,0,0.3923,compass,0,22,22,17,1,SoundStimuli/Fallin_AliciaKeys_Original5S.wav,,,,,,,,,,,,,,,,,,,,,,,,,,,,,,,,,,,,,,,,,,,,,,,,,,,
,,,,,673889,001,2024-07-12_18h08.21.945,experiment,2024.1.5,MacIntel,3.52858151,5b967e547840dc0001e3392f,6691931c2c63981b064e1f0c,6691b71f36bed8eb2b8fdb44,,,,,,,,,,,,,,,,,,,,,,,,,,,,,,,,,,,,,,,,,,,,,,,,,,,,,,,,,,,,1247.5295,1254.5994,-0.07223114,-0.094082985,1,0,0,0.8119,compass,0,23,23,5,1,SoundStimuli/MyGirl_TheTemptations_Original5S.wav,,,,,,,,,,,,,,,,,,,,,,,,,,,,,,,,,,,,,,,,,,,,,,,,,,,
,,,,,673889,001,2024-07-12_18h08.21.945,experiment,2024.1.5,MacIntel,3.52858151,5b967e547840dc0001e3392f,6691931c2c63981b064e1f0c,6691b71f36bed8eb2b8fdb44,,,,,,,,,,,,,,,,,,,,,,,,,,,,,,,,,,,,,,,,,,,,,,,,,,,,,,,,,,,,1254.6089,1266.5048,0.002028275,-0.000980682,1,0,0,5.556,compass,0,24,24,16,1,SoundStimuli/BohemianRhapsody_Queen_Original5S.wav,,,,,,,,,,,,,,,,,,,,,,,,,,,,,,,,,,,,,,,,,,,,,,,,,,,
,,,,,673889,001,2024-07-12_18h08.21.945,experiment,2024.1.5,MacIntel,3.52858151,5b967e547840dc0001e3392f,6691931c2c63981b064e1f0c,6691b71f36bed8eb2b8fdb44,,,,,,,,,,,,,,,,,,,,,,,,,,,,,,,,,,,,,,,,,,,,,,,,,,,,,,,,,,,,1266.5142,1277.3918,-0.043862686,-0.104149933,1,0,0,4.6865,compass,0,25,25,10,1,SoundStimuli/BadDay_DanielPowter_Cover5S.wav,,,,,,,,,,,,,,,,,,,,,,,,,,,,,,,,,,,,,,,,,,,,,,,,,,,
,,,,,673889,001,2024-07-12_18h08.21.945,experiment,2024.1.5,MacIntel,3.52858151,5b967e547840dc0001e3392f,6691931c2c63981b064e1f0c,6691b71f36bed8eb2b8fdb44,,,,,,,,,,,,,,,,,,,,,,,,,,,,,,,,,,,,,,,,,,,,,,,,,,,,,,,,,,,,1277.401,1286.1646,0.060720749,-0.10838974,1,0,0,2.3659,compass,0,26,26,19,1,SoundStimuli/LetsGetItOn_MarvinGaye_Cover5S.wav,,,,,,,,,,,,,,,,,,,,,,,,,,,,,,,,,,,,,,,,,,,,,,,,,,,
,,,,,673889,001,2024-07-12_18h08.21.945,experiment,2024.1.5,MacIntel,3.52858151,5b967e547840dc0001e3392f,6691931c2c63981b064e1f0c,6691b71f36bed8eb2b8fdb44,,,,,,,,,,,,,,,,,,,,,,,,,,,,,,,,,,,,,,,,,,,,,,,,,,,,,,,,,,,,1286.174,1294.1546,-0.000456543,-0.001613083,1,0,0,1.7239,compass,0,27,27,33,1,SoundStimuli/StandByMe_BenEKing_Cover5S.wav,,,,,,,,,,,,,,,,,,,,,,,,,,,,,,,,,,,,,,,,,,,,,,,,,,,
,,,,,673889,001,2024-07-12_18h08.21.945,experiment,2024.1.5,MacIntel,3.52858151,5b967e547840dc0001e3392f,6691931c2c63981b064e1f0c,6691b71f36bed8eb2b8fdb44,,,,,,,,,,,,,,,,,,,,,,,,,,,,,,,,,,,,,,,,,,,,,,,,,,,,,,,,,,,,1294.1631,1304.8721,0.045466766,-0.053776131,1,0,0,4.4206,compass,0,28,28,34,1,SoundStimuli/AChangeIsGonnaCome_SamCooke_Cover5S.wav,,,,,,,,,,,,,,,,,,,,,,,,,,,,,,,,,,,,,,,,,,,,,,,,,,,
,,,,,673889,001,2024-07-12_18h08.21.945,experiment,2024.1.5,MacIntel,3.52858151,5b967e547840dc0001e3392f,6691931c2c63981b064e1f0c,6691b71f36bed8eb2b8fdb44,,,,,,,,,,,,,,,,,,,,,,,,,,,,,,,,,,,,,,,,,,,,,,,,,,,,,,,,,,,,1304.8819,1317.7473,-0.126560059,-0.118563385,1,0,0,6.5241,compass,0,29,29,8,1,SoundStimuli/LikeAPrayer_Madonna_Original5S.wav,,,,,,,,,,,,,,,,,,,,,,,,,,,,,,,,,,,,,,,,,,,,,,,,,,,
,,,,,673889,001,2024-07-12_18h08.21.945,experiment,2024.1.5,MacIntel,3.52858151,5b967e547840dc0001e3392f,6691931c2c63981b064e1f0c,6691b71f36bed8eb2b8fdb44,,,,,,,,,,,,,,,,,,,,,,,,,,,,,,,,,,,,,,,,,,,,,,,,,,,,,,,,,,,,1317.7564,1326.8922,0.272675629,0.300072823,1,0,0,1.9603,compass,0,30,30,3,1,SoundStimuli/NoScrubs_TLC_Original5S.wav,,,,,,,,,,,,,,,,,,,,,,,,,,,,,,,,,,,,,,,,,,,,,,,,,,,
,,,,,673889,001,2024-07-12_18h08.21.945,experiment,2024.1.5,MacIntel,3.52858151,5b967e547840dc0001e3392f,6691931c2c63981b064e1f0c,6691b71f36bed8eb2b8fdb44,,,,,,,,,,,,,,,,,,,,,,,,,,,,,,,,,,,,,,,,,,,,,,,,,,,,,,,,,,,,1326.9015,1335.0337,-0.16590992,0.218780499,1,0,0,2.0055,compass,0,31,31,7,1,SoundStimuli/NoOne_AliciaKeys_Cover5S.wav,,,,,,,,,,,,,,,,,,,,,,,,,,,,,,,,,,,,,,,,,,,,,,,,,,,
,,,,,673889,001,2024-07-12_18h08.21.945,experiment,2024.1.5,MacIntel,3.52858151,5b967e547840dc0001e3392f,6691931c2c63981b064e1f0c,6691b71f36bed8eb2b8fdb44,,,,,,,,,,,,,,,,,,,,,,,,,,,,,,,,,,,,,,,,,,,,,,,,,,,,,,,,,,,,1335.0429,1341.7529,0.179830017,0.212983913,1,0,0,0.4558,compass,0,32,32,28,1,SoundStimuli/ComeAndGetYourLove_Redbone_Original5S.wav,,,,,,,,,,,,,,,,,,,,,,,,,,,,,,,,,,,,,,,,,,,,,,,,,,,
,,,,,673889,001,2024-07-12_18h08.21.945,experiment,2024.1.5,MacIntel,3.52858151,5b967e547840dc0001e3392f,6691931c2c63981b064e1f0c,6691b71f36bed8eb2b8fdb44,,,,,,,,,,,,,,,,,,,,,,,,,,,,,,,,,,,,,,,,,,,,,,,,,,,,,,,,,,,,1341.7614,1348.4917,-0.001056824,0.00396759,1,0,0,0.3683,compass,0,33,33,14,1,SoundStimuli/BlindingLights_TheWeeknd_Original5S.wav,,,,,,,,,,,,,,,,,,,,,,,,,,,,,,,,,,,,,,,,,,,,,,,,,,,
,,,,,673889,001,2024-07-12_18h08.21.945,experiment,2024.1.5,MacIntel,3.52858151,5b967e547840dc0001e3392f,6691931c2c63981b064e1f0c,6691b71f36bed8eb2b8fdb44,,,,,,,,,,,,,,,,,,,,,,,,,,,,,,,,,,,,,,,,,,,,,,,,,,,,,,,,,,,,1348.5005,1355.1839,0.26118866,0.259764748,1,0,0,0.3539,compass,0,34,34,24,1,SoundStimuli/UptownFunk_MarkRonson_Original5S.wav,,,,,,,,,,,,,,,,,,,,,,,,,,,,,,,,,,,,,,,,,,,,,,,,,,,
,,,,,673889,001,2024-07-12_18h08.21.945,experiment,2024.1.5,MacIntel,3.52858151,5b967e547840dc0001e3392f,6691931c2c63981b064e1f0c,6691b71f36bed8eb2b8fdb44,,,,,,,,,,,,,,,,,,,,,,,,,,,,,,,,,,,,,,,,,,,,,,,,,,,,,,,,,,,,,,,,,,,,,,,,,,,1355.184,1358.6219,space,3.0582,9.99999E-05,1358.6219,1361.1357,right,2.1744,,0,1,1,1,1,block_order/blockA.xlsx,,,,,,,,,,,,,,,,,,,,,,,,,,,,,,,,,,,
,,,,,673889,001,2024-07-12_18h08.21.945,experiment,2024.1.5,MacIntel,3.52858151,5b967e547840dc0001e3392f,6691931c2c63981b064e1f0c,6691b71f36bed8eb2b8fdb44,,,,,,,,,,,,,,,,,,,,,,,,,,,,,,,,,,,,,,,,,,,,,,,,,,,,,,,,,,,,1361.151,1368.269,0.158880005,0.123001137,1,0,0,0.7924,compass,0,0,0,14,1,SoundStimuli/LikeARollingStone_BobDylan_Cover5S.wav,,,,,,,,,,,,,,,,,,,,,,,,,,,,,,,,,,,,,,,,,,,,,,,,,,,
,,,,,673889,001,2024-07-12_18h08.21.945,experiment,2024.1.5,MacIntel,3.52858151,5b967e547840dc0001e3392f,6691931c2c63981b064e1f0c,6691b71f36bed8eb2b8fdb44,,,,,,,,,,,,,,,,,,,,,,,,,,,,,,,,,,,,,,,,,,,,,,,,,,,,,,,,,,,,1368.2784,1375.3249,-0.164170914,-0.144578171,1,0,0,0.7919,compass,0,1,1,4,1,SoundStimuli/Dreams_FleetwoodMac_Cover5S.wav,,,,,,,,,,,,,,,,,,,,,,,,,,,,,,,,,,,,,,,,,,,,,,,,,,,
,,,,,673889,001,2024-07-12_18h08.21.945,experiment,2024.1.5,MacIntel,3.52858151,5b967e547840dc0001e3392f,6691931c2c63981b064e1f0c,6691b71f36bed8eb2b8fdb44,,,,,,,,,,,,,,,,,,,,,,,,,,,,,,,,,,,,,,,,,,,,,,,,,,,,,,,,,,,,1375.3344,1382.6436,0.262177734,0.227357597,1,0,0,1.2288,compass,0,2,2,33,1,SoundStimuli/TheBoyIsMine_BrandyMonica_Cover5S.wav,,,,,,,,,,,,,,,,,,,,,,,,,,,,,,,,,,,,,,,,,,,,,,,,,,,
,,,,,673889,001,2024-07-12_18h08.21.945,experiment,2024.1.5,MacIntel,3.52858151,5b967e547840dc0001e3392f,6691931c2c63981b064e1f0c,6691b71f36bed8eb2b8fdb44,,,,,,,,,,,,,,,,,,,,,,,,,,,,,,,,,,,,,,,,,,,,,,,,,,,,,,,,,,,,1382.6523,1389.6262,0.18260437,0.284333763,1,0,0,0.7837,compass,0,3,3,23,1,SoundStimuli/IWalkTheLine_JohnnyCash_Cover5S.wav,,,,,,,,,,,,,,,,,,,,,,,,,,,,,,,,,,,,,,,,,,,,,,,,,,,
,,,,,673889,001,2024-07-12_18h08.21.945,experiment,2024.1.5,MacIntel,3.52858151,5b967e547840dc0001e3392f,6691931c2c63981b064e1f0c,6691b71f36bed8eb2b8fdb44,,,,,,,,,,,,,,,,,,,,,,,,,,,,,,,,,,,,,,,,,,,,,,,,,,,,,,,,,,,,1389.6346,1396.6653,-0.174188538,-0.166212997,1,0,0,0.836,compass,0,4,4,5,1,SoundStimuli/JoyToTheWorld_ThreeDogNight_Cover5S.wav,,,,,,,,,,,,,,,,,,,,,,,,,,,,,,,,,,,,,,,,,,,,,,,,,,,
,,,,,673889,001,2024-07-12_18h08.21.945,experiment,2024.1.5,MacIntel,3.52858151,5b967e547840dc0001e3392f,6691931c2c63981b064e1f0c,6691b71f36bed8eb2b8fdb44,,,,,,,,,,,,,,,,,,,,,,,,,,,,,,,,,,,,,,,,,,,,,,,,,,,,,,,,,,,,1396.6742,1403.5655,-0.11719841,0.299846153,1,0,0,0.7981,compass,0,5,5,1,1,SoundStimuli/Smooth_SantanaRobThomas_Cover5S.wav,,,,,,,,,,,,,,,,,,,,,,,,,,,,,,,,,,,,,,,,,,,,,,,,,,,
,,,,,673889,001,2024-07-12_18h08.21.945,experiment,2024.1.5,MacIntel,3.52858151,5b967e547840dc0001e3392f,6691931c2c63981b064e1f0c,6691b71f36bed8eb2b8fdb44,,,,,,,,,,,,,,,,,,,,,,,,,,,,,,,,,,,,,,,,,,,,,,,,,,,,,,,,,,,,1403.5739,1416.7041,0.002036819,0.002851791,1,0,0,7.1278,compass,0,6,6,3,1,SoundStimuli/PartyRockAnthem_LMFAO_Cover5S.wav,,,,,,,,,,,,,,,,,,,,,,,,,,,,,,,,,,,,,,,,,,,,,,,,,,,
,,,,,673889,001,2024-07-12_18h08.21.945,experiment,2024.1.5,MacIntel,3.52858151,5b967e547840dc0001e3392f,6691931c2c63981b064e1f0c,6691b71f36bed8eb2b8fdb44,,,,,,,,,,,,,,,,,,,,,,,,,,,,,,,,,,,,,,,,,,,,,,,,,,,,,,,,,,,,1416.7131,1423.808,0.257848969,0.180686703,1,0,0,0.7906,compass,0,7,7,26,1,SoundStimuli/TheSign_AceOfBase_Original5S.wav,,,,,,,,,,,,,,,,,,,,,,,,,,,,,,,,,,,,,,,,,,,,,,,,,,,
,,,,,673889,001,2024-07-12_18h08.21.945,experiment,2024.1.5,MacIntel,3.52858151,5b967e547840dc0001e3392f,6691931c2c63981b064e1f0c,6691b71f36bed8eb2b8fdb44,,,,,,,,,,,,,,,,,,,,,,,,,,,,,,,,,,,,,,,,,,,,,,,,,,,,,,,,,,,,1423.8178,1431.0729,0.257848969,0.180686703,1,0,0,1.2106,compass,0,8,8,0,1,SoundStimuli/GimmeShelter_RollingStones_Cover5S.wav,,,,,,,,,,,,,,,,,,,,,,,,,,,,,,,,,,,,,,,,,,,,,,,,,,,
,,,,,673889,001,2024-07-12_18h08.21.945,experiment,2024.1.5,MacIntel,3.52858151,5b967e547840dc0001e3392f,6691931c2c63981b064e1f0c,6691b71f36bed8eb2b8fdb44,,,,,,,,,,,,,,,,,,,,,,,,,,,,,,,,,,,,,,,,,,,,,,,,,,,,,,,,,,,,1431.0815,1438.6366,-0.052611237,0.295508022,1,0,0,1.2094,compass,0,9,9,15,1,SoundStimuli/CrazyInLove_BeyonceFtJayZ_Original5S.wav,,,,,,,,,,,,,,,,,,,,,,,,,,,,,,,,,,,,,,,,,,,,,,,,,,,
,,,,,673889,001,2024-07-12_18h08.21.945,experiment,2024.1.5,MacIntel,3.52858151,5b967e547840dc0001e3392f,6691931c2c63981b064e1f0c,6691b71f36bed8eb2b8fdb44,,,,,,,,,,,,,,,,,,,,,,,,,,,,,,,,,,,,,,,,,,,,,,,,,,,,,,,,,,,,1438.6454,1445.8678,0.308811798,0.300451374,1,0,0,1.2218,compass,0,10,10,22,1,SoundStimuli/Happy_PharellWilliams_Cover5S.wav,,,,,,,,,,,,,,,,,,,,,,,,,,,,,,,,,,,,,,,,,,,,,,,,,,,
,,,,,673889,001,2024-07-12_18h08.21.945,experiment,2024.1.5,MacIntel,3.52858151,5b967e547840dc0001e3392f,6691931c2c63981b064e1f0c,6691b71f36bed8eb2b8fdb44,,,,,,,,,,,,,,,,,,,,,,,,,,,,,,,,,,,,,,,,,,,,,,,,,,,,,,,,,,,,1445.8761,1453.2711,0.212312088,0.199232597,1,0,0,1.2029,compass,0,11,11,7,1,SoundStimuli/MackTheKnife_BobbyDarin_Original5S.wav,,,,,,,,,,,,,,,,,,,,,,,,,,,,,,,,,,,,,,,,,,,,,,,,,,,
,,,,,673889,001,2024-07-12_18h08.21.945,experiment,2024.1.5,MacIntel,3.52858151,5b967e547840dc0001e3392f,6691931c2c63981b064e1f0c,6691b71f36bed8eb2b8fdb44,,,,,,,,,,,,,,,,,,,,,,,,,,,,,,,,,,,,,,,,,,,,,,,,,,,,,,,,,,,,1453.2801,1462.6616,-0.100455246,-0.176723633,1,0,0,3.348,compass,0,12,12,29,1,SoundStimuli/BetteDavisEyes_KimCarnes_Cover5S.wav,,,,,,,,,,,,,,,,,,,,,,,,,,,,,,,,,,,,,,,,,,,,,,,,,,,
,,,,,673889,001,2024-07-12_18h08.21.945,experiment,2024.1.5,MacIntel,3.52858151,5b967e547840dc0001e3392f,6691931c2c63981b064e1f0c,6691b71f36bed8eb2b8fdb44,,,,,,,,,,,,,,,,,,,,,,,,,,,,,,,,,,,,,,,,,,,,,,,,,,,,,,,,,,,,1462.671,1474.925,0.002102661,-0.188472672,1,0,0,6.0432,compass,0,13,13,11,1,SoundStimuli/BlurredLines_RobinThicke_Original5S.wav,,,,,,,,,,,,,,,,,,,,,,,,,,,,,,,,,,,,,,,,,,,,,,,,,,,
,,,,,673889,001,2024-07-12_18h08.21.945,experiment,2024.1.5,MacIntel,3.52858151,5b967e547840dc0001e3392f,6691931c2c63981b064e1f0c,6691b71f36bed8eb2b8fdb44,,,,,,,,,,,,,,,,,,,,,,,,,,,,,,,,,,,,,,,,,,,,,,,,,,,,,,,,,,,,1474.9334,1494.5829,-8.8501E-06,-0.00269001,1,0,0,13.4,compass,0,14,14,31,1,SoundStimuli/TossinAndTurnin_BobbyLewis_Cover5S.wav,,,,,,,,,,,,,,,,,,,,,,,,,,,,,,,,,,,,,,,,,,,,,,,,,,,
,,,,,673889,001,2024-07-12_18h08.21.945,experiment,2024.1.5,MacIntel,3.52858151,5b967e547840dc0001e3392f,6691931c2c63981b064e1f0c,6691b71f36bed8eb2b8fdb44,,,,,,,,,,,,,,,,,,,,,,,,,,,,,,,,,,,,,,,,,,,,,,,,,,,,,,,,,,,,1494.5918,1504.9392,0.000398178,0.330467052,1,0,0,4.095,compass,0,15,15,21,1,SoundStimuli/BridgeOverTroubledWater_SimonAndGarfunkel_Cover5S.wav,,,,,,,,,,,,,,,,,,,,,,,,,,,,,,,,,,,,,,,,,,,,,,,,,,,
,,,,,673889,001,2024-07-12_18h08.21.945,experiment,2024.1.5,MacIntel,3.52858151,5b967e547840dc0001e3392f,6691931c2c63981b064e1f0c,6691b71f36bed8eb2b8fdb44,,,,,,,,,,,,,,,,,,,,,,,,,,,,,,,,,,,,,,,,,,,,,,,,,,,,,,,,,,,,1504.9481,1512.4104,-0.111496887,0.003862419,1,0,0,1.2697,compass,0,16,16,13,1,SoundStimuli/Perfect_EdSheeran_Original5S.wav,,,,,,,,,,,,,,,,,,,,,,,,,,,,,,,,,,,,,,,,,,,,,,,,,,,
,,,,,673889,001,2024-07-12_18h08.21.945,experiment,2024.1.5,MacIntel,3.52858151,5b967e547840dc0001e3392f,6691931c2c63981b064e1f0c,6691b71f36bed8eb2b8fdb44,,,,,,,,,,,,,,,,,,,,,,,,,,,,,,,,,,,,,,,,,,,,,,,,,,,,,,,,,,,,1512.4189,1520.3573,0.183119202,-0.092466087,1,0,0,1.7914,compass,0,17,17,24,1,SoundStimuli/Kiss_Prince_Original5S.wav,,,,,,,,,,,,,,,,,,,,,,,,,,,,,,,,,,,,,,,,,,,,,,,,,,,
,,,,,673889,001,2024-07-12_18h08.21.945,experiment,2024.1.5,MacIntel,3.52858151,5b967e547840dc0001e3392f,6691931c2c63981b064e1f0c,6691b71f36bed8eb2b8fdb44,,,,,,,,,,,,,,,,,,,,,,,,,,,,,,,,,,,,,,,,,,,,,,,,,,,,,,,,,,,,1520.3661,1527.1309,-0.001492157,0.001824303,1,0,0,0.4566,compass,0,18,18,25,1,SoundStimuli/IllMakeLoveToYou_BoyzIIMen_Original5S.wav,,,,,,,,,,,,,,,,,,,,,,,,,,,,,,,,,,,,,,,,,,,,,,,,,,,
,,,,,673889,001,2024-07-12_18h08.21.945,experiment,2024.1.5,MacIntel,3.52858151,5b967e547840dc0001e3392f,6691931c2c63981b064e1f0c,6691b71f36bed8eb2b8fdb44,,,,,,,,,,,,,,,,,,,,,,,,,,,,,,,,,,,,,,,,,,,,,,,,,,,,,,,,,,,,1527.1407,1539.3579,-0.000867157,0.001824303,1,0,0,5.8254,compass,0,19,19,16,1,SoundStimuli/ItsAllInTheGame_TommyEdwards_Original5S.wav,,,,,,,,,,,,,,,,,,,,,,,,,,,,,,,,,,,,,,,,,,,,,,,,,,,
,,,,,673889,001,2024-07-12_18h08.21.945,experiment,2024.1.5,MacIntel,3.52858151,5b967e547840dc0001e3392f,6691931c2c63981b064e1f0c,6691b71f36bed8eb2b8fdb44,,,,,,,,,,,,,,,,,,,,,,,,,,,,,,,,,,,,,,,,,,,,,,,,,,,,,,,,,,,,1539.3669,1551.7771,0.002637253,-0.008048286,1,0,0,6.0149,compass,0,20,20,8,1,SoundStimuli/EndlessLove_DianaRossLionelRichie_Original5S.wav,,,,,,,,,,,,,,,,,,,,,,,,,,,,,,,,,,,,,,,,,,,,,,,,,,,
,,,,,673889,001,2024-07-12_18h08.21.945,experiment,2024.1.5,MacIntel,3.52858151,5b967e547840dc0001e3392f,6691931c2c63981b064e1f0c,6691b71f36bed8eb2b8fdb44,,,,,,,,,,,,,,,,,,,,,,,,,,,,,,,,,,,,,,,,,,,,,,,,,,,,,,,,,,,,1551.7861,1561.7853,0.002637253,-0.008048286,1,0,0,3.5113,compass,0,21,21,34,1,SoundStimuli/Irreplaceable_Beyonce_Original5S.wav,,,,,,,,,,,,,,,,,,,,,,,,,,,,,,,,,,,,,,,,,,,,,,,,,,,
,,,,,673889,001,2024-07-12_18h08.21.945,experiment,2024.1.5,MacIntel,3.52858151,5b967e547840dc0001e3392f,6691931c2c63981b064e1f0c,6691b71f36bed8eb2b8fdb44,,,,,,,,,,,,,,,,,,,,,,,,,,,,,,,,,,,,,,,,,,,,,,,,,,,,,,,,,,,,1561.7938,1570.4666,-0.192261696,0.050449715,1,0,0,2.539,compass,0,22,22,9,1,SoundStimuli/HowDoILive_LeAnnRimes_Original5S.wav,,,,,,,,,,,,,,,,,,,,,,,,,,,,,,,,,,,,,,,,,,,,,,,,,,,
,,,,,673889,001,2024-07-12_18h08.21.945,experiment,2024.1.5,MacIntel,3.52858151,5b967e547840dc0001e3392f,6691931c2c63981b064e1f0c,6691b71f36bed8eb2b8fdb44,,,,,,,,,,,,,,,,,,,,,,,,,,,,,,,,,,,,,,,,,,,,,,,,,,,,,,,,,,,,1570.4756,1587.3848,0.003564529,-0.002386856,1,0,0,10.7632,compass,0,23,23,18,1,SoundStimuli/Weak_SWV_Original5S.wav,,,,,,,,,,,,,,,,,,,,,,,,,,,,,,,,,,,,,,,,,,,,,,,,,,,
,,,,,673889,001,2024-07-12_18h08.21.945,experiment,2024.1.5,MacIntel,3.52858151,5b967e547840dc0001e3392f,6691931c2c63981b064e1f0c,6691b71f36bed8eb2b8fdb44,,,,,,,,,,,,,,,,,,,,,,,,,,,,,,,,,,,,,,,,,,,,,,,,,,,,,,,,,,,,1587.3945,1594.4266,0.003564529,-0.002674866,1,0,0,0.766,compass,0,24,24,6,1,SoundStimuli/SaveYourTears_TheWeekndArianaGrande_Original5S.wav,,,,,,,,,,,,,,,,,,,,,,,,,,,,,,,,,,,,,,,,,,,,,,,,,,,
,,,,,673889,001,2024-07-12_18h08.21.945,experiment,2024.1.5,MacIntel,3.52858151,5b967e547840dc0001e3392f,6691931c2c63981b064e1f0c,6691b71f36bed8eb2b8fdb44,,,,,,,,,,,,,,,,,,,,,,,,,,,,,,,,,,,,,,,,,,,,,,,,,,,,,,,,,,,,1594.435,1603.6856,0.033249359,-0.163743896,1,0,0,3.1475,compass,0,25,25,30,1,SoundStimuli/SomebodyThatIUsedtoKnow_Gotye_Cover5S.wav,,,,,,,,,,,,,,,,,,,,,,,,,,,,,,,,,,,,,,,,,,,,,,,,,,,
,,,,,673889,001,2024-07-12_18h08.21.945,experiment,2024.1.5,MacIntel,3.52858151,5b967e547840dc0001e3392f,6691931c2c63981b064e1f0c,6691b71f36bed8eb2b8fdb44,,,,,,,,,,,,,,,,,,,,,,,,,,,,,,,,,,,,,,,,,,,,,,,,,,,,,,,,,,,,1603.694,1610.5548,-0.172359314,0.002787323,1,0,0,0.7988,compass,0,26,26,10,1,SoundStimuli/LeFreak_Chic_Original5S.wav,,,,,,,,,,,,,,,,,,,,,,,,,,,,,,,,,,,,,,,,,,,,,,,,,,,
,,,,,673889,001,2024-07-12_18h08.21.945,experiment,2024.1.5,MacIntel,3.52858151,5b967e547840dc0001e3392f,6691931c2c63981b064e1f0c,6691b71f36bed8eb2b8fdb44,,,,,,,,,,,,,,,,,,,,,,,,,,,,,,,,,,,,,,,,,,,,,,,,,,,,,,,,,,,,1610.5634,1617.1897,-0.001609726,0.006468849,1,0,0,0.4034,compass,0,27,27,17,1,SoundStimuli/IWannaDanceWithSomebody_WhitneyHouston_Cover5S.wav,,,,,,,,,,,,,,,,,,,,,,,,,,,,,,,,,,,,,,,,,,,,,,,,,,,
,,,,,673889,001,2024-07-12_18h08.21.945,experiment,2024.1.5,MacIntel,3.52858151,5b967e547840dc0001e3392f,6691931c2c63981b064e1f0c,6691b71f36bed8eb2b8fdb44,,,,,,,,,,,,,,,,,,,,,,,,,,,,,,,,,,,,,,,,,,,,,,,,,,,,,,,,,,,,1617.1979,1627.5603,0.000902405,0.007385368,1,0,0,4.0413,compass,0,28,28,20,1,SoundStimuli/FlashdanceWhatAFeeling_IreneCara_Cover5S.wav,,,,,,,,,,,,,,,,,,,,,,,,,,,,,,,,,,,,,,,,,,,,,,,,,,,
,,,,,673889,001,2024-07-12_18h08.21.945,experiment,2024.1.5,MacIntel,3.52858151,5b967e547840dc0001e3392f,6691931c2c63981b064e1f0c,6691b71f36bed8eb2b8fdb44,,,,,,,,,,,,,,,,,,,,,,,,,,,,,,,,,,,,,,,,,,,,,,,,,,,,,,,,,,,,1627.5693,1639.8999,0.166929321,0.051604576,1,0,0,6.0882,compass,0,29,29,2,1,SoundStimuli/SmellsLikeTeenSpirit_Nirvana_Cover5S.wav,,,,,,,,,,,,,,,,,,,,,,,,,,,,,,,,,,,,,,,,,,,,,,,,,,,
,,,,,673889,001,2024-07-12_18h08.21.945,experiment,2024.1.5,MacIntel,3.52858151,5b967e547840dc0001e3392f,6691931c2c63981b064e1f0c,6691b71f36bed8eb2b8fdb44,,,,,,,,,,,,,,,,,,,,,,,,,,,,,,,,,,,,,,,,,,,,,,,,,,,,,,,,,,,,1639.9089,1647.1096,0.100852432,0.059314804,1,0,0,1.1919,compass,0,30,30,19,1,SoundStimuli/YouLightUpMyLife_DebbyBoone_Cover5S.wav,,,,,,,,,,,,,,,,,,,,,,,,,,,,,,,,,,,,,,,,,,,,,,,,,,,
,,,,,673889,001,2024-07-12_18h08.21.945,experiment,2024.1.5,MacIntel,3.52858151,5b967e547840dc0001e3392f,6691931c2c63981b064e1f0c,6691b71f36bed8eb2b8fdb44,,,,,,,,,,,,,,,,,,,,,,,,,,,,,,,,,,,,,,,,,,,,,,,,,,,,,,,,,,,,1647.1185,1658.2707,0.002603836,0.003569908,1,0,0,4.9644,compass,0,31,31,32,1,SoundStimuli/Dilemma_NellyKellyRowland_Original5S.wav,,,,,,,,,,,,,,,,,,,,,,,,,,,,,,,,,,,,,,,,,,,,,,,,,,,
,,,,,673889,001,2024-07-12_18h08.21.945,experiment,2024.1.5,MacIntel,3.52858151,5b967e547840dc0001e3392f,6691931c2c63981b064e1f0c,6691b71f36bed8eb2b8fdb44,,,,,,,,,,,,,,,,,,,,,,,,,,,,,,,,,,,,,,,,,,,,,,,,,,,,,,,,,,,,1658.2795,1665.5341,0.001718216,-0.007475243,1,0,0,0.829,compass,0,32,32,27,1,SoundStimuli/EyeOfTheTiger_Survivor_Original5S.wav,,,,,,,,,,,,,,,,,,,,,,,,,,,,,,,,,,,,,,,,,,,,,,,,,,,
,,,,,673889,001,2024-07-12_18h08.21.945,experiment,2024.1.5,MacIntel,3.52858151,5b967e547840dc0001e3392f,6691931c2c63981b064e1f0c,6691b71f36bed8eb2b8fdb44,,,,,,,,,,,,,,,,,,,,,,,,,,,,,,,,,,,,,,,,,,,,,,,,,,,,,,,,,,,,1665.5428,1672.5776,0.059150848,0.00431427,1,0,0,0.8428,compass,0,33,33,28,1,SoundStimuli/IWantToHoldYourHand_TheBeatles_Cover5S.wav,,,,,,,,,,,,,,,,,,,,,,,,,,,,,,,,,,,,,,,,,,,,,,,,,,,
,,,,,673889,001,2024-07-12_18h08.21.945,experiment,2024.1.5,MacIntel,3.52858151,5b967e547840dc0001e3392f,6691931c2c63981b064e1f0c,6691b71f36bed8eb2b8fdb44,,,,,,,,,,,,,,,,,,,,,,,,,,,,,,,,,,,,,,,,,,,,,,,,,,,,,,,,,,,,1672.5864,1680.7812,-0.107751923,-0.1153339,1,0,0,2.054,compass,0,34,34,12,1,SoundStimuli/UnbreakMyHeart_ToniBraxton_Cover5S.wav,,,,,,,,,,,,,,,,,,,,,,,,,,,,,,,,,,,,,,,,,,,,,,,,,,,
,,,,,673889,001,2024-07-12_18h08.21.945,experiment,2024.1.5,MacIntel,3.52858151,5b967e547840dc0001e3392f,6691931c2c63981b064e1f0c,6691b71f36bed8eb2b8fdb44,,,,,,,,,,,,,,,,,,,,,,,,,,,,,,,,,,,,,,,,,,,,,,,,,,,,,,,,,,,,,,,,,,,,,,,,,,,1680.7813,1685.68,space,4.5458,0.0002,1685.68,1688.2551,right,2.2127,0.0002,0,2,2,2,1,block_order/blockB.xlsx,,,,,,,,,,,,,,,,,,,,,,,,,,,,,,,,,,,
,,,,,673889,001,2024-07-12_18h08.21.945,experiment,2024.1.5,MacIntel,3.52858151,5b967e547840dc0001e3392f,6691931c2c63981b064e1f0c,6691b71f36bed8eb2b8fdb44,,,,,,,,,,,,,,,,,,,,,,,,,,,,,,,,,,,,,,,,,,,,,,,,,,,,,,,,,,,,1688.2698,1699.7548,-0.177569313,0.284854984,1,0,0,5.1566,compass,0,0,0,7,1,SoundStimuli/NoOne_AliciaKeys_Original5S.wav,,,,,,,,,,,,,,,,,,,,,,,,,,,,,,,,,,,,,,,,,,,,,,,,,,,
,,,,,673889,001,2024-07-12_18h08.21.945,experiment,2024.1.5,MacIntel,3.52858151,5b967e547840dc0001e3392f,6691931c2c63981b064e1f0c,6691b71f36bed8eb2b8fdb44,,,,,,,,,,,,,,,,,,,,,,,,,,,,,,,,,,,,,,,,,,,,,,,,,,,,,,,,,,,,1699.7636,1710.7197,-0.058297348,0.05064888,1,0,0,4.6487,compass,0,1,1,15,1,SoundStimuli/TikTok_Kesha_Original5S.wav,,,,,,,,,,,,,,,,,,,,,,,,,,,,,,,,,,,,,,,,,,,,,,,,,,,
,,,,,673889,001,2024-07-12_18h08.21.945,experiment,2024.1.5,MacIntel,3.52858151,5b967e547840dc0001e3392f,6691931c2c63981b064e1f0c,6691b71f36bed8eb2b8fdb44,,,,,,,,,,,,,,,,,,,,,,,,,,,,,,,,,,,,,,,,,,,,,,,,,,,,,,,,,,,,1710.7286,1717.5109,0.302989426,0.294883022,1,0,0,0.3885,compass,0,2,2,27,1,SoundStimuli/ShapeofYou_EdSheeran_Cover5S.wav,,,,,,,,,,,,,,,,,,,,,,,,,,,,,,,,,,,,,,,,,,,,,,,,,,,
,,,,,673889,001,2024-07-12_18h08.21.945,experiment,2024.1.5,MacIntel,3.52858151,5b967e547840dc0001e3392f,6691931c2c63981b064e1f0c,6691b71f36bed8eb2b8fdb44,,,,,,,,,,,,,,,,,,,,,,,,,,,,,,,,,,,,,,,,,,,,,,,,,,,,,,,,,,,,1717.5198,1724.6784,0.117864838,0.021374016,1,0,0,1.0081,compass,0,3,3,4,1,SoundStimuli/GetUrFreakOn_MissyElliot_Cover5S.wav,,,,,,,,,,,,,,,,,,,,,,,,,,,,,,,,,,,,,,,,,,,,,,,,,,,
,,,,,673889,001,2024-07-12_18h08.21.945,experiment,2024.1.5,MacIntel,3.52858151,5b967e547840dc0001e3392f,6691931c2c63981b064e1f0c,6691b71f36bed8eb2b8fdb44,,,,,,,,,,,,,,,,,,,,,,,,,,,,,,,,,,,,,,,,,,,,,,,,,,,,,,,,,,,,1724.687,1731.712,-0.001434097,0.002727318,1,0,0,0.7876,compass,0,4,4,2,1,SoundStimuli/Mood_24kGoldnianndior_Original5S.wav,,,,,,,,,,,,,,,,,,,,,,,,,,,,,,,,,,,,,,,,,,,,,,,,,,,
,,,,,673889,001,2024-07-12_18h08.21.945,experiment,2024.1.5,MacIntel,3.52858151,5b967e547840dc0001e3392f,6691931c2c63981b064e1f0c,6691b71f36bed8eb2b8fdb44,,,,,,,,,,,,,,,,,,,,,,,,,,,,,,,,,,,,,,,,,,,,,,,,,,,,,,,,,,,,1731.7209,1740.3686,-0.026600571,0.021937256,1,0,0,2.3991,compass,0,5,5,14,1,SoundStimuli/BlindingLights_TheWeeknd_Cover5S.wav,,,,,,,,,,,,,,,,,,,,,,,,,,,,,,,,,,,,,,,,,,,,,,,,,,,
,,,,,673889,001,2024-07-12_18h08.21.945,experiment,2024.1.5,MacIntel,3.52858151,5b967e547840dc0001e3392f,6691931c2c63981b064e1f0c,6691b71f36bed8eb2b8fdb44,,,,,,,,,,,,,,,,,,,,,,,,,,,,,,,,,,,,,,,,,,,,,,,,,,,,,,,,,,,,1740.3766,1748.348,0.001344299,0.193651066,1,0,0,1.7236,compass,0,6,6,28,1,SoundStimuli/ComeAndGetYourLove_Redbone_Cover5S.wav,,,,,,,,,,,,,,,,,,,,,,,,,,,,,,,,,,,,,,,,,,,,,,,,,,,
,,,,,673889,001,2024-07-12_18h08.21.945,experiment,2024.1.5,MacIntel,3.52858151,5b967e547840dc0001e3392f,6691931c2c63981b064e1f0c,6691b71f36bed8eb2b8fdb44,,,,,,,,,,,,,,,,,,,,,,,,,,,,,,,,,,,,,,,,,,,,,,,,,,,,,,,,,,,,1748.3565,1755.3118,-0.031367111,0.260015125,1,0,0,0.8483,compass,0,7,7,10,1,SoundStimuli/BadDay_DanielPowter_Original5S.wav,,,,,,,,,,,,,,,,,,,,,,,,,,,,,,,,,,,,,,,,,,,,,,,,,,,
,,,,,673889,001,2024-07-12_18h08.21.945,experiment,2024.1.5,MacIntel,3.52858151,5b967e547840dc0001e3392f,6691931c2c63981b064e1f0c,6691b71f36bed8eb2b8fdb44,,,,,,,,,,,,,,,,,,,,,,,,,,,,,,,,,,,,,,,,,,,,,,,,,,,,,,,,,,,,1755.3204,1762.036,-0.00375946,0.00465168,1,0,0,0.4604,compass,0,8,8,24,1,SoundStimuli/UptownFunk_MarkRonson_Cover5S.wav,,,,,,,,,,,,,,,,,,,,,,,,,,,,,,,,,,,,,,,,,,,,,,,,,,,
,,,,,673889,001,2024-07-12_18h08.21.945,experiment,2024.1.5,MacIntel,3.52858151,5b967e547840dc0001e3392f,6691931c2c63981b064e1f0c,6691b71f36bed8eb2b8fdb44,,,,,,,,,,,,,,,,,,,,,,,,,,,,,,,,,,,,,,,,,,,,,,,,,,,,,,,,,,,,1762.0449,1768.5192,0.306968994,0.302675133,1,0,0,0.4393,compass,0,9,9,29,1,SoundStimuli/OldTownRoad_LilNasX_Cover5S.wav,,,,,,,,,,,,,,,,,,,,,,,,,,,,,,,,,,,,,,,,,,,,,,,,,,,
,,,,,673889,001,2024-07-12_18h08.21.945,experiment,2024.1.5,MacIntel,3.52858151,5b967e547840dc0001e3392f,6691931c2c63981b064e1f0c,6691b71f36bed8eb2b8fdb44,,,,,,,,,,,,,,,,,,,,,,,,,,,,,,,,,,,,,,,,,,,,,,,,,,,,,,,,,,,,1768.5195,1783.2058,0.043899384,0.039998207,1,0,0,8.3726,compass,0,10,10,8,1,SoundStimuli/LikeAPrayer_Madonna_Cover5S.wav,,,,,,,,,,,,,,,,,,,,,,,,,,,,,,,,,,,,,,,,,,,,,,,,,,,
,,,,,673889,001,2024-07-12_18h08.21.945,experiment,2024.1.5,MacIntel,3.52858151,5b967e547840dc0001e3392f,6691931c2c63981b064e1f0c,6691b71f36bed8eb2b8fdb44,,,,,,,,,,,,,,,,,,,,,,,,,,,,,,,,,,,,,,,,,,,,,,,,,,,,,,,,,,,,1783.2143,1792.3078,0.168035812,0.2121982,1,0,0,2.9949,compass,0,11,11,22,1,SoundStimuli/RockWithYou_MichaelJackson_Cover5S.wav,,,,,,,,,,,,,,,,,,,,,,,,,,,,,,,,,,,,,,,,,,,,,,,,,,,
,,,,,673889,001,2024-07-12_18h08.21.945,experiment,2024.1.5,MacIntel,3.52858151,5b967e547840dc0001e3392f,6691931c2c63981b064e1f0c,6691b71f36bed8eb2b8fdb44,,,,,,,,,,,,,,,,,,,,,,,,,,,,,,,,,,,,,,,,,,,,,,,,,,,,,,,,,,,,1792.3174,1798.8858,-0.001914902,0.001732597,1,0,0,0.3395,compass,0,12,12,32,1,SoundStimuli/HeatWaves_GlassAnimals_Cover5S.wav,,,,,,,,,,,,,,,,,,,,,,,,,,,,,,,,,,,,,,,,,,,,,,,,,,,
,,,,,673889,001,2024-07-12_18h08.21.945,experiment,2024.1.5,MacIntel,3.52858151,5b967e547840dc0001e3392f,6691931c2c63981b064e1f0c,6691b71f36bed8eb2b8fdb44,,,,,,,,,,,,,,,,,,,,,,,,,,,,,,,,,,,,,,,,,,,,,,,,,,,,,,,,,,,,1798.8935,1806.6092,-0.000625381,-0.001525192,1,0,0,1.5721,compass,0,13,13,19,1,SoundStimuli/LetsGetItOn_MarvinGaye_Original5S.wav,,,,,,,,,,,,,,,,,,,,,,,,,,,,,,,,,,,,,,,,,,,,,,,,,,,
,,,,,673889,001,2024-07-12_18h08.21.945,experiment,2024.1.5,MacIntel,3.52858151,5b967e547840dc0001e3392f,6691931c2c63981b064e1f0c,6691b71f36bed8eb2b8fdb44,,,,,,,,,,,,,,,,,,,,,,,,,,,,,,,,,,,,,,,,,,,,,,,,,,,,,,,,,,,,1806.6178,1813.5488,-0.000625381,-0.001525192,1,0,0,0.7744,compass,0,14,14,5,1,SoundStimuli/MyGirl_TheTemptations_Cover5S.wav,,,,,,,,,,,,,,,,,,,,,,,,,,,,,,,,,,,,,,,,,,,,,,,,,,,
,,,,,673889,001,2024-07-12_18h08.21.945,experiment,2024.1.5,MacIntel,3.52858151,5b967e547840dc0001e3392f,6691931c2c63981b064e1f0c,6691b71f36bed8eb2b8fdb44,,,,,,,,,,,,,,,,,,,,,,,,,,,,,,,,,,,,,,,,,,,,,,,,,,,,,,,,,,,,1813.5577,1821.6035,-0.000625381,-0.0006464,1,0,0,1.6535,compass,0,15,15,23,1,SoundStimuli/StrawberryFieldsForever_TheBeatles_Cover5S.wav,,,,,,,,,,,,,,,,,,,,,,,,,,,,,,,,,,,,,,,,,,,,,,,,,,,
,,,,,673889,001,2024-07-12_18h08.21.945,experiment,2024.1.5,MacIntel,3.52858151,5b967e547840dc0001e3392f,6691931c2c63981b064e1f0c,6691b71f36bed8eb2b8fdb44,,,,,,,,,,,,,,,,,,,,,,,,,,,,,,,,,,,,,,,,,,,,,,,,,,,,,,,,,,,,1821.6117,1828.6029,-0.001059494,0.289077206,1,0,0,0.7911,compass,0,16,16,25,1,SoundStimuli/Respect_ArethaFranklin_Cover5S.wav,,,,,,,,,,,,,,,,,,,,,,,,,,,,,,,,,,,,,,,,,,,,,,,,,,,
,,,,,673889,001,2024-07-12_18h08.21.945,experiment,2024.1.5,MacIntel,3.52858151,5b967e547840dc0001e3392f,6691931c2c63981b064e1f0c,6691b71f36bed8eb2b8fdb44,,,,,,,,,,,,,,,,,,,,,,,,,,,,,,,,,,,,,,,,,,,,,,,,,,,,,,,,,,,,1828.611,1835.0722,-0.141125336,0.321107197,1,0,0,0.3568,compass,0,17,17,21,1,SoundStimuli/GoodGollyMissMolly_LittleRichard_Original5S.wav,,,,,,,,,,,,,,,,,,,,,,,,,,,,,,,,,,,,,,,,,,,,,,,,,,,
,,,,,673889,001,2024-07-12_18h08.21.945,experiment,2024.1.5,MacIntel,3.52858151,5b967e547840dc0001e3392f,6691931c2c63981b064e1f0c,6691b71f36bed8eb2b8fdb44,,,,,,,,,,,,,,,,,,,,,,,,,,,,,,,,,,,,,,,,,,,,,,,,,,,,,,,,,,,,1835.0806,1842.9197,0.004939499,-0.001370735,1,0,0,1.7381,compass,0,18,18,20,1,SoundStimuli/HeyYa_Outkast_Original5S.wav,,,,,,,,,,,,,,,,,,,,,,,,,,,,,,,,,,,,,,,,,,,,,,,,,,,
,,,,,673889,001,2024-07-12_18h08.21.945,experiment,2024.1.5,MacIntel,3.52858151,5b967e547840dc0001e3392f,6691931c2c63981b064e1f0c,6691b71f36bed8eb2b8fdb44,,,,,,,,,,,,,,,,,,,,,,,,,,,,,,,,,,,,,,,,,,,,,,,,,,,,,,,,,,,,1842.9283,1849.7906,0.003141861,-0.001388283,1,0,0,0.8468,compass,0,19,19,0,1,SoundStimuli/StayinAlive_BeeGees_Cover5S.wav,,,,,,,,,,,,,,,,,,,,,,,,,,,,,,,,,,,,,,,,,,,,,,,,,,,
,,,,,673889,001,2024-07-12_18h08.21.945,experiment,2024.1.5,MacIntel,3.52858151,5b967e547840dc0001e3392f,6691931c2c63981b064e1f0c,6691b71f36bed8eb2b8fdb44,,,,,,,,,,,,,,,,,,,,,,,,,,,,,,,,,,,,,,,,,,,,,,,,,,,,,,,,,,,,1849.7988,1856.4271,-0.147912598,0.316021919,1,0,0,0.365,compass,0,20,20,18,1,SoundStimuli/AnotherOneBitesTheDust_Queen_Cover5S.wav,,,,,,,,,,,,,,,,,,,,,,,,,,,,,,,,,,,,,,,,,,,,,,,,,,,
,,,,,673889,001,2024-07-12_18h08.21.945,experiment,2024.1.5,MacIntel,3.52858151,5b967e547840dc0001e3392f,6691931c2c63981b064e1f0c,6691b71f36bed8eb2b8fdb44,,,,,,,,,,,,,,,,,,,,,,,,,,,,,,,,,,,,,,,,,,,,,,,,,,,,,,,,,,,,1856.4359,1868.7866,-0.01710556,-0.042202759,1,0,0,6.1938,compass,0,21,21,12,1,SoundStimuli/IWillAlwaysLoveYou_WhitneyHouston_Original5S.wav,,,,,,,,,,,,,,,,,,,,,,,,,,,,,,,,,,,,,,,,,,,,,,,,,,,
,,,,,673889,001,2024-07-12_18h08.21.945,experiment,2024.1.5,MacIntel,3.52858151,5b967e547840dc0001e3392f,6691931c2c63981b064e1f0c,6691b71f36bed8eb2b8fdb44,,,,,,,,,,,,,,,,,,,,,,,,,,,,,,,,,,,,,,,,,,,,,,,,,,,,,,,,,,,,1868.7951,1882.201,-0.002554245,-0.002183075,1,0,0,7.249,compass,0,22,22,16,1,SoundStimuli/BohemianRhapsody_Queen_Cover5S.wav,,,,,,,,,,,,,,,,,,,,,,,,,,,,,,,,,,,,,,,,,,,,,,,,,,,
,,,,,673889,001,2024-07-12_18h08.21.945,experiment,2024.1.5,MacIntel,3.52858151,5b967e547840dc0001e3392f,6691931c2c63981b064e1f0c,6691b71f36bed8eb2b8fdb44,,,,,,,,,,,,,,,,,,,,,,,,,,,,,,,,,,,,,,,,,,,,,,,,,,,,,,,,,,,,1882.2103,1888.8441,-0.001770248,-0.002874146,1,0,0,0.3664,compass,0,23,23,3,1,SoundStimuli/NoScrubs_TLC_Cover5S.wav,,,,,,,,,,,,,,,,,,,,,,,,,,,,,,,,,,,,,,,,,,,,,,,,,,,
,,,,,673889,001,2024-07-12_18h08.21.945,experiment,2024.1.5,MacIntel,3.52858151,5b967e547840dc0001e3392f,6691931c2c63981b064e1f0c,6691b71f36bed8eb2b8fdb44,,,,,,,,,,,,,,,,,,,,,,,,,,,,,,,,,,,,,,,,,,,,,,,,,,,,,,,,,,,,1888.8525,1895.9045,-0.145735397,0.046207199,1,0,0,0.8546,compass,0,24,24,1,1,SoundStimuli/Stronger_KanyeWest_Cover5S.wav,,,,,,,,,,,,,,,,,,,,,,,,,,,,,,,,,,,,,,,,,,,,,,,,,,,
,,,,,673889,001,2024-07-12_18h08.21.945,experiment,2024.1.5,MacIntel,3.52858151,5b967e547840dc0001e3392f,6691931c2c63981b064e1f0c,6691b71f36bed8eb2b8fdb44,,,,,,,,,,,,,,,,,,,,,,,,,,,,,,,,,,,,,,,,,,,,,,,,,,,,,,,,,,,,1895.9129,1904.1565,-0.201535187,0.056988869,1,0,0,2.0021,compass,0,25,25,13,1,SoundStimuli/GodOnlyKnows_TheBeachBoys_Original5S.wav,,,,,,,,,,,,,,,,,,,,,,,,,,,,,,,,,,,,,,,,,,,,,,,,,,,
,,,,,673889,001,2024-07-12_18h08.21.945,experiment,2024.1.5,MacIntel,3.52858151,5b967e547840dc0001e3392f,6691931c2c63981b064e1f0c,6691b71f36bed8eb2b8fdb44,,,,,,,,,,,,,,,,,,,,,,,,,,,,,,,,,,,,,,,,,,,,,,,,,,,,,,,,,,,,1904.1664,1912.4088,0.025758591,0.039146729,1,0,0,2.1388,compass,0,26,26,11,1,SoundStimuli/Superstition_StevieWonder_Original5S.wav,,,,,,,,,,,,,,,,,,,,,,,,,,,,,,,,,,,,,,,,,,,,,,,,,,,
,,,,,673889,001,2024-07-12_18h08.21.945,experiment,2024.1.5,MacIntel,3.52858151,5b967e547840dc0001e3392f,6691931c2c63981b064e1f0c,6691b71f36bed8eb2b8fdb44,,,,,,,,,,,,,,,,,,,,,,,,,,,,,,,,,,,,,,,,,,,,,,,,,,,,,,,,,,,,1912.4173,1922.7237,0.004797821,0.008517151,1,0,0,4.293,compass,0,27,27,6,1,SoundStimuli/Levitating_DuaLipa_Original5S.wav,,,,,,,,,,,,,,,,,,,,,,,,,,,,,,,,,,,,,,,,,,,,,,,,,,,
,,,,,673889,001,2024-07-12_18h08.21.945,experiment,2024.1.5,MacIntel,3.52858151,5b967e547840dc0001e3392f,6691931c2c63981b064e1f0c,6691b71f36bed8eb2b8fdb44,,,,,,,,,,,,,,,,,,,,,,,,,,,,,,,,,,,,,,,,,,,,,,,,,,,,,,,,,,,,1922.7325,1929.8951,0.108716507,0.085525246,1,0,0,0.7679,compass,0,28,28,17,1,SoundStimuli/Fallin_AliciaKeys_Cover5S.wav,,,,,,,,,,,,,,,,,,,,,,,,,,,,,,,,,,,,,,,,,,,,,,,,,,,
,,,,,673889,001,2024-07-12_18h08.21.945,experiment,2024.1.5,MacIntel,3.52858151,5b967e547840dc0001e3392f,6691931c2c63981b064e1f0c,6691b71f36bed8eb2b8fdb44,,,,,,,,,,,,,,,,,,,,,,,,,,,,,,,,,,,,,,,,,,,,,,,,,,,,,,,,,,,,1929.9042,1936.7005,0.071258392,-0.157098236,1,0,0,0.7891,compass,0,29,29,9,1,SoundStimuli/Despacito_LuisFonsiDaddyYankee_Original5S.wav,,,,,,,,,,,,,,,,,,,,,,,,,,,,,,,,,,,,,,,,,,,,,,,,,,,
,,,,,673889,001,2024-07-12_18h08.21.945,experiment,2024.1.5,MacIntel,3.52858151,5b967e547840dc0001e3392f,6691931c2c63981b064e1f0c,6691b71f36bed8eb2b8fdb44,,,,,,,,,,,,,,,,,,,,,,,,,,,,,,,,,,,,,,,,,,,,,,,,,,,,,,,,,,,,1936.7089,1943.7279,0.130384827,0.091239586,1,0,0,0.7896,compass,0,30,30,26,1,SoundStimuli/LivinOnAPrayer_BonJovi_Original5S.wav,,,,,,,,,,,,,,,,,,,,,,,,,,,,,,,,,,,,,,,,,,,,,,,,,,,
,,,,,673889,001,2024-07-12_18h08.21.945,experiment,2024.1.5,MacIntel,3.52858151,5b967e547840dc0001e3392f,6691931c2c63981b064e1f0c,6691b71f36bed8eb2b8fdb44,,,,,,,,,,,,,,,,,,,,,,,,,,,,,,,,,,,,,,,,,,,,,,,,,,,,,,,,,,,,1943.7364,1952.9442,0.1228936,0.115412292,1,0,0,2.8575,compass,0,31,31,33,1,SoundStimuli/StandByMe_BenEKing_Original5S.wav,,,,,,,,,,,,,,,,,,,,,,,,,,,,,,,,,,,,,,,,,,,,,,,,,,,
,,,,,673889,001,2024-07-12_18h08.21.945,experiment,2024.1.5,MacIntel,3.52858151,5b967e547840dc0001e3392f,6691931c2c63981b064e1f0c,6691b71f36bed8eb2b8fdb44,,,,,,,,,,,,,,,,,,,,,,,,,,,,,,,,,,,,,,,,,,,,,,,,,,,,,,,,,,,,1952.9527,1960.6049,0.006895447,-0.002301598,1,0,0,1.6338,compass,0,32,32,34,1,SoundStimuli/AChangeIsGonnaCome_SamCooke_Original5S.wav,,,,,,,,,,,,,,,,,,,,,,,,,,,,,,,,,,,,,,,,,,,,,,,,,,,
,,,,,673889,001,2024-07-12_18h08.21.945,experiment,2024.1.5,MacIntel,3.52858151,5b967e547840dc0001e3392f,6691931c2c63981b064e1f0c,6691b71f36bed8eb2b8fdb44,,,,,,,,,,,,,,,,,,,,,,,,,,,,,,,,,,,,,,,,,,,,,,,,,,,,,,,,,,,,1960.6138,1968.5257,0.006895447,-0.003374519,1,0,0,1.5274,compass,0,33,33,31,1,SoundStimuli/TheBattleOfNewOrleans_JohnnyHorton_Original5S.wav,,,,,,,,,,,,,,,,,,,,,,,,,,,,,,,,,,,,,,,,,,,,,,,,,,,
,,,,,673889,001,2024-07-12_18h08.21.945,experiment,2024.1.5,MacIntel,3.52858151,5b967e547840dc0001e3392f,6691931c2c63981b064e1f0c,6691b71f36bed8eb2b8fdb44,,,,,,,,,,,,,,,,,,,,,,,,,,,,,,,,,,,,,,,,,,,,,,,,,,,,,,,,,,,,1968.5342,1976.6325,0.002374954,0.00216423,1,0,0,2.075,compass,0,34,34,30,1,SoundStimuli/PokerFace_LadyGaga_Cover5S.wav,,,,,,,,,,,,,,,,,,,,,,,,,,,,,,,,,,,,,,,,,,,,,,,,,,,
,,,,,673889,001,2024-07-12_18h08.21.945,experiment,2024.1.5,MacIntel,3.52858151,5b967e547840dc0001e3392f,6691931c2c63981b064e1f0c,6691b71f36bed8eb2b8fdb44,,,,,,,,,,,,,,,,,,,,,,,,,,,,,,,,,,,,,,,,,,,,,,,,,,,,,,,,,,,,,,,,,,,,,,,,,,,1976.6325,1976.6325,,,,1976.6325,1976.6325,,,,0,3,3,3,1,block_order/blockC.xlsx,,,,,,,,,,,,,,,,,,,,,,,,,,,,,,,,,,,
,,,,,673889,001,2024-07-12_18h08.21.945,experiment,2024.1.5,MacIntel,3.52858151,5b967e547840dc0001e3392f,6691931c2c63981b064e1f0c,6691b71f36bed8eb2b8fdb44,,,,,,,,,,,,,,,,,,,,,,,,,,,,,,,,,,,,,,,,,,,,,,,,,,,,,,,,,,,,,,,,,,,,,,,,,,,,,,,,,,,,,,,,,,,34,Item 1,Not a musician,Item 2,Spotify,6,7,"Driving, exercising",Always,Rarely,Always,Never,Never,Never,Never,Never,Never,Never,Never,Never,Never,Never,Never,Never,Hip hop,r&b,Pop,They really haven't,0,0,0,0,1,,
,,,,,673889,001,2024-07-12_18h08.21.945,experiment,2024.1.5,MacIntel,3.52858151,5b967e547840dc0001e3392f,6691931c2c63981b064e1f0c,6691b71f36bed8eb2b8fdb44,,,,,,,,,,,,,,,,,,,,,,,,,,,,,,,,,,,,,,,,,,,,,,,,,,,,,,,,,,,,,,,,,,,,,,,,,,,,,,,,,,,,,,,,,,,,,,,,,,,,,,,,,,,,,,,,,,,,,,,,,,,,2155.8911,2158.4425
