welcome.started,welcome.stopped,space_to_continue.keys,space_to_continue.rt,space_to_continue.duration,participant,session,date,expName,psychopyVersion,OS,frameRate,PROLIFIC_PID,STUDY_ID,SESSION_ID,consent.consent,consent.consent_recontact,consent_check.started,consent_check.stopped,calibration_ready.started,calibration_ready.stopped,cal_ready.keys,cal_ready.rt,cal_ready.duration,calibration.started,calibration.stopped,mouse.x,mouse.y,mouse.leftButton,mouse.midButton,mouse.rightButton,mouse.time,mouse.clicked_name,move_on.keys,move_on.rt,move_on.duration,run_cal.thisRepN,run_cal.thisTrialN,run_cal.thisN,run_cal.thisIndex,run_cal.ran,emotion_training_ready.started,emotion_training_ready.stopped,training_move_on.keys,training_move_on.rt,training_move_on.duration,examples.started,examples.stopped,emotion_scale.started,emotion_scale.stopped,scale_next.keys,scale_next.rt,scale_next.duration,instructions.started,instructions.stopped,next.keys,next.rt,next.duration,practice_task.started,practice_task.stopped,mouse_rating_2.x,mouse_rating_2.y,mouse_rating_2.leftButton,mouse_rating_2.midButton,mouse_rating_2.rightButton,mouse_rating_2.time,mouse_rating_2.clicked_name,ready.started,ready.stopped,key_resp.keys,key_resp.rt,key_resp.duration,set_group.started,set_group.stopped,task.started,task.stopped,mouse_rating.x,mouse_rating.y,mouse_rating.leftButton,mouse_rating.midButton,mouse_rating.rightButton,mouse_rating.time,mouse_rating.clicked_name,trials.thisRepN,trials.thisTrialN,trials.thisN,trials.thisIndex,trials.ran,clip,short_break.started,short_break.stopped,space_to_move_on.keys,space_to_move_on.rt,space_to_move_on.duration,instruction_reminder.started,instruction_reminder.stopped,reminder_move_on.keys,reminder_move_on.rt,reminder_move_on.duration,blocks.thisRepN,blocks.thisTrialN,blocks.thisN,blocks.thisIndex,blocks.ran,block,post_survey.age,post_survey.musician,post_survey.music_making,post_survey.listen_time,post_survey.medium,post_survey.music_seeking,post_survey.music_choice,post_survey.activities,post_survey.question1.Hip hop,post_survey.question1.Classical,post_survey.question1.Metal,post_survey.question1.Reggae,post_survey.question1.A cappella,post_survey.question1.Jazz,post_survey.question1.Pop,post_survey.question1.Folk/indie,post_survey.question1.Electronic (EDM),post_survey.question1.R&B,post_survey.question1.Country,post_survey.question1.Latin,post_survey.question1.Alternative rock,post_survey.question1.Classic rock,post_survey.question1.Ambient,post_survey.question1.Disco,post_survey.other_genres,post_survey.genres_ranked.text1,post_survey.genres_ranked.text2,post_survey.genres_ranked.text3,post_survey.habit_change,post_survey.habits,show_exp.thisRepN,show_exp.thisTrialN,show_exp.thisN,show_exp.thisIndex,show_exp.ran,goodbye.started,goodbye.stopped
0.001,0.829,space,0.814,,775216,001,2024-07-12_16h54.22.745,experiment,2024.1.5,MacIntel,62.5,660c14efb98166fe9a990e1e,6691931c2c63981b064e1f0c,6691b135edd2622f923b0f9e,,,,,,,,,,,,,,,,,,,,,,,,,,,,,,,,,,,,,,,,,,,,,,,,,,,,,,,,,,,,,,,,,,,,,,,,,,,,,,,,,,,,,,,,,,,,,,,,,,,,,,,,,,,,,,,,,,,,,,,,,,,,,,,
,,,,,775216,001,2024-07-12_16h54.22.745,experiment,2024.1.5,MacIntel,62.5,660c14efb98166fe9a990e1e,6691931c2c63981b064e1f0c,6691b135edd2622f923b0f9e,yes,no,,,,,,,,,,,,,,,,,,,,,,,,,,,,,,,,,,,,,,,,,,,,,,,,,,,,,,,,,,,,,,,,,,,,,,,,,,,,,,,,,,,,,,,,,,,,,,,,,,,,,,,,,,,,,,,,,,,,,,,,,,,,,
,,,,,775216,001,2024-07-12_16h54.22.745,experiment,2024.1.5,MacIntel,62.5,660c14efb98166fe9a990e1e,6691931c2c63981b064e1f0c,6691b135edd2622f923b0f9e,,,8.597,8.597,,,,,,,,,,,,,,,,,,,,,,,,,,,,,,,,,,,,,,,,,,,,,,,,,,,,,,,,,,,,,,,,,,,,,,,,,,,,,,,,,,,,,,,,,,,,,,,,,,,,,,,,,,,,,,,,,,,,,,,,,,,
,,,,,775216,001,2024-07-12_16h54.22.745,experiment,2024.1.5,MacIntel,62.5,660c14efb98166fe9a990e1e,6691931c2c63981b064e1f0c,6691b135edd2622f923b0f9e,,,,,8.601,9.311,space,0.687,,9.312,11.413,[],[],[],[],[],[],[],n,1.078,,0,0,0,0,1,,,,,,,,,,,,,,,,,,,,,,,,,,,,,,,,,,,,,,,,,,,,,,,,,,,,,,,,,,,,,,,,,,,,,,,,,,,,,,,,,,,,,,,,,,,,,,,,,,,,,
,,,,,775216,001,2024-07-12_16h54.22.745,experiment,2024.1.5,MacIntel,62.5,660c14efb98166fe9a990e1e,6691931c2c63981b064e1f0c,6691b135edd2622f923b0f9e,,,,,,,,,,11.414,15.778,[-0.03666666666666667],[-0.37444444444444447],[1],[0],[0],[2.3169999999999966],[],n,3.332,,1,0,1,0,1,,,,,,,,,,,,,,,,,,,,,,,,,,,,,,,,,,,,,,,,,,,,,,,,,,,,,,,,,,,,,,,,,,,,,,,,,,,,,,,,,,,,,,,,,,,,,,,,,,,,,
,,,,,775216,001,2024-07-12_16h54.22.745,experiment,2024.1.5,MacIntel,62.5,660c14efb98166fe9a990e1e,6691931c2c63981b064e1f0c,6691b135edd2622f923b0f9e,,,,,,,,,,15.778,25.413,[0.06444444444444444],[-0.24333333333333335],[1],[0],[0],[8.086000000000002],[],n,8.617,,2,0,2,0,1,,,,,,,,,,,,,,,,,,,,,,,,,,,,,,,,,,,,,,,,,,,,,,,,,,,,,,,,,,,,,,,,,,,,,,,,,,,,,,,,,,,,,,,,,,,,,,,,,,,,,
,,,,,775216,001,2024-07-12_16h54.22.745,experiment,2024.1.5,MacIntel,62.5,660c14efb98166fe9a990e1e,6691931c2c63981b064e1f0c,6691b135edd2622f923b0f9e,,,,,,,,,,25.413,28.016,[],[],[],[],[],[],[],y,1.59,,3,0,3,0,1,,,,,,,,,,,,,,,,,,,,,,,,,,,,,,,,,,,,,,,,,,,,,,,,,,,,,,,,,,,,,,,,,,,,,,,,,,,,,,,,,,,,,,,,,,,,,,,,,,,,,
,,,,,775216,001,2024-07-12_16h54.22.745,experiment,2024.1.5,MacIntel,62.5,660c14efb98166fe9a990e1e,6691931c2c63981b064e1f0c,6691b135edd2622f923b0f9e,,,,,,,,,,,,,,,,,,,,,,,,,,,28.016,28.98,space,0.938,,28.98,148.989,148.989,166.688,right,14.169,,166.689,233.993,space,67.28,,233.993,242.044,0.141111111,-0.141111111,1,0,0,2.05,compass_2,242.044,243.677,space,1.609,,243.677,243.678,243.71,254.611,0.221111111,0.1,1,0,0,4.9,compass,0,0,0,3,1,SoundStimuli/NoScrubs_TLC_Cover5S.wav,,,,,,,,,,,,,,,,,,,,,,,,,,,,,,,,,,,,,,,,,,,,,,,,,,,,,
,,,,,775216,001,2024-07-12_16h54.22.745,experiment,2024.1.5,MacIntel,62.5,660c14efb98166fe9a990e1e,6691931c2c63981b064e1f0c,6691b135edd2622f923b0f9e,,,,,,,,,,,,,,,,,,,,,,,,,,,,,,,,,,,,,,,,,,,,,,,,,,,,,,,,,,,,254.611,263.628,0.257777778,0.232222222,1,0,0,3.017,compass,0,1,1,5,1,SoundStimuli/MyGirl_TheTemptations_Cover5S.wav,,,,,,,,,,,,,,,,,,,,,,,,,,,,,,,,,,,,,,,,,,,,,,,,,,,,,
,,,,,775216,001,2024-07-12_16h54.22.745,experiment,2024.1.5,MacIntel,62.5,660c14efb98166fe9a990e1e,6691931c2c63981b064e1f0c,6691b135edd2622f923b0f9e,,,,,,,,,,,,,,,,,,,,,,,,,,,,,,,,,,,,,,,,,,,,,,,,,,,,,,,,,,,,263.628,271.862,0.305555556,-0.135555556,1,0,0,2.234,compass,0,2,2,10,1,SoundStimuli/BadDay_DanielPowter_Original5S.wav,,,,,,,,,,,,,,,,,,,,,,,,,,,,,,,,,,,,,,,,,,,,,,,,,,,,,
,,,,,775216,001,2024-07-12_16h54.22.745,experiment,2024.1.5,MacIntel,62.5,660c14efb98166fe9a990e1e,6691931c2c63981b064e1f0c,6691b135edd2622f923b0f9e,,,,,,,,,,,,,,,,,,,,,,,,,,,,,,,,,,,,,,,,,,,,,,,,,,,,,,,,,,,,271.862,280.112,0.295555556,0.305555556,1,0,0,2.249,compass,0,3,3,29,1,SoundStimuli/OldTownRoad_LilNasX_Cover5S.wav,,,,,,,,,,,,,,,,,,,,,,,,,,,,,,,,,,,,,,,,,,,,,,,,,,,,,
,,,,,775216,001,2024-07-12_16h54.22.745,experiment,2024.1.5,MacIntel,62.5,660c14efb98166fe9a990e1e,6691931c2c63981b064e1f0c,6691b135edd2622f923b0f9e,,,,,,,,,,,,,,,,,,,,,,,,,,,,,,,,,,,,,,,,,,,,,,,,,,,,,,,,,,,,280.113,288.296,-0.081111111,-0.107777778,1,0,0,2.166,compass,0,4,4,23,1,SoundStimuli/StrawberryFieldsForever_TheBeatles_Cover5S.wav,,,,,,,,,,,,,,,,,,,,,,,,,,,,,,,,,,,,,,,,,,,,,,,,,,,,,
,,,,,775216,001,2024-07-12_16h54.22.745,experiment,2024.1.5,MacIntel,62.5,660c14efb98166fe9a990e1e,6691931c2c63981b064e1f0c,6691b135edd2622f923b0f9e,,,,,,,,,,,,,,,,,,,,,,,,,,,,,,,,,,,,,,,,,,,,,,,,,,,,,,,,,,,,288.296,296.948,0.35,0.347777778,1,0,0,1.5,compass,0,5,5,14,1,SoundStimuli/BlindingLights_TheWeeknd_Cover5S.wav,,,,,,,,,,,,,,,,,,,,,,,,,,,,,,,,,,,,,,,,,,,,,,,,,,,,,
,,,,,775216,001,2024-07-12_16h54.22.745,experiment,2024.1.5,MacIntel,62.5,660c14efb98166fe9a990e1e,6691931c2c63981b064e1f0c,6691b135edd2622f923b0f9e,,,,,,,,,,,,,,,,,,,,,,,,,,,,,,,,,,,,,,,,,,,,,,,,,,,,,,,,,,,,296.949,303.116,0.211111111,0.098888889,1,0,0,0.152,compass,0,6,6,16,1,SoundStimuli/BohemianRhapsody_Queen_Cover5S.wav,,,,,,,,,,,,,,,,,,,,,,,,,,,,,,,,,,,,,,,,,,,,,,,,,,,,,
,,,,,775216,001,2024-07-12_16h54.22.745,experiment,2024.1.5,MacIntel,62.5,660c14efb98166fe9a990e1e,6691931c2c63981b064e1f0c,6691b135edd2622f923b0f9e,,,,,,,,,,,,,,,,,,,,,,,,,,,,,,,,,,,,,,,,,,,,,,,,,,,,,,,,,,,,303.116,310.432,0.28,0.103333333,1,0,0,1.3,compass,0,7,7,0,1,SoundStimuli/StayinAlive_BeeGees_Cover5S.wav,,,,,,,,,,,,,,,,,,,,,,,,,,,,,,,,,,,,,,,,,,,,,,,,,,,,,
,,,,,775216,001,2024-07-12_16h54.22.745,experiment,2024.1.5,MacIntel,62.5,660c14efb98166fe9a990e1e,6691931c2c63981b064e1f0c,6691b135edd2622f923b0f9e,,,,,,,,,,,,,,,,,,,,,,,,,,,,,,,,,,,,,,,,,,,,,,,,,,,,,,,,,,,,310.432,317.165,-0.335555556,0.332222222,1,0,0,0.717,compass,0,8,8,22,1,SoundStimuli/RockWithYou_MichaelJackson_Cover5S.wav,,,,,,,,,,,,,,,,,,,,,,,,,,,,,,,,,,,,,,,,,,,,,,,,,,,,,
,,,,,775216,001,2024-07-12_16h54.22.745,experiment,2024.1.5,MacIntel,62.5,660c14efb98166fe9a990e1e,6691931c2c63981b064e1f0c,6691b135edd2622f923b0f9e,,,,,,,,,,,,,,,,,,,,,,,,,,,,,,,,,,,,,,,,,,,,,,,,,,,,,,,,,,,,317.165,323.532,0.332222222,0.322222222,1,0,0,0.367,compass,0,9,9,6,1,SoundStimuli/Levitating_DuaLipa_Original5S.wav,,,,,,,,,,,,,,,,,,,,,,,,,,,,,,,,,,,,,,,,,,,,,,,,,,,,,
,,,,,775216,001,2024-07-12_16h54.22.745,experiment,2024.1.5,MacIntel,62.5,660c14efb98166fe9a990e1e,6691931c2c63981b064e1f0c,6691b135edd2622f923b0f9e,,,,,,,,,,,,,,,,,,,,,,,,,,,,,,,,,,,,,,,,,,,,,,,,,,,,,,,,,,,,323.532,335.867,-0.076666667,0.052222222,1,0,0,6.334,compass,0,10,10,1,1,SoundStimuli/Stronger_KanyeWest_Cover5S.wav,,,,,,,,,,,,,,,,,,,,,,,,,,,,,,,,,,,,,,,,,,,,,,,,,,,,,
,,,,,775216,001,2024-07-12_16h54.22.745,experiment,2024.1.5,MacIntel,62.5,660c14efb98166fe9a990e1e,6691931c2c63981b064e1f0c,6691b135edd2622f923b0f9e,,,,,,,,,,,,,,,,,,,,,,,,,,,,,,,,,,,,,,,,,,,,,,,,,,,,,,,,,,,,335.868,343.717,0.278888889,0.068888889,1,0,0,1.834,compass,0,11,11,2,1,SoundStimuli/Mood_24kGoldnianndior_Original5S.wav,,,,,,,,,,,,,,,,,,,,,,,,,,,,,,,,,,,,,,,,,,,,,,,,,,,,,
,,,,,775216,001,2024-07-12_16h54.22.745,experiment,2024.1.5,MacIntel,62.5,660c14efb98166fe9a990e1e,6691931c2c63981b064e1f0c,6691b135edd2622f923b0f9e,,,,,,,,,,,,,,,,,,,,,,,,,,,,,,,,,,,,,,,,,,,,,,,,,,,,,,,,,,,,343.717,350.55,0.337777778,0.336666667,1,0,0,0.833,compass,0,12,12,20,1,SoundStimuli/HeyYa_Outkast_Original5S.wav,,,,,,,,,,,,,,,,,,,,,,,,,,,,,,,,,,,,,,,,,,,,,,,,,,,,,
,,,,,775216,001,2024-07-12_16h54.22.745,experiment,2024.1.5,MacIntel,62.5,660c14efb98166fe9a990e1e,6691931c2c63981b064e1f0c,6691b135edd2622f923b0f9e,,,,,,,,,,,,,,,,,,,,,,,,,,,,,,,,,,,,,,,,,,,,,,,,,,,,,,,,,,,,350.551,357.585,0.001111111,-0.001111111,1,0,0,1.032,compass,0,13,13,30,1,SoundStimuli/PokerFace_LadyGaga_Cover5S.wav,,,,,,,,,,,,,,,,,,,,,,,,,,,,,,,,,,,,,,,,,,,,,,,,,,,,,
,,,,,775216,001,2024-07-12_16h54.22.745,experiment,2024.1.5,MacIntel,62.5,660c14efb98166fe9a990e1e,6691931c2c63981b064e1f0c,6691b135edd2622f923b0f9e,,,,,,,,,,,,,,,,,,,,,,,,,,,,,,,,,,,,,,,,,,,,,,,,,,,,,,,,,,,,357.585,366.135,-0.095555556,0.046666667,1,0,0,2.549,compass,0,14,14,4,1,SoundStimuli/GetUrFreakOn_MissyElliot_Cover5S.wav,,,,,,,,,,,,,,,,,,,,,,,,,,,,,,,,,,,,,,,,,,,,,,,,,,,,,
,,,,,775216,001,2024-07-12_16h54.22.745,experiment,2024.1.5,MacIntel,62.5,660c14efb98166fe9a990e1e,6691931c2c63981b064e1f0c,6691b135edd2622f923b0f9e,,,,,,,,,,,,,,,,,,,,,,,,,,,,,,,,,,,,,,,,,,,,,,,,,,,,,,,,,,,,366.136,374.385,0.342222222,-0.341111111,1,0,0,2.233,compass,0,15,15,19,1,SoundStimuli/LetsGetItOn_MarvinGaye_Original5S.wav,,,,,,,,,,,,,,,,,,,,,,,,,,,,,,,,,,,,,,,,,,,,,,,,,,,,,
,,,,,775216,001,2024-07-12_16h54.22.745,experiment,2024.1.5,MacIntel,62.5,660c14efb98166fe9a990e1e,6691931c2c63981b064e1f0c,6691b135edd2622f923b0f9e,,,,,,,,,,,,,,,,,,,,,,,,,,,,,,,,,,,,,,,,,,,,,,,,,,,,,,,,,,,,374.386,383.136,0.285555556,0.054444444,1,0,0,2.749,compass,0,16,16,12,1,SoundStimuli/IWillAlwaysLoveYou_WhitneyHouston_Original5S.wav,,,,,,,,,,,,,,,,,,,,,,,,,,,,,,,,,,,,,,,,,,,,,,,,,,,,,
,,,,,775216,001,2024-07-12_16h54.22.745,experiment,2024.1.5,MacIntel,62.5,660c14efb98166fe9a990e1e,6691931c2c63981b064e1f0c,6691b135edd2622f923b0f9e,,,,,,,,,,,,,,,,,,,,,,,,,,,,,,,,,,,,,,,,,,,,,,,,,,,,,,,,,,,,383.136,393.32,0.001111111,-0.003333333,1,0,0,4.183,compass,0,17,17,28,1,SoundStimuli/ComeAndGetYourLove_Redbone_Cover5S.wav,,,,,,,,,,,,,,,,,,,,,,,,,,,,,,,,,,,,,,,,,,,,,,,,,,,,,
,,,,,775216,001,2024-07-12_16h54.22.745,experiment,2024.1.5,MacIntel,62.5,660c14efb98166fe9a990e1e,6691931c2c63981b064e1f0c,6691b135edd2622f923b0f9e,,,,,,,,,,,,,,,,,,,,,,,,,,,,,,,,,,,,,,,,,,,,,,,,,,,,,,,,,,,,393.32,401.17,0.323333333,0.314444444,1,0,0,1.849,compass,0,18,18,9,1,SoundStimuli/Despacito_LuisFonsiDaddyYankee_Original5S.wav,,,,,,,,,,,,,,,,,,,,,,,,,,,,,,,,,,,,,,,,,,,,,,,,,,,,,
,,,,,775216,001,2024-07-12_16h54.22.745,experiment,2024.1.5,MacIntel,62.5,660c14efb98166fe9a990e1e,6691931c2c63981b064e1f0c,6691b135edd2622f923b0f9e,,,,,,,,,,,,,,,,,,,,,,,,,,,,,,,,,,,,,,,,,,,,,,,,,,,,,,,,,,,,401.171,408.821,0.095555556,0.026666667,1,0,0,1.649,compass,0,19,19,32,1,SoundStimuli/HeatWaves_GlassAnimals_Cover5S.wav,,,,,,,,,,,,,,,,,,,,,,,,,,,,,,,,,,,,,,,,,,,,,,,,,,,,,
,,,,,775216,001,2024-07-12_16h54.22.745,experiment,2024.1.5,MacIntel,62.5,660c14efb98166fe9a990e1e,6691931c2c63981b064e1f0c,6691b135edd2622f923b0f9e,,,,,,,,,,,,,,,,,,,,,,,,,,,,,,,,,,,,,,,,,,,,,,,,,,,,,,,,,,,,408.821,417.105,0.338888889,-0.34,1,0,0,2.283,compass,0,20,20,34,1,SoundStimuli/AChangeIsGonnaCome_SamCooke_Original5S.wav,,,,,,,,,,,,,,,,,,,,,,,,,,,,,,,,,,,,,,,,,,,,,,,,,,,,,
,,,,,775216,001,2024-07-12_16h54.22.745,experiment,2024.1.5,MacIntel,62.5,660c14efb98166fe9a990e1e,6691931c2c63981b064e1f0c,6691b135edd2622f923b0f9e,,,,,,,,,,,,,,,,,,,,,,,,,,,,,,,,,,,,,,,,,,,,,,,,,,,,,,,,,,,,417.105,431.24,-0.183333333,-0.248888889,1,0,0,8.133,compass,0,21,21,8,1,SoundStimuli/LikeAPrayer_Madonna_Cover5S.wav,,,,,,,,,,,,,,,,,,,,,,,,,,,,,,,,,,,,,,,,,,,,,,,,,,,,,
,,,,,775216,001,2024-07-12_16h54.22.745,experiment,2024.1.5,MacIntel,62.5,660c14efb98166fe9a990e1e,6691931c2c63981b064e1f0c,6691b135edd2622f923b0f9e,,,,,,,,,,,,,,,,,,,,,,,,,,,,,,,,,,,,,,,,,,,,,,,,,,,,,,,,,,,,431.24,439.456,0.336666667,-0.258888889,1,0,0,2.199,compass,0,22,22,17,1,SoundStimuli/Fallin_AliciaKeys_Cover5S.wav,,,,,,,,,,,,,,,,,,,,,,,,,,,,,,,,,,,,,,,,,,,,,,,,,,,,,
,,,,,775216,001,2024-07-12_16h54.22.745,experiment,2024.1.5,MacIntel,62.5,660c14efb98166fe9a990e1e,6691931c2c63981b064e1f0c,6691b135edd2622f923b0f9e,,,,,,,,,,,,,,,,,,,,,,,,,,,,,,,,,,,,,,,,,,,,,,,,,,,,,,,,,,,,439.457,447.023,0.003333333,0,1,0,0,1.565,compass,0,23,23,7,1,SoundStimuli/NoOne_AliciaKeys_Original5S.wav,,,,,,,,,,,,,,,,,,,,,,,,,,,,,,,,,,,,,,,,,,,,,,,,,,,,,
,,,,,775216,001,2024-07-12_16h54.22.745,experiment,2024.1.5,MacIntel,62.5,660c14efb98166fe9a990e1e,6691931c2c63981b064e1f0c,6691b135edd2622f923b0f9e,,,,,,,,,,,,,,,,,,,,,,,,,,,,,,,,,,,,,,,,,,,,,,,,,,,,,,,,,,,,447.024,455.108,0.24,0.036666667,1,0,0,2.083,compass,0,24,24,11,1,SoundStimuli/Superstition_StevieWonder_Original5S.wav,,,,,,,,,,,,,,,,,,,,,,,,,,,,,,,,,,,,,,,,,,,,,,,,,,,,,
,,,,,775216,001,2024-07-12_16h54.22.745,experiment,2024.1.5,MacIntel,62.5,660c14efb98166fe9a990e1e,6691931c2c63981b064e1f0c,6691b135edd2622f923b0f9e,,,,,,,,,,,,,,,,,,,,,,,,,,,,,,,,,,,,,,,,,,,,,,,,,,,,,,,,,,,,455.108,461.741,-0.34,0.334444444,1,0,0,0.633,compass,0,25,25,31,1,SoundStimuli/TheBattleOfNewOrleans_JohnnyHorton_Original5S.wav,,,,,,,,,,,,,,,,,,,,,,,,,,,,,,,,,,,,,,,,,,,,,,,,,,,,,
,,,,,775216,001,2024-07-12_16h54.22.745,experiment,2024.1.5,MacIntel,62.5,660c14efb98166fe9a990e1e,6691931c2c63981b064e1f0c,6691b135edd2622f923b0f9e,,,,,,,,,,,,,,,,,,,,,,,,,,,,,,,,,,,,,,,,,,,,,,,,,,,,,,,,,,,,461.741,468.376,0.327777778,-0.322222222,1,0,0,0.633,compass,0,26,26,27,1,SoundStimuli/ShapeofYou_EdSheeran_Cover5S.wav,,,,,,,,,,,,,,,,,,,,,,,,,,,,,,,,,,,,,,,,,,,,,,,,,,,,,
,,,,,775216,001,2024-07-12_16h54.22.745,experiment,2024.1.5,MacIntel,62.5,660c14efb98166fe9a990e1e,6691931c2c63981b064e1f0c,6691b135edd2622f923b0f9e,,,,,,,,,,,,,,,,,,,,,,,,,,,,,,,,,,,,,,,,,,,,,,,,,,,,,,,,,,,,468.376,475.56,0.152222222,0.108888889,1,0,0,1.182,compass,0,27,27,15,1,SoundStimuli/TikTok_Kesha_Original5S.wav,,,,,,,,,,,,,,,,,,,,,,,,,,,,,,,,,,,,,,,,,,,,,,,,,,,,,
,,,,,775216,001,2024-07-12_16h54.22.745,experiment,2024.1.5,MacIntel,62.5,660c14efb98166fe9a990e1e,6691931c2c63981b064e1f0c,6691b135edd2622f923b0f9e,,,,,,,,,,,,,,,,,,,,,,,,,,,,,,,,,,,,,,,,,,,,,,,,,,,,,,,,,,,,475.56,483.11,0.275555556,0.271111111,1,0,0,1.532,compass,0,28,28,24,1,SoundStimuli/UptownFunk_MarkRonson_Cover5S.wav,,,,,,,,,,,,,,,,,,,,,,,,,,,,,,,,,,,,,,,,,,,,,,,,,,,,,
,,,,,775216,001,2024-07-12_16h54.22.745,experiment,2024.1.5,MacIntel,62.5,660c14efb98166fe9a990e1e,6691931c2c63981b064e1f0c,6691b135edd2622f923b0f9e,,,,,,,,,,,,,,,,,,,,,,,,,,,,,,,,,,,,,,,,,,,,,,,,,,,,,,,,,,,,483.11,489.96,0.297777778,0.306666667,1,0,0,0.85,compass,0,29,29,26,1,SoundStimuli/LivinOnAPrayer_BonJovi_Original5S.wav,,,,,,,,,,,,,,,,,,,,,,,,,,,,,,,,,,,,,,,,,,,,,,,,,,,,,
,,,,,775216,001,2024-07-12_16h54.22.745,experiment,2024.1.5,MacIntel,62.5,660c14efb98166fe9a990e1e,6691931c2c63981b064e1f0c,6691b135edd2622f923b0f9e,,,,,,,,,,,,,,,,,,,,,,,,,,,,,,,,,,,,,,,,,,,,,,,,,,,,,,,,,,,,489.96,500.594,0.001111111,0.006666667,1,0,0,4.633,compass,0,30,30,13,1,SoundStimuli/GodOnlyKnows_TheBeachBoys_Original5S.wav,,,,,,,,,,,,,,,,,,,,,,,,,,,,,,,,,,,,,,,,,,,,,,,,,,,,,
,,,,,775216,001,2024-07-12_16h54.22.745,experiment,2024.1.5,MacIntel,62.5,660c14efb98166fe9a990e1e,6691931c2c63981b064e1f0c,6691b135edd2622f923b0f9e,,,,,,,,,,,,,,,,,,,,,,,,,,,,,,,,,,,,,,,,,,,,,,,,,,,,,,,,,,,,500.594,508.261,0.337777778,-0.16,1,0,0,1.667,compass,0,31,31,21,1,SoundStimuli/GoodGollyMissMolly_LittleRichard_Original5S.wav,,,,,,,,,,,,,,,,,,,,,,,,,,,,,,,,,,,,,,,,,,,,,,,,,,,,,
,,,,,775216,001,2024-07-12_16h54.22.745,experiment,2024.1.5,MacIntel,62.5,660c14efb98166fe9a990e1e,6691931c2c63981b064e1f0c,6691b135edd2622f923b0f9e,,,,,,,,,,,,,,,,,,,,,,,,,,,,,,,,,,,,,,,,,,,,,,,,,,,,,,,,,,,,508.262,517.078,0.057777778,-0.201111111,1,0,0,2.816,compass,0,32,32,18,1,SoundStimuli/AnotherOneBitesTheDust_Queen_Cover5S.wav,,,,,,,,,,,,,,,,,,,,,,,,,,,,,,,,,,,,,,,,,,,,,,,,,,,,,
,,,,,775216,001,2024-07-12_16h54.22.745,experiment,2024.1.5,MacIntel,62.5,660c14efb98166fe9a990e1e,6691931c2c63981b064e1f0c,6691b135edd2622f923b0f9e,,,,,,,,,,,,,,,,,,,,,,,,,,,,,,,,,,,,,,,,,,,,,,,,,,,,,,,,,,,,517.079,525.13,0.342222222,-0.34,1,0,0,2.049,compass,0,33,33,33,1,SoundStimuli/StandByMe_BenEKing_Original5S.wav,,,,,,,,,,,,,,,,,,,,,,,,,,,,,,,,,,,,,,,,,,,,,,,,,,,,,
,,,,,775216,001,2024-07-12_16h54.22.745,experiment,2024.1.5,MacIntel,62.5,660c14efb98166fe9a990e1e,6691931c2c63981b064e1f0c,6691b135edd2622f923b0f9e,,,,,,,,,,,,,,,,,,,,,,,,,,,,,,,,,,,,,,,,,,,,,,,,,,,,,,,,,,,,525.13,531.381,-0.195555556,0.02,1,0,0,0.249,compass,0,34,34,25,1,SoundStimuli/Respect_ArethaFranklin_Cover5S.wav,,,,,,,,,,,,,,,,,,,,,,,,,,,,,,,,,,,,,,,,,,,,,,,,,,,,,
,,,,,775216,001,2024-07-12_16h54.22.745,experiment,2024.1.5,MacIntel,62.5,660c14efb98166fe9a990e1e,6691931c2c63981b064e1f0c,6691b135edd2622f923b0f9e,,,,,,,,,,,,,,,,,,,,,,,,,,,,,,,,,,,,,,,,,,,,,,,,,,,,,,,,,,,,,,,,,,,,,,,,,,,531.381,533.064,space,1.665,,533.064,543.615,right,10.521,,0,0,0,0,1,block_order/blockC.xlsx,,,,,,,,,,,,,,,,,,,,,,,,,,,,,,,,,,,,,
,,,,,775216,001,2024-07-12_16h54.22.745,experiment,2024.1.5,MacIntel,62.5,660c14efb98166fe9a990e1e,6691931c2c63981b064e1f0c,6691b135edd2622f923b0f9e,,,,,,,,,,,,,,,,,,,,,,,,,,,,,,,,,,,,,,,,,,,,,,,,,,,,,,,,,,,,543.624,549.765,0.341111111,-0.337777778,1,0,0,0.135,compass,0,0,0,4,1,SoundStimuli/Dreams_FleetwoodMac_Original5S.wav,,,,,,,,,,,,,,,,,,,,,,,,,,,,,,,,,,,,,,,,,,,,,,,,,,,,,
,,,,,775216,001,2024-07-12_16h54.22.745,experiment,2024.1.5,MacIntel,62.5,660c14efb98166fe9a990e1e,6691931c2c63981b064e1f0c,6691b135edd2622f923b0f9e,,,,,,,,,,,,,,,,,,,,,,,,,,,,,,,,,,,,,,,,,,,,,,,,,,,,,,,,,,,,549.765,558.181,-0.077777778,-0.075555556,1,0,0,2.416,compass,0,1,1,33,1,SoundStimuli/TheBoyIsMine_BrandyMonica_Original5S.wav,,,,,,,,,,,,,,,,,,,,,,,,,,,,,,,,,,,,,,,,,,,,,,,,,,,,,
,,,,,775216,001,2024-07-12_16h54.22.745,experiment,2024.1.5,MacIntel,62.5,660c14efb98166fe9a990e1e,6691931c2c63981b064e1f0c,6691b135edd2622f923b0f9e,,,,,,,,,,,,,,,,,,,,,,,,,,,,,,,,,,,,,,,,,,,,,,,,,,,,,,,,,,,,558.181,564.332,0.315555556,-0.051111111,1,0,0,0.148,compass,0,2,2,5,1,SoundStimuli/JoyToTheWorld_ThreeDogNight_Original5S.wav,,,,,,,,,,,,,,,,,,,,,,,,,,,,,,,,,,,,,,,,,,,,,,,,,,,,,
,,,,,775216,001,2024-07-12_16h54.22.745,experiment,2024.1.5,MacIntel,62.5,660c14efb98166fe9a990e1e,6691931c2c63981b064e1f0c,6691b135edd2622f923b0f9e,,,,,,,,,,,,,,,,,,,,,,,,,,,,,,,,,,,,,,,,,,,,,,,,,,,,,,,,,,,,564.332,570.898,0.296666667,0.037777778,1,0,0,0.565,compass,0,3,3,11,1,SoundStimuli/BlurredLines_RobinThicke_Cover5S.wav,,,,,,,,,,,,,,,,,,,,,,,,,,,,,,,,,,,,,,,,,,,,,,,,,,,,,
,,,,,775216,001,2024-07-12_16h54.22.745,experiment,2024.1.5,MacIntel,62.5,660c14efb98166fe9a990e1e,6691931c2c63981b064e1f0c,6691b135edd2622f923b0f9e,,,,,,,,,,,,,,,,,,,,,,,,,,,,,,,,,,,,,,,,,,,,,,,,,,,,,,,,,,,,570.899,577.499,0.285555556,0.09,1,0,0,0.599,compass,0,4,4,1,1,SoundStimuli/Smooth_SantanaRobThomas_Original5S.wav,,,,,,,,,,,,,,,,,,,,,,,,,,,,,,,,,,,,,,,,,,,,,,,,,,,,,
,,,,,775216,001,2024-07-12_16h54.22.745,experiment,2024.1.5,MacIntel,62.5,660c14efb98166fe9a990e1e,6691931c2c63981b064e1f0c,6691b135edd2622f923b0f9e,,,,,,,,,,,,,,,,,,,,,,,,,,,,,,,,,,,,,,,,,,,,,,,,,,,,,,,,,,,,577.499,584.3,0.001111111,0.002222222,1,0,0,0.801,compass,0,5,5,14,1,SoundStimuli/LikeARollingStone_BobDylan_Original5S.wav,,,,,,,,,,,,,,,,,,,,,,,,,,,,,,,,,,,,,,,,,,,,,,,,,,,,,
,,,,,775216,001,2024-07-12_16h54.22.745,experiment,2024.1.5,MacIntel,62.5,660c14efb98166fe9a990e1e,6691931c2c63981b064e1f0c,6691b135edd2622f923b0f9e,,,,,,,,,,,,,,,,,,,,,,,,,,,,,,,,,,,,,,,,,,,,,,,,,,,,,,,,,,,,584.3,590.85,0.276666667,0.153333333,1,0,0,0.549,compass,0,6,6,28,1,SoundStimuli/IWantToHoldYourHand_TheBeatles_Original5S.wav,,,,,,,,,,,,,,,,,,,,,,,,,,,,,,,,,,,,,,,,,,,,,,,,,,,,,
,,,,,775216,001,2024-07-12_16h54.22.745,experiment,2024.1.5,MacIntel,62.5,660c14efb98166fe9a990e1e,6691931c2c63981b064e1f0c,6691b135edd2622f923b0f9e,,,,,,,,,,,,,,,,,,,,,,,,,,,,,,,,,,,,,,,,,,,,,,,,,,,,,,,,,,,,590.85,601.885,-0.041111111,-0.101111111,1,0,0,5.035,compass,0,7,7,25,1,SoundStimuli/IllMakeLoveToYou_BoyzIIMen_Cover5S.wav,,,,,,,,,,,,,,,,,,,,,,,,,,,,,,,,,,,,,,,,,,,,,,,,,,,,,
,,,,,775216,001,2024-07-12_16h54.22.745,experiment,2024.1.5,MacIntel,62.5,660c14efb98166fe9a990e1e,6691931c2c63981b064e1f0c,6691b135edd2622f923b0f9e,,,,,,,,,,,,,,,,,,,,,,,,,,,,,,,,,,,,,,,,,,,,,,,,,,,,,,,,,,,,601.885,608.351,-0.344444444,-0.332222222,1,0,0,0.45,compass,0,8,8,12,1,SoundStimuli/UnbreakMyHeart_ToniBraxton_Original5S.wav,,,,,,,,,,,,,,,,,,,,,,,,,,,,,,,,,,,,,,,,,,,,,,,,,,,,,
,,,,,775216,001,2024-07-12_16h54.22.745,experiment,2024.1.5,MacIntel,62.5,660c14efb98166fe9a990e1e,6691931c2c63981b064e1f0c,6691b135edd2622f923b0f9e,,,,,,,,,,,,,,,,,,,,,,,,,,,,,,,,,,,,,,,,,,,,,,,,,,,,,,,,,,,,608.352,617.003,-0.058888889,-0.001111111,1,0,0,2.65,compass,0,9,9,26,1,SoundStimuli/TheSign_AceOfBase_Cover5S.wav,,,,,,,,,,,,,,,,,,,,,,,,,,,,,,,,,,,,,,,,,,,,,,,,,,,,,
,,,,,775216,001,2024-07-12_16h54.22.745,experiment,2024.1.5,MacIntel,62.5,660c14efb98166fe9a990e1e,6691931c2c63981b064e1f0c,6691b135edd2622f923b0f9e,,,,,,,,,,,,,,,,,,,,,,,,,,,,,,,,,,,,,,,,,,,,,,,,,,,,,,,,,,,,617.003,623.453,0.342222222,0.336666667,1,0,0,0.434,compass,0,10,10,22,1,SoundStimuli/Happy_PharellWilliams_Original5S.wav,,,,,,,,,,,,,,,,,,,,,,,,,,,,,,,,,,,,,,,,,,,,,,,,,,,,,
,,,,,775216,001,2024-07-12_16h54.22.745,experiment,2024.1.5,MacIntel,62.5,660c14efb98166fe9a990e1e,6691931c2c63981b064e1f0c,6691b135edd2622f923b0f9e,,,,,,,,,,,,,,,,,,,,,,,,,,,,,,,,,,,,,,,,,,,,,,,,,,,,,,,,,,,,623.453,632.986,-0.272222222,-0.002222222,1,0,0,3.533,compass,0,11,11,32,1,SoundStimuli/Dilemma_NellyKellyRowland_Cover5S.wav,,,,,,,,,,,,,,,,,,,,,,,,,,,,,,,,,,,,,,,,,,,,,,,,,,,,,
,,,,,775216,001,2024-07-12_16h54.22.745,experiment,2024.1.5,MacIntel,62.5,660c14efb98166fe9a990e1e,6691931c2c63981b064e1f0c,6691b135edd2622f923b0f9e,,,,,,,,,,,,,,,,,,,,,,,,,,,,,,,,,,,,,,,,,,,,,,,,,,,,,,,,,,,,632.986,639.553,0.333333333,0.332222222,1,0,0,0.567,compass,0,12,12,2,1,SoundStimuli/SmellsLikeTeenSpirit_Nirvana_Original5S.wav,,,,,,,,,,,,,,,,,,,,,,,,,,,,,,,,,,,,,,,,,,,,,,,,,,,,,
,,,,,775216,001,2024-07-12_16h54.22.745,experiment,2024.1.5,MacIntel,62.5,660c14efb98166fe9a990e1e,6691931c2c63981b064e1f0c,6691b135edd2622f923b0f9e,,,,,,,,,,,,,,,,,,,,,,,,,,,,,,,,,,,,,,,,,,,,,,,,,,,,,,,,,,,,639.554,649.021,0.32,-0.29,1,0,0,3.467,compass,0,13,13,18,1,SoundStimuli/Weak_SWV_Cover5S.wav,,,,,,,,,,,,,,,,,,,,,,,,,,,,,,,,,,,,,,,,,,,,,,,,,,,,,
,,,,,775216,001,2024-07-12_16h54.22.745,experiment,2024.1.5,MacIntel,62.5,660c14efb98166fe9a990e1e,6691931c2c63981b064e1f0c,6691b135edd2622f923b0f9e,,,,,,,,,,,,,,,,,,,,,,,,,,,,,,,,,,,,,,,,,,,,,,,,,,,,,,,,,,,,649.021,657.389,0.048888889,-0.057777778,1,0,0,2.368,compass,0,14,14,20,1,SoundStimuli/FlashdanceWhatAFeeling_IreneCara_Original5S.wav,,,,,,,,,,,,,,,,,,,,,,,,,,,,,,,,,,,,,,,,,,,,,,,,,,,,,
,,,,,775216,001,2024-07-12_16h54.22.745,experiment,2024.1.5,MacIntel,62.5,660c14efb98166fe9a990e1e,6691931c2c63981b064e1f0c,6691b135edd2622f923b0f9e,,,,,,,,,,,,,,,,,,,,,,,,,,,,,,,,,,,,,,,,,,,,,,,,,,,,,,,,,,,,657.389,664.522,0.002222222,-0.002222222,1,0,0,1.133,compass,0,15,15,24,1,SoundStimuli/Kiss_Prince_Cover5S.wav,,,,,,,,,,,,,,,,,,,,,,,,,,,,,,,,,,,,,,,,,,,,,,,,,,,,,
,,,,,775216,001,2024-07-12_16h54.22.745,experiment,2024.1.5,MacIntel,62.5,660c14efb98166fe9a990e1e,6691931c2c63981b064e1f0c,6691b135edd2622f923b0f9e,,,,,,,,,,,,,,,,,,,,,,,,,,,,,,,,,,,,,,,,,,,,,,,,,,,,,,,,,,,,664.522,671.306,0.291111111,-0.005555556,1,0,0,0.784,compass,0,16,16,30,1,SoundStimuli/SomebodyThatIUsedtoKnow_Gotye_Original5S.wav,,,,,,,,,,,,,,,,,,,,,,,,,,,,,,,,,,,,,,,,,,,,,,,,,,,,,
,,,,,775216,001,2024-07-12_16h54.22.745,experiment,2024.1.5,MacIntel,62.5,660c14efb98166fe9a990e1e,6691931c2c63981b064e1f0c,6691b135edd2622f923b0f9e,,,,,,,,,,,,,,,,,,,,,,,,,,,,,,,,,,,,,,,,,,,,,,,,,,,,,,,,,,,,671.307,678.973,0.29,0.158888889,1,0,0,1.65,compass,0,17,17,27,1,SoundStimuli/EyeOfTheTiger_Survivor_Cover5S.wav,,,,,,,,,,,,,,,,,,,,,,,,,,,,,,,,,,,,,,,,,,,,,,,,,,,,,
,,,,,775216,001,2024-07-12_16h54.22.745,experiment,2024.1.5,MacIntel,62.5,660c14efb98166fe9a990e1e,6691931c2c63981b064e1f0c,6691b135edd2622f923b0f9e,,,,,,,,,,,,,,,,,,,,,,,,,,,,,,,,,,,,,,,,,,,,,,,,,,,,,,,,,,,,678.974,686.09,0.05,-0.067777778,1,0,0,1.1,compass,0,18,18,23,1,SoundStimuli/IWalkTheLine_JohnnyCash_Original5S.wav,,,,,,,,,,,,,,,,,,,,,,,,,,,,,,,,,,,,,,,,,,,,,,,,,,,,,
,,,,,775216,001,2024-07-12_16h54.22.745,experiment,2024.1.5,MacIntel,62.5,660c14efb98166fe9a990e1e,6691931c2c63981b064e1f0c,6691b135edd2622f923b0f9e,,,,,,,,,,,,,,,,,,,,,,,,,,,,,,,,,,,,,,,,,,,,,,,,,,,,,,,,,,,,686.09,692.724,0.337777778,-0.334444444,1,0,0,0.633,compass,0,19,19,21,1,SoundStimuli/BridgeOverTroubledWater_SimonAndGarfunkel_Original5S.wav,,,,,,,,,,,,,,,,,,,,,,,,,,,,,,,,,,,,,,,,,,,,,,,,,,,,,
,,,,,775216,001,2024-07-12_16h54.22.745,experiment,2024.1.5,MacIntel,62.5,660c14efb98166fe9a990e1e,6691931c2c63981b064e1f0c,6691b135edd2622f923b0f9e,,,,,,,,,,,,,,,,,,,,,,,,,,,,,,,,,,,,,,,,,,,,,,,,,,,,,,,,,,,,692.724,700.125,-0.183333333,0.131111111,1,0,0,1.4,compass,0,20,20,7,1,SoundStimuli/MackTheKnife_BobbyDarin_Cover5S.wav,,,,,,,,,,,,,,,,,,,,,,,,,,,,,,,,,,,,,,,,,,,,,,,,,,,,,
,,,,,775216,001,2024-07-12_16h54.22.745,experiment,2024.1.5,MacIntel,62.5,660c14efb98166fe9a990e1e,6691931c2c63981b064e1f0c,6691b135edd2622f923b0f9e,,,,,,,,,,,,,,,,,,,,,,,,,,,,,,,,,,,,,,,,,,,,,,,,,,,,,,,,,,,,700.126,710.442,0.26,-0.131111111,1,0,0,4.301,compass,0,21,21,19,1,SoundStimuli/YouLightUpMyLife_DebbyBoone_Original5S.wav,,,,,,,,,,,,,,,,,,,,,,,,,,,,,,,,,,,,,,,,,,,,,,,,,,,,,
,,,,,775216,001,2024-07-12_16h54.22.745,experiment,2024.1.5,MacIntel,62.5,660c14efb98166fe9a990e1e,6691931c2c63981b064e1f0c,6691b135edd2622f923b0f9e,,,,,,,,,,,,,,,,,,,,,,,,,,,,,,,,,,,,,,,,,,,,,,,,,,,,,,,,,,,,710.442,721.325,-0.037777778,0.028888889,1,0,0,4.881,compass,0,22,22,29,1,SoundStimuli/BetteDavisEyes_KimCarnes_Original5S.wav,,,,,,,,,,,,,,,,,,,,,,,,,,,,,,,,,,,,,,,,,,,,,,,,,,,,,
,,,,,775216,001,2024-07-12_16h54.22.745,experiment,2024.1.5,MacIntel,62.5,660c14efb98166fe9a990e1e,6691931c2c63981b064e1f0c,6691b135edd2622f923b0f9e,,,,,,,,,,,,,,,,,,,,,,,,,,,,,,,,,,,,,,,,,,,,,,,,,,,,,,,,,,,,721.326,729.209,0.337777778,-0.334444444,1,0,0,1.882,compass,0,23,23,13,1,SoundStimuli/Perfect_EdSheeran_Cover5S.wav,,,,,,,,,,,,,,,,,,,,,,,,,,,,,,,,,,,,,,,,,,,,,,,,,,,,,
,,,,,775216,001,2024-07-12_16h54.22.745,experiment,2024.1.5,MacIntel,62.5,660c14efb98166fe9a990e1e,6691931c2c63981b064e1f0c,6691b135edd2622f923b0f9e,,,,,,,,,,,,,,,,,,,,,,,,,,,,,,,,,,,,,,,,,,,,,,,,,,,,,,,,,,,,729.21,737.077,-0.338888889,-0.331111111,1,0,0,1.867,compass,0,24,24,15,1,SoundStimuli/CrazyInLove_BeyonceFtJayZ_Cover5S.wav,,,,,,,,,,,,,,,,,,,,,,,,,,,,,,,,,,,,,,,,,,,,,,,,,,,,,
,,,,,775216,001,2024-07-12_16h54.22.745,experiment,2024.1.5,MacIntel,62.5,660c14efb98166fe9a990e1e,6691931c2c63981b064e1f0c,6691b135edd2622f923b0f9e,,,,,,,,,,,,,,,,,,,,,,,,,,,,,,,,,,,,,,,,,,,,,,,,,,,,,,,,,,,,737.077,747.111,0,0,1,0,0,4.034,compass,0,25,25,31,1,SoundStimuli/TossinAndTurnin_BobbyLewis_Original5S.wav,,,,,,,,,,,,,,,,,,,,,,,,,,,,,,,,,,,,,,,,,,,,,,,,,,,,,
,,,,,775216,001,2024-07-12_16h54.22.745,experiment,2024.1.5,MacIntel,62.5,660c14efb98166fe9a990e1e,6691931c2c63981b064e1f0c,6691b135edd2622f923b0f9e,,,,,,,,,,,,,,,,,,,,,,,,,,,,,,,,,,,,,,,,,,,,,,,,,,,,,,,,,,,,747.111,754.829,0.332222222,-0.274444444,1,0,0,1.717,compass,0,26,26,34,1,SoundStimuli/Irreplaceable_Beyonce_Cover5S.wav,,,,,,,,,,,,,,,,,,,,,,,,,,,,,,,,,,,,,,,,,,,,,,,,,,,,,
,,,,,775216,001,2024-07-12_16h54.22.745,experiment,2024.1.5,MacIntel,62.5,660c14efb98166fe9a990e1e,6691931c2c63981b064e1f0c,6691b135edd2622f923b0f9e,,,,,,,,,,,,,,,,,,,,,,,,,,,,,,,,,,,,,,,,,,,,,,,,,,,,,,,,,,,,754.829,762.996,0.333333333,-0.338888889,1,0,0,2.167,compass,0,27,27,16,1,SoundStimuli/ItsAllInTheGame_TommyEdwards_Cover5S.wav,,,,,,,,,,,,,,,,,,,,,,,,,,,,,,,,,,,,,,,,,,,,,,,,,,,,,
,,,,,775216,001,2024-07-12_16h54.22.745,experiment,2024.1.5,MacIntel,62.5,660c14efb98166fe9a990e1e,6691931c2c63981b064e1f0c,6691b135edd2622f923b0f9e,,,,,,,,,,,,,,,,,,,,,,,,,,,,,,,,,,,,,,,,,,,,,,,,,,,,,,,,,,,,762.997,770.946,-0.043333333,0.045555556,1,0,0,1.932,compass,0,28,28,10,1,SoundStimuli/LeFreak_Chic_Cover5S.wav,,,,,,,,,,,,,,,,,,,,,,,,,,,,,,,,,,,,,,,,,,,,,,,,,,,,,
,,,,,775216,001,2024-07-12_16h54.22.745,experiment,2024.1.5,MacIntel,62.5,660c14efb98166fe9a990e1e,6691931c2c63981b064e1f0c,6691b135edd2622f923b0f9e,,,,,,,,,,,,,,,,,,,,,,,,,,,,,,,,,,,,,,,,,,,,,,,,,,,,,,,,,,,,770.946,779.58,-0.351111111,0,1,0,0,1.733,compass,0,29,29,0,1,SoundStimuli/GimmeShelter_RollingStones_Original5S.wav,,,,,,,,,,,,,,,,,,,,,,,,,,,,,,,,,,,,,,,,,,,,,,,,,,,,,
,,,,,775216,001,2024-07-12_16h54.22.745,experiment,2024.1.5,MacIntel,62.5,660c14efb98166fe9a990e1e,6691931c2c63981b064e1f0c,6691b135edd2622f923b0f9e,,,,,,,,,,,,,,,,,,,,,,,,,,,,,,,,,,,,,,,,,,,,,,,,,,,,,,,,,,,,779.581,787.53,-0.063333333,-0.096666667,1,0,0,1.934,compass,0,30,30,6,1,SoundStimuli/SaveYourTears_TheWeekndArianaGrande_Cover5S.wav,,,,,,,,,,,,,,,,,,,,,,,,,,,,,,,,,,,,,,,,,,,,,,,,,,,,,
,,,,,775216,001,2024-07-12_16h54.22.745,experiment,2024.1.5,MacIntel,62.5,660c14efb98166fe9a990e1e,6691931c2c63981b064e1f0c,6691b135edd2622f923b0f9e,,,,,,,,,,,,,,,,,,,,,,,,,,,,,,,,,,,,,,,,,,,,,,,,,,,,,,,,,,,,787.531,793.765,0,-0.001111111,1,0,0,0.217,compass,0,31,31,9,1,SoundStimuli/HowDoILive_LeAnnRimes_Cover5S.wav,,,,,,,,,,,,,,,,,,,,,,,,,,,,,,,,,,,,,,,,,,,,,,,,,,,,,
,,,,,775216,001,2024-07-12_16h54.22.745,experiment,2024.1.5,MacIntel,62.5,660c14efb98166fe9a990e1e,6691931c2c63981b064e1f0c,6691b135edd2622f923b0f9e,,,,,,,,,,,,,,,,,,,,,,,,,,,,,,,,,,,,,,,,,,,,,,,,,,,,,,,,,,,,793.765,800.698,0.151111111,0.041111111,1,0,0,0.917,compass,0,32,32,17,1,SoundStimuli/IWannaDanceWithSomebody_WhitneyHouston_Original5S.wav,,,,,,,,,,,,,,,,,,,,,,,,,,,,,,,,,,,,,,,,,,,,,,,,,,,,,
,,,,,775216,001,2024-07-12_16h54.22.745,experiment,2024.1.5,MacIntel,62.5,660c14efb98166fe9a990e1e,6691931c2c63981b064e1f0c,6691b135edd2622f923b0f9e,,,,,,,,,,,,,,,,,,,,,,,,,,,,,,,,,,,,,,,,,,,,,,,,,,,,,,,,,,,,800.699,807.466,0.34,0.343333333,1,0,0,0.751,compass,0,33,33,3,1,SoundStimuli/PartyRockAnthem_LMFAO_Original5S.wav,,,,,,,,,,,,,,,,,,,,,,,,,,,,,,,,,,,,,,,,,,,,,,,,,,,,,
,,,,,775216,001,2024-07-12_16h54.22.745,experiment,2024.1.5,MacIntel,62.5,660c14efb98166fe9a990e1e,6691931c2c63981b064e1f0c,6691b135edd2622f923b0f9e,,,,,,,,,,,,,,,,,,,,,,,,,,,,,,,,,,,,,,,,,,,,,,,,,,,,,,,,,,,,807.466,819.666,0.028888889,-0.048888889,1,0,0,6.183,compass,0,34,34,8,1,SoundStimuli/EndlessLove_DianaRossLionelRichie_Cover5S.wav,,,,,,,,,,,,,,,,,,,,,,,,,,,,,,,,,,,,,,,,,,,,,,,,,,,,,
,,,,,775216,001,2024-07-12_16h54.22.745,experiment,2024.1.5,MacIntel,62.5,660c14efb98166fe9a990e1e,6691931c2c63981b064e1f0c,6691b135edd2622f923b0f9e,,,,,,,,,,,,,,,,,,,,,,,,,,,,,,,,,,,,,,,,,,,,,,,,,,,,,,,,,,,,,,,,,,,,,,,,,,,819.666,820.833,space,1.152,,820.833,823.133,right,2.282,,0,1,1,1,1,block_order/blockD.xlsx,,,,,,,,,,,,,,,,,,,,,,,,,,,,,,,,,,,,,
,,,,,775216,001,2024-07-12_16h54.22.745,experiment,2024.1.5,MacIntel,62.5,660c14efb98166fe9a990e1e,6691931c2c63981b064e1f0c,6691b135edd2622f923b0f9e,,,,,,,,,,,,,,,,,,,,,,,,,,,,,,,,,,,,,,,,,,,,,,,,,,,,,,,,,,,,823.142,829.951,0.337777778,0.334444444,1,0,0,0.801,compass,0,0,0,24,1,SoundStimuli/UptownFunk_MarkRonson_Original5S.wav,,,,,,,,,,,,,,,,,,,,,,,,,,,,,,,,,,,,,,,,,,,,,,,,,,,,,
,,,,,775216,001,2024-07-12_16h54.22.745,experiment,2024.1.5,MacIntel,62.5,660c14efb98166fe9a990e1e,6691931c2c63981b064e1f0c,6691b135edd2622f923b0f9e,,,,,,,,,,,,,,,,,,,,,,,,,,,,,,,,,,,,,,,,,,,,,,,,,,,,,,,,,,,,829.951,836.517,-0.335555556,0.333333333,1,0,0,0.566,compass,0,1,1,6,1,SoundStimuli/Levitating_DuaLipa_Cover5S.wav,,,,,,,,,,,,,,,,,,,,,,,,,,,,,,,,,,,,,,,,,,,,,,,,,,,,,
,,,,,775216,001,2024-07-12_16h54.22.745,experiment,2024.1.5,MacIntel,62.5,660c14efb98166fe9a990e1e,6691931c2c63981b064e1f0c,6691b135edd2622f923b0f9e,,,,,,,,,,,,,,,,,,,,,,,,,,,,,,,,,,,,,,,,,,,,,,,,,,,,,,,,,,,,836.517,843.151,0.34,-0.34,1,0,0,0.634,compass,0,2,2,33,1,SoundStimuli/StandByMe_BenEKing_Cover5S.wav,,,,,,,,,,,,,,,,,,,,,,,,,,,,,,,,,,,,,,,,,,,,,,,,,,,,,
,,,,,775216,001,2024-07-12_16h54.22.745,experiment,2024.1.5,MacIntel,62.5,660c14efb98166fe9a990e1e,6691931c2c63981b064e1f0c,6691b135edd2622f923b0f9e,,,,,,,,,,,,,,,,,,,,,,,,,,,,,,,,,,,,,,,,,,,,,,,,,,,,,,,,,,,,843.151,850.351,0.131111111,0.084444444,1,0,0,1.199,compass,0,3,3,14,1,SoundStimuli/BlindingLights_TheWeeknd_Original5S.wav,,,,,,,,,,,,,,,,,,,,,,,,,,,,,,,,,,,,,,,,,,,,,,,,,,,,,
,,,,,775216,001,2024-07-12_16h54.22.745,experiment,2024.1.5,MacIntel,62.5,660c14efb98166fe9a990e1e,6691931c2c63981b064e1f0c,6691b135edd2622f923b0f9e,,,,,,,,,,,,,,,,,,,,,,,,,,,,,,,,,,,,,,,,,,,,,,,,,,,,,,,,,,,,850.352,856.852,0,0.002222222,1,0,0,0.485,compass,0,4,4,8,1,SoundStimuli/LikeAPrayer_Madonna_Original5S.wav,,,,,,,,,,,,,,,,,,,,,,,,,,,,,,,,,,,,,,,,,,,,,,,,,,,,,
,,,,,775216,001,2024-07-12_16h54.22.745,experiment,2024.1.5,MacIntel,62.5,660c14efb98166fe9a990e1e,6691931c2c63981b064e1f0c,6691b135edd2622f923b0f9e,,,,,,,,,,,,,,,,,,,,,,,,,,,,,,,,,,,,,,,,,,,,,,,,,,,,,,,,,,,,856.853,864.771,0.302222222,-0.123333333,1,0,0,1.903,compass,0,5,5,9,1,SoundStimuli/Despacito_LuisFonsiDaddyYankee_Cover5S.wav,,,,,,,,,,,,,,,,,,,,,,,,,,,,,,,,,,,,,,,,,,,,,,,,,,,,,
,,,,,775216,001,2024-07-12_16h54.22.745,experiment,2024.1.5,MacIntel,62.5,660c14efb98166fe9a990e1e,6691931c2c63981b064e1f0c,6691b135edd2622f923b0f9e,,,,,,,,,,,,,,,,,,,,,,,,,,,,,,,,,,,,,,,,,,,,,,,,,,,,,,,,,,,,864.772,874.653,0.32,0.318888889,1,0,0,3.867,compass,0,6,6,3,1,SoundStimuli/NoScrubs_TLC_Original5S.wav,,,,,,,,,,,,,,,,,,,,,,,,,,,,,,,,,,,,,,,,,,,,,,,,,,,,,
,,,,,775216,001,2024-07-12_16h54.22.745,experiment,2024.1.5,MacIntel,62.5,660c14efb98166fe9a990e1e,6691931c2c63981b064e1f0c,6691b135edd2622f923b0f9e,,,,,,,,,,,,,,,,,,,,,,,,,,,,,,,,,,,,,,,,,,,,,,,,,,,,,,,,,,,,874.653,883.237,-0.001111111,0.003333333,1,0,0,2.584,compass,0,7,7,31,1,SoundStimuli/TheBattleOfNewOrleans_JohnnyHorton_Cover5S.wav,,,,,,,,,,,,,,,,,,,,,,,,,,,,,,,,,,,,,,,,,,,,,,,,,,,,,
,,,,,775216,001,2024-07-12_16h54.22.745,experiment,2024.1.5,MacIntel,62.5,660c14efb98166fe9a990e1e,6691931c2c63981b064e1f0c,6691b135edd2622f923b0f9e,,,,,,,,,,,,,,,,,,,,,,,,,,,,,,,,,,,,,,,,,,,,,,,,,,,,,,,,,,,,883.237,891.754,0.326666667,-0.337777778,1,0,0,2.517,compass,0,8,8,10,1,SoundStimuli/BadDay_DanielPowter_Cover5S.wav,,,,,,,,,,,,,,,,,,,,,,,,,,,,,,,,,,,,,,,,,,,,,,,,,,,,,
,,,,,775216,001,2024-07-12_16h54.22.745,experiment,2024.1.5,MacIntel,62.5,660c14efb98166fe9a990e1e,6691931c2c63981b064e1f0c,6691b135edd2622f923b0f9e,,,,,,,,,,,,,,,,,,,,,,,,,,,,,,,,,,,,,,,,,,,,,,,,,,,,,,,,,,,,891.755,898.672,0.161111111,0.116666667,1,0,0,0.901,compass,0,9,9,30,1,SoundStimuli/PokerFace_LadyGaga_Original5S.wav,,,,,,,,,,,,,,,,,,,,,,,,,,,,,,,,,,,,,,,,,,,,,,,,,,,,,
,,,,,775216,001,2024-07-12_16h54.22.745,experiment,2024.1.5,MacIntel,62.5,660c14efb98166fe9a990e1e,6691931c2c63981b064e1f0c,6691b135edd2622f923b0f9e,,,,,,,,,,,,,,,,,,,,,,,,,,,,,,,,,,,,,,,,,,,,,,,,,,,,,,,,,,,,898.672,905.339,0.338888889,-0.334444444,1,0,0,0.651,compass,0,10,10,2,1,SoundStimuli/Mood_24kGoldnianndior_Cover5S.wav,,,,,,,,,,,,,,,,,,,,,,,,,,,,,,,,,,,,,,,,,,,,,,,,,,,,,
,,,,,775216,001,2024-07-12_16h54.22.745,experiment,2024.1.5,MacIntel,62.5,660c14efb98166fe9a990e1e,6691931c2c63981b064e1f0c,6691b135edd2622f923b0f9e,,,,,,,,,,,,,,,,,,,,,,,,,,,,,,,,,,,,,,,,,,,,,,,,,,,,,,,,,,,,905.339,914.189,-0.002222222,-0.004444444,1,0,0,2.85,compass,0,11,11,19,1,SoundStimuli/LetsGetItOn_MarvinGaye_Cover5S.wav,,,,,,,,,,,,,,,,,,,,,,,,,,,,,,,,,,,,,,,,,,,,,,,,,,,,,
,,,,,775216,001,2024-07-12_16h54.22.745,experiment,2024.1.5,MacIntel,62.5,660c14efb98166fe9a990e1e,6691931c2c63981b064e1f0c,6691b135edd2622f923b0f9e,,,,,,,,,,,,,,,,,,,,,,,,,,,,,,,,,,,,,,,,,,,,,,,,,,,,,,,,,,,,914.189,920.789,0.337777778,-0.333333333,1,0,0,0.6,compass,0,12,12,32,1,SoundStimuli/HeatWaves_GlassAnimals_Original5S.wav,,,,,,,,,,,,,,,,,,,,,,,,,,,,,,,,,,,,,,,,,,,,,,,,,,,,,
,,,,,775216,001,2024-07-12_16h54.22.745,experiment,2024.1.5,MacIntel,62.5,660c14efb98166fe9a990e1e,6691931c2c63981b064e1f0c,6691b135edd2622f923b0f9e,,,,,,,,,,,,,,,,,,,,,,,,,,,,,,,,,,,,,,,,,,,,,,,,,,,,,,,,,,,,920.79,929.44,0.333333333,-0.341111111,1,0,0,2.633,compass,0,13,13,15,1,SoundStimuli/TikTok_Kesha_Cover5S.wav,,,,,,,,,,,,,,,,,,,,,,,,,,,,,,,,,,,,,,,,,,,,,,,,,,,,,
,,,,,775216,001,2024-07-12_16h54.22.745,experiment,2024.1.5,MacIntel,62.5,660c14efb98166fe9a990e1e,6691931c2c63981b064e1f0c,6691b135edd2622f923b0f9e,,,,,,,,,,,,,,,,,,,,,,,,,,,,,,,,,,,,,,,,,,,,,,,,,,,,,,,,,,,,929.44,937.974,0.001111111,-0.002222222,1,0,0,2.534,compass,0,14,14,20,1,SoundStimuli/HeyYa_Outkast_Cover5S.wav,,,,,,,,,,,,,,,,,,,,,,,,,,,,,,,,,,,,,,,,,,,,,,,,,,,,,
,,,,,775216,001,2024-07-12_16h54.22.745,experiment,2024.1.5,MacIntel,62.5,660c14efb98166fe9a990e1e,6691931c2c63981b064e1f0c,6691b135edd2622f923b0f9e,,,,,,,,,,,,,,,,,,,,,,,,,,,,,,,,,,,,,,,,,,,,,,,,,,,,,,,,,,,,937.975,944.675,0.332222222,0.335555556,1,0,0,0.683,compass,0,15,15,18,1,SoundStimuli/AnotherOneBitesTheDust_Queen_Original5S.wav,,,,,,,,,,,,,,,,,,,,,,,,,,,,,,,,,,,,,,,,,,,,,,,,,,,,,
,,,,,775216,001,2024-07-12_16h54.22.745,experiment,2024.1.5,MacIntel,62.5,660c14efb98166fe9a990e1e,6691931c2c63981b064e1f0c,6691b135edd2622f923b0f9e,,,,,,,,,,,,,,,,,,,,,,,,,,,,,,,,,,,,,,,,,,,,,,,,,,,,,,,,,,,,944.675,951.858,0.336666667,-0.335555556,1,0,0,1.167,compass,0,16,16,26,1,SoundStimuli/LivinOnAPrayer_BonJovi_Cover5S.wav,,,,,,,,,,,,,,,,,,,,,,,,,,,,,,,,,,,,,,,,,,,,,,,,,,,,,
,,,,,775216,001,2024-07-12_16h54.22.745,experiment,2024.1.5,MacIntel,62.5,660c14efb98166fe9a990e1e,6691931c2c63981b064e1f0c,6691b135edd2622f923b0f9e,,,,,,,,,,,,,,,,,,,,,,,,,,,,,,,,,,,,,,,,,,,,,,,,,,,,,,,,,,,,951.859,961.493,0.18,0.197777778,1,0,0,3.618,compass,0,17,17,16,1,SoundStimuli/BohemianRhapsody_Queen_Original5S.wav,,,,,,,,,,,,,,,,,,,,,,,,,,,,,,,,,,,,,,,,,,,,,,,,,,,,,
,,,,,775216,001,2024-07-12_16h54.22.745,experiment,2024.1.5,MacIntel,62.5,660c14efb98166fe9a990e1e,6691931c2c63981b064e1f0c,6691b135edd2622f923b0f9e,,,,,,,,,,,,,,,,,,,,,,,,,,,,,,,,,,,,,,,,,,,,,,,,,,,,,,,,,,,,961.493,968.493,0.294444444,0.288888889,1,0,0,1,compass,0,18,18,7,1,SoundStimuli/NoOne_AliciaKeys_Cover5S.wav,,,,,,,,,,,,,,,,,,,,,,,,,,,,,,,,,,,,,,,,,,,,,,,,,,,,,
,,,,,775216,001,2024-07-12_16h54.22.745,experiment,2024.1.5,MacIntel,62.5,660c14efb98166fe9a990e1e,6691931c2c63981b064e1f0c,6691b135edd2622f923b0f9e,,,,,,,,,,,,,,,,,,,,,,,,,,,,,,,,,,,,,,,,,,,,,,,,,,,,,,,,,,,,968.493,983.01,0.333333333,0.334444444,1,0,0,8.517,compass,0,19,19,25,1,SoundStimuli/Respect_ArethaFranklin_Original5S.wav,,,,,,,,,,,,,,,,,,,,,,,,,,,,,,,,,,,,,,,,,,,,,,,,,,,,,
,,,,,775216,001,2024-07-12_16h54.22.745,experiment,2024.1.5,MacIntel,62.5,660c14efb98166fe9a990e1e,6691931c2c63981b064e1f0c,6691b135edd2622f923b0f9e,,,,,,,,,,,,,,,,,,,,,,,,,,,,,,,,,,,,,,,,,,,,,,,,,,,,,,,,,,,,983.01,990.777,0.336666667,0.341111111,1,0,0,1.767,compass,0,20,20,4,1,SoundStimuli/GetUrFreakOn_MissyElliot_Original5S.wav,,,,,,,,,,,,,,,,,,,,,,,,,,,,,,,,,,,,,,,,,,,,,,,,,,,,,
,,,,,775216,001,2024-07-12_16h54.22.745,experiment,2024.1.5,MacIntel,62.5,660c14efb98166fe9a990e1e,6691931c2c63981b064e1f0c,6691b135edd2622f923b0f9e,,,,,,,,,,,,,,,,,,,,,,,,,,,,,,,,,,,,,,,,,,,,,,,,,,,,,,,,,,,,990.777,997.628,0.198888889,-0.197777778,1,0,0,0.85,compass,0,21,21,28,1,SoundStimuli/ComeAndGetYourLove_Redbone_Original5S.wav,,,,,,,,,,,,,,,,,,,,,,,,,,,,,,,,,,,,,,,,,,,,,,,,,,,,,
,,,,,775216,001,2024-07-12_16h54.22.745,experiment,2024.1.5,MacIntel,62.5,660c14efb98166fe9a990e1e,6691931c2c63981b064e1f0c,6691b135edd2622f923b0f9e,,,,,,,,,,,,,,,,,,,,,,,,,,,,,,,,,,,,,,,,,,,,,,,,,,,,,,,,,,,,997.628,1003.778,0.007777778,-0.005555556,1,0,0,0.15,compass,0,22,22,11,1,SoundStimuli/Superstition_StevieWonder_Cover5S.wav,,,,,,,,,,,,,,,,,,,,,,,,,,,,,,,,,,,,,,,,,,,,,,,,,,,,,
,,,,,775216,001,2024-07-12_16h54.22.745,experiment,2024.1.5,MacIntel,62.5,660c14efb98166fe9a990e1e,6691931c2c63981b064e1f0c,6691b135edd2622f923b0f9e,,,,,,,,,,,,,,,,,,,,,,,,,,,,,,,,,,,,,,,,,,,,,,,,,,,,,,,,,,,,1003.779,1009.879,0.007777778,-0.004444444,1,0,0,0.083,compass,0,23,23,34,1,SoundStimuli/AChangeIsGonnaCome_SamCooke_Cover5S.wav,,,,,,,,,,,,,,,,,,,,,,,,,,,,,,,,,,,,,,,,,,,,,,,,,,,,,
,,,,,775216,001,2024-07-12_16h54.22.745,experiment,2024.1.5,MacIntel,62.5,660c14efb98166fe9a990e1e,6691931c2c63981b064e1f0c,6691b135edd2622f923b0f9e,,,,,,,,,,,,,,,,,,,,,,,,,,,,,,,,,,,,,,,,,,,,,,,,,,,,,,,,,,,,1009.879,1017.647,0.338888889,0.341111111,1,0,0,1.766,compass,0,24,24,5,1,SoundStimuli/MyGirl_TheTemptations_Original5S.wav,,,,,,,,,,,,,,,,,,,,,,,,,,,,,,,,,,,,,,,,,,,,,,,,,,,,,
,,,,,775216,001,2024-07-12_16h54.22.745,experiment,2024.1.5,MacIntel,62.5,660c14efb98166fe9a990e1e,6691931c2c63981b064e1f0c,6691b135edd2622f923b0f9e,,,,,,,,,,,,,,,,,,,,,,,,,,,,,,,,,,,,,,,,,,,,,,,,,,,,,,,,,,,,1017.647,1025.647,0.342222222,0.343333333,1,0,0,1.985,compass,0,25,25,27,1,SoundStimuli/ShapeofYou_EdSheeran_Original5S.wav,,,,,,,,,,,,,,,,,,,,,,,,,,,,,,,,,,,,,,,,,,,,,,,,,,,,,
,,,,,775216,001,2024-07-12_16h54.22.745,experiment,2024.1.5,MacIntel,62.5,660c14efb98166fe9a990e1e,6691931c2c63981b064e1f0c,6691b135edd2622f923b0f9e,,,,,,,,,,,,,,,,,,,,,,,,,,,,,,,,,,,,,,,,,,,,,,,,,,,,,,,,,,,,1025.647,1032.847,0.067777778,-0.318888889,1,0,0,1.183,compass,0,26,26,13,1,SoundStimuli/GodOnlyKnows_TheBeachBoys_Cover5S.wav,,,,,,,,,,,,,,,,,,,,,,,,,,,,,,,,,,,,,,,,,,,,,,,,,,,,,
,,,,,775216,001,2024-07-12_16h54.22.745,experiment,2024.1.5,MacIntel,62.5,660c14efb98166fe9a990e1e,6691931c2c63981b064e1f0c,6691b135edd2622f923b0f9e,,,,,,,,,,,,,,,,,,,,,,,,,,,,,,,,,,,,,,,,,,,,,,,,,,,,,,,,,,,,1032.847,1042.648,0.338888889,0.338888889,1,0,0,3.785,compass,0,27,27,0,1,SoundStimuli/StayinAlive_BeeGees_Original5S.wav,,,,,,,,,,,,,,,,,,,,,,,,,,,,,,,,,,,,,,,,,,,,,,,,,,,,,
,,,,,775216,001,2024-07-12_16h54.22.745,experiment,2024.1.5,MacIntel,62.5,660c14efb98166fe9a990e1e,6691931c2c63981b064e1f0c,6691b135edd2622f923b0f9e,,,,,,,,,,,,,,,,,,,,,,,,,,,,,,,,,,,,,,,,,,,,,,,,,,,,,,,,,,,,1042.648,1053.549,0,0.002222222,1,0,0,4.885,compass,0,28,28,23,1,SoundStimuli/StrawberryFieldsForever_TheBeatles_Original5S.wav,,,,,,,,,,,,,,,,,,,,,,,,,,,,,,,,,,,,,,,,,,,,,,,,,,,,,
,,,,,775216,001,2024-07-12_16h54.22.745,experiment,2024.1.5,MacIntel,62.5,660c14efb98166fe9a990e1e,6691931c2c63981b064e1f0c,6691b135edd2622f923b0f9e,,,,,,,,,,,,,,,,,,,,,,,,,,,,,,,,,,,,,,,,,,,,,,,,,,,,,,,,,,,,1053.549,1060.616,-0.342222222,-0.338888889,1,0,0,1.067,compass,0,29,29,12,1,SoundStimuli/IWillAlwaysLoveYou_WhitneyHouston_Cover5S.wav,,,,,,,,,,,,,,,,,,,,,,,,,,,,,,,,,,,,,,,,,,,,,,,,,,,,,
,,,,,775216,001,2024-07-12_16h54.22.745,experiment,2024.1.5,MacIntel,62.5,660c14efb98166fe9a990e1e,6691931c2c63981b064e1f0c,6691b135edd2622f923b0f9e,,,,,,,,,,,,,,,,,,,,,,,,,,,,,,,,,,,,,,,,,,,,,,,,,,,,,,,,,,,,1060.616,1069.901,0.05,0.051111111,1,0,0,3.268,compass,0,30,30,21,1,SoundStimuli/GoodGollyMissMolly_LittleRichard_Cover5S.wav,,,,,,,,,,,,,,,,,,,,,,,,,,,,,,,,,,,,,,,,,,,,,,,,,,,,,
,,,,,775216,001,2024-07-12_16h54.22.745,experiment,2024.1.5,MacIntel,62.5,660c14efb98166fe9a990e1e,6691931c2c63981b064e1f0c,6691b135edd2622f923b0f9e,,,,,,,,,,,,,,,,,,,,,,,,,,,,,,,,,,,,,,,,,,,,,,,,,,,,,,,,,,,,1069.901,1076.917,0.297777778,0.3,1,0,0,1.001,compass,0,31,31,29,1,SoundStimuli/OldTownRoad_LilNasX_Original5S.wav,,,,,,,,,,,,,,,,,,,,,,,,,,,,,,,,,,,,,,,,,,,,,,,,,,,,,
,,,,,775216,001,2024-07-12_16h54.22.745,experiment,2024.1.5,MacIntel,62.5,660c14efb98166fe9a990e1e,6691931c2c63981b064e1f0c,6691b135edd2622f923b0f9e,,,,,,,,,,,,,,,,,,,,,,,,,,,,,,,,,,,,,,,,,,,,,,,,,,,,,,,,,,,,1076.917,1086.117,0.306666667,0.311111111,1,0,0,3.2,compass,0,32,32,1,1,SoundStimuli/Stronger_KanyeWest_Original5S.wav,,,,,,,,,,,,,,,,,,,,,,,,,,,,,,,,,,,,,,,,,,,,,,,,,,,,,
,,,,,775216,001,2024-07-12_16h54.22.745,experiment,2024.1.5,MacIntel,62.5,660c14efb98166fe9a990e1e,6691931c2c63981b064e1f0c,6691b135edd2622f923b0f9e,,,,,,,,,,,,,,,,,,,,,,,,,,,,,,,,,,,,,,,,,,,,,,,,,,,,,,,,,,,,1086.117,1094.285,0.311111111,0.334444444,1,0,0,2.168,compass,0,33,33,17,1,SoundStimuli/Fallin_AliciaKeys_Original5S.wav,,,,,,,,,,,,,,,,,,,,,,,,,,,,,,,,,,,,,,,,,,,,,,,,,,,,,
,,,,,775216,001,2024-07-12_16h54.22.745,experiment,2024.1.5,MacIntel,62.5,660c14efb98166fe9a990e1e,6691931c2c63981b064e1f0c,6691b135edd2622f923b0f9e,,,,,,,,,,,,,,,,,,,,,,,,,,,,,,,,,,,,,,,,,,,,,,,,,,,,,,,,,,,,1094.286,1100.552,0.328888889,0.321111111,1,0,0,0.251,compass,0,34,34,22,1,SoundStimuli/RockWithYou_MichaelJackson_Original5S.wav,,,,,,,,,,,,,,,,,,,,,,,,,,,,,,,,,,,,,,,,,,,,,,,,,,,,,
,,,,,775216,001,2024-07-12_16h54.22.745,experiment,2024.1.5,MacIntel,62.5,660c14efb98166fe9a990e1e,6691931c2c63981b064e1f0c,6691b135edd2622f923b0f9e,,,,,,,,,,,,,,,,,,,,,,,,,,,,,,,,,,,,,,,,,,,,,,,,,,,,,,,,,,,,,,,,,,,,,,,,,,,1100.552,1102.151,space,1.582,,1102.151,1103.818,right,1.652,,0,2,2,2,1,block_order/blockA.xlsx,,,,,,,,,,,,,,,,,,,,,,,,,,,,,,,,,,,,,
,,,,,775216,001,2024-07-12_16h54.22.745,experiment,2024.1.5,MacIntel,62.5,660c14efb98166fe9a990e1e,6691931c2c63981b064e1f0c,6691b135edd2622f923b0f9e,,,,,,,,,,,,,,,,,,,,,,,,,,,,,,,,,,,,,,,,,,,,,,,,,,,,,,,,,,,,1103.824,1116.869,0.253333333,0.181111111,1,0,0,7.033,compass,0,0,0,2,1,SoundStimuli/SmellsLikeTeenSpirit_Nirvana_Cover5S.wav,,,,,,,,,,,,,,,,,,,,,,,,,,,,,,,,,,,,,,,,,,,,,,,,,,,,,
,,,,,775216,001,2024-07-12_16h54.22.745,experiment,2024.1.5,MacIntel,62.5,660c14efb98166fe9a990e1e,6691931c2c63981b064e1f0c,6691b135edd2622f923b0f9e,,,,,,,,,,,,,,,,,,,,,,,,,,,,,,,,,,,,,,,,,,,,,,,,,,,,,,,,,,,,1116.869,1123.386,-0.344444444,-0.003333333,1,0,0,0.517,compass,0,1,1,26,1,SoundStimuli/TheSign_AceOfBase_Original5S.wav,,,,,,,,,,,,,,,,,,,,,,,,,,,,,,,,,,,,,,,,,,,,,,,,,,,,,
,,,,,775216,001,2024-07-12_16h54.22.745,experiment,2024.1.5,MacIntel,62.5,660c14efb98166fe9a990e1e,6691931c2c63981b064e1f0c,6691b135edd2622f923b0f9e,,,,,,,,,,,,,,,,,,,,,,,,,,,,,,,,,,,,,,,,,,,,,,,,,,,,,,,,,,,,1123.387,1130.087,-0.001111111,0.003333333,1,0,0,0.684,compass,0,2,2,21,1,SoundStimuli/BridgeOverTroubledWater_SimonAndGarfunkel_Cover5S.wav,,,,,,,,,,,,,,,,,,,,,,,,,,,,,,,,,,,,,,,,,,,,,,,,,,,,,
,,,,,775216,001,2024-07-12_16h54.22.745,experiment,2024.1.5,MacIntel,62.5,660c14efb98166fe9a990e1e,6691931c2c63981b064e1f0c,6691b135edd2622f923b0f9e,,,,,,,,,,,,,,,,,,,,,,,,,,,,,,,,,,,,,,,,,,,,,,,,,,,,,,,,,,,,1130.088,1137.003,0.104444444,0.006666667,1,0,0,0.899,compass,0,3,3,20,1,SoundStimuli/FlashdanceWhatAFeeling_IreneCara_Cover5S.wav,,,,,,,,,,,,,,,,,,,,,,,,,,,,,,,,,,,,,,,,,,,,,,,,,,,,,
,,,,,775216,001,2024-07-12_16h54.22.745,experiment,2024.1.5,MacIntel,62.5,660c14efb98166fe9a990e1e,6691931c2c63981b064e1f0c,6691b135edd2622f923b0f9e,,,,,,,,,,,,,,,,,,,,,,,,,,,,,,,,,,,,,,,,,,,,,,,,,,,,,,,,,,,,1137.004,1146.522,0.141111111,0.078888889,1,0,0,3.518,compass,0,4,4,3,1,SoundStimuli/PartyRockAnthem_LMFAO_Cover5S.wav,,,,,,,,,,,,,,,,,,,,,,,,,,,,,,,,,,,,,,,,,,,,,,,,,,,,,
,,,,,775216,001,2024-07-12_16h54.22.745,experiment,2024.1.5,MacIntel,62.5,660c14efb98166fe9a990e1e,6691931c2c63981b064e1f0c,6691b135edd2622f923b0f9e,,,,,,,,,,,,,,,,,,,,,,,,,,,,,,,,,,,,,,,,,,,,,,,,,,,,,,,,,,,,1146.522,1154.722,0.323333333,-0.286666667,1,0,0,2.184,compass,0,5,5,16,1,SoundStimuli/ItsAllInTheGame_TommyEdwards_Original5S.wav,,,,,,,,,,,,,,,,,,,,,,,,,,,,,,,,,,,,,,,,,,,,,,,,,,,,,
,,,,,775216,001,2024-07-12_16h54.22.745,experiment,2024.1.5,MacIntel,62.5,660c14efb98166fe9a990e1e,6691931c2c63981b064e1f0c,6691b135edd2622f923b0f9e,,,,,,,,,,,,,,,,,,,,,,,,,,,,,,,,,,,,,,,,,,,,,,,,,,,,,,,,,,,,1154.723,1163.389,0.267777778,0.207777778,1,0,0,2.65,compass,0,6,6,10,1,SoundStimuli/LeFreak_Chic_Original5S.wav,,,,,,,,,,,,,,,,,,,,,,,,,,,,,,,,,,,,,,,,,,,,,,,,,,,,,
,,,,,775216,001,2024-07-12_16h54.22.745,experiment,2024.1.5,MacIntel,62.5,660c14efb98166fe9a990e1e,6691931c2c63981b064e1f0c,6691b135edd2622f923b0f9e,,,,,,,,,,,,,,,,,,,,,,,,,,,,,,,,,,,,,,,,,,,,,,,,,,,,,,,,,,,,1163.389,1171.006,0.285555556,0.256666667,1,0,0,1.617,compass,0,7,7,27,1,SoundStimuli/EyeOfTheTiger_Survivor_Original5S.wav,,,,,,,,,,,,,,,,,,,,,,,,,,,,,,,,,,,,,,,,,,,,,,,,,,,,,
,,,,,775216,001,2024-07-12_16h54.22.745,experiment,2024.1.5,MacIntel,62.5,660c14efb98166fe9a990e1e,6691931c2c63981b064e1f0c,6691b135edd2622f923b0f9e,,,,,,,,,,,,,,,,,,,,,,,,,,,,,,,,,,,,,,,,,,,,,,,,,,,,,,,,,,,,1171.007,1180.923,-0.333333333,-0.333333333,1,0,0,3.916,compass,0,8,8,19,1,SoundStimuli/YouLightUpMyLife_DebbyBoone_Cover5S.wav,,,,,,,,,,,,,,,,,,,,,,,,,,,,,,,,,,,,,,,,,,,,,,,,,,,,,
,,,,,775216,001,2024-07-12_16h54.22.745,experiment,2024.1.5,MacIntel,62.5,660c14efb98166fe9a990e1e,6691931c2c63981b064e1f0c,6691b135edd2622f923b0f9e,,,,,,,,,,,,,,,,,,,,,,,,,,,,,,,,,,,,,,,,,,,,,,,,,,,,,,,,,,,,1180.923,1189.44,0,0.003333333,1,0,0,2.516,compass,0,9,9,28,1,SoundStimuli/IWantToHoldYourHand_TheBeatles_Cover5S.wav,,,,,,,,,,,,,,,,,,,,,,,,,,,,,,,,,,,,,,,,,,,,,,,,,,,,,
,,,,,775216,001,2024-07-12_16h54.22.745,experiment,2024.1.5,MacIntel,62.5,660c14efb98166fe9a990e1e,6691931c2c63981b064e1f0c,6691b135edd2622f923b0f9e,,,,,,,,,,,,,,,,,,,,,,,,,,,,,,,,,,,,,,,,,,,,,,,,,,,,,,,,,,,,1189.441,1197.725,0.333333333,0.341111111,1,0,0,2.284,compass,0,10,10,15,1,SoundStimuli/CrazyInLove_BeyonceFtJayZ_Original5S.wav,,,,,,,,,,,,,,,,,,,,,,,,,,,,,,,,,,,,,,,,,,,,,,,,,,,,,
,,,,,775216,001,2024-07-12_16h54.22.745,experiment,2024.1.5,MacIntel,62.5,660c14efb98166fe9a990e1e,6691931c2c63981b064e1f0c,6691b135edd2622f923b0f9e,,,,,,,,,,,,,,,,,,,,,,,,,,,,,,,,,,,,,,,,,,,,,,,,,,,,,,,,,,,,1197.725,1204.292,0.315555556,0.177777778,1,0,0,0.567,compass,0,11,11,34,1,SoundStimuli/Irreplaceable_Beyonce_Original5S.wav,,,,,,,,,,,,,,,,,,,,,,,,,,,,,,,,,,,,,,,,,,,,,,,,,,,,,
,,,,,775216,001,2024-07-12_16h54.22.745,experiment,2024.1.5,MacIntel,62.5,660c14efb98166fe9a990e1e,6691931c2c63981b064e1f0c,6691b135edd2622f923b0f9e,,,,,,,,,,,,,,,,,,,,,,,,,,,,,,,,,,,,,,,,,,,,,,,,,,,,,,,,,,,,1204.292,1210.509,-0.001111111,-0.001111111,1,0,0,0.217,compass,0,12,12,14,1,SoundStimuli/LikeARollingStone_BobDylan_Cover5S.wav,,,,,,,,,,,,,,,,,,,,,,,,,,,,,,,,,,,,,,,,,,,,,,,,,,,,,
,,,,,775216,001,2024-07-12_16h54.22.745,experiment,2024.1.5,MacIntel,62.5,660c14efb98166fe9a990e1e,6691931c2c63981b064e1f0c,6691b135edd2622f923b0f9e,,,,,,,,,,,,,,,,,,,,,,,,,,,,,,,,,,,,,,,,,,,,,,,,,,,,,,,,,,,,1210.51,1218.226,-0.002222222,0.001111111,1,0,0,1.701,compass,0,13,13,25,1,SoundStimuli/IllMakeLoveToYou_BoyzIIMen_Original5S.wav,,,,,,,,,,,,,,,,,,,,,,,,,,,,,,,,,,,,,,,,,,,,,,,,,,,,,
,,,,,775216,001,2024-07-12_16h54.22.745,experiment,2024.1.5,MacIntel,62.5,660c14efb98166fe9a990e1e,6691931c2c63981b064e1f0c,6691b135edd2622f923b0f9e,,,,,,,,,,,,,,,,,,,,,,,,,,,,,,,,,,,,,,,,,,,,,,,,,,,,,,,,,,,,1218.226,1225.01,-0.002222222,0.001111111,1,0,0,0.784,compass,0,14,14,23,1,SoundStimuli/IWalkTheLine_JohnnyCash_Cover5S.wav,,,,,,,,,,,,,,,,,,,,,,,,,,,,,,,,,,,,,,,,,,,,,,,,,,,,,
,,,,,775216,001,2024-07-12_16h54.22.745,experiment,2024.1.5,MacIntel,62.5,660c14efb98166fe9a990e1e,6691931c2c63981b064e1f0c,6691b135edd2622f923b0f9e,,,,,,,,,,,,,,,,,,,,,,,,,,,,,,,,,,,,,,,,,,,,,,,,,,,,,,,,,,,,1225.01,1235.077,0.153333333,-0.001111111,1,0,0,4.065,compass,0,15,15,8,1,SoundStimuli/EndlessLove_DianaRossLionelRichie_Original5S.wav,,,,,,,,,,,,,,,,,,,,,,,,,,,,,,,,,,,,,,,,,,,,,,,,,,,,,
,,,,,775216,001,2024-07-12_16h54.22.745,experiment,2024.1.5,MacIntel,62.5,660c14efb98166fe9a990e1e,6691931c2c63981b064e1f0c,6691b135edd2622f923b0f9e,,,,,,,,,,,,,,,,,,,,,,,,,,,,,,,,,,,,,,,,,,,,,,,,,,,,,,,,,,,,1235.078,1241.661,0.283333333,0.296666667,1,0,0,0.566,compass,0,16,16,11,1,SoundStimuli/BlurredLines_RobinThicke_Original5S.wav,,,,,,,,,,,,,,,,,,,,,,,,,,,,,,,,,,,,,,,,,,,,,,,,,,,,,
,,,,,775216,001,2024-07-12_16h54.22.745,experiment,2024.1.5,MacIntel,62.5,660c14efb98166fe9a990e1e,6691931c2c63981b064e1f0c,6691b135edd2622f923b0f9e,,,,,,,,,,,,,,,,,,,,,,,,,,,,,,,,,,,,,,,,,,,,,,,,,,,,,,,,,,,,1241.661,1253.445,0.118888889,-0.146666667,1,0,0,5.784,compass,0,17,17,6,1,SoundStimuli/SaveYourTears_TheWeekndArianaGrande_Original5S.wav,,,,,,,,,,,,,,,,,,,,,,,,,,,,,,,,,,,,,,,,,,,,,,,,,,,,,
,,,,,775216,001,2024-07-12_16h54.22.745,experiment,2024.1.5,MacIntel,62.5,660c14efb98166fe9a990e1e,6691931c2c63981b064e1f0c,6691b135edd2622f923b0f9e,,,,,,,,,,,,,,,,,,,,,,,,,,,,,,,,,,,,,,,,,,,,,,,,,,,,,,,,,,,,1253.446,1261.529,-0.167777778,0.038888889,1,0,0,2.067,compass,0,18,18,7,1,SoundStimuli/MackTheKnife_BobbyDarin_Original5S.wav,,,,,,,,,,,,,,,,,,,,,,,,,,,,,,,,,,,,,,,,,,,,,,,,,,,,,
,,,,,775216,001,2024-07-12_16h54.22.745,experiment,2024.1.5,MacIntel,62.5,660c14efb98166fe9a990e1e,6691931c2c63981b064e1f0c,6691b135edd2622f923b0f9e,,,,,,,,,,,,,,,,,,,,,,,,,,,,,,,,,,,,,,,,,,,,,,,,,,,,,,,,,,,,1261.53,1270.046,-0.002222222,0.001111111,1,0,0,2.501,compass,0,19,19,31,1,SoundStimuli/TossinAndTurnin_BobbyLewis_Cover5S.wav,,,,,,,,,,,,,,,,,,,,,,,,,,,,,,,,,,,,,,,,,,,,,,,,,,,,,
,,,,,775216,001,2024-07-12_16h54.22.745,experiment,2024.1.5,MacIntel,62.5,660c14efb98166fe9a990e1e,6691931c2c63981b064e1f0c,6691b135edd2622f923b0f9e,,,,,,,,,,,,,,,,,,,,,,,,,,,,,,,,,,,,,,,,,,,,,,,,,,,,,,,,,,,,1270.047,1280.23,0.084444444,0.068888889,1,0,0,4.167,compass,0,20,20,30,1,SoundStimuli/SomebodyThatIUsedtoKnow_Gotye_Cover5S.wav,,,,,,,,,,,,,,,,,,,,,,,,,,,,,,,,,,,,,,,,,,,,,,,,,,,,,
,,,,,775216,001,2024-07-12_16h54.22.745,experiment,2024.1.5,MacIntel,62.5,660c14efb98166fe9a990e1e,6691931c2c63981b064e1f0c,6691b135edd2622f923b0f9e,,,,,,,,,,,,,,,,,,,,,,,,,,,,,,,,,,,,,,,,,,,,,,,,,,,,,,,,,,,,1280.23,1288.498,0,0.003333333,1,0,0,2.267,compass,0,21,21,5,1,SoundStimuli/JoyToTheWorld_ThreeDogNight_Cover5S.wav,,,,,,,,,,,,,,,,,,,,,,,,,,,,,,,,,,,,,,,,,,,,,,,,,,,,,
,,,,,775216,001,2024-07-12_16h54.22.745,experiment,2024.1.5,MacIntel,62.5,660c14efb98166fe9a990e1e,6691931c2c63981b064e1f0c,6691b135edd2622f923b0f9e,,,,,,,,,,,,,,,,,,,,,,,,,,,,,,,,,,,,,,,,,,,,,,,,,,,,,,,,,,,,1288.498,1295.248,0,0.003333333,1,0,0,0.749,compass,0,22,22,29,1,SoundStimuli/BetteDavisEyes_KimCarnes_Cover5S.wav,,,,,,,,,,,,,,,,,,,,,,,,,,,,,,,,,,,,,,,,,,,,,,,,,,,,,
,,,,,775216,001,2024-07-12_16h54.22.745,experiment,2024.1.5,MacIntel,62.5,660c14efb98166fe9a990e1e,6691931c2c63981b064e1f0c,6691b135edd2622f923b0f9e,,,,,,,,,,,,,,,,,,,,,,,,,,,,,,,,,,,,,,,,,,,,,,,,,,,,,,,,,,,,1295.248,1302.181,0,0.003333333,1,0,0,0.916,compass,0,23,23,17,1,SoundStimuli/IWannaDanceWithSomebody_WhitneyHouston_Cover5S.wav,,,,,,,,,,,,,,,,,,,,,,,,,,,,,,,,,,,,,,,,,,,,,,,,,,,,,
,,,,,775216,001,2024-07-12_16h54.22.745,experiment,2024.1.5,MacIntel,62.5,660c14efb98166fe9a990e1e,6691931c2c63981b064e1f0c,6691b135edd2622f923b0f9e,,,,,,,,,,,,,,,,,,,,,,,,,,,,,,,,,,,,,,,,,,,,,,,,,,,,,,,,,,,,1302.181,1308.765,-0.313333333,-0.318888889,1,0,0,0.583,compass,0,24,24,9,1,SoundStimuli/HowDoILive_LeAnnRimes_Original5S.wav,,,,,,,,,,,,,,,,,,,,,,,,,,,,,,,,,,,,,,,,,,,,,,,,,,,,,
,,,,,775216,001,2024-07-12_16h54.22.745,experiment,2024.1.5,MacIntel,62.5,660c14efb98166fe9a990e1e,6691931c2c63981b064e1f0c,6691b135edd2622f923b0f9e,,,,,,,,,,,,,,,,,,,,,,,,,,,,,,,,,,,,,,,,,,,,,,,,,,,,,,,,,,,,1308.765,1317.416,0.03,0.003333333,1,0,0,2.651,compass,0,25,25,24,1,SoundStimuli/Kiss_Prince_Original5S.wav,,,,,,,,,,,,,,,,,,,,,,,,,,,,,,,,,,,,,,,,,,,,,,,,,,,,,
,,,,,775216,001,2024-07-12_16h54.22.745,experiment,2024.1.5,MacIntel,62.5,660c14efb98166fe9a990e1e,6691931c2c63981b064e1f0c,6691b135edd2622f923b0f9e,,,,,,,,,,,,,,,,,,,,,,,,,,,,,,,,,,,,,,,,,,,,,,,,,,,,,,,,,,,,1317.416,1324.717,0,0.001111111,1,0,0,1.301,compass,0,26,26,0,1,SoundStimuli/GimmeShelter_RollingStones_Cover5S.wav,,,,,,,,,,,,,,,,,,,,,,,,,,,,,,,,,,,,,,,,,,,,,,,,,,,,,
,,,,,775216,001,2024-07-12_16h54.22.745,experiment,2024.1.5,MacIntel,62.5,660c14efb98166fe9a990e1e,6691931c2c63981b064e1f0c,6691b135edd2622f923b0f9e,,,,,,,,,,,,,,,,,,,,,,,,,,,,,,,,,,,,,,,,,,,,,,,,,,,,,,,,,,,,1324.717,1331.484,0.22,0.187777778,1,0,0,0.767,compass,0,27,27,13,1,SoundStimuli/Perfect_EdSheeran_Original5S.wav,,,,,,,,,,,,,,,,,,,,,,,,,,,,,,,,,,,,,,,,,,,,,,,,,,,,,
,,,,,775216,001,2024-07-12_16h54.22.745,experiment,2024.1.5,MacIntel,62.5,660c14efb98166fe9a990e1e,6691931c2c63981b064e1f0c,6691b135edd2622f923b0f9e,,,,,,,,,,,,,,,,,,,,,,,,,,,,,,,,,,,,,,,,,,,,,,,,,,,,,,,,,,,,1331.485,1339.734,0.284444444,-0.255555556,1,0,0,2.233,compass,0,28,28,18,1,SoundStimuli/Weak_SWV_Original5S.wav,,,,,,,,,,,,,,,,,,,,,,,,,,,,,,,,,,,,,,,,,,,,,,,,,,,,,
,,,,,775216,001,2024-07-12_16h54.22.745,experiment,2024.1.5,MacIntel,62.5,660c14efb98166fe9a990e1e,6691931c2c63981b064e1f0c,6691b135edd2622f923b0f9e,,,,,,,,,,,,,,,,,,,,,,,,,,,,,,,,,,,,,,,,,,,,,,,,,,,,,,,,,,,,1339.734,1347.818,0.318888889,0.308888889,1,0,0,2.084,compass,0,29,29,22,1,SoundStimuli/Happy_PharellWilliams_Cover5S.wav,,,,,,,,,,,,,,,,,,,,,,,,,,,,,,,,,,,,,,,,,,,,,,,,,,,,,
,,,,,775216,001,2024-07-12_16h54.22.745,experiment,2024.1.5,MacIntel,62.5,660c14efb98166fe9a990e1e,6691931c2c63981b064e1f0c,6691b135edd2622f923b0f9e,,,,,,,,,,,,,,,,,,,,,,,,,,,,,,,,,,,,,,,,,,,,,,,,,,,,,,,,,,,,1347.819,1354.519,0.336666667,0.335555556,1,0,0,0.684,compass,0,30,30,32,1,SoundStimuli/Dilemma_NellyKellyRowland_Original5S.wav,,,,,,,,,,,,,,,,,,,,,,,,,,,,,,,,,,,,,,,,,,,,,,,,,,,,,
,,,,,775216,001,2024-07-12_16h54.22.745,experiment,2024.1.5,MacIntel,62.5,660c14efb98166fe9a990e1e,6691931c2c63981b064e1f0c,6691b135edd2622f923b0f9e,,,,,,,,,,,,,,,,,,,,,,,,,,,,,,,,,,,,,,,,,,,,,,,,,,,,,,,,,,,,1354.519,1363.02,-0.186666667,-0.143333333,1,0,0,2.501,compass,0,31,31,33,1,SoundStimuli/TheBoyIsMine_BrandyMonica_Cover5S.wav,,,,,,,,,,,,,,,,,,,,,,,,,,,,,,,,,,,,,,,,,,,,,,,,,,,,,
,,,,,775216,001,2024-07-12_16h54.22.745,experiment,2024.1.5,MacIntel,62.5,660c14efb98166fe9a990e1e,6691931c2c63981b064e1f0c,6691b135edd2622f923b0f9e,,,,,,,,,,,,,,,,,,,,,,,,,,,,,,,,,,,,,,,,,,,,,,,,,,,,,,,,,,,,1363.02,1369.587,-0.206666667,-0.004444444,1,0,0,0.548,compass,0,32,32,12,1,SoundStimuli/UnbreakMyHeart_ToniBraxton_Cover5S.wav,,,,,,,,,,,,,,,,,,,,,,,,,,,,,,,,,,,,,,,,,,,,,,,,,,,,,
,,,,,775216,001,2024-07-12_16h54.22.745,experiment,2024.1.5,MacIntel,62.5,660c14efb98166fe9a990e1e,6691931c2c63981b064e1f0c,6691b135edd2622f923b0f9e,,,,,,,,,,,,,,,,,,,,,,,,,,,,,,,,,,,,,,,,,,,,,,,,,,,,,,,,,,,,1369.587,1376.653,0.263333333,0.103333333,1,0,0,1.05,compass,0,33,33,1,1,SoundStimuli/Smooth_SantanaRobThomas_Cover5S.wav,,,,,,,,,,,,,,,,,,,,,,,,,,,,,,,,,,,,,,,,,,,,,,,,,,,,,
,,,,,775216,001,2024-07-12_16h54.22.745,experiment,2024.1.5,MacIntel,62.5,660c14efb98166fe9a990e1e,6691931c2c63981b064e1f0c,6691b135edd2622f923b0f9e,,,,,,,,,,,,,,,,,,,,,,,,,,,,,,,,,,,,,,,,,,,,,,,,,,,,,,,,,,,,1376.653,1387.304,0.003333333,-0.004444444,1,0,0,4.649,compass,0,34,34,4,1,SoundStimuli/Dreams_FleetwoodMac_Cover5S.wav,,,,,,,,,,,,,,,,,,,,,,,,,,,,,,,,,,,,,,,,,,,,,,,,,,,,,
,,,,,775216,001,2024-07-12_16h54.22.745,experiment,2024.1.5,MacIntel,62.5,660c14efb98166fe9a990e1e,6691931c2c63981b064e1f0c,6691b135edd2622f923b0f9e,,,,,,,,,,,,,,,,,,,,,,,,,,,,,,,,,,,,,,,,,,,,,,,,,,,,,,,,,,,,,,,,,,,,,,,,,,,1387.304,1387.304,,,,1387.304,1387.304,,,,0,3,3,3,1,block_order/blockB.xlsx,,,,,,,,,,,,,,,,,,,,,,,,,,,,,,,,,,,,,
,,,,,775216,001,2024-07-12_16h54.22.745,experiment,2024.1.5,MacIntel,62.5,660c14efb98166fe9a990e1e,6691931c2c63981b064e1f0c,6691b135edd2622f923b0f9e,,,,,,,,,,,,,,,,,,,,,,,,,,,,,,,,,,,,,,,,,,,,,,,,,,,,,,,,,,,,,,,,,,,,,,,,,,,,,,,,,,,,,,,,,,,30,Item 2,Violinist thought by classical teacher from ages 12-15 ,Item 3,Spotify,3,5,"Driving, exercising, cleaning, working",Always,Rarely,Sometimes,Rarely,Rarely,Never,Often,Rarely,Often,Always,Often,Often,Sometimes,Sometimes,Rarely,Rarely,Rap,Rap,Hip-hip,Latin,"Yes, as I've grown I've expanded the genres of music that I listen to. Before I used to only listen to rap, hip-hop, and r&b, while now I am open to listen to any genre specifically latin and electronic music.","Using Spotify I will listen to my playlist that includes hip-hop, r&b, country, latin, classic rock, and electronic",0,0,0,0,1,,
,,,,,775216,001,2024-07-12_16h54.22.745,experiment,2024.1.5,MacIntel,62.5,660c14efb98166fe9a990e1e,6691931c2c63981b064e1f0c,6691b135edd2622f923b0f9e,,,,,,,,,,,,,,,,,,,,,,,,,,,,,,,,,,,,,,,,,,,,,,,,,,,,,,,,,,,,,,,,,,,,,,,,,,,,,,,,,,,,,,,,,,,,,,,,,,,,,,,,,,,,,,,,,,,,,,,,,,,,,,1923.635,1925.641
