welcome.started,welcome.stopped,space_to_continue.keys,space_to_continue.rt,space_to_continue.duration,participant,session,date,expName,psychopyVersion,OS,frameRate,PROLIFIC_PID,STUDY_ID,SESSION_ID,consent.consent,consent.consent_recontact,consent_check.started,consent_check.stopped,calibration_ready.started,calibration_ready.stopped,cal_ready.keys,cal_ready.rt,cal_ready.duration,calibration.started,calibration.stopped,mouse.x,mouse.y,mouse.leftButton,mouse.midButton,mouse.rightButton,mouse.time,mouse.clicked_name,move_on.keys,move_on.rt,move_on.duration,run_cal.thisRepN,run_cal.thisTrialN,run_cal.thisN,run_cal.thisIndex,run_cal.ran,emotion_training_ready.started,emotion_training_ready.stopped,training_move_on.keys,training_move_on.rt,training_move_on.duration,examples.started,examples.stopped,emotion_scale.started,emotion_scale.stopped,scale_next.keys,scale_next.rt,scale_next.duration,instructions.started,instructions.stopped,next.keys,next.rt,next.duration,practice_task.started,practice_task.stopped,mouse_rating_2.x,mouse_rating_2.y,mouse_rating_2.leftButton,mouse_rating_2.midButton,mouse_rating_2.rightButton,mouse_rating_2.time,mouse_rating_2.clicked_name,ready.started,ready.stopped,key_resp.keys,key_resp.rt,key_resp.duration,set_group.started,set_group.stopped,task.started,task.stopped,mouse_rating.x,mouse_rating.y,mouse_rating.leftButton,mouse_rating.midButton,mouse_rating.rightButton,mouse_rating.time,mouse_rating.clicked_name,trials.thisRepN,trials.thisTrialN,trials.thisN,trials.thisIndex,trials.ran,clip,short_break.started,short_break.stopped,space_to_move_on.keys,space_to_move_on.rt,space_to_move_on.duration,instruction_reminder.started,instruction_reminder.stopped,reminder_move_on.keys,reminder_move_on.rt,reminder_move_on.duration,blocks.thisRepN,blocks.thisTrialN,blocks.thisN,blocks.thisIndex,blocks.ran,block,post_survey.age,post_survey.musician,post_survey.music_making,post_survey.listen_time,post_survey.medium,post_survey.music_seeking,post_survey.music_choice,post_survey.activities,post_survey.question1.Disco,post_survey.question1.Pop,post_survey.question1.Hip hop,post_survey.question1.Classical,post_survey.question1.Ambient,post_survey.question1.Alternative rock,post_survey.question1.Classic rock,post_survey.question1.Latin,post_survey.question1.Folk/indie,post_survey.question1.Jazz,post_survey.question1.Metal,post_survey.question1.A cappella,post_survey.question1.Reggae,post_survey.question1.Country,post_survey.question1.Electronic (EDM),post_survey.question1.R&B,post_survey.other_genres,post_survey.genres_ranked.text1,post_survey.genres_ranked.text2,post_survey.genres_ranked.text3,post_survey.habit_change,post_survey.habits,show_exp.thisRepN,show_exp.thisTrialN,show_exp.thisN,show_exp.thisIndex,show_exp.ran,goodbye.started,goodbye.stopped
0.0003,1.3351,space,1.328,,852540,001,2024-07-12_16h22.21.649,experiment,2024.1.5,Win32,60.24096386,659da75ece9c819da9a58328,6691931c2c63981b064e1f0c,6691b9569a62a93c04fbe267,,,,,,,,,,,,,,,,,,,,,,,,,,,,,,,,,,,,,,,,,,,,,,,,,,,,,,,,,,,,,,,,,,,,,,,,,,,,,,,,,,,,,,,,,,,,,,,,,,,,,,,,,,,,,,,,,,,,,,,,,,,,,,,
,,,,,852540,001,2024-07-12_16h22.21.649,experiment,2024.1.5,Win32,60.24096386,659da75ece9c819da9a58328,6691931c2c63981b064e1f0c,6691b9569a62a93c04fbe267,yes,yes,,,,,,,,,,,,,,,,,,,,,,,,,,,,,,,,,,,,,,,,,,,,,,,,,,,,,,,,,,,,,,,,,,,,,,,,,,,,,,,,,,,,,,,,,,,,,,,,,,,,,,,,,,,,,,,,,,,,,,,,,,,,,
,,,,,852540,001,2024-07-12_16h22.21.649,experiment,2024.1.5,Win32,60.24096386,659da75ece9c819da9a58328,6691931c2c63981b064e1f0c,6691b9569a62a93c04fbe267,,,24.9917,24.9926,,,,,,,,,,,,,,,,,,,,,,,,,,,,,,,,,,,,,,,,,,,,,,,,,,,,,,,,,,,,,,,,,,,,,,,,,,,,,,,,,,,,,,,,,,,,,,,,,,,,,,,,,,,,,,,,,,,,,,,,,,,
,,,,,852540,001,2024-07-12_16h22.21.649,experiment,2024.1.5,Win32,60.24096386,659da75ece9c819da9a58328,6691931c2c63981b064e1f0c,6691b9569a62a93c04fbe267,,,,,24.9952,28.9685,space,3.9516,,28.9698,54.3149,[-0.013888888888888888],[-0.4203703703703704],[1],[0],[0],[11.280099999904628],"[""play_button""]",y,24.3119,,0,0,0,0,1,,,,,,,,,,,,,,,,,,,,,,,,,,,,,,,,,,,,,,,,,,,,,,,,,,,,,,,,,,,,,,,,,,,,,,,,,,,,,,,,,,,,,,,,,,,,,,,,,,,,,
,,,,,852540,001,2024-07-12_16h22.21.649,experiment,2024.1.5,Win32,60.24096386,659da75ece9c819da9a58328,6691931c2c63981b064e1f0c,6691b9569a62a93c04fbe267,,,,,,,,,,,,,,,,,,,,,,,,,,,54.3152,76.5694,space,22.2347,,76.5696,196.5786,196.5787,205.3259,right,5.2224,,205.3261,215.856,space,10.5023,,215.8566,224.2868,0.134259259,-0.17037037,1,0,0,2.4167,compass_2,224.2873,226.7181,space,2.4133,,226.7187,226.7272,226.7392,242.6138,0.025925926,0.039814815,1,0,0,9.8638,compass,0,0,0,18,1,SoundStimuli/AnotherOneBitesTheDust_Queen_Original5S.wav,,,,,,,,,,,,,,,,,,,,,,,,,,,,,,,,,,,,,,,,,,,,,,,,,,,,,
,,,,,852540,001,2024-07-12_16h22.21.649,experiment,2024.1.5,Win32,60.24096386,659da75ece9c819da9a58328,6691931c2c63981b064e1f0c,6691b9569a62a93c04fbe267,,,,,,,,,,,,,,,,,,,,,,,,,,,,,,,,,,,,,,,,,,,,,,,,,,,,,,,,,,,,242.6236,249.9936,-0.047222222,-0.077777778,1,0,0,1.3658,compass,0,1,1,23,1,SoundStimuli/StrawberryFieldsForever_TheBeatles_Original5S.wav,,,,,,,,,,,,,,,,,,,,,,,,,,,,,,,,,,,,,,,,,,,,,,,,,,,,,
,,,,,852540,001,2024-07-12_16h22.21.649,experiment,2024.1.5,Win32,60.24096386,659da75ece9c819da9a58328,6691931c2c63981b064e1f0c,6691b9569a62a93c04fbe267,,,,,,,,,,,,,,,,,,,,,,,,,,,,,,,,,,,,,,,,,,,,,,,,,,,,,,,,,,,,250.0092,256.4414,0.202777778,0.284259259,1,0,0,0.4163,compass,0,2,2,22,1,SoundStimuli/RockWithYou_MichaelJackson_Original5S.wav,,,,,,,,,,,,,,,,,,,,,,,,,,,,,,,,,,,,,,,,,,,,,,,,,,,,,
,,,,,852540,001,2024-07-12_16h22.21.649,experiment,2024.1.5,Win32,60.24096386,659da75ece9c819da9a58328,6691931c2c63981b064e1f0c,6691b9569a62a93c04fbe267,,,,,,,,,,,,,,,,,,,,,,,,,,,,,,,,,,,,,,,,,,,,,,,,,,,,,,,,,,,,256.4495,265.3054,0.175925926,-0.127777778,1,0,0,2.8491,compass,0,3,3,33,1,SoundStimuli/StandByMe_BenEKing_Cover5S.wav,,,,,,,,,,,,,,,,,,,,,,,,,,,,,,,,,,,,,,,,,,,,,,,,,,,,,
,,,,,852540,001,2024-07-12_16h22.21.649,experiment,2024.1.5,Win32,60.24096386,659da75ece9c819da9a58328,6691931c2c63981b064e1f0c,6691b9569a62a93c04fbe267,,,,,,,,,,,,,,,,,,,,,,,,,,,,,,,,,,,,,,,,,,,,,,,,,,,,,,,,,,,,265.3151,273.269,-0.037037037,0.038888889,1,0,0,1.9494,compass,0,4,4,34,1,SoundStimuli/AChangeIsGonnaCome_SamCooke_Cover5S.wav,,,,,,,,,,,,,,,,,,,,,,,,,,,,,,,,,,,,,,,,,,,,,,,,,,,,,
,,,,,852540,001,2024-07-12_16h22.21.649,experiment,2024.1.5,Win32,60.24096386,659da75ece9c819da9a58328,6691931c2c63981b064e1f0c,6691b9569a62a93c04fbe267,,,,,,,,,,,,,,,,,,,,,,,,,,,,,,,,,,,,,,,,,,,,,,,,,,,,,,,,,,,,273.275,279.8497,0.158333333,0.094444444,1,0,0,0.5663,compass,0,5,5,28,1,SoundStimuli/ComeAndGetYourLove_Redbone_Original5S.wav,,,,,,,,,,,,,,,,,,,,,,,,,,,,,,,,,,,,,,,,,,,,,,,,,,,,,
,,,,,852540,001,2024-07-12_16h22.21.649,experiment,2024.1.5,Win32,60.24096386,659da75ece9c819da9a58328,6691931c2c63981b064e1f0c,6691b9569a62a93c04fbe267,,,,,,,,,,,,,,,,,,,,,,,,,,,,,,,,,,,,,,,,,,,,,,,,,,,,,,,,,,,,279.857,286.4643,-0.25462963,0.087037037,1,0,0,0.5996,compass,0,6,6,1,1,SoundStimuli/Stronger_KanyeWest_Original5S.wav,,,,,,,,,,,,,,,,,,,,,,,,,,,,,,,,,,,,,,,,,,,,,,,,,,,,,
,,,,,852540,001,2024-07-12_16h22.21.649,experiment,2024.1.5,Win32,60.24096386,659da75ece9c819da9a58328,6691931c2c63981b064e1f0c,6691b9569a62a93c04fbe267,,,,,,,,,,,,,,,,,,,,,,,,,,,,,,,,,,,,,,,,,,,,,,,,,,,,,,,,,,,,286.4741,293.0126,0.214814815,0.238888889,1,0,0,0.5329,compass,0,7,7,7,1,SoundStimuli/NoOne_AliciaKeys_Cover5S.wav,,,,,,,,,,,,,,,,,,,,,,,,,,,,,,,,,,,,,,,,,,,,,,,,,,,,,
,,,,,852540,001,2024-07-12_16h22.21.649,experiment,2024.1.5,Win32,60.24096386,659da75ece9c819da9a58328,6691931c2c63981b064e1f0c,6691b9569a62a93c04fbe267,,,,,,,,,,,,,,,,,,,,,,,,,,,,,,,,,,,,,,,,,,,,,,,,,,,,,,,,,,,,293.0206,299.6601,0.189814815,-0.137962963,1,0,0,0.6327,compass,0,8,8,17,1,SoundStimuli/Fallin_AliciaKeys_Original5S.wav,,,,,,,,,,,,,,,,,,,,,,,,,,,,,,,,,,,,,,,,,,,,,,,,,,,,,
,,,,,852540,001,2024-07-12_16h22.21.649,experiment,2024.1.5,Win32,60.24096386,659da75ece9c819da9a58328,6691931c2c63981b064e1f0c,6691b9569a62a93c04fbe267,,,,,,,,,,,,,,,,,,,,,,,,,,,,,,,,,,,,,,,,,,,,,,,,,,,,,,,,,,,,299.6678,307.1078,-0.069444444,0.07037037,1,0,0,1.4327,compass,0,9,9,21,1,SoundStimuli/GoodGollyMissMolly_LittleRichard_Cover5S.wav,,,,,,,,,,,,,,,,,,,,,,,,,,,,,,,,,,,,,,,,,,,,,,,,,,,,,
,,,,,852540,001,2024-07-12_16h22.21.649,experiment,2024.1.5,Win32,60.24096386,659da75ece9c819da9a58328,6691931c2c63981b064e1f0c,6691b9569a62a93c04fbe267,,,,,,,,,,,,,,,,,,,,,,,,,,,,,,,,,,,,,,,,,,,,,,,,,,,,,,,,,,,,307.1161,313.6889,0.05,0.136111111,1,0,0,0.5664,compass,0,10,10,27,1,SoundStimuli/ShapeofYou_EdSheeran_Original5S.wav,,,,,,,,,,,,,,,,,,,,,,,,,,,,,,,,,,,,,,,,,,,,,,,,,,,,,
,,,,,852540,001,2024-07-12_16h22.21.649,experiment,2024.1.5,Win32,60.24096386,659da75ece9c819da9a58328,6691931c2c63981b064e1f0c,6691b9569a62a93c04fbe267,,,,,,,,,,,,,,,,,,,,,,,,,,,,,,,,,,,,,,,,,,,,,,,,,,,,,,,,,,,,313.6987,321.4361,-0.137962963,-0.127777778,1,0,0,1.7327,compass,0,11,11,2,1,SoundStimuli/Mood_24kGoldnianndior_Cover5S.wav,,,,,,,,,,,,,,,,,,,,,,,,,,,,,,,,,,,,,,,,,,,,,,,,,,,,,
,,,,,852540,001,2024-07-12_16h22.21.649,experiment,2024.1.5,Win32,60.24096386,659da75ece9c819da9a58328,6691931c2c63981b064e1f0c,6691b9569a62a93c04fbe267,,,,,,,,,,,,,,,,,,,,,,,,,,,,,,,,,,,,,,,,,,,,,,,,,,,,,,,,,,,,321.4463,328.0344,0.193518519,0.308333333,1,0,0,0.5835,compass,0,12,12,24,1,SoundStimuli/UptownFunk_MarkRonson_Original5S.wav,,,,,,,,,,,,,,,,,,,,,,,,,,,,,,,,,,,,,,,,,,,,,,,,,,,,,
,,,,,852540,001,2024-07-12_16h22.21.649,experiment,2024.1.5,Win32,60.24096386,659da75ece9c819da9a58328,6691931c2c63981b064e1f0c,6691b9569a62a93c04fbe267,,,,,,,,,,,,,,,,,,,,,,,,,,,,,,,,,,,,,,,,,,,,,,,,,,,,,,,,,,,,328.0432,336.6645,-0.075925926,-0.301851852,1,0,0,2.6157,compass,0,13,13,32,1,SoundStimuli/HeatWaves_GlassAnimals_Original5S.wav,,,,,,,,,,,,,,,,,,,,,,,,,,,,,,,,,,,,,,,,,,,,,,,,,,,,,
,,,,,852540,001,2024-07-12_16h22.21.649,experiment,2024.1.5,Win32,60.24096386,659da75ece9c819da9a58328,6691931c2c63981b064e1f0c,6691b9569a62a93c04fbe267,,,,,,,,,,,,,,,,,,,,,,,,,,,,,,,,,,,,,,,,,,,,,,,,,,,,,,,,,,,,336.671,344.7446,0.089814815,0.172222222,1,0,0,2.0659,compass,0,14,14,25,1,SoundStimuli/Respect_ArethaFranklin_Original5S.wav,,,,,,,,,,,,,,,,,,,,,,,,,,,,,,,,,,,,,,,,,,,,,,,,,,,,,
,,,,,852540,001,2024-07-12_16h22.21.649,experiment,2024.1.5,Win32,60.24096386,659da75ece9c819da9a58328,6691931c2c63981b064e1f0c,6691b9569a62a93c04fbe267,,,,,,,,,,,,,,,,,,,,,,,,,,,,,,,,,,,,,,,,,,,,,,,,,,,,,,,,,,,,344.7507,351.7421,0.184259259,0.122222222,1,0,0,0.9827,compass,0,15,15,30,1,SoundStimuli/PokerFace_LadyGaga_Original5S.wav,,,,,,,,,,,,,,,,,,,,,,,,,,,,,,,,,,,,,,,,,,,,,,,,,,,,,
,,,,,852540,001,2024-07-12_16h22.21.649,experiment,2024.1.5,Win32,60.24096386,659da75ece9c819da9a58328,6691931c2c63981b064e1f0c,6691b9569a62a93c04fbe267,,,,,,,,,,,,,,,,,,,,,,,,,,,,,,,,,,,,,,,,,,,,,,,,,,,,,,,,,,,,351.7481,361.4727,0.069444444,-0.013888889,1,0,0,3.7155,compass,0,16,16,31,1,SoundStimuli/TheBattleOfNewOrleans_JohnnyHorton_Cover5S.wav,,,,,,,,,,,,,,,,,,,,,,,,,,,,,,,,,,,,,,,,,,,,,,,,,,,,,
,,,,,852540,001,2024-07-12_16h22.21.649,experiment,2024.1.5,Win32,60.24096386,659da75ece9c819da9a58328,6691931c2c63981b064e1f0c,6691b9569a62a93c04fbe267,,,,,,,,,,,,,,,,,,,,,,,,,,,,,,,,,,,,,,,,,,,,,,,,,,,,,,,,,,,,361.4812,369.237,0.124074074,-0.233333333,1,0,0,1.7487,compass,0,17,17,15,1,SoundStimuli/TikTok_Kesha_Cover5S.wav,,,,,,,,,,,,,,,,,,,,,,,,,,,,,,,,,,,,,,,,,,,,,,,,,,,,,
,,,,,852540,001,2024-07-12_16h22.21.649,experiment,2024.1.5,Win32,60.24096386,659da75ece9c819da9a58328,6691931c2c63981b064e1f0c,6691b9569a62a93c04fbe267,,,,,,,,,,,,,,,,,,,,,,,,,,,,,,,,,,,,,,,,,,,,,,,,,,,,,,,,,,,,369.2451,380.2995,-0.102777778,-0.199074074,1,0,0,5.048,compass,0,18,18,26,1,SoundStimuli/LivinOnAPrayer_BonJovi_Cover5S.wav,,,,,,,,,,,,,,,,,,,,,,,,,,,,,,,,,,,,,,,,,,,,,,,,,,,,,
,,,,,852540,001,2024-07-12_16h22.21.649,experiment,2024.1.5,Win32,60.24096386,659da75ece9c819da9a58328,6691931c2c63981b064e1f0c,6691b9569a62a93c04fbe267,,,,,,,,,,,,,,,,,,,,,,,,,,,,,,,,,,,,,,,,,,,,,,,,,,,,,,,,,,,,380.308,387.1804,0.033333333,0.234259259,1,0,0,0.8666,compass,0,19,19,0,1,SoundStimuli/StayinAlive_BeeGees_Original5S.wav,,,,,,,,,,,,,,,,,,,,,,,,,,,,,,,,,,,,,,,,,,,,,,,,,,,,,
,,,,,852540,001,2024-07-12_16h22.21.649,experiment,2024.1.5,Win32,60.24096386,659da75ece9c819da9a58328,6691931c2c63981b064e1f0c,6691b9569a62a93c04fbe267,,,,,,,,,,,,,,,,,,,,,,,,,,,,,,,,,,,,,,,,,,,,,,,,,,,,,,,,,,,,387.1877,393.7116,0.087037037,0.097222222,1,0,0,0.5166,compass,0,20,20,5,1,SoundStimuli/MyGirl_TheTemptations_Original5S.wav,,,,,,,,,,,,,,,,,,,,,,,,,,,,,,,,,,,,,,,,,,,,,,,,,,,,,
,,,,,852540,001,2024-07-12_16h22.21.649,experiment,2024.1.5,Win32,60.24096386,659da75ece9c819da9a58328,6691931c2c63981b064e1f0c,6691b9569a62a93c04fbe267,,,,,,,,,,,,,,,,,,,,,,,,,,,,,,,,,,,,,,,,,,,,,,,,,,,,,,,,,,,,393.7211,401.4256,0.083333333,-0.018518519,1,0,0,1.6993,compass,0,21,21,9,1,SoundStimuli/Despacito_LuisFonsiDaddyYankee_Cover5S.wav,,,,,,,,,,,,,,,,,,,,,,,,,,,,,,,,,,,,,,,,,,,,,,,,,,,,,
,,,,,852540,001,2024-07-12_16h22.21.649,experiment,2024.1.5,Win32,60.24096386,659da75ece9c819da9a58328,6691931c2c63981b064e1f0c,6691b9569a62a93c04fbe267,,,,,,,,,,,,,,,,,,,,,,,,,,,,,,,,,,,,,,,,,,,,,,,,,,,,,,,,,,,,401.4327,407.9067,-0.032407407,-0.183333333,1,0,0,0.4661,compass,0,22,22,11,1,SoundStimuli/Superstition_StevieWonder_Cover5S.wav,,,,,,,,,,,,,,,,,,,,,,,,,,,,,,,,,,,,,,,,,,,,,,,,,,,,,
,,,,,852540,001,2024-07-12_16h22.21.649,experiment,2024.1.5,Win32,60.24096386,659da75ece9c819da9a58328,6691931c2c63981b064e1f0c,6691b9569a62a93c04fbe267,,,,,,,,,,,,,,,,,,,,,,,,,,,,,,,,,,,,,,,,,,,,,,,,,,,,,,,,,,,,407.9162,414.5212,0.249074074,-0.275,1,0,0,0.5993,compass,0,23,23,19,1,SoundStimuli/LetsGetItOn_MarvinGaye_Cover5S.wav,,,,,,,,,,,,,,,,,,,,,,,,,,,,,,,,,,,,,,,,,,,,,,,,,,,,,
,,,,,852540,001,2024-07-12_16h22.21.649,experiment,2024.1.5,Win32,60.24096386,659da75ece9c819da9a58328,6691931c2c63981b064e1f0c,6691b9569a62a93c04fbe267,,,,,,,,,,,,,,,,,,,,,,,,,,,,,,,,,,,,,,,,,,,,,,,,,,,,,,,,,,,,414.5304,423.2351,0.187962963,-0.000925926,1,0,0,2.6986,compass,0,24,24,4,1,SoundStimuli/GetUrFreakOn_MissyElliot_Original5S.wav,,,,,,,,,,,,,,,,,,,,,,,,,,,,,,,,,,,,,,,,,,,,,,,,,,,,,
,,,,,852540,001,2024-07-12_16h22.21.649,experiment,2024.1.5,Win32,60.24096386,659da75ece9c819da9a58328,6691931c2c63981b064e1f0c,6691b9569a62a93c04fbe267,,,,,,,,,,,,,,,,,,,,,,,,,,,,,,,,,,,,,,,,,,,,,,,,,,,,,,,,,,,,423.2445,429.6661,-0.212962963,0.212037037,1,0,0,0.4159,compass,0,25,25,16,1,SoundStimuli/BohemianRhapsody_Queen_Original5S.wav,,,,,,,,,,,,,,,,,,,,,,,,,,,,,,,,,,,,,,,,,,,,,,,,,,,,,
,,,,,852540,001,2024-07-12_16h22.21.649,experiment,2024.1.5,Win32,60.24096386,659da75ece9c819da9a58328,6691931c2c63981b064e1f0c,6691b9569a62a93c04fbe267,,,,,,,,,,,,,,,,,,,,,,,,,,,,,,,,,,,,,,,,,,,,,,,,,,,,,,,,,,,,429.6721,436.2304,-0.099074074,-0.243518519,1,0,0,0.5489,compass,0,26,26,29,1,SoundStimuli/OldTownRoad_LilNasX_Original5S.wav,,,,,,,,,,,,,,,,,,,,,,,,,,,,,,,,,,,,,,,,,,,,,,,,,,,,,
,,,,,852540,001,2024-07-12_16h22.21.649,experiment,2024.1.5,Win32,60.24096386,659da75ece9c819da9a58328,6691931c2c63981b064e1f0c,6691b9569a62a93c04fbe267,,,,,,,,,,,,,,,,,,,,,,,,,,,,,,,,,,,,,,,,,,,,,,,,,,,,,,,,,,,,436.236,442.8614,0.136111111,-0.060185185,1,0,0,0.6163,compass,0,27,27,20,1,SoundStimuli/HeyYa_Outkast_Cover5S.wav,,,,,,,,,,,,,,,,,,,,,,,,,,,,,,,,,,,,,,,,,,,,,,,,,,,,,
,,,,,852540,001,2024-07-12_16h22.21.649,experiment,2024.1.5,Win32,60.24096386,659da75ece9c819da9a58328,6691931c2c63981b064e1f0c,6691b9569a62a93c04fbe267,,,,,,,,,,,,,,,,,,,,,,,,,,,,,,,,,,,,,,,,,,,,,,,,,,,,,,,,,,,,442.8716,450.976,-0.024074074,0.077777778,1,0,0,2.099,compass,0,28,28,8,1,SoundStimuli/LikeAPrayer_Madonna_Original5S.wav,,,,,,,,,,,,,,,,,,,,,,,,,,,,,,,,,,,,,,,,,,,,,,,,,,,,,
,,,,,852540,001,2024-07-12_16h22.21.649,experiment,2024.1.5,Win32,60.24096386,659da75ece9c819da9a58328,6691931c2c63981b064e1f0c,6691b9569a62a93c04fbe267,,,,,,,,,,,,,,,,,,,,,,,,,,,,,,,,,,,,,,,,,,,,,,,,,,,,,,,,,,,,450.9814,457.6904,0.173148148,-0.233333333,1,0,0,0.6996,compass,0,29,29,10,1,SoundStimuli/BadDay_DanielPowter_Cover5S.wav,,,,,,,,,,,,,,,,,,,,,,,,,,,,,,,,,,,,,,,,,,,,,,,,,,,,,
,,,,,852540,001,2024-07-12_16h22.21.649,experiment,2024.1.5,Win32,60.24096386,659da75ece9c819da9a58328,6691931c2c63981b064e1f0c,6691b9569a62a93c04fbe267,,,,,,,,,,,,,,,,,,,,,,,,,,,,,,,,,,,,,,,,,,,,,,,,,,,,,,,,,,,,457.6987,464.8874,-0.158333333,-0.278703704,1,0,0,1.1829,compass,0,30,30,13,1,SoundStimuli/GodOnlyKnows_TheBeachBoys_Cover5S.wav,,,,,,,,,,,,,,,,,,,,,,,,,,,,,,,,,,,,,,,,,,,,,,,,,,,,,
,,,,,852540,001,2024-07-12_16h22.21.649,experiment,2024.1.5,Win32,60.24096386,659da75ece9c819da9a58328,6691931c2c63981b064e1f0c,6691b9569a62a93c04fbe267,,,,,,,,,,,,,,,,,,,,,,,,,,,,,,,,,,,,,,,,,,,,,,,,,,,,,,,,,,,,464.8975,471.2022,-0.181481481,0.234259259,1,0,0,0.2992,compass,0,31,31,6,1,SoundStimuli/Levitating_DuaLipa_Cover5S.wav,,,,,,,,,,,,,,,,,,,,,,,,,,,,,,,,,,,,,,,,,,,,,,,,,,,,,
,,,,,852540,001,2024-07-12_16h22.21.649,experiment,2024.1.5,Win32,60.24096386,659da75ece9c819da9a58328,6691931c2c63981b064e1f0c,6691b9569a62a93c04fbe267,,,,,,,,,,,,,,,,,,,,,,,,,,,,,,,,,,,,,,,,,,,,,,,,,,,,,,,,,,,,471.2098,480.4159,-0.02037037,0.215740741,1,0,0,3.1992,compass,0,32,32,14,1,SoundStimuli/BlindingLights_TheWeeknd_Original5S.wav,,,,,,,,,,,,,,,,,,,,,,,,,,,,,,,,,,,,,,,,,,,,,,,,,,,,,
,,,,,852540,001,2024-07-12_16h22.21.649,experiment,2024.1.5,Win32,60.24096386,659da75ece9c819da9a58328,6691931c2c63981b064e1f0c,6691b9569a62a93c04fbe267,,,,,,,,,,,,,,,,,,,,,,,,,,,,,,,,,,,,,,,,,,,,,,,,,,,,,,,,,,,,480.4252,487.347,-0.052777778,-0.026851852,1,0,0,0.9166,compass,0,33,33,3,1,SoundStimuli/NoScrubs_TLC_Original5S.wav,,,,,,,,,,,,,,,,,,,,,,,,,,,,,,,,,,,,,,,,,,,,,,,,,,,,,
,,,,,852540,001,2024-07-12_16h22.21.649,experiment,2024.1.5,Win32,60.24096386,659da75ece9c819da9a58328,6691931c2c63981b064e1f0c,6691b9569a62a93c04fbe267,,,,,,,,,,,,,,,,,,,,,,,,,,,,,,,,,,,,,,,,,,,,,,,,,,,,,,,,,,,,487.3563,494.5775,0.062962963,0.068518519,1,0,0,1.2158,compass,0,34,34,12,1,SoundStimuli/IWillAlwaysLoveYou_WhitneyHouston_Cover5S.wav,,,,,,,,,,,,,,,,,,,,,,,,,,,,,,,,,,,,,,,,,,,,,,,,,,,,,
,,,,,852540,001,2024-07-12_16h22.21.649,experiment,2024.1.5,Win32,60.24096386,659da75ece9c819da9a58328,6691931c2c63981b064e1f0c,6691b9569a62a93c04fbe267,,,,,,,,,,,,,,,,,,,,,,,,,,,,,,,,,,,,,,,,,,,,,,,,,,,,,,,,,,,,,,,,,,,,,,,,,,,494.5861,496.3786,space,1.7751,,496.3795,501.8277,right,5.4352,,0,0,0,0,1,block_order/blockA.xlsx,,,,,,,,,,,,,,,,,,,,,,,,,,,,,,,,,,,,,
,,,,,852540,001,2024-07-12_16h22.21.649,experiment,2024.1.5,Win32,60.24096386,659da75ece9c819da9a58328,6691931c2c63981b064e1f0c,6691b9569a62a93c04fbe267,,,,,,,,,,,,,,,,,,,,,,,,,,,,,,,,,,,,,,,,,,,,,,,,,,,,,,,,,,,,501.8396,508.8394,-0.105555556,0.148148148,1,0,0,0.9989,compass,0,0,0,34,1,SoundStimuli/Irreplaceable_Beyonce_Original5S.wav,,,,,,,,,,,,,,,,,,,,,,,,,,,,,,,,,,,,,,,,,,,,,,,,,,,,,
,,,,,852540,001,2024-07-12_16h22.21.649,experiment,2024.1.5,Win32,60.24096386,659da75ece9c819da9a58328,6691931c2c63981b064e1f0c,6691b9569a62a93c04fbe267,,,,,,,,,,,,,,,,,,,,,,,,,,,,,,,,,,,,,,,,,,,,,,,,,,,,,,,,,,,,508.8472,515.787,0.105555556,0.127777778,1,0,0,0.9334,compass,0,1,1,24,1,SoundStimuli/Kiss_Prince_Original5S.wav,,,,,,,,,,,,,,,,,,,,,,,,,,,,,,,,,,,,,,,,,,,,,,,,,,,,,
,,,,,852540,001,2024-07-12_16h22.21.649,experiment,2024.1.5,Win32,60.24096386,659da75ece9c819da9a58328,6691931c2c63981b064e1f0c,6691b9569a62a93c04fbe267,,,,,,,,,,,,,,,,,,,,,,,,,,,,,,,,,,,,,,,,,,,,,,,,,,,,,,,,,,,,515.7916,524.1675,-0.128703704,-0.080555556,1,0,0,2.3657,compass,0,2,2,19,1,SoundStimuli/YouLightUpMyLife_DebbyBoone_Cover5S.wav,,,,,,,,,,,,,,,,,,,,,,,,,,,,,,,,,,,,,,,,,,,,,,,,,,,,,
,,,,,852540,001,2024-07-12_16h22.21.649,experiment,2024.1.5,Win32,60.24096386,659da75ece9c819da9a58328,6691931c2c63981b064e1f0c,6691b9569a62a93c04fbe267,,,,,,,,,,,,,,,,,,,,,,,,,,,,,,,,,,,,,,,,,,,,,,,,,,,,,,,,,,,,524.1731,532.3649,0.086111111,-0.226851852,1,0,0,2.1819,compass,0,3,3,18,1,SoundStimuli/Weak_SWV_Original5S.wav,,,,,,,,,,,,,,,,,,,,,,,,,,,,,,,,,,,,,,,,,,,,,,,,,,,,,
,,,,,852540,001,2024-07-12_16h22.21.649,experiment,2024.1.5,Win32,60.24096386,659da75ece9c819da9a58328,6691931c2c63981b064e1f0c,6691b9569a62a93c04fbe267,,,,,,,,,,,,,,,,,,,,,,,,,,,,,,,,,,,,,,,,,,,,,,,,,,,,,,,,,,,,532.372,541.5616,-0.062962963,0.112962963,1,0,0,3.1823,compass,0,4,4,11,1,SoundStimuli/BlurredLines_RobinThicke_Original5S.wav,,,,,,,,,,,,,,,,,,,,,,,,,,,,,,,,,,,,,,,,,,,,,,,,,,,,,
,,,,,852540,001,2024-07-12_16h22.21.649,experiment,2024.1.5,Win32,60.24096386,659da75ece9c819da9a58328,6691931c2c63981b064e1f0c,6691b9569a62a93c04fbe267,,,,,,,,,,,,,,,,,,,,,,,,,,,,,,,,,,,,,,,,,,,,,,,,,,,,,,,,,,,,541.5689,550.4755,0.085185185,0.113888889,1,0,0,2.8991,compass,0,5,5,25,1,SoundStimuli/IllMakeLoveToYou_BoyzIIMen_Original5S.wav,,,,,,,,,,,,,,,,,,,,,,,,,,,,,,,,,,,,,,,,,,,,,,,,,,,,,
,,,,,852540,001,2024-07-12_16h22.21.649,experiment,2024.1.5,Win32,60.24096386,659da75ece9c819da9a58328,6691931c2c63981b064e1f0c,6691b9569a62a93c04fbe267,,,,,,,,,,,,,,,,,,,,,,,,,,,,,,,,,,,,,,,,,,,,,,,,,,,,,,,,,,,,550.4829,559.6058,0.088888889,0.188888889,1,0,0,3.1156,compass,0,6,6,15,1,SoundStimuli/CrazyInLove_BeyonceFtJayZ_Original5S.wav,,,,,,,,,,,,,,,,,,,,,,,,,,,,,,,,,,,,,,,,,,,,,,,,,,,,,
,,,,,852540,001,2024-07-12_16h22.21.649,experiment,2024.1.5,Win32,60.24096386,659da75ece9c819da9a58328,6691931c2c63981b064e1f0c,6691b9569a62a93c04fbe267,,,,,,,,,,,,,,,,,,,,,,,,,,,,,,,,,,,,,,,,,,,,,,,,,,,,,,,,,,,,559.6145,567.2026,-0.090740741,0.173148148,1,0,0,1.5827,compass,0,7,7,2,1,SoundStimuli/SmellsLikeTeenSpirit_Nirvana_Cover5S.wav,,,,,,,,,,,,,,,,,,,,,,,,,,,,,,,,,,,,,,,,,,,,,,,,,,,,,
,,,,,852540,001,2024-07-12_16h22.21.649,experiment,2024.1.5,Win32,60.24096386,659da75ece9c819da9a58328,6691931c2c63981b064e1f0c,6691b9569a62a93c04fbe267,,,,,,,,,,,,,,,,,,,,,,,,,,,,,,,,,,,,,,,,,,,,,,,,,,,,,,,,,,,,567.2092,573.8673,-0.134259259,-0.24537037,1,0,0,0.6497,compass,0,8,8,21,1,SoundStimuli/BridgeOverTroubledWater_SimonAndGarfunkel_Cover5S.wav,,,,,,,,,,,,,,,,,,,,,,,,,,,,,,,,,,,,,,,,,,,,,,,,,,,,,
,,,,,852540,001,2024-07-12_16h22.21.649,experiment,2024.1.5,Win32,60.24096386,659da75ece9c819da9a58328,6691931c2c63981b064e1f0c,6691b9569a62a93c04fbe267,,,,,,,,,,,,,,,,,,,,,,,,,,,,,,,,,,,,,,,,,,,,,,,,,,,,,,,,,,,,573.8732,581.7646,0.073148148,0.151851852,1,0,0,1.8827,compass,0,9,9,20,1,SoundStimuli/FlashdanceWhatAFeeling_IreneCara_Cover5S.wav,,,,,,,,,,,,,,,,,,,,,,,,,,,,,,,,,,,,,,,,,,,,,,,,,,,,,
,,,,,852540,001,2024-07-12_16h22.21.649,experiment,2024.1.5,Win32,60.24096386,659da75ece9c819da9a58328,6691931c2c63981b064e1f0c,6691b9569a62a93c04fbe267,,,,,,,,,,,,,,,,,,,,,,,,,,,,,,,,,,,,,,,,,,,,,,,,,,,,,,,,,,,,581.7743,588.3291,-0.2,-0.211111111,1,0,0,0.5499,compass,0,10,10,9,1,SoundStimuli/HowDoILive_LeAnnRimes_Original5S.wav,,,,,,,,,,,,,,,,,,,,,,,,,,,,,,,,,,,,,,,,,,,,,,,,,,,,,
,,,,,852540,001,2024-07-12_16h22.21.649,experiment,2024.1.5,Win32,60.24096386,659da75ece9c819da9a58328,6691931c2c63981b064e1f0c,6691b9569a62a93c04fbe267,,,,,,,,,,,,,,,,,,,,,,,,,,,,,,,,,,,,,,,,,,,,,,,,,,,,,,,,,,,,588.3359,594.9266,-0.182407407,-0.212962963,1,0,0,0.5829,compass,0,11,11,28,1,SoundStimuli/IWantToHoldYourHand_TheBeatles_Cover5S.wav,,,,,,,,,,,,,,,,,,,,,,,,,,,,,,,,,,,,,,,,,,,,,,,,,,,,,
,,,,,852540,001,2024-07-12_16h22.21.649,experiment,2024.1.5,Win32,60.24096386,659da75ece9c819da9a58328,6691931c2c63981b064e1f0c,6691b9569a62a93c04fbe267,,,,,,,,,,,,,,,,,,,,,,,,,,,,,,,,,,,,,,,,,,,,,,,,,,,,,,,,,,,,594.9318,602.5576,-0.038888889,-0.198148148,1,0,0,1.6156,compass,0,12,12,29,1,SoundStimuli/BetteDavisEyes_KimCarnes_Cover5S.wav,,,,,,,,,,,,,,,,,,,,,,,,,,,,,,,,,,,,,,,,,,,,,,,,,,,,,
,,,,,852540,001,2024-07-12_16h22.21.649,experiment,2024.1.5,Win32,60.24096386,659da75ece9c819da9a58328,6691931c2c63981b064e1f0c,6691b9569a62a93c04fbe267,,,,,,,,,,,,,,,,,,,,,,,,,,,,,,,,,,,,,,,,,,,,,,,,,,,,,,,,,,,,602.5691,609.0892,-0.197222222,-0.239814815,1,0,0,0.5168,compass,0,13,13,17,1,SoundStimuli/IWannaDanceWithSomebody_WhitneyHouston_Cover5S.wav,,,,,,,,,,,,,,,,,,,,,,,,,,,,,,,,,,,,,,,,,,,,,,,,,,,,,
,,,,,852540,001,2024-07-12_16h22.21.649,experiment,2024.1.5,Win32,60.24096386,659da75ece9c819da9a58328,6691931c2c63981b064e1f0c,6691b9569a62a93c04fbe267,,,,,,,,,,,,,,,,,,,,,,,,,,,,,,,,,,,,,,,,,,,,,,,,,,,,,,,,,,,,609.0955,619.3518,-0.049074074,0.17037037,1,0,0,4.2481,compass,0,14,14,31,1,SoundStimuli/TossinAndTurnin_BobbyLewis_Cover5S.wav,,,,,,,,,,,,,,,,,,,,,,,,,,,,,,,,,,,,,,,,,,,,,,,,,,,,,
,,,,,852540,001,2024-07-12_16h22.21.649,experiment,2024.1.5,Win32,60.24096386,659da75ece9c819da9a58328,6691931c2c63981b064e1f0c,6691b9569a62a93c04fbe267,,,,,,,,,,,,,,,,,,,,,,,,,,,,,,,,,,,,,,,,,,,,,,,,,,,,,,,,,,,,619.3603,626.0334,0.162962963,0.200925926,1,0,0,0.6661,compass,0,15,15,10,1,SoundStimuli/LeFreak_Chic_Original5S.wav,,,,,,,,,,,,,,,,,,,,,,,,,,,,,,,,,,,,,,,,,,,,,,,,,,,,,
,,,,,852540,001,2024-07-12_16h22.21.649,experiment,2024.1.5,Win32,60.24096386,659da75ece9c819da9a58328,6691931c2c63981b064e1f0c,6691b9569a62a93c04fbe267,,,,,,,,,,,,,,,,,,,,,,,,,,,,,,,,,,,,,,,,,,,,,,,,,,,,,,,,,,,,626.0403,632.7806,-0.126851852,0.151851852,1,0,0,0.7327,compass,0,16,16,1,1,SoundStimuli/Smooth_SantanaRobThomas_Cover5S.wav,,,,,,,,,,,,,,,,,,,,,,,,,,,,,,,,,,,,,,,,,,,,,,,,,,,,,
,,,,,852540,001,2024-07-12_16h22.21.649,experiment,2024.1.5,Win32,60.24096386,659da75ece9c819da9a58328,6691931c2c63981b064e1f0c,6691b9569a62a93c04fbe267,,,,,,,,,,,,,,,,,,,,,,,,,,,,,,,,,,,,,,,,,,,,,,,,,,,,,,,,,,,,632.7878,639.4118,0.167592593,0.236111111,1,0,0,0.6161,compass,0,17,17,22,1,SoundStimuli/Happy_PharellWilliams_Cover5S.wav,,,,,,,,,,,,,,,,,,,,,,,,,,,,,,,,,,,,,,,,,,,,,,,,,,,,,
,,,,,852540,001,2024-07-12_16h22.21.649,experiment,2024.1.5,Win32,60.24096386,659da75ece9c819da9a58328,6691931c2c63981b064e1f0c,6691b9569a62a93c04fbe267,,,,,,,,,,,,,,,,,,,,,,,,,,,,,,,,,,,,,,,,,,,,,,,,,,,,,,,,,,,,639.4171,648.7753,-0.069444444,-0.253703704,1,0,0,3.3489,compass,0,18,18,4,1,SoundStimuli/Dreams_FleetwoodMac_Cover5S.wav,,,,,,,,,,,,,,,,,,,,,,,,,,,,,,,,,,,,,,,,,,,,,,,,,,,,,
,,,,,852540,001,2024-07-12_16h22.21.649,experiment,2024.1.5,Win32,60.24096386,659da75ece9c819da9a58328,6691931c2c63981b064e1f0c,6691b9569a62a93c04fbe267,,,,,,,,,,,,,,,,,,,,,,,,,,,,,,,,,,,,,,,,,,,,,,,,,,,,,,,,,,,,648.7838,655.6562,-0.155555556,0.051851852,1,0,0,0.8662,compass,0,19,19,12,1,SoundStimuli/UnbreakMyHeart_ToniBraxton_Cover5S.wav,,,,,,,,,,,,,,,,,,,,,,,,,,,,,,,,,,,,,,,,,,,,,,,,,,,,,
,,,,,852540,001,2024-07-12_16h22.21.649,experiment,2024.1.5,Win32,60.24096386,659da75ece9c819da9a58328,6691931c2c63981b064e1f0c,6691b9569a62a93c04fbe267,,,,,,,,,,,,,,,,,,,,,,,,,,,,,,,,,,,,,,,,,,,,,,,,,,,,,,,,,,,,655.6628,662.2541,0.20462963,-0.191666667,1,0,0,0.5831,compass,0,20,20,16,1,SoundStimuli/ItsAllInTheGame_TommyEdwards_Original5S.wav,,,,,,,,,,,,,,,,,,,,,,,,,,,,,,,,,,,,,,,,,,,,,,,,,,,,,
,,,,,852540,001,2024-07-12_16h22.21.649,experiment,2024.1.5,Win32,60.24096386,659da75ece9c819da9a58328,6691931c2c63981b064e1f0c,6691b9569a62a93c04fbe267,,,,,,,,,,,,,,,,,,,,,,,,,,,,,,,,,,,,,,,,,,,,,,,,,,,,,,,,,,,,662.2635,668.6851,0.214814815,0.264814815,1,0,0,0.4165,compass,0,21,21,27,1,SoundStimuli/EyeOfTheTiger_Survivor_Original5S.wav,,,,,,,,,,,,,,,,,,,,,,,,,,,,,,,,,,,,,,,,,,,,,,,,,,,,,
,,,,,852540,001,2024-07-12_16h22.21.649,experiment,2024.1.5,Win32,60.24096386,659da75ece9c819da9a58328,6691931c2c63981b064e1f0c,6691b9569a62a93c04fbe267,,,,,,,,,,,,,,,,,,,,,,,,,,,,,,,,,,,,,,,,,,,,,,,,,,,,,,,,,,,,668.694,675.1828,-0.250925926,-0.062037037,1,0,0,0.4831,compass,0,22,22,32,1,SoundStimuli/Dilemma_NellyKellyRowland_Original5S.wav,,,,,,,,,,,,,,,,,,,,,,,,,,,,,,,,,,,,,,,,,,,,,,,,,,,,,
,,,,,852540,001,2024-07-12_16h22.21.649,experiment,2024.1.5,Win32,60.24096386,659da75ece9c819da9a58328,6691931c2c63981b064e1f0c,6691b9569a62a93c04fbe267,,,,,,,,,,,,,,,,,,,,,,,,,,,,,,,,,,,,,,,,,,,,,,,,,,,,,,,,,,,,675.1887,681.814,0.207407407,-0.162037037,1,0,0,0.6157,compass,0,23,23,13,1,SoundStimuli/Perfect_EdSheeran_Original5S.wav,,,,,,,,,,,,,,,,,,,,,,,,,,,,,,,,,,,,,,,,,,,,,,,,,,,,,
,,,,,852540,001,2024-07-12_16h22.21.649,experiment,2024.1.5,Win32,60.24096386,659da75ece9c819da9a58328,6691931c2c63981b064e1f0c,6691b9569a62a93c04fbe267,,,,,,,,,,,,,,,,,,,,,,,,,,,,,,,,,,,,,,,,,,,,,,,,,,,,,,,,,,,,681.8222,688.6953,0.137037037,-0.116666667,1,0,0,0.8658,compass,0,24,24,14,1,SoundStimuli/LikeARollingStone_BobDylan_Cover5S.wav,,,,,,,,,,,,,,,,,,,,,,,,,,,,,,,,,,,,,,,,,,,,,,,,,,,,,
,,,,,852540,001,2024-07-12_16h22.21.649,experiment,2024.1.5,Win32,60.24096386,659da75ece9c819da9a58328,6691931c2c63981b064e1f0c,6691b9569a62a93c04fbe267,,,,,,,,,,,,,,,,,,,,,,,,,,,,,,,,,,,,,,,,,,,,,,,,,,,,,,,,,,,,688.7022,696.176,0.198148148,-0.197222222,1,0,0,1.4659,compass,0,25,25,7,1,SoundStimuli/MackTheKnife_BobbyDarin_Original5S.wav,,,,,,,,,,,,,,,,,,,,,,,,,,,,,,,,,,,,,,,,,,,,,,,,,,,,,
,,,,,852540,001,2024-07-12_16h22.21.649,experiment,2024.1.5,Win32,60.24096386,659da75ece9c819da9a58328,6691931c2c63981b064e1f0c,6691b9569a62a93c04fbe267,,,,,,,,,,,,,,,,,,,,,,,,,,,,,,,,,,,,,,,,,,,,,,,,,,,,,,,,,,,,696.1821,703.5902,-0.041666667,0.1,1,0,0,1.3996,compass,0,26,26,0,1,SoundStimuli/GimmeShelter_RollingStones_Cover5S.wav,,,,,,,,,,,,,,,,,,,,,,,,,,,,,,,,,,,,,,,,,,,,,,,,,,,,,
,,,,,852540,001,2024-07-12_16h22.21.649,experiment,2024.1.5,Win32,60.24096386,659da75ece9c819da9a58328,6691931c2c63981b064e1f0c,6691b9569a62a93c04fbe267,,,,,,,,,,,,,,,,,,,,,,,,,,,,,,,,,,,,,,,,,,,,,,,,,,,,,,,,,,,,703.5985,710.3879,0.139814815,0.110185185,1,0,0,0.7835,compass,0,27,27,5,1,SoundStimuli/JoyToTheWorld_ThreeDogNight_Cover5S.wav,,,,,,,,,,,,,,,,,,,,,,,,,,,,,,,,,,,,,,,,,,,,,,,,,,,,,
,,,,,852540,001,2024-07-12_16h22.21.649,experiment,2024.1.5,Win32,60.24096386,659da75ece9c819da9a58328,6691931c2c63981b064e1f0c,6691b9569a62a93c04fbe267,,,,,,,,,,,,,,,,,,,,,,,,,,,,,,,,,,,,,,,,,,,,,,,,,,,,,,,,,,,,710.4023,718.1185,0.123148148,0.12962963,1,0,0,1.7155,compass,0,28,28,3,1,SoundStimuli/PartyRockAnthem_LMFAO_Cover5S.wav,,,,,,,,,,,,,,,,,,,,,,,,,,,,,,,,,,,,,,,,,,,,,,,,,,,,,
,,,,,852540,001,2024-07-12_16h22.21.649,experiment,2024.1.5,Win32,60.24096386,659da75ece9c819da9a58328,6691931c2c63981b064e1f0c,6691b9569a62a93c04fbe267,,,,,,,,,,,,,,,,,,,,,,,,,,,,,,,,,,,,,,,,,,,,,,,,,,,,,,,,,,,,718.1242,724.9161,0.143518519,0.178703704,1,0,0,0.7828,compass,0,29,29,26,1,SoundStimuli/TheSign_AceOfBase_Original5S.wav,,,,,,,,,,,,,,,,,,,,,,,,,,,,,,,,,,,,,,,,,,,,,,,,,,,,,
,,,,,852540,001,2024-07-12_16h22.21.649,experiment,2024.1.5,Win32,60.24096386,659da75ece9c819da9a58328,6691931c2c63981b064e1f0c,6691b9569a62a93c04fbe267,,,,,,,,,,,,,,,,,,,,,,,,,,,,,,,,,,,,,,,,,,,,,,,,,,,,,,,,,,,,724.9224,731.897,0.119444444,-0.088888889,1,0,0,0.966,compass,0,30,30,23,1,SoundStimuli/IWalkTheLine_JohnnyCash_Cover5S.wav,,,,,,,,,,,,,,,,,,,,,,,,,,,,,,,,,,,,,,,,,,,,,,,,,,,,,
,,,,,852540,001,2024-07-12_16h22.21.649,experiment,2024.1.5,Win32,60.24096386,659da75ece9c819da9a58328,6691931c2c63981b064e1f0c,6691b9569a62a93c04fbe267,,,,,,,,,,,,,,,,,,,,,,,,,,,,,,,,,,,,,,,,,,,,,,,,,,,,,,,,,,,,731.903,738.313,0.163888889,-0.141666667,1,0,0,0.4008,compass,0,31,31,8,1,SoundStimuli/EndlessLove_DianaRossLionelRichie_Original5S.wav,,,,,,,,,,,,,,,,,,,,,,,,,,,,,,,,,,,,,,,,,,,,,,,,,,,,,
,,,,,852540,001,2024-07-12_16h22.21.649,experiment,2024.1.5,Win32,60.24096386,659da75ece9c819da9a58328,6691931c2c63981b064e1f0c,6691b9569a62a93c04fbe267,,,,,,,,,,,,,,,,,,,,,,,,,,,,,,,,,,,,,,,,,,,,,,,,,,,,,,,,,,,,738.3368,745.4268,-0.075,-0.065740741,1,0,0,1.083,compass,0,32,32,33,1,SoundStimuli/TheBoyIsMine_BrandyMonica_Cover5S.wav,,,,,,,,,,,,,,,,,,,,,,,,,,,,,,,,,,,,,,,,,,,,,,,,,,,,,
,,,,,852540,001,2024-07-12_16h22.21.649,experiment,2024.1.5,Win32,60.24096386,659da75ece9c819da9a58328,6691931c2c63981b064e1f0c,6691b9569a62a93c04fbe267,,,,,,,,,,,,,,,,,,,,,,,,,,,,,,,,,,,,,,,,,,,,,,,,,,,,,,,,,,,,745.4362,752.374,-0.184259259,0.211111111,1,0,0,0.9326,compass,0,33,33,6,1,SoundStimuli/SaveYourTears_TheWeekndArianaGrande_Original5S.wav,,,,,,,,,,,,,,,,,,,,,,,,,,,,,,,,,,,,,,,,,,,,,,,,,,,,,
,,,,,852540,001,2024-07-12_16h22.21.649,experiment,2024.1.5,Win32,60.24096386,659da75ece9c819da9a58328,6691931c2c63981b064e1f0c,6691b9569a62a93c04fbe267,,,,,,,,,,,,,,,,,,,,,,,,,,,,,,,,,,,,,,,,,,,,,,,,,,,,,,,,,,,,752.383,760.3375,-0.199074074,0.162962963,1,0,0,1.9494,compass,0,34,34,30,1,SoundStimuli/SomebodyThatIUsedtoKnow_Gotye_Cover5S.wav,,,,,,,,,,,,,,,,,,,,,,,,,,,,,,,,,,,,,,,,,,,,,,,,,,,,,
,,,,,852540,001,2024-07-12_16h22.21.649,experiment,2024.1.5,Win32,60.24096386,659da75ece9c819da9a58328,6691931c2c63981b064e1f0c,6691b9569a62a93c04fbe267,,,,,,,,,,,,,,,,,,,,,,,,,,,,,,,,,,,,,,,,,,,,,,,,,,,,,,,,,,,,,,,,,,,,,,,,,,,760.3379,764.9362,space,4.5874,,764.9363,768.0689,right,3.1173,,0,1,1,1,1,block_order/blockB.xlsx,,,,,,,,,,,,,,,,,,,,,,,,,,,,,,,,,,,,,
,,,,,852540,001,2024-07-12_16h22.21.649,experiment,2024.1.5,Win32,60.24096386,659da75ece9c819da9a58328,6691931c2c63981b064e1f0c,6691b9569a62a93c04fbe267,,,,,,,,,,,,,,,,,,,,,,,,,,,,,,,,,,,,,,,,,,,,,,,,,,,,,,,,,,,,768.0867,775.5159,0.047222222,0.193518519,1,0,0,1.416,compass,0,0,0,8,1,SoundStimuli/LikeAPrayer_Madonna_Cover5S.wav,,,,,,,,,,,,,,,,,,,,,,,,,,,,,,,,,,,,,,,,,,,,,,,,,,,,,
,,,,,852540,001,2024-07-12_16h22.21.649,experiment,2024.1.5,Win32,60.24096386,659da75ece9c819da9a58328,6691931c2c63981b064e1f0c,6691b9569a62a93c04fbe267,,,,,,,,,,,,,,,,,,,,,,,,,,,,,,,,,,,,,,,,,,,,,,,,,,,,,,,,,,,,775.5244,785.5622,-0.062037037,-0.230555556,1,0,0,4.0317,compass,0,1,1,29,1,SoundStimuli/OldTownRoad_LilNasX_Cover5S.wav,,,,,,,,,,,,,,,,,,,,,,,,,,,,,,,,,,,,,,,,,,,,,,,,,,,,,
,,,,,852540,001,2024-07-12_16h22.21.649,experiment,2024.1.5,Win32,60.24096386,659da75ece9c819da9a58328,6691931c2c63981b064e1f0c,6691b9569a62a93c04fbe267,,,,,,,,,,,,,,,,,,,,,,,,,,,,,,,,,,,,,,,,,,,,,,,,,,,,,,,,,,,,785.5675,793.3105,0.202777778,-0.209259259,1,0,0,1.7329,compass,0,2,2,19,1,SoundStimuli/LetsGetItOn_MarvinGaye_Original5S.wav,,,,,,,,,,,,,,,,,,,,,,,,,,,,,,,,,,,,,,,,,,,,,,,,,,,,,
,,,,,852540,001,2024-07-12_16h22.21.649,experiment,2024.1.5,Win32,60.24096386,659da75ece9c819da9a58328,6691931c2c63981b064e1f0c,6691b9569a62a93c04fbe267,,,,,,,,,,,,,,,,,,,,,,,,,,,,,,,,,,,,,,,,,,,,,,,,,,,,,,,,,,,,793.3191,804.8226,-0.090740741,0.182407407,1,0,0,5.4973,compass,0,3,3,32,1,SoundStimuli/HeatWaves_GlassAnimals_Cover5S.wav,,,,,,,,,,,,,,,,,,,,,,,,,,,,,,,,,,,,,,,,,,,,,,,,,,,,,
,,,,,852540,001,2024-07-12_16h22.21.649,experiment,2024.1.5,Win32,60.24096386,659da75ece9c819da9a58328,6691931c2c63981b064e1f0c,6691b9569a62a93c04fbe267,,,,,,,,,,,,,,,,,,,,,,,,,,,,,,,,,,,,,,,,,,,,,,,,,,,,,,,,,,,,804.8308,812.5535,-0.041666667,0.059259259,1,0,0,1.7159,compass,0,4,4,3,1,SoundStimuli/NoScrubs_TLC_Cover5S.wav,,,,,,,,,,,,,,,,,,,,,,,,,,,,,,,,,,,,,,,,,,,,,,,,,,,,,
,,,,,852540,001,2024-07-12_16h22.21.649,experiment,2024.1.5,Win32,60.24096386,659da75ece9c819da9a58328,6691931c2c63981b064e1f0c,6691b9569a62a93c04fbe267,,,,,,,,,,,,,,,,,,,,,,,,,,,,,,,,,,,,,,,,,,,,,,,,,,,,,,,,,,,,812.5622,819.2683,-0.275,0.251851852,1,0,0,0.6991,compass,0,5,5,23,1,SoundStimuli/StrawberryFieldsForever_TheBeatles_Cover5S.wav,,,,,,,,,,,,,,,,,,,,,,,,,,,,,,,,,,,,,,,,,,,,,,,,,,,,,
,,,,,852540,001,2024-07-12_16h22.21.649,experiment,2024.1.5,Win32,60.24096386,659da75ece9c819da9a58328,6691931c2c63981b064e1f0c,6691b9569a62a93c04fbe267,,,,,,,,,,,,,,,,,,,,,,,,,,,,,,,,,,,,,,,,,,,,,,,,,,,,,,,,,,,,819.2764,826.1159,0.276851852,0.268518519,1,0,0,0.8333,compass,0,6,6,20,1,SoundStimuli/HeyYa_Outkast_Original5S.wav,,,,,,,,,,,,,,,,,,,,,,,,,,,,,,,,,,,,,,,,,,,,,,,,,,,,,
,,,,,852540,001,2024-07-12_16h22.21.649,experiment,2024.1.5,Win32,60.24096386,659da75ece9c819da9a58328,6691931c2c63981b064e1f0c,6691b9569a62a93c04fbe267,,,,,,,,,,,,,,,,,,,,,,,,,,,,,,,,,,,,,,,,,,,,,,,,,,,,,,,,,,,,826.1235,834.8152,-0.064814815,0.084259259,1,0,0,2.6853,compass,0,7,7,2,1,SoundStimuli/Mood_24kGoldnianndior_Original5S.wav,,,,,,,,,,,,,,,,,,,,,,,,,,,,,,,,,,,,,,,,,,,,,,,,,,,,,
,,,,,852540,001,2024-07-12_16h22.21.649,experiment,2024.1.5,Win32,60.24096386,659da75ece9c819da9a58328,6691931c2c63981b064e1f0c,6691b9569a62a93c04fbe267,,,,,,,,,,,,,,,,,,,,,,,,,,,,,,,,,,,,,,,,,,,,,,,,,,,,,,,,,,,,834.8234,847.0751,0.043518519,0.038888889,1,0,0,6.247,compass,0,8,8,12,1,SoundStimuli/IWillAlwaysLoveYou_WhitneyHouston_Original5S.wav,,,,,,,,,,,,,,,,,,,,,,,,,,,,,,,,,,,,,,,,,,,,,,,,,,,,,
,,,,,852540,001,2024-07-12_16h22.21.649,experiment,2024.1.5,Win32,60.24096386,659da75ece9c819da9a58328,6691931c2c63981b064e1f0c,6691b9569a62a93c04fbe267,,,,,,,,,,,,,,,,,,,,,,,,,,,,,,,,,,,,,,,,,,,,,,,,,,,,,,,,,,,,847.0804,859.7212,0.037962963,0.041666667,1,0,0,6.6312,compass,0,9,9,30,1,SoundStimuli/PokerFace_LadyGaga_Cover5S.wav,,,,,,,,,,,,,,,,,,,,,,,,,,,,,,,,,,,,,,,,,,,,,,,,,,,,,
,,,,,852540,001,2024-07-12_16h22.21.649,experiment,2024.1.5,Win32,60.24096386,659da75ece9c819da9a58328,6691931c2c63981b064e1f0c,6691b9569a62a93c04fbe267,,,,,,,,,,,,,,,,,,,,,,,,,,,,,,,,,,,,,,,,,,,,,,,,,,,,,,,,,,,,859.7301,866.5684,0.047222222,-0.052777778,1,0,0,0.8328,compass,0,10,10,27,1,SoundStimuli/ShapeofYou_EdSheeran_Cover5S.wav,,,,,,,,,,,,,,,,,,,,,,,,,,,,,,,,,,,,,,,,,,,,,,,,,,,,,
,,,,,852540,001,2024-07-12_16h22.21.649,experiment,2024.1.5,Win32,60.24096386,659da75ece9c819da9a58328,6691931c2c63981b064e1f0c,6691b9569a62a93c04fbe267,,,,,,,,,,,,,,,,,,,,,,,,,,,,,,,,,,,,,,,,,,,,,,,,,,,,,,,,,,,,866.5736,877.1655,0.015740741,0.263888889,1,0,0,4.5815,compass,0,11,11,26,1,SoundStimuli/LivinOnAPrayer_BonJovi_Original5S.wav,,,,,,,,,,,,,,,,,,,,,,,,,,,,,,,,,,,,,,,,,,,,,,,,,,,,,
,,,,,852540,001,2024-07-12_16h22.21.649,experiment,2024.1.5,Win32,60.24096386,659da75ece9c819da9a58328,6691931c2c63981b064e1f0c,6691b9569a62a93c04fbe267,,,,,,,,,,,,,,,,,,,,,,,,,,,,,,,,,,,,,,,,,,,,,,,,,,,,,,,,,,,,877.1761,884.8623,0.022222222,0.092592593,1,0,0,1.6828,compass,0,12,12,4,1,SoundStimuli/GetUrFreakOn_MissyElliot_Cover5S.wav,,,,,,,,,,,,,,,,,,,,,,,,,,,,,,,,,,,,,,,,,,,,,,,,,,,,,
,,,,,852540,001,2024-07-12_16h22.21.649,experiment,2024.1.5,Win32,60.24096386,659da75ece9c819da9a58328,6691931c2c63981b064e1f0c,6691b9569a62a93c04fbe267,,,,,,,,,,,,,,,,,,,,,,,,,,,,,,,,,,,,,,,,,,,,,,,,,,,,,,,,,,,,884.8684,895.7419,0.037037037,0.068518519,1,0,0,4.864,compass,0,13,13,31,1,SoundStimuli/TheBattleOfNewOrleans_JohnnyHorton_Original5S.wav,,,,,,,,,,,,,,,,,,,,,,,,,,,,,,,,,,,,,,,,,,,,,,,,,,,,,
,,,,,852540,001,2024-07-12_16h22.21.649,experiment,2024.1.5,Win32,60.24096386,659da75ece9c819da9a58328,6691931c2c63981b064e1f0c,6691b9569a62a93c04fbe267,,,,,,,,,,,,,,,,,,,,,,,,,,,,,,,,,,,,,,,,,,,,,,,,,,,,,,,,,,,,895.7472,903.1062,0.023148148,0.175,1,0,0,1.349,compass,0,14,14,24,1,SoundStimuli/UptownFunk_MarkRonson_Cover5S.wav,,,,,,,,,,,,,,,,,,,,,,,,,,,,,,,,,,,,,,,,,,,,,,,,,,,,,
,,,,,852540,001,2024-07-12_16h22.21.649,experiment,2024.1.5,Win32,60.24096386,659da75ece9c819da9a58328,6691931c2c63981b064e1f0c,6691b9569a62a93c04fbe267,,,,,,,,,,,,,,,,,,,,,,,,,,,,,,,,,,,,,,,,,,,,,,,,,,,,,,,,,,,,903.1163,909.5713,0.101851852,0.331481481,1,0,0,0.4499,compass,0,15,15,15,1,SoundStimuli/TikTok_Kesha_Original5S.wav,,,,,,,,,,,,,,,,,,,,,,,,,,,,,,,,,,,,,,,,,,,,,,,,,,,,,
,,,,,852540,001,2024-07-12_16h22.21.649,experiment,2024.1.5,Win32,60.24096386,659da75ece9c819da9a58328,6691931c2c63981b064e1f0c,6691b9569a62a93c04fbe267,,,,,,,,,,,,,,,,,,,,,,,,,,,,,,,,,,,,,,,,,,,,,,,,,,,,,,,,,,,,909.579,920.1171,-0.266666667,-0.088888889,1,0,0,4.5318,compass,0,16,16,7,1,SoundStimuli/NoOne_AliciaKeys_Original5S.wav,,,,,,,,,,,,,,,,,,,,,,,,,,,,,,,,,,,,,,,,,,,,,,,,,,,,,
,,,,,852540,001,2024-07-12_16h22.21.649,experiment,2024.1.5,Win32,60.24096386,659da75ece9c819da9a58328,6691931c2c63981b064e1f0c,6691b9569a62a93c04fbe267,,,,,,,,,,,,,,,,,,,,,,,,,,,,,,,,,,,,,,,,,,,,,,,,,,,,,,,,,,,,920.1235,927.7145,-0.039814815,0.050925926,1,0,0,1.5826,compass,0,17,17,1,1,SoundStimuli/Stronger_KanyeWest_Cover5S.wav,,,,,,,,,,,,,,,,,,,,,,,,,,,,,,,,,,,,,,,,,,,,,,,,,,,,,
,,,,,852540,001,2024-07-12_16h22.21.649,experiment,2024.1.5,Win32,60.24096386,659da75ece9c819da9a58328,6691931c2c63981b064e1f0c,6691b9569a62a93c04fbe267,,,,,,,,,,,,,,,,,,,,,,,,,,,,,,,,,,,,,,,,,,,,,,,,,,,,,,,,,,,,927.7202,935.8617,0.09537037,0.068518519,1,0,0,2.1318,compass,0,18,18,34,1,SoundStimuli/AChangeIsGonnaCome_SamCooke_Original5S.wav,,,,,,,,,,,,,,,,,,,,,,,,,,,,,,,,,,,,,,,,,,,,,,,,,,,,,
,,,,,852540,001,2024-07-12_16h22.21.649,experiment,2024.1.5,Win32,60.24096386,659da75ece9c819da9a58328,6691931c2c63981b064e1f0c,6691b9569a62a93c04fbe267,,,,,,,,,,,,,,,,,,,,,,,,,,,,,,,,,,,,,,,,,,,,,,,,,,,,,,,,,,,,935.8695,946.9913,-0.158333333,0.049074074,1,0,0,5.1146,compass,0,19,19,28,1,SoundStimuli/ComeAndGetYourLove_Redbone_Cover5S.wav,,,,,,,,,,,,,,,,,,,,,,,,,,,,,,,,,,,,,,,,,,,,,,,,,,,,,
,,,,,852540,001,2024-07-12_16h22.21.649,experiment,2024.1.5,Win32,60.24096386,659da75ece9c819da9a58328,6691931c2c63981b064e1f0c,6691b9569a62a93c04fbe267,,,,,,,,,,,,,,,,,,,,,,,,,,,,,,,,,,,,,,,,,,,,,,,,,,,,,,,,,,,,946.9965,955.0387,-0.056481481,-0.182407407,1,0,0,2.0328,compass,0,20,20,10,1,SoundStimuli/BadDay_DanielPowter_Original5S.wav,,,,,,,,,,,,,,,,,,,,,,,,,,,,,,,,,,,,,,,,,,,,,,,,,,,,,
,,,,,852540,001,2024-07-12_16h22.21.649,experiment,2024.1.5,Win32,60.24096386,659da75ece9c819da9a58328,6691931c2c63981b064e1f0c,6691b9569a62a93c04fbe267,,,,,,,,,,,,,,,,,,,,,,,,,,,,,,,,,,,,,,,,,,,,,,,,,,,,,,,,,,,,955.0477,964.3861,-0.206481481,0.136111111,1,0,0,3.3326,compass,0,21,21,14,1,SoundStimuli/BlindingLights_TheWeeknd_Cover5S.wav,,,,,,,,,,,,,,,,,,,,,,,,,,,,,,,,,,,,,,,,,,,,,,,,,,,,,
,,,,,852540,001,2024-07-12_16h22.21.649,experiment,2024.1.5,Win32,60.24096386,659da75ece9c819da9a58328,6691931c2c63981b064e1f0c,6691b9569a62a93c04fbe267,,,,,,,,,,,,,,,,,,,,,,,,,,,,,,,,,,,,,,,,,,,,,,,,,,,,,,,,,,,,964.3949,971.5496,-0.116666667,0.127777778,1,0,0,1.1493,compass,0,22,22,17,1,SoundStimuli/Fallin_AliciaKeys_Cover5S.wav,,,,,,,,,,,,,,,,,,,,,,,,,,,,,,,,,,,,,,,,,,,,,,,,,,,,,
,,,,,852540,001,2024-07-12_16h22.21.649,experiment,2024.1.5,Win32,60.24096386,659da75ece9c819da9a58328,6691931c2c63981b064e1f0c,6691b9569a62a93c04fbe267,,,,,,,,,,,,,,,,,,,,,,,,,,,,,,,,,,,,,,,,,,,,,,,,,,,,,,,,,,,,971.5549,978.5481,-0.252777778,0.17037037,1,0,0,0.9839,compass,0,23,23,16,1,SoundStimuli/BohemianRhapsody_Queen_Cover5S.wav,,,,,,,,,,,,,,,,,,,,,,,,,,,,,,,,,,,,,,,,,,,,,,,,,,,,,
,,,,,852540,001,2024-07-12_16h22.21.649,experiment,2024.1.5,Win32,60.24096386,659da75ece9c819da9a58328,6691931c2c63981b064e1f0c,6691b9569a62a93c04fbe267,,,,,,,,,,,,,,,,,,,,,,,,,,,,,,,,,,,,,,,,,,,,,,,,,,,,,,,,,,,,978.5558,985.3782,0.223148148,0.196296296,1,0,0,0.8159,compass,0,24,24,21,1,SoundStimuli/GoodGollyMissMolly_LittleRichard_Original5S.wav,,,,,,,,,,,,,,,,,,,,,,,,,,,,,,,,,,,,,,,,,,,,,,,,,,,,,
,,,,,852540,001,2024-07-12_16h22.21.649,experiment,2024.1.5,Win32,60.24096386,659da75ece9c819da9a58328,6691931c2c63981b064e1f0c,6691b9569a62a93c04fbe267,,,,,,,,,,,,,,,,,,,,,,,,,,,,,,,,,,,,,,,,,,,,,,,,,,,,,,,,,,,,985.3864,991.9761,0.225925926,0.07962963,1,0,0,0.5824,compass,0,25,25,9,1,SoundStimuli/Despacito_LuisFonsiDaddyYankee_Original5S.wav,,,,,,,,,,,,,,,,,,,,,,,,,,,,,,,,,,,,,,,,,,,,,,,,,,,,,
,,,,,852540,001,2024-07-12_16h22.21.649,experiment,2024.1.5,Win32,60.24096386,659da75ece9c819da9a58328,6691931c2c63981b064e1f0c,6691b9569a62a93c04fbe267,,,,,,,,,,,,,,,,,,,,,,,,,,,,,,,,,,,,,,,,,,,,,,,,,,,,,,,,,,,,991.9849,998.5404,-0.137037037,-0.257407407,1,0,0,0.5496,compass,0,26,26,13,1,SoundStimuli/GodOnlyKnows_TheBeachBoys_Original5S.wav,,,,,,,,,,,,,,,,,,,,,,,,,,,,,,,,,,,,,,,,,,,,,,,,,,,,,
,,,,,852540,001,2024-07-12_16h22.21.649,experiment,2024.1.5,Win32,60.24096386,659da75ece9c819da9a58328,6691931c2c63981b064e1f0c,6691b9569a62a93c04fbe267,,,,,,,,,,,,,,,,,,,,,,,,,,,,,,,,,,,,,,,,,,,,,,,,,,,,,,,,,,,,998.5467,1005.2222,0.24537037,-0.157407407,1,0,0,0.6668,compass,0,27,27,22,1,SoundStimuli/RockWithYou_MichaelJackson_Cover5S.wav,,,,,,,,,,,,,,,,,,,,,,,,,,,,,,,,,,,,,,,,,,,,,,,,,,,,,
,,,,,852540,001,2024-07-12_16h22.21.649,experiment,2024.1.5,Win32,60.24096386,659da75ece9c819da9a58328,6691931c2c63981b064e1f0c,6691b9569a62a93c04fbe267,,,,,,,,,,,,,,,,,,,,,,,,,,,,,,,,,,,,,,,,,,,,,,,,,,,,,,,,,,,,1005.2287,1012.5027,0.181481481,0.077777778,1,0,0,1.2666,compass,0,28,28,0,1,SoundStimuli/StayinAlive_BeeGees_Cover5S.wav,,,,,,,,,,,,,,,,,,,,,,,,,,,,,,,,,,,,,,,,,,,,,,,,,,,,,
,,,,,852540,001,2024-07-12_16h22.21.649,experiment,2024.1.5,Win32,60.24096386,659da75ece9c819da9a58328,6691931c2c63981b064e1f0c,6691b9569a62a93c04fbe267,,,,,,,,,,,,,,,,,,,,,,,,,,,,,,,,,,,,,,,,,,,,,,,,,,,,,,,,,,,,1012.5099,1019.0002,-0.074074074,-0.311111111,1,0,0,0.4827,compass,0,29,29,18,1,SoundStimuli/AnotherOneBitesTheDust_Queen_Cover5S.wav,,,,,,,,,,,,,,,,,,,,,,,,,,,,,,,,,,,,,,,,,,,,,,,,,,,,,
,,,,,852540,001,2024-07-12_16h22.21.649,experiment,2024.1.5,Win32,60.24096386,659da75ece9c819da9a58328,6691931c2c63981b064e1f0c,6691b9569a62a93c04fbe267,,,,,,,,,,,,,,,,,,,,,,,,,,,,,,,,,,,,,,,,,,,,,,,,,,,,,,,,,,,,1019.0078,1026.1312,0.081481481,0.178703704,1,0,0,1.1158,compass,0,30,30,11,1,SoundStimuli/Superstition_StevieWonder_Original5S.wav,,,,,,,,,,,,,,,,,,,,,,,,,,,,,,,,,,,,,,,,,,,,,,,,,,,,,
,,,,,852540,001,2024-07-12_16h22.21.649,experiment,2024.1.5,Win32,60.24096386,659da75ece9c819da9a58328,6691931c2c63981b064e1f0c,6691b9569a62a93c04fbe267,,,,,,,,,,,,,,,,,,,,,,,,,,,,,,,,,,,,,,,,,,,,,,,,,,,,,,,,,,,,1026.1403,1032.7125,0.290740741,0.312037037,1,0,0,0.566,compass,0,31,31,6,1,SoundStimuli/Levitating_DuaLipa_Original5S.wav,,,,,,,,,,,,,,,,,,,,,,,,,,,,,,,,,,,,,,,,,,,,,,,,,,,,,
,,,,,852540,001,2024-07-12_16h22.21.649,experiment,2024.1.5,Win32,60.24096386,659da75ece9c819da9a58328,6691931c2c63981b064e1f0c,6691b9569a62a93c04fbe267,,,,,,,,,,,,,,,,,,,,,,,,,,,,,,,,,,,,,,,,,,,,,,,,,,,,,,,,,,,,1032.7213,1040.3931,-0.041666667,-0.112962963,1,0,0,1.6652,compass,0,32,32,5,1,SoundStimuli/MyGirl_TheTemptations_Cover5S.wav,,,,,,,,,,,,,,,,,,,,,,,,,,,,,,,,,,,,,,,,,,,,,,,,,,,,,
,,,,,852540,001,2024-07-12_16h22.21.649,experiment,2024.1.5,Win32,60.24096386,659da75ece9c819da9a58328,6691931c2c63981b064e1f0c,6691b9569a62a93c04fbe267,,,,,,,,,,,,,,,,,,,,,,,,,,,,,,,,,,,,,,,,,,,,,,,,,,,,,,,,,,,,1040.4004,1048.5237,-0.186111111,0.332407407,1,0,0,2.1152,compass,0,33,33,25,1,SoundStimuli/Respect_ArethaFranklin_Cover5S.wav,,,,,,,,,,,,,,,,,,,,,,,,,,,,,,,,,,,,,,,,,,,,,,,,,,,,,
,,,,,852540,001,2024-07-12_16h22.21.649,experiment,2024.1.5,Win32,60.24096386,659da75ece9c819da9a58328,6691931c2c63981b064e1f0c,6691b9569a62a93c04fbe267,,,,,,,,,,,,,,,,,,,,,,,,,,,,,,,,,,,,,,,,,,,,,,,,,,,,,,,,,,,,1048.5332,1055.1714,0.031481481,-0.291666667,1,0,0,0.6327,compass,0,34,34,33,1,SoundStimuli/StandByMe_BenEKing_Original5S.wav,,,,,,,,,,,,,,,,,,,,,,,,,,,,,,,,,,,,,,,,,,,,,,,,,,,,,
,,,,,852540,001,2024-07-12_16h22.21.649,experiment,2024.1.5,Win32,60.24096386,659da75ece9c819da9a58328,6691931c2c63981b064e1f0c,6691b9569a62a93c04fbe267,,,,,,,,,,,,,,,,,,,,,,,,,,,,,,,,,,,,,,,,,,,,,,,,,,,,,,,,,,,,,,,,,,,,,,,,,,,1055.1717,1058.1211,space,2.9338,,1058.1211,1059.8532,right,1.7175,,0,2,2,2,1,block_order/blockC.xlsx,,,,,,,,,,,,,,,,,,,,,,,,,,,,,,,,,,,,,
,,,,,852540,001,2024-07-12_16h22.21.649,experiment,2024.1.5,Win32,60.24096386,659da75ece9c819da9a58328,6691931c2c63981b064e1f0c,6691b9569a62a93c04fbe267,,,,,,,,,,,,,,,,,,,,,,,,,,,,,,,,,,,,,,,,,,,,,,,,,,,,,,,,,,,,1059.8653,1066.368,-0.206481481,0.319444444,1,0,0,0.4998,compass,0,0,0,2,1,SoundStimuli/SmellsLikeTeenSpirit_Nirvana_Original5S.wav,,,,,,,,,,,,,,,,,,,,,,,,,,,,,,,,,,,,,,,,,,,,,,,,,,,,,
,,,,,852540,001,2024-07-12_16h22.21.649,experiment,2024.1.5,Win32,60.24096386,659da75ece9c819da9a58328,6691931c2c63981b064e1f0c,6691b9569a62a93c04fbe267,,,,,,,,,,,,,,,,,,,,,,,,,,,,,,,,,,,,,,,,,,,,,,,,,,,,,,,,,,,,1066.3779,1074.8482,0.191666667,-0.225,1,0,0,2.4652,compass,0,1,1,29,1,SoundStimuli/BetteDavisEyes_KimCarnes_Original5S.wav,,,,,,,,,,,,,,,,,,,,,,,,,,,,,,,,,,,,,,,,,,,,,,,,,,,,,
,,,,,852540,001,2024-07-12_16h22.21.649,experiment,2024.1.5,Win32,60.24096386,659da75ece9c819da9a58328,6691931c2c63981b064e1f0c,6691b9569a62a93c04fbe267,,,,,,,,,,,,,,,,,,,,,,,,,,,,,,,,,,,,,,,,,,,,,,,,,,,,,,,,,,,,1074.8613,1082.8791,0.071296296,-0.307407407,1,0,0,2.0164,compass,0,2,2,25,1,SoundStimuli/IllMakeLoveToYou_BoyzIIMen_Cover5S.wav,,,,,,,,,,,,,,,,,,,,,,,,,,,,,,,,,,,,,,,,,,,,,,,,,,,,,
,,,,,852540,001,2024-07-12_16h22.21.649,experiment,2024.1.5,Win32,60.24096386,659da75ece9c819da9a58328,6691931c2c63981b064e1f0c,6691b9569a62a93c04fbe267,,,,,,,,,,,,,,,,,,,,,,,,,,,,,,,,,,,,,,,,,,,,,,,,,,,,,,,,,,,,1082.8882,1091.1091,-0.289814815,-0.286111111,1,0,0,2.2158,compass,0,3,3,12,1,SoundStimuli/UnbreakMyHeart_ToniBraxton_Original5S.wav,,,,,,,,,,,,,,,,,,,,,,,,,,,,,,,,,,,,,,,,,,,,,,,,,,,,,
,,,,,852540,001,2024-07-12_16h22.21.649,experiment,2024.1.5,Win32,60.24096386,659da75ece9c819da9a58328,6691931c2c63981b064e1f0c,6691b9569a62a93c04fbe267,,,,,,,,,,,,,,,,,,,,,,,,,,,,,,,,,,,,,,,,,,,,,,,,,,,,,,,,,,,,1091.1169,1100.7892,0.071296296,0.205555556,1,0,0,3.6652,compass,0,4,4,31,1,SoundStimuli/TossinAndTurnin_BobbyLewis_Original5S.wav,,,,,,,,,,,,,,,,,,,,,,,,,,,,,,,,,,,,,,,,,,,,,,,,,,,,,
,,,,,852540,001,2024-07-12_16h22.21.649,experiment,2024.1.5,Win32,60.24096386,659da75ece9c819da9a58328,6691931c2c63981b064e1f0c,6691b9569a62a93c04fbe267,,,,,,,,,,,,,,,,,,,,,,,,,,,,,,,,,,,,,,,,,,,,,,,,,,,,,,,,,,,,1100.7951,1107.4539,-0.025,-0.152777778,1,0,0,0.6494,compass,0,5,5,15,1,SoundStimuli/CrazyInLove_BeyonceFtJayZ_Cover5S.wav,,,,,,,,,,,,,,,,,,,,,,,,,,,,,,,,,,,,,,,,,,,,,,,,,,,,,
,,,,,852540,001,2024-07-12_16h22.21.649,experiment,2024.1.5,Win32,60.24096386,659da75ece9c819da9a58328,6691931c2c63981b064e1f0c,6691b9569a62a93c04fbe267,,,,,,,,,,,,,,,,,,,,,,,,,,,,,,,,,,,,,,,,,,,,,,,,,,,,,,,,,,,,1107.4602,1114.0849,0.084259259,0.160185185,1,0,0,0.6163,compass,0,6,6,0,1,SoundStimuli/GimmeShelter_RollingStones_Original5S.wav,,,,,,,,,,,,,,,,,,,,,,,,,,,,,,,,,,,,,,,,,,,,,,,,,,,,,
,,,,,852540,001,2024-07-12_16h22.21.649,experiment,2024.1.5,Win32,60.24096386,659da75ece9c819da9a58328,6691931c2c63981b064e1f0c,6691b9569a62a93c04fbe267,,,,,,,,,,,,,,,,,,,,,,,,,,,,,,,,,,,,,,,,,,,,,,,,,,,,,,,,,,,,1114.0951,1120.5993,0.107407407,-0.049074074,1,0,0,0.4996,compass,0,7,7,28,1,SoundStimuli/IWantToHoldYourHand_TheBeatles_Original5S.wav,,,,,,,,,,,,,,,,,,,,,,,,,,,,,,,,,,,,,,,,,,,,,,,,,,,,,
,,,,,852540,001,2024-07-12_16h22.21.649,experiment,2024.1.5,Win32,60.24096386,659da75ece9c819da9a58328,6691931c2c63981b064e1f0c,6691b9569a62a93c04fbe267,,,,,,,,,,,,,,,,,,,,,,,,,,,,,,,,,,,,,,,,,,,,,,,,,,,,,,,,,,,,1120.6066,1130.5298,-0.287962963,0.218518519,1,0,0,3.9159,compass,0,8,8,30,1,SoundStimuli/SomebodyThatIUsedtoKnow_Gotye_Original5S.wav,,,,,,,,,,,,,,,,,,,,,,,,,,,,,,,,,,,,,,,,,,,,,,,,,,,,,
,,,,,852540,001,2024-07-12_16h22.21.649,experiment,2024.1.5,Win32,60.24096386,659da75ece9c819da9a58328,6691931c2c63981b064e1f0c,6691b9569a62a93c04fbe267,,,,,,,,,,,,,,,,,,,,,,,,,,,,,,,,,,,,,,,,,,,,,,,,,,,,,,,,,,,,1130.5455,1139.4367,-0.22962963,-0.325925926,1,0,0,2.876,compass,0,9,9,34,1,SoundStimuli/Irreplaceable_Beyonce_Cover5S.wav,,,,,,,,,,,,,,,,,,,,,,,,,,,,,,,,,,,,,,,,,,,,,,,,,,,,,
,,,,,852540,001,2024-07-12_16h22.21.649,experiment,2024.1.5,Win32,60.24096386,659da75ece9c819da9a58328,6691931c2c63981b064e1f0c,6691b9569a62a93c04fbe267,,,,,,,,,,,,,,,,,,,,,,,,,,,,,,,,,,,,,,,,,,,,,,,,,,,,,,,,,,,,1139.4422,1145.907,-0.037962963,-0.10462963,1,0,0,0.4494,compass,0,10,10,16,1,SoundStimuli/ItsAllInTheGame_TommyEdwards_Cover5S.wav,,,,,,,,,,,,,,,,,,,,,,,,,,,,,,,,,,,,,,,,,,,,,,,,,,,,,
,,,,,852540,001,2024-07-12_16h22.21.649,experiment,2024.1.5,Win32,60.24096386,659da75ece9c819da9a58328,6691931c2c63981b064e1f0c,6691b9569a62a93c04fbe267,,,,,,,,,,,,,,,,,,,,,,,,,,,,,,,,,,,,,,,,,,,,,,,,,,,,,,,,,,,,1145.9119,1152.0556,-0.297222222,-0.30462963,1,0,0,0.1334,compass,0,11,11,9,1,SoundStimuli/HowDoILive_LeAnnRimes_Cover5S.wav,,,,,,,,,,,,,,,,,,,,,,,,,,,,,,,,,,,,,,,,,,,,,,,,,,,,,
,,,,,852540,001,2024-07-12_16h22.21.649,experiment,2024.1.5,Win32,60.24096386,659da75ece9c819da9a58328,6691931c2c63981b064e1f0c,6691b9569a62a93c04fbe267,,,,,,,,,,,,,,,,,,,,,,,,,,,,,,,,,,,,,,,,,,,,,,,,,,,,,,,,,,,,1152.0651,1165.9506,-0.101851852,0.299074074,1,0,0,7.8805,compass,0,12,12,10,1,SoundStimuli/LeFreak_Chic_Cover5S.wav,,,,,,,,,,,,,,,,,,,,,,,,,,,,,,,,,,,,,,,,,,,,,,,,,,,,,
,,,,,852540,001,2024-07-12_16h22.21.649,experiment,2024.1.5,Win32,60.24096386,659da75ece9c819da9a58328,6691931c2c63981b064e1f0c,6691b9569a62a93c04fbe267,,,,,,,,,,,,,,,,,,,,,,,,,,,,,,,,,,,,,,,,,,,,,,,,,,,,,,,,,,,,1165.957,1172.8491,0.027777778,0.140740741,1,0,0,0.8838,compass,0,13,13,26,1,SoundStimuli/TheSign_AceOfBase_Cover5S.wav,,,,,,,,,,,,,,,,,,,,,,,,,,,,,,,,,,,,,,,,,,,,,,,,,,,,,
,,,,,852540,001,2024-07-12_16h22.21.649,experiment,2024.1.5,Win32,60.24096386,659da75ece9c819da9a58328,6691931c2c63981b064e1f0c,6691b9569a62a93c04fbe267,,,,,,,,,,,,,,,,,,,,,,,,,,,,,,,,,,,,,,,,,,,,,,,,,,,,,,,,,,,,1172.8557,1181.0956,0.047222222,-0.164814815,1,0,0,2.2322,compass,0,14,14,13,1,SoundStimuli/Perfect_EdSheeran_Cover5S.wav,,,,,,,,,,,,,,,,,,,,,,,,,,,,,,,,,,,,,,,,,,,,,,,,,,,,,
,,,,,852540,001,2024-07-12_16h22.21.649,experiment,2024.1.5,Win32,60.24096386,659da75ece9c819da9a58328,6691931c2c63981b064e1f0c,6691b9569a62a93c04fbe267,,,,,,,,,,,,,,,,,,,,,,,,,,,,,,,,,,,,,,,,,,,,,,,,,,,,,,,,,,,,1181.1061,1188.3594,0.056481481,-0.172222222,1,0,0,1.2484,compass,0,15,15,24,1,SoundStimuli/Kiss_Prince_Cover5S.wav,,,,,,,,,,,,,,,,,,,,,,,,,,,,,,,,,,,,,,,,,,,,,,,,,,,,,
,,,,,852540,001,2024-07-12_16h22.21.649,experiment,2024.1.5,Win32,60.24096386,659da75ece9c819da9a58328,6691931c2c63981b064e1f0c,6691b9569a62a93c04fbe267,,,,,,,,,,,,,,,,,,,,,,,,,,,,,,,,,,,,,,,,,,,,,,,,,,,,,,,,,,,,1188.3644,1194.8577,0.137962963,-0.159259259,1,0,0,0.4835,compass,0,16,16,14,1,SoundStimuli/LikeARollingStone_BobDylan_Original5S.wav,,,,,,,,,,,,,,,,,,,,,,,,,,,,,,,,,,,,,,,,,,,,,,,,,,,,,
,,,,,852540,001,2024-07-12_16h22.21.649,experiment,2024.1.5,Win32,60.24096386,659da75ece9c819da9a58328,6691931c2c63981b064e1f0c,6691b9569a62a93c04fbe267,,,,,,,,,,,,,,,,,,,,,,,,,,,,,,,,,,,,,,,,,,,,,,,,,,,,,,,,,,,,1194.8668,1201.6718,-0.146296296,-0.108333333,1,0,0,0.7993,compass,0,17,17,32,1,SoundStimuli/Dilemma_NellyKellyRowland_Cover5S.wav,,,,,,,,,,,,,,,,,,,,,,,,,,,,,,,,,,,,,,,,,,,,,,,,,,,,,
,,,,,852540,001,2024-07-12_16h22.21.649,experiment,2024.1.5,Win32,60.24096386,659da75ece9c819da9a58328,6691931c2c63981b064e1f0c,6691b9569a62a93c04fbe267,,,,,,,,,,,,,,,,,,,,,,,,,,,,,,,,,,,,,,,,,,,,,,,,,,,,,,,,,,,,1201.6769,1208.5032,0.335185185,0.303703704,1,0,0,0.8163,compass,0,18,18,22,1,SoundStimuli/Happy_PharellWilliams_Original5S.wav,,,,,,,,,,,,,,,,,,,,,,,,,,,,,,,,,,,,,,,,,,,,,,,,,,,,,
,,,,,852540,001,2024-07-12_16h22.21.649,experiment,2024.1.5,Win32,60.24096386,659da75ece9c819da9a58328,6691931c2c63981b064e1f0c,6691b9569a62a93c04fbe267,,,,,,,,,,,,,,,,,,,,,,,,,,,,,,,,,,,,,,,,,,,,,,,,,,,,,,,,,,,,1208.5137,1214.6347,0.207407407,0.274074074,1,0,0,0.1159,compass,0,19,19,17,1,SoundStimuli/IWannaDanceWithSomebody_WhitneyHouston_Original5S.wav,,,,,,,,,,,,,,,,,,,,,,,,,,,,,,,,,,,,,,,,,,,,,,,,,,,,,
,,,,,852540,001,2024-07-12_16h22.21.649,experiment,2024.1.5,Win32,60.24096386,659da75ece9c819da9a58328,6691931c2c63981b064e1f0c,6691b9569a62a93c04fbe267,,,,,,,,,,,,,,,,,,,,,,,,,,,,,,,,,,,,,,,,,,,,,,,,,,,,,,,,,,,,1214.6429,1221.5319,0.059259259,0.190740741,1,0,0,0.8827,compass,0,20,20,1,1,SoundStimuli/Smooth_SantanaRobThomas_Original5S.wav,,,,,,,,,,,,,,,,,,,,,,,,,,,,,,,,,,,,,,,,,,,,,,,,,,,,,
,,,,,852540,001,2024-07-12_16h22.21.649,experiment,2024.1.5,Win32,60.24096386,659da75ece9c819da9a58328,6691931c2c63981b064e1f0c,6691b9569a62a93c04fbe267,,,,,,,,,,,,,,,,,,,,,,,,,,,,,,,,,,,,,,,,,,,,,,,,,,,,,,,,,,,,1221.5467,1228.1464,-0.062037037,-0.163888889,1,0,0,0.5992,compass,0,21,21,18,1,SoundStimuli/Weak_SWV_Cover5S.wav,,,,,,,,,,,,,,,,,,,,,,,,,,,,,,,,,,,,,,,,,,,,,,,,,,,,,
,,,,,852540,001,2024-07-12_16h22.21.649,experiment,2024.1.5,Win32,60.24096386,659da75ece9c819da9a58328,6691931c2c63981b064e1f0c,6691b9569a62a93c04fbe267,,,,,,,,,,,,,,,,,,,,,,,,,,,,,,,,,,,,,,,,,,,,,,,,,,,,,,,,,,,,1228.1545,1234.6775,0.112037037,0.240740741,1,0,0,0.5162,compass,0,22,22,20,1,SoundStimuli/FlashdanceWhatAFeeling_IreneCara_Original5S.wav,,,,,,,,,,,,,,,,,,,,,,,,,,,,,,,,,,,,,,,,,,,,,,,,,,,,,
,,,,,852540,001,2024-07-12_16h22.21.649,experiment,2024.1.5,Win32,60.24096386,659da75ece9c819da9a58328,6691931c2c63981b064e1f0c,6691b9569a62a93c04fbe267,,,,,,,,,,,,,,,,,,,,,,,,,,,,,,,,,,,,,,,,,,,,,,,,,,,,,,,,,,,,1234.6868,1244.7915,0.051851852,0.226851852,1,0,0,4.0997,compass,0,23,23,11,1,SoundStimuli/BlurredLines_RobinThicke_Cover5S.wav,,,,,,,,,,,,,,,,,,,,,,,,,,,,,,,,,,,,,,,,,,,,,,,,,,,,,
,,,,,852540,001,2024-07-12_16h22.21.649,experiment,2024.1.5,Win32,60.24096386,659da75ece9c819da9a58328,6691931c2c63981b064e1f0c,6691b9569a62a93c04fbe267,,,,,,,,,,,,,,,,,,,,,,,,,,,,,,,,,,,,,,,,,,,,,,,,,,,,,,,,,,,,1244.8011,1251.3215,-0.052777778,-0.258333333,1,0,0,0.5159,compass,0,24,24,8,1,SoundStimuli/EndlessLove_DianaRossLionelRichie_Cover5S.wav,,,,,,,,,,,,,,,,,,,,,,,,,,,,,,,,,,,,,,,,,,,,,,,,,,,,,
,,,,,852540,001,2024-07-12_16h22.21.649,experiment,2024.1.5,Win32,60.24096386,659da75ece9c819da9a58328,6691931c2c63981b064e1f0c,6691b9569a62a93c04fbe267,,,,,,,,,,,,,,,,,,,,,,,,,,,,,,,,,,,,,,,,,,,,,,,,,,,,,,,,,,,,1251.3271,1257.7529,0.035185185,0.22962963,1,0,0,0.4163,compass,0,25,25,27,1,SoundStimuli/EyeOfTheTiger_Survivor_Cover5S.wav,,,,,,,,,,,,,,,,,,,,,,,,,,,,,,,,,,,,,,,,,,,,,,,,,,,,,
,,,,,852540,001,2024-07-12_16h22.21.649,experiment,2024.1.5,Win32,60.24096386,659da75ece9c819da9a58328,6691931c2c63981b064e1f0c,6691b9569a62a93c04fbe267,,,,,,,,,,,,,,,,,,,,,,,,,,,,,,,,,,,,,,,,,,,,,,,,,,,,,,,,,,,,1257.7625,1264.1672,-0.125,-0.336111111,1,0,0,0.3991,compass,0,26,26,4,1,SoundStimuli/Dreams_FleetwoodMac_Original5S.wav,,,,,,,,,,,,,,,,,,,,,,,,,,,,,,,,,,,,,,,,,,,,,,,,,,,,,
,,,,,852540,001,2024-07-12_16h22.21.649,experiment,2024.1.5,Win32,60.24096386,659da75ece9c819da9a58328,6691931c2c63981b064e1f0c,6691b9569a62a93c04fbe267,,,,,,,,,,,,,,,,,,,,,,,,,,,,,,,,,,,,,,,,,,,,,,,,,,,,,,,,,,,,1264.1733,1270.6491,0.300925926,0.339814815,1,0,0,0.4668,compass,0,27,27,3,1,SoundStimuli/PartyRockAnthem_LMFAO_Original5S.wav,,,,,,,,,,,,,,,,,,,,,,,,,,,,,,,,,,,,,,,,,,,,,,,,,,,,,
,,,,,852540,001,2024-07-12_16h22.21.649,experiment,2024.1.5,Win32,60.24096386,659da75ece9c819da9a58328,6691931c2c63981b064e1f0c,6691b9569a62a93c04fbe267,,,,,,,,,,,,,,,,,,,,,,,,,,,,,,,,,,,,,,,,,,,,,,,,,,,,,,,,,,,,1270.6609,1277.8129,-0.328703704,-0.343518519,1,0,0,1.1471,compass,0,28,28,6,1,SoundStimuli/SaveYourTears_TheWeekndArianaGrande_Cover5S.wav,,,,,,,,,,,,,,,,,,,,,,,,,,,,,,,,,,,,,,,,,,,,,,,,,,,,,
,,,,,852540,001,2024-07-12_16h22.21.649,experiment,2024.1.5,Win32,60.24096386,659da75ece9c819da9a58328,6691931c2c63981b064e1f0c,6691b9569a62a93c04fbe267,,,,,,,,,,,,,,,,,,,,,,,,,,,,,,,,,,,,,,,,,,,,,,,,,,,,,,,,,,,,1277.8225,1287.1761,0.017592593,-0.294444444,1,0,0,3.3482,compass,0,29,29,19,1,SoundStimuli/YouLightUpMyLife_DebbyBoone_Original5S.wav,,,,,,,,,,,,,,,,,,,,,,,,,,,,,,,,,,,,,,,,,,,,,,,,,,,,,
,,,,,852540,001,2024-07-12_16h22.21.649,experiment,2024.1.5,Win32,60.24096386,659da75ece9c819da9a58328,6691931c2c63981b064e1f0c,6691b9569a62a93c04fbe267,,,,,,,,,,,,,,,,,,,,,,,,,,,,,,,,,,,,,,,,,,,,,,,,,,,,,,,,,,,,1287.182,1293.6741,-0.177777778,-0.324074074,1,0,0,0.4827,compass,0,30,30,33,1,SoundStimuli/TheBoyIsMine_BrandyMonica_Original5S.wav,,,,,,,,,,,,,,,,,,,,,,,,,,,,,,,,,,,,,,,,,,,,,,,,,,,,,
,,,,,852540,001,2024-07-12_16h22.21.649,experiment,2024.1.5,Win32,60.24096386,659da75ece9c819da9a58328,6691931c2c63981b064e1f0c,6691b9569a62a93c04fbe267,,,,,,,,,,,,,,,,,,,,,,,,,,,,,,,,,,,,,,,,,,,,,,,,,,,,,,,,,,,,1293.6808,1300.2385,-0.078703704,0.27962963,1,0,0,0.5494,compass,0,31,31,7,1,SoundStimuli/MackTheKnife_BobbyDarin_Cover5S.wav,,,,,,,,,,,,,,,,,,,,,,,,,,,,,,,,,,,,,,,,,,,,,,,,,,,,,
,,,,,852540,001,2024-07-12_16h22.21.649,experiment,2024.1.5,Win32,60.24096386,659da75ece9c819da9a58328,6691931c2c63981b064e1f0c,6691b9569a62a93c04fbe267,,,,,,,,,,,,,,,,,,,,,,,,,,,,,,,,,,,,,,,,,,,,,,,,,,,,,,,,,,,,1300.2477,1306.5865,-0.184259259,-0.293518519,1,0,0,0.3328,compass,0,32,32,21,1,SoundStimuli/BridgeOverTroubledWater_SimonAndGarfunkel_Original5S.wav,,,,,,,,,,,,,,,,,,,,,,,,,,,,,,,,,,,,,,,,,,,,,,,,,,,,,
,,,,,852540,001,2024-07-12_16h22.21.649,experiment,2024.1.5,Win32,60.24096386,659da75ece9c819da9a58328,6691931c2c63981b064e1f0c,6691b9569a62a93c04fbe267,,,,,,,,,,,,,,,,,,,,,,,,,,,,,,,,,,,,,,,,,,,,,,,,,,,,,,,,,,,,1306.5953,1313.2672,0.112037037,0.052777778,1,0,0,0.6653,compass,0,33,33,5,1,SoundStimuli/JoyToTheWorld_ThreeDogNight_Original5S.wav,,,,,,,,,,,,,,,,,,,,,,,,,,,,,,,,,,,,,,,,,,,,,,,,,,,,,
,,,,,852540,001,2024-07-12_16h22.21.649,experiment,2024.1.5,Win32,60.24096386,659da75ece9c819da9a58328,6691931c2c63981b064e1f0c,6691b9569a62a93c04fbe267,,,,,,,,,,,,,,,,,,,,,,,,,,,,,,,,,,,,,,,,,,,,,,,,,,,,,,,,,,,,1313.2719,1319.7151,0.194444444,-0.212962963,1,0,0,0.4329,compass,0,34,34,23,1,SoundStimuli/IWalkTheLine_JohnnyCash_Original5S.wav,,,,,,,,,,,,,,,,,,,,,,,,,,,,,,,,,,,,,,,,,,,,,,,,,,,,,
,,,,,852540,001,2024-07-12_16h22.21.649,experiment,2024.1.5,Win32,60.24096386,659da75ece9c819da9a58328,6691931c2c63981b064e1f0c,6691b9569a62a93c04fbe267,,,,,,,,,,,,,,,,,,,,,,,,,,,,,,,,,,,,,,,,,,,,,,,,,,,,,,,,,,,,,,,,,,,,,,,,,,,1319.7153,1319.7153,,,,1319.7153,1319.7153,,,,0,3,3,3,1,block_order/blockD.xlsx,,,,,,,,,,,,,,,,,,,,,,,,,,,,,,,,,,,,,
,,,,,852540,001,2024-07-12_16h22.21.649,experiment,2024.1.5,Win32,60.24096386,659da75ece9c819da9a58328,6691931c2c63981b064e1f0c,6691b9569a62a93c04fbe267,,,,,,,,,,,,,,,,,,,,,,,,,,,,,,,,,,,,,,,,,,,,,,,,,,,,,,,,,,,,,,,,,,,,,,,,,,,,,,,,,,,,,,,,,,,23,Item 2,I'm not a musician. I wish!,Item 5,"Spotify, media, other streaming sites, and some owned/downloaded",5,6,"Almost anything. Working, writing, drawing, gaming, doing chores, showering, taking a walk--all better with music.",Sometimes,Often,Sometimes,Sometimes,Sometimes,Often,Sometimes,Rarely,Often,Rarely,Often,Never,Sometimes,Rarely,Often,Often,Scores/soundtracks,Alt rock,Pop,Electronic,"They haven't changed too much, except for the way I discover some new music to listen to. Nowadays I mostly discover new (or just new to me) music by browsing Spotify. When I was a kid, I largely discovered new music (including my core, favorite artists) by listening to the radio and checking out CDs from my local library. And, of course, by playing video games. Which hasn't changed.","I just about covered it, I think. I love music and listen to it all the time. And I truly listen to a wide variety of things. It's possible for almost any genre to have something pleasant in it.",0,0,0,0,1,,
,,,,,852540,001,2024-07-12_16h22.21.649,experiment,2024.1.5,Win32,60.24096386,659da75ece9c819da9a58328,6691931c2c63981b064e1f0c,6691b9569a62a93c04fbe267,,,,,,,,,,,,,,,,,,,,,,,,,,,,,,,,,,,,,,,,,,,,,,,,,,,,,,,,,,,,,,,,,,,,,,,,,,,,,,,,,,,,,,,,,,,,,,,,,,,,,,,,,,,,,,,,,,,,,,,,,,,,,,1928.504,1930.2266
