welcome.started,welcome.stopped,space_to_continue.keys,space_to_continue.rt,space_to_continue.duration,participant,session,date,expName,psychopyVersion,OS,frameRate,PROLIFIC_PID,STUDY_ID,SESSION_ID,consent.consent,consent.consent_recontact,consent_check.started,consent_check.stopped,calibration_ready.started,calibration_ready.stopped,cal_ready.keys,cal_ready.rt,cal_ready.duration,calibration.started,calibration.stopped,mouse.x,mouse.y,mouse.leftButton,mouse.midButton,mouse.rightButton,mouse.time,mouse.clicked_name,move_on.keys,move_on.rt,move_on.duration,run_cal.thisRepN,run_cal.thisTrialN,run_cal.thisN,run_cal.thisIndex,run_cal.ran,emotion_training_ready.started,emotion_training_ready.stopped,training_move_on.keys,training_move_on.rt,training_move_on.duration,examples.started,examples.stopped,emotion_scale.started,emotion_scale.stopped,scale_next.keys,scale_next.rt,scale_next.duration,instructions.started,instructions.stopped,next.keys,next.rt,next.duration,practice_task.started,practice_task.stopped,mouse_rating_2.x,mouse_rating_2.y,mouse_rating_2.leftButton,mouse_rating_2.midButton,mouse_rating_2.rightButton,mouse_rating_2.time,mouse_rating_2.clicked_name,ready.started,ready.stopped,key_resp.keys,key_resp.rt,key_resp.duration,set_group.started,set_group.stopped,task.started,task.stopped,mouse_rating.x,mouse_rating.y,mouse_rating.leftButton,mouse_rating.midButton,mouse_rating.rightButton,mouse_rating.time,mouse_rating.clicked_name,trials.thisRepN,trials.thisTrialN,trials.thisN,trials.thisIndex,trials.ran,clip,short_break.started,short_break.stopped,space_to_move_on.keys,space_to_move_on.rt,space_to_move_on.duration,instruction_reminder.started,instruction_reminder.stopped,reminder_move_on.keys,reminder_move_on.rt,reminder_move_on.duration,blocks.thisRepN,blocks.thisTrialN,blocks.thisN,blocks.thisIndex,blocks.ran,block,post_survey.age,post_survey.musician,post_survey.music_making,post_survey.listen_time,post_survey.medium,post_survey.music_seeking,post_survey.music_choice,post_survey.activities,post_survey.question1.Country,post_survey.question1.Alternative rock,post_survey.question1.Folk/indie,post_survey.question1.Jazz,post_survey.question1.Latin,post_survey.question1.Classical,post_survey.question1.Metal,post_survey.question1.A cappella,post_survey.question1.Hip hop,post_survey.question1.Reggae,post_survey.question1.R&B,post_survey.question1.Classic rock,post_survey.question1.Electronic (EDM),post_survey.question1.Disco,post_survey.question1.Pop,post_survey.question1.Ambient,post_survey.genres_ranked.text1,post_survey.genres_ranked.text2,post_survey.genres_ranked.text3,post_survey.habit_change,show_exp.thisRepN,show_exp.thisTrialN,show_exp.thisN,show_exp.thisIndex,show_exp.ran,goodbye.started,goodbye.stopped
0,3.317,space,3.26,,888007,001,2024-07-12_18h51.45.908,experiment,2024.1.5,MacIntel,30.3030303,5ea63ad9c8854764e110b128,6691931c2c63981b064e1f0c,6691b34ca8d561924cf6513a,,,,,,,,,,,,,,,,,,,,,,,,,,,,,,,,,,,,,,,,,,,,,,,,,,,,,,,,,,,,,,,,,,,,,,,,,,,,,,,,,,,,,,,,,,,,,,,,,,,,,,,,,,,,,,,,,,,,,,,,,,,,,
,,,,,888007,001,2024-07-12_18h51.45.908,experiment,2024.1.5,MacIntel,30.3030303,5ea63ad9c8854764e110b128,6691931c2c63981b064e1f0c,6691b34ca8d561924cf6513a,yes,no,,,,,,,,,,,,,,,,,,,,,,,,,,,,,,,,,,,,,,,,,,,,,,,,,,,,,,,,,,,,,,,,,,,,,,,,,,,,,,,,,,,,,,,,,,,,,,,,,,,,,,,,,,,,,,,,,,,,,,,,,,,
,,,,,888007,001,2024-07-12_18h51.45.908,experiment,2024.1.5,MacIntel,30.3030303,5ea63ad9c8854764e110b128,6691931c2c63981b064e1f0c,6691b34ca8d561924cf6513a,,,107.324,107.325,,,,,,,,,,,,,,,,,,,,,,,,,,,,,,,,,,,,,,,,,,,,,,,,,,,,,,,,,,,,,,,,,,,,,,,,,,,,,,,,,,,,,,,,,,,,,,,,,,,,,,,,,,,,,,,,,,,,,,,,,
,,,,,888007,001,2024-07-12_18h51.45.908,experiment,2024.1.5,MacIntel,30.3030303,5ea63ad9c8854764e110b128,6691931c2c63981b064e1f0c,6691b34ca8d561924cf6513a,,,,,107.328,115.74,space,8.341,,115.742,160.778,"[-0.022321428571428572,-0.0008928571428571428,-0.015178571428571428]","[-0.40625,-0.41875,-0.4089285714285714]","[1,1,1]","[0,0,0]","[0,0,0]","[12.300999999999988,15,36.565999999999974]","[""play_button"",""play_button""]",y,43.976,,0,0,0,0,1,,,,,,,,,,,,,,,,,,,,,,,,,,,,,,,,,,,,,,,,,,,,,,,,,,,,,,,,,,,,,,,,,,,,,,,,,,,,,,,,,,,,,,,,,,,,,,,,,,,
,,,,,888007,001,2024-07-12_18h51.45.908,experiment,2024.1.5,MacIntel,30.3030303,5ea63ad9c8854764e110b128,6691931c2c63981b064e1f0c,6691b34ca8d561924cf6513a,,,,,,,,,,,,,,,,,,,,,,,,,,,160.779,191.574,space,30.657,,191.575,311.575,311.576,330.842,right,15.696,,330.843,340.642,space,9.69,,340.642,347.509,0.274107143,-0.054464286,1,0,0,0.833,compass_2,347.509,351.308,space,3.744,,351.309,351.309,351.34,359.281,-0.095535714,-0.075,1,0,0,1.939,compass,0,0,0,17,1,SoundStimuli/Fallin_AliciaKeys_Cover5S.wav,,,,,,,,,,,,,,,,,,,,,,,,,,,,,,,,,,,,,,,,,,,,,,,,,,,
,,,,,888007,001,2024-07-12_18h51.45.908,experiment,2024.1.5,MacIntel,30.3030303,5ea63ad9c8854764e110b128,6691931c2c63981b064e1f0c,6691b34ca8d561924cf6513a,,,,,,,,,,,,,,,,,,,,,,,,,,,,,,,,,,,,,,,,,,,,,,,,,,,,,,,,,,,,359.282,370.275,0.172321429,0.221428571,1,0,0,4.967,compass,0,1,1,3,1,SoundStimuli/NoScrubs_TLC_Cover5S.wav,,,,,,,,,,,,,,,,,,,,,,,,,,,,,,,,,,,,,,,,,,,,,,,,,,,
,,,,,888007,001,2024-07-12_18h51.45.908,experiment,2024.1.5,MacIntel,30.3030303,5ea63ad9c8854764e110b128,6691931c2c63981b064e1f0c,6691b34ca8d561924cf6513a,,,,,,,,,,,,,,,,,,,,,,,,,,,,,,,,,,,,,,,,,,,,,,,,,,,,,,,,,,,,370.276,383.841,-0.163392857,0.167857143,1,0,0,7.532,compass,0,2,2,25,1,SoundStimuli/Respect_ArethaFranklin_Cover5S.wav,,,,,,,,,,,,,,,,,,,,,,,,,,,,,,,,,,,,,,,,,,,,,,,,,,,
,,,,,888007,001,2024-07-12_18h51.45.908,experiment,2024.1.5,MacIntel,30.3030303,5ea63ad9c8854764e110b128,6691931c2c63981b064e1f0c,6691b34ca8d561924cf6513a,,,,,,,,,,,,,,,,,,,,,,,,,,,,,,,,,,,,,,,,,,,,,,,,,,,,,,,,,,,,383.841,393.342,-0.125,-0.107142857,1,0,0,3.5,compass,0,3,3,10,1,SoundStimuli/BadDay_DanielPowter_Original5S.wav,,,,,,,,,,,,,,,,,,,,,,,,,,,,,,,,,,,,,,,,,,,,,,,,,,,
,,,,,888007,001,2024-07-12_18h51.45.908,experiment,2024.1.5,MacIntel,30.3030303,5ea63ad9c8854764e110b128,6691931c2c63981b064e1f0c,6691b34ca8d561924cf6513a,,,,,,,,,,,,,,,,,,,,,,,,,,,,,,,,,,,,,,,,,,,,,,,,,,,,,,,,,,,,393.342,399.675,0.202678571,0.209821429,1,0,0,0.333,compass,0,4,4,21,1,SoundStimuli/GoodGollyMissMolly_LittleRichard_Original5S.wav,,,,,,,,,,,,,,,,,,,,,,,,,,,,,,,,,,,,,,,,,,,,,,,,,,,
,,,,,888007,001,2024-07-12_18h51.45.908,experiment,2024.1.5,MacIntel,30.3030303,5ea63ad9c8854764e110b128,6691931c2c63981b064e1f0c,6691b34ca8d561924cf6513a,,,,,,,,,,,,,,,,,,,,,,,,,,,,,,,,,,,,,,,,,,,,,,,,,,,,,,,,,,,,399.676,407.208,0.11875,-0.213392857,1,0,0,1.499,compass,0,5,5,19,1,SoundStimuli/LetsGetItOn_MarvinGaye_Original5S.wav,,,,,,,,,,,,,,,,,,,,,,,,,,,,,,,,,,,,,,,,,,,,,,,,,,,
,,,,,888007,001,2024-07-12_18h51.45.908,experiment,2024.1.5,MacIntel,30.3030303,5ea63ad9c8854764e110b128,6691931c2c63981b064e1f0c,6691b34ca8d561924cf6513a,,,,,,,,,,,,,,,,,,,,,,,,,,,,,,,,,,,,,,,,,,,,,,,,,,,,,,,,,,,,407.208,415.741,0.176785714,0.116071429,1,0,0,2.532,compass,0,6,6,4,1,SoundStimuli/GetUrFreakOn_MissyElliot_Cover5S.wav,,,,,,,,,,,,,,,,,,,,,,,,,,,,,,,,,,,,,,,,,,,,,,,,,,,
,,,,,888007,001,2024-07-12_18h51.45.908,experiment,2024.1.5,MacIntel,30.3030303,5ea63ad9c8854764e110b128,6691931c2c63981b064e1f0c,6691b34ca8d561924cf6513a,,,,,,,,,,,,,,,,,,,,,,,,,,,,,,,,,,,,,,,,,,,,,,,,,,,,,,,,,,,,415.741,426.042,-0.189285714,-0.199107143,1,0,0,4.301,compass,0,7,7,34,1,SoundStimuli/AChangeIsGonnaCome_SamCooke_Original5S.wav,,,,,,,,,,,,,,,,,,,,,,,,,,,,,,,,,,,,,,,,,,,,,,,,,,,
,,,,,888007,001,2024-07-12_18h51.45.908,experiment,2024.1.5,MacIntel,30.3030303,5ea63ad9c8854764e110b128,6691931c2c63981b064e1f0c,6691b34ca8d561924cf6513a,,,,,,,,,,,,,,,,,,,,,,,,,,,,,,,,,,,,,,,,,,,,,,,,,,,,,,,,,,,,426.043,434.209,0.300892857,0.308928571,1,0,0,2.134,compass,0,8,8,12,1,SoundStimuli/IWillAlwaysLoveYou_WhitneyHouston_Original5S.wav,,,,,,,,,,,,,,,,,,,,,,,,,,,,,,,,,,,,,,,,,,,,,,,,,,,
,,,,,888007,001,2024-07-12_18h51.45.908,experiment,2024.1.5,MacIntel,30.3030303,5ea63ad9c8854764e110b128,6691931c2c63981b064e1f0c,6691b34ca8d561924cf6513a,,,,,,,,,,,,,,,,,,,,,,,,,,,,,,,,,,,,,,,,,,,,,,,,,,,,,,,,,,,,434.209,442.309,-0.063392857,-0.0625,1,0,0,2.1,compass,0,9,9,7,1,SoundStimuli/NoOne_AliciaKeys_Original5S.wav,,,,,,,,,,,,,,,,,,,,,,,,,,,,,,,,,,,,,,,,,,,,,,,,,,,
,,,,,888007,001,2024-07-12_18h51.45.908,experiment,2024.1.5,MacIntel,30.3030303,5ea63ad9c8854764e110b128,6691931c2c63981b064e1f0c,6691b34ca8d561924cf6513a,,,,,,,,,,,,,,,,,,,,,,,,,,,,,,,,,,,,,,,,,,,,,,,,,,,,,,,,,,,,442.309,449.209,0.145535714,0.0375,1,0,0,0.9,compass,0,10,10,22,1,SoundStimuli/RockWithYou_MichaelJackson_Cover5S.wav,,,,,,,,,,,,,,,,,,,,,,,,,,,,,,,,,,,,,,,,,,,,,,,,,,,
,,,,,888007,001,2024-07-12_18h51.45.908,experiment,2024.1.5,MacIntel,30.3030303,5ea63ad9c8854764e110b128,6691931c2c63981b064e1f0c,6691b34ca8d561924cf6513a,,,,,,,,,,,,,,,,,,,,,,,,,,,,,,,,,,,,,,,,,,,,,,,,,,,,,,,,,,,,449.209,457.376,0.139285714,-0.158035714,1,0,0,2.167,compass,0,11,11,29,1,SoundStimuli/OldTownRoad_LilNasX_Cover5S.wav,,,,,,,,,,,,,,,,,,,,,,,,,,,,,,,,,,,,,,,,,,,,,,,,,,,
,,,,,888007,001,2024-07-12_18h51.45.908,experiment,2024.1.5,MacIntel,30.3030303,5ea63ad9c8854764e110b128,6691931c2c63981b064e1f0c,6691b34ca8d561924cf6513a,,,,,,,,,,,,,,,,,,,,,,,,,,,,,,,,,,,,,,,,,,,,,,,,,,,,,,,,,,,,457.376,465.876,0.2,0.255357143,1,0,0,2.499,compass,0,12,12,6,1,SoundStimuli/Levitating_DuaLipa_Original5S.wav,,,,,,,,,,,,,,,,,,,,,,,,,,,,,,,,,,,,,,,,,,,,,,,,,,,
,,,,,888007,001,2024-07-12_18h51.45.908,experiment,2024.1.5,MacIntel,30.3030303,5ea63ad9c8854764e110b128,6691931c2c63981b064e1f0c,6691b34ca8d561924cf6513a,,,,,,,,,,,,,,,,,,,,,,,,,,,,,,,,,,,,,,,,,,,,,,,,,,,,,,,,,,,,465.876,474.476,0.11875,0.175,1,0,0,2.566,compass,0,13,13,0,1,SoundStimuli/StayinAlive_BeeGees_Cover5S.wav,,,,,,,,,,,,,,,,,,,,,,,,,,,,,,,,,,,,,,,,,,,,,,,,,,,
,,,,,888007,001,2024-07-12_18h51.45.908,experiment,2024.1.5,MacIntel,30.3030303,5ea63ad9c8854764e110b128,6691931c2c63981b064e1f0c,6691b34ca8d561924cf6513a,,,,,,,,,,,,,,,,,,,,,,,,,,,,,,,,,,,,,,,,,,,,,,,,,,,,,,,,,,,,474.476,481.642,-0.105357143,-0.122321429,1,0,0,1.166,compass,0,14,14,1,1,SoundStimuli/Stronger_KanyeWest_Cover5S.wav,,,,,,,,,,,,,,,,,,,,,,,,,,,,,,,,,,,,,,,,,,,,,,,,,,,
,,,,,888007,001,2024-07-12_18h51.45.908,experiment,2024.1.5,MacIntel,30.3030303,5ea63ad9c8854764e110b128,6691931c2c63981b064e1f0c,6691b34ca8d561924cf6513a,,,,,,,,,,,,,,,,,,,,,,,,,,,,,,,,,,,,,,,,,,,,,,,,,,,,,,,,,,,,481.643,488.442,0.065178571,0.053571429,1,0,0,0.767,compass,0,15,15,8,1,SoundStimuli/LikeAPrayer_Madonna_Cover5S.wav,,,,,,,,,,,,,,,,,,,,,,,,,,,,,,,,,,,,,,,,,,,,,,,,,,,
,,,,,888007,001,2024-07-12_18h51.45.908,experiment,2024.1.5,MacIntel,30.3030303,5ea63ad9c8854764e110b128,6691931c2c63981b064e1f0c,6691b34ca8d561924cf6513a,,,,,,,,,,,,,,,,,,,,,,,,,,,,,,,,,,,,,,,,,,,,,,,,,,,,,,,,,,,,488.442,496.409,0.109821429,-0.166071429,1,0,0,1.933,compass,0,16,16,5,1,SoundStimuli/MyGirl_TheTemptations_Cover5S.wav,,,,,,,,,,,,,,,,,,,,,,,,,,,,,,,,,,,,,,,,,,,,,,,,,,,
,,,,,888007,001,2024-07-12_18h51.45.908,experiment,2024.1.5,MacIntel,30.3030303,5ea63ad9c8854764e110b128,6691931c2c63981b064e1f0c,6691b34ca8d561924cf6513a,,,,,,,,,,,,,,,,,,,,,,,,,,,,,,,,,,,,,,,,,,,,,,,,,,,,,,,,,,,,496.41,502.743,0.172321429,0.222321429,1,0,0,0.3,compass,0,17,17,32,1,SoundStimuli/HeatWaves_GlassAnimals_Cover5S.wav,,,,,,,,,,,,,,,,,,,,,,,,,,,,,,,,,,,,,,,,,,,,,,,,,,,
,,,,,888007,001,2024-07-12_18h51.45.908,experiment,2024.1.5,MacIntel,30.3030303,5ea63ad9c8854764e110b128,6691931c2c63981b064e1f0c,6691b34ca8d561924cf6513a,,,,,,,,,,,,,,,,,,,,,,,,,,,,,,,,,,,,,,,,,,,,,,,,,,,,,,,,,,,,502.743,509.343,0.1,-0.251785714,1,0,0,0.566,compass,0,18,18,31,1,SoundStimuli/TheBattleOfNewOrleans_JohnnyHorton_Original5S.wav,,,,,,,,,,,,,,,,,,,,,,,,,,,,,,,,,,,,,,,,,,,,,,,,,,,
,,,,,888007,001,2024-07-12_18h51.45.908,experiment,2024.1.5,MacIntel,30.3030303,5ea63ad9c8854764e110b128,6691931c2c63981b064e1f0c,6691b34ca8d561924cf6513a,,,,,,,,,,,,,,,,,,,,,,,,,,,,,,,,,,,,,,,,,,,,,,,,,,,,,,,,,,,,509.343,515.742,-0.1,-0.18125,1,0,0,0.366,compass,0,19,19,18,1,SoundStimuli/AnotherOneBitesTheDust_Queen_Cover5S.wav,,,,,,,,,,,,,,,,,,,,,,,,,,,,,,,,,,,,,,,,,,,,,,,,,,,
,,,,,888007,001,2024-07-12_18h51.45.908,experiment,2024.1.5,MacIntel,30.3030303,5ea63ad9c8854764e110b128,6691931c2c63981b064e1f0c,6691b34ca8d561924cf6513a,,,,,,,,,,,,,,,,,,,,,,,,,,,,,,,,,,,,,,,,,,,,,,,,,,,,,,,,,,,,515.743,524.209,-0.092857143,0.108035714,1,0,0,2.433,compass,0,20,20,28,1,SoundStimuli/ComeAndGetYourLove_Redbone_Cover5S.wav,,,,,,,,,,,,,,,,,,,,,,,,,,,,,,,,,,,,,,,,,,,,,,,,,,,
,,,,,888007,001,2024-07-12_18h51.45.908,experiment,2024.1.5,MacIntel,30.3030303,5ea63ad9c8854764e110b128,6691931c2c63981b064e1f0c,6691b34ca8d561924cf6513a,,,,,,,,,,,,,,,,,,,,,,,,,,,,,,,,,,,,,,,,,,,,,,,,,,,,,,,,,,,,524.209,531.776,0.132142857,-0.204464286,1,0,0,1.567,compass,0,21,21,27,1,SoundStimuli/ShapeofYou_EdSheeran_Cover5S.wav,,,,,,,,,,,,,,,,,,,,,,,,,,,,,,,,,,,,,,,,,,,,,,,,,,,
,,,,,888007,001,2024-07-12_18h51.45.908,experiment,2024.1.5,MacIntel,30.3030303,5ea63ad9c8854764e110b128,6691931c2c63981b064e1f0c,6691b34ca8d561924cf6513a,,,,,,,,,,,,,,,,,,,,,,,,,,,,,,,,,,,,,,,,,,,,,,,,,,,,,,,,,,,,531.776,538.51,0.132142857,0.052678571,1,0,0,0.7,compass,0,22,22,16,1,SoundStimuli/BohemianRhapsody_Queen_Cover5S.wav,,,,,,,,,,,,,,,,,,,,,,,,,,,,,,,,,,,,,,,,,,,,,,,,,,,
,,,,,888007,001,2024-07-12_18h51.45.908,experiment,2024.1.5,MacIntel,30.3030303,5ea63ad9c8854764e110b128,6691931c2c63981b064e1f0c,6691b34ca8d561924cf6513a,,,,,,,,,,,,,,,,,,,,,,,,,,,,,,,,,,,,,,,,,,,,,,,,,,,,,,,,,,,,538.51,545.475,-0.057142857,-0.135714286,1,0,0,0.933,compass,0,23,23,14,1,SoundStimuli/BlindingLights_TheWeeknd_Cover5S.wav,,,,,,,,,,,,,,,,,,,,,,,,,,,,,,,,,,,,,,,,,,,,,,,,,,,
,,,,,888007,001,2024-07-12_18h51.45.908,experiment,2024.1.5,MacIntel,30.3030303,5ea63ad9c8854764e110b128,6691931c2c63981b064e1f0c,6691b34ca8d561924cf6513a,,,,,,,,,,,,,,,,,,,,,,,,,,,,,,,,,,,,,,,,,,,,,,,,,,,,,,,,,,,,545.475,552.543,0.148214286,-0.040178571,1,0,0,1.066,compass,0,24,24,13,1,SoundStimuli/GodOnlyKnows_TheBeachBoys_Original5S.wav,,,,,,,,,,,,,,,,,,,,,,,,,,,,,,,,,,,,,,,,,,,,,,,,,,,
,,,,,888007,001,2024-07-12_18h51.45.908,experiment,2024.1.5,MacIntel,30.3030303,5ea63ad9c8854764e110b128,6691931c2c63981b064e1f0c,6691b34ca8d561924cf6513a,,,,,,,,,,,,,,,,,,,,,,,,,,,,,,,,,,,,,,,,,,,,,,,,,,,,,,,,,,,,552.543,561.143,-0.238392857,0.191964286,1,0,0,2.6,compass,0,25,25,26,1,SoundStimuli/LivinOnAPrayer_BonJovi_Original5S.wav,,,,,,,,,,,,,,,,,,,,,,,,,,,,,,,,,,,,,,,,,,,,,,,,,,,
,,,,,888007,001,2024-07-12_18h51.45.908,experiment,2024.1.5,MacIntel,30.3030303,5ea63ad9c8854764e110b128,6691931c2c63981b064e1f0c,6691b34ca8d561924cf6513a,,,,,,,,,,,,,,,,,,,,,,,,,,,,,,,,,,,,,,,,,,,,,,,,,,,,,,,,,,,,561.143,570.009,-0.108928571,-0.160714286,1,0,0,2.833,compass,0,26,26,2,1,SoundStimuli/Mood_24kGoldnianndior_Original5S.wav,,,,,,,,,,,,,,,,,,,,,,,,,,,,,,,,,,,,,,,,,,,,,,,,,,,
,,,,,888007,001,2024-07-12_18h51.45.908,experiment,2024.1.5,MacIntel,30.3030303,5ea63ad9c8854764e110b128,6691931c2c63981b064e1f0c,6691b34ca8d561924cf6513a,,,,,,,,,,,,,,,,,,,,,,,,,,,,,,,,,,,,,,,,,,,,,,,,,,,,,,,,,,,,570.009,576.41,0.166071429,0.240178571,1,0,0,0.4,compass,0,27,27,20,1,SoundStimuli/HeyYa_Outkast_Original5S.wav,,,,,,,,,,,,,,,,,,,,,,,,,,,,,,,,,,,,,,,,,,,,,,,,,,,
,,,,,888007,001,2024-07-12_18h51.45.908,experiment,2024.1.5,MacIntel,30.3030303,5ea63ad9c8854764e110b128,6691931c2c63981b064e1f0c,6691b34ca8d561924cf6513a,,,,,,,,,,,,,,,,,,,,,,,,,,,,,,,,,,,,,,,,,,,,,,,,,,,,,,,,,,,,576.41,583.843,0.055357143,-0.244642857,1,0,0,1.401,compass,0,28,28,33,1,SoundStimuli/StandByMe_BenEKing_Original5S.wav,,,,,,,,,,,,,,,,,,,,,,,,,,,,,,,,,,,,,,,,,,,,,,,,,,,
,,,,,888007,001,2024-07-12_18h51.45.908,experiment,2024.1.5,MacIntel,30.3030303,5ea63ad9c8854764e110b128,6691931c2c63981b064e1f0c,6691b34ca8d561924cf6513a,,,,,,,,,,,,,,,,,,,,,,,,,,,,,,,,,,,,,,,,,,,,,,,,,,,,,,,,,,,,583.843,591.676,-0.192857143,-0.186607143,1,0,0,1.832,compass,0,29,29,30,1,SoundStimuli/PokerFace_LadyGaga_Cover5S.wav,,,,,,,,,,,,,,,,,,,,,,,,,,,,,,,,,,,,,,,,,,,,,,,,,,,
,,,,,888007,001,2024-07-12_18h51.45.908,experiment,2024.1.5,MacIntel,30.3030303,5ea63ad9c8854764e110b128,6691931c2c63981b064e1f0c,6691b34ca8d561924cf6513a,,,,,,,,,,,,,,,,,,,,,,,,,,,,,,,,,,,,,,,,,,,,,,,,,,,,,,,,,,,,591.676,598.409,0.166964286,0.179464286,1,0,0,0.733,compass,0,30,30,15,1,SoundStimuli/TikTok_Kesha_Original5S.wav,,,,,,,,,,,,,,,,,,,,,,,,,,,,,,,,,,,,,,,,,,,,,,,,,,,
,,,,,888007,001,2024-07-12_18h51.45.908,experiment,2024.1.5,MacIntel,30.3030303,5ea63ad9c8854764e110b128,6691931c2c63981b064e1f0c,6691b34ca8d561924cf6513a,,,,,,,,,,,,,,,,,,,,,,,,,,,,,,,,,,,,,,,,,,,,,,,,,,,,,,,,,,,,598.409,607.41,-0.120535714,0.044642857,1,0,0,2.999,compass,0,31,31,23,1,SoundStimuli/StrawberryFieldsForever_TheBeatles_Cover5S.wav,,,,,,,,,,,,,,,,,,,,,,,,,,,,,,,,,,,,,,,,,,,,,,,,,,,
,,,,,888007,001,2024-07-12_18h51.45.908,experiment,2024.1.5,MacIntel,30.3030303,5ea63ad9c8854764e110b128,6691931c2c63981b064e1f0c,6691b34ca8d561924cf6513a,,,,,,,,,,,,,,,,,,,,,,,,,,,,,,,,,,,,,,,,,,,,,,,,,,,,,,,,,,,,607.41,614.342,0.176785714,0.199107143,1,0,0,0.932,compass,0,32,32,24,1,SoundStimuli/UptownFunk_MarkRonson_Cover5S.wav,,,,,,,,,,,,,,,,,,,,,,,,,,,,,,,,,,,,,,,,,,,,,,,,,,,
,,,,,888007,001,2024-07-12_18h51.45.908,experiment,2024.1.5,MacIntel,30.3030303,5ea63ad9c8854764e110b128,6691931c2c63981b064e1f0c,6691b34ca8d561924cf6513a,,,,,,,,,,,,,,,,,,,,,,,,,,,,,,,,,,,,,,,,,,,,,,,,,,,,,,,,,,,,614.343,621.41,0.072321429,-0.133928571,1,0,0,1.067,compass,0,33,33,9,1,SoundStimuli/Despacito_LuisFonsiDaddyYankee_Original5S.wav,,,,,,,,,,,,,,,,,,,,,,,,,,,,,,,,,,,,,,,,,,,,,,,,,,,
,,,,,888007,001,2024-07-12_18h51.45.908,experiment,2024.1.5,MacIntel,30.3030303,5ea63ad9c8854764e110b128,6691931c2c63981b064e1f0c,6691b34ca8d561924cf6513a,,,,,,,,,,,,,,,,,,,,,,,,,,,,,,,,,,,,,,,,,,,,,,,,,,,,,,,,,,,,621.41,629.077,0.141964286,0.047321429,1,0,0,1.633,compass,0,34,34,11,1,SoundStimuli/Superstition_StevieWonder_Original5S.wav,,,,,,,,,,,,,,,,,,,,,,,,,,,,,,,,,,,,,,,,,,,,,,,,,,,
,,,,,888007,001,2024-07-12_18h51.45.908,experiment,2024.1.5,MacIntel,30.3030303,5ea63ad9c8854764e110b128,6691931c2c63981b064e1f0c,6691b34ca8d561924cf6513a,,,,,,,,,,,,,,,,,,,,,,,,,,,,,,,,,,,,,,,,,,,,,,,,,,,,,,,,,,,,,,,,,,,,,,,,,,,629.077,653.51,space,24.367,,653.51,665.21,right,11.62,,0,0,0,0,1,block_order/blockC.xlsx,,,,,,,,,,,,,,,,,,,,,,,,,,,,,,,,,,,
,,,,,888007,001,2024-07-12_18h51.45.908,experiment,2024.1.5,MacIntel,30.3030303,5ea63ad9c8854764e110b128,6691931c2c63981b064e1f0c,6691b34ca8d561924cf6513a,,,,,,,,,,,,,,,,,,,,,,,,,,,,,,,,,,,,,,,,,,,,,,,,,,,,,,,,,,,,665.22,671.944,0.116071429,-0.052678571,1,0,0,0.701,compass,0,0,0,9,1,SoundStimuli/HowDoILive_LeAnnRimes_Cover5S.wav,,,,,,,,,,,,,,,,,,,,,,,,,,,,,,,,,,,,,,,,,,,,,,,,,,,
,,,,,888007,001,2024-07-12_18h51.45.908,experiment,2024.1.5,MacIntel,30.3030303,5ea63ad9c8854764e110b128,6691931c2c63981b064e1f0c,6691b34ca8d561924cf6513a,,,,,,,,,,,,,,,,,,,,,,,,,,,,,,,,,,,,,,,,,,,,,,,,,,,,,,,,,,,,671.944,678.843,0.116071429,-0.052678571,1,0,0,0.867,compass,0,1,1,25,1,SoundStimuli/IllMakeLoveToYou_BoyzIIMen_Cover5S.wav,,,,,,,,,,,,,,,,,,,,,,,,,,,,,,,,,,,,,,,,,,,,,,,,,,,
,,,,,888007,001,2024-07-12_18h51.45.908,experiment,2024.1.5,MacIntel,30.3030303,5ea63ad9c8854764e110b128,6691931c2c63981b064e1f0c,6691b34ca8d561924cf6513a,,,,,,,,,,,,,,,,,,,,,,,,,,,,,,,,,,,,,,,,,,,,,,,,,,,,,,,,,,,,678.844,686.71,-0.066071429,-0.116964286,1,0,0,1.833,compass,0,2,2,24,1,SoundStimuli/Kiss_Prince_Cover5S.wav,,,,,,,,,,,,,,,,,,,,,,,,,,,,,,,,,,,,,,,,,,,,,,,,,,,
,,,,,888007,001,2024-07-12_18h51.45.908,experiment,2024.1.5,MacIntel,30.3030303,5ea63ad9c8854764e110b128,6691931c2c63981b064e1f0c,6691b34ca8d561924cf6513a,,,,,,,,,,,,,,,,,,,,,,,,,,,,,,,,,,,,,,,,,,,,,,,,,,,,,,,,,,,,686.711,695.011,0.117857143,-0.021428571,1,0,0,2.268,compass,0,3,3,30,1,SoundStimuli/SomebodyThatIUsedtoKnow_Gotye_Original5S.wav,,,,,,,,,,,,,,,,,,,,,,,,,,,,,,,,,,,,,,,,,,,,,,,,,,,
,,,,,888007,001,2024-07-12_18h51.45.908,experiment,2024.1.5,MacIntel,30.3030303,5ea63ad9c8854764e110b128,6691931c2c63981b064e1f0c,6691b34ca8d561924cf6513a,,,,,,,,,,,,,,,,,,,,,,,,,,,,,,,,,,,,,,,,,,,,,,,,,,,,,,,,,,,,695.011,702.01,0.119642857,-0.049107143,1,0,0,0.966,compass,0,4,4,34,1,SoundStimuli/Irreplaceable_Beyonce_Cover5S.wav,,,,,,,,,,,,,,,,,,,,,,,,,,,,,,,,,,,,,,,,,,,,,,,,,,,
,,,,,888007,001,2024-07-12_18h51.45.908,experiment,2024.1.5,MacIntel,30.3030303,5ea63ad9c8854764e110b128,6691931c2c63981b064e1f0c,6691b34ca8d561924cf6513a,,,,,,,,,,,,,,,,,,,,,,,,,,,,,,,,,,,,,,,,,,,,,,,,,,,,,,,,,,,,702.011,708.977,0.140178571,0.15,1,0,0,0.934,compass,0,5,5,22,1,SoundStimuli/Happy_PharellWilliams_Original5S.wav,,,,,,,,,,,,,,,,,,,,,,,,,,,,,,,,,,,,,,,,,,,,,,,,,,,
,,,,,888007,001,2024-07-12_18h51.45.908,experiment,2024.1.5,MacIntel,30.3030303,5ea63ad9c8854764e110b128,6691931c2c63981b064e1f0c,6691b34ca8d561924cf6513a,,,,,,,,,,,,,,,,,,,,,,,,,,,,,,,,,,,,,,,,,,,,,,,,,,,,,,,,,,,,708.977,715.777,0.109821429,0.135714286,1,0,0,0.8,compass,0,6,6,28,1,SoundStimuli/IWantToHoldYourHand_TheBeatles_Original5S.wav,,,,,,,,,,,,,,,,,,,,,,,,,,,,,,,,,,,,,,,,,,,,,,,,,,,
,,,,,888007,001,2024-07-12_18h51.45.908,experiment,2024.1.5,MacIntel,30.3030303,5ea63ad9c8854764e110b128,6691931c2c63981b064e1f0c,6691b34ca8d561924cf6513a,,,,,,,,,,,,,,,,,,,,,,,,,,,,,,,,,,,,,,,,,,,,,,,,,,,,,,,,,,,,715.777,723.444,0.075892857,-0.094642857,1,0,0,1.634,compass,0,7,7,14,1,SoundStimuli/LikeARollingStone_BobDylan_Original5S.wav,,,,,,,,,,,,,,,,,,,,,,,,,,,,,,,,,,,,,,,,,,,,,,,,,,,
,,,,,888007,001,2024-07-12_18h51.45.908,experiment,2024.1.5,MacIntel,30.3030303,5ea63ad9c8854764e110b128,6691931c2c63981b064e1f0c,6691b34ca8d561924cf6513a,,,,,,,,,,,,,,,,,,,,,,,,,,,,,,,,,,,,,,,,,,,,,,,,,,,,,,,,,,,,723.444,729.844,0.147321429,0.092857143,1,0,0,0.4,compass,0,8,8,20,1,SoundStimuli/FlashdanceWhatAFeeling_IreneCara_Original5S.wav,,,,,,,,,,,,,,,,,,,,,,,,,,,,,,,,,,,,,,,,,,,,,,,,,,,
,,,,,888007,001,2024-07-12_18h51.45.908,experiment,2024.1.5,MacIntel,30.3030303,5ea63ad9c8854764e110b128,6691931c2c63981b064e1f0c,6691b34ca8d561924cf6513a,,,,,,,,,,,,,,,,,,,,,,,,,,,,,,,,,,,,,,,,,,,,,,,,,,,,,,,,,,,,729.844,736.677,0.142857143,0.06875,1,0,0,0.833,compass,0,9,9,11,1,SoundStimuli/BlurredLines_RobinThicke_Cover5S.wav,,,,,,,,,,,,,,,,,,,,,,,,,,,,,,,,,,,,,,,,,,,,,,,,,,,
,,,,,888007,001,2024-07-12_18h51.45.908,experiment,2024.1.5,MacIntel,30.3030303,5ea63ad9c8854764e110b128,6691931c2c63981b064e1f0c,6691b34ca8d561924cf6513a,,,,,,,,,,,,,,,,,,,,,,,,,,,,,,,,,,,,,,,,,,,,,,,,,,,,,,,,,,,,736.677,744.744,-0.082142857,-0.158035714,1,0,0,2.067,compass,0,10,10,16,1,SoundStimuli/ItsAllInTheGame_TommyEdwards_Cover5S.wav,,,,,,,,,,,,,,,,,,,,,,,,,,,,,,,,,,,,,,,,,,,,,,,,,,,
,,,,,888007,001,2024-07-12_18h51.45.908,experiment,2024.1.5,MacIntel,30.3030303,5ea63ad9c8854764e110b128,6691931c2c63981b064e1f0c,6691b34ca8d561924cf6513a,,,,,,,,,,,,,,,,,,,,,,,,,,,,,,,,,,,,,,,,,,,,,,,,,,,,,,,,,,,,744.744,752.611,-0.103571429,0.074107143,1,0,0,1.866,compass,0,11,11,15,1,SoundStimuli/CrazyInLove_BeyonceFtJayZ_Cover5S.wav,,,,,,,,,,,,,,,,,,,,,,,,,,,,,,,,,,,,,,,,,,,,,,,,,,,
,,,,,888007,001,2024-07-12_18h51.45.908,experiment,2024.1.5,MacIntel,30.3030303,5ea63ad9c8854764e110b128,6691931c2c63981b064e1f0c,6691b34ca8d561924cf6513a,,,,,,,,,,,,,,,,,,,,,,,,,,,,,,,,,,,,,,,,,,,,,,,,,,,,,,,,,,,,752.611,759.277,0.104464286,-0.145535714,1,0,0,0.665,compass,0,12,12,18,1,SoundStimuli/Weak_SWV_Cover5S.wav,,,,,,,,,,,,,,,,,,,,,,,,,,,,,,,,,,,,,,,,,,,,,,,,,,,
,,,,,888007,001,2024-07-12_18h51.45.908,experiment,2024.1.5,MacIntel,30.3030303,5ea63ad9c8854764e110b128,6691931c2c63981b064e1f0c,6691b34ca8d561924cf6513a,,,,,,,,,,,,,,,,,,,,,,,,,,,,,,,,,,,,,,,,,,,,,,,,,,,,,,,,,,,,759.277,766.11,0.103571429,-0.141964286,1,0,0,0.833,compass,0,13,13,8,1,SoundStimuli/EndlessLove_DianaRossLionelRichie_Cover5S.wav,,,,,,,,,,,,,,,,,,,,,,,,,,,,,,,,,,,,,,,,,,,,,,,,,,,
,,,,,888007,001,2024-07-12_18h51.45.908,experiment,2024.1.5,MacIntel,30.3030303,5ea63ad9c8854764e110b128,6691931c2c63981b064e1f0c,6691b34ca8d561924cf6513a,,,,,,,,,,,,,,,,,,,,,,,,,,,,,,,,,,,,,,,,,,,,,,,,,,,,,,,,,,,,766.11,773.544,0.103571429,-0.141071429,1,0,0,1.434,compass,0,14,14,29,1,SoundStimuli/BetteDavisEyes_KimCarnes_Original5S.wav,,,,,,,,,,,,,,,,,,,,,,,,,,,,,,,,,,,,,,,,,,,,,,,,,,,
,,,,,888007,001,2024-07-12_18h51.45.908,experiment,2024.1.5,MacIntel,30.3030303,5ea63ad9c8854764e110b128,6691931c2c63981b064e1f0c,6691b34ca8d561924cf6513a,,,,,,,,,,,,,,,,,,,,,,,,,,,,,,,,,,,,,,,,,,,,,,,,,,,,,,,,,,,,773.544,780.744,0.103571429,-0.141071429,1,0,0,1.2,compass,0,15,15,12,1,SoundStimuli/UnbreakMyHeart_ToniBraxton_Original5S.wav,,,,,,,,,,,,,,,,,,,,,,,,,,,,,,,,,,,,,,,,,,,,,,,,,,,
,,,,,888007,001,2024-07-12_18h51.45.908,experiment,2024.1.5,MacIntel,30.3030303,5ea63ad9c8854764e110b128,6691931c2c63981b064e1f0c,6691b34ca8d561924cf6513a,,,,,,,,,,,,,,,,,,,,,,,,,,,,,,,,,,,,,,,,,,,,,,,,,,,,,,,,,,,,780.745,787.544,0.103571429,-0.140178571,1,0,0,0.767,compass,0,16,16,4,1,SoundStimuli/Dreams_FleetwoodMac_Original5S.wav,,,,,,,,,,,,,,,,,,,,,,,,,,,,,,,,,,,,,,,,,,,,,,,,,,,
,,,,,888007,001,2024-07-12_18h51.45.908,experiment,2024.1.5,MacIntel,30.3030303,5ea63ad9c8854764e110b128,6691931c2c63981b064e1f0c,6691b34ca8d561924cf6513a,,,,,,,,,,,,,,,,,,,,,,,,,,,,,,,,,,,,,,,,,,,,,,,,,,,,,,,,,,,,787.544,795.477,0.105357143,0.064285714,1,0,0,1.933,compass,0,17,17,31,1,SoundStimuli/TossinAndTurnin_BobbyLewis_Original5S.wav,,,,,,,,,,,,,,,,,,,,,,,,,,,,,,,,,,,,,,,,,,,,,,,,,,,
,,,,,888007,001,2024-07-12_18h51.45.908,experiment,2024.1.5,MacIntel,30.3030303,5ea63ad9c8854764e110b128,6691931c2c63981b064e1f0c,6691b34ca8d561924cf6513a,,,,,,,,,,,,,,,,,,,,,,,,,,,,,,,,,,,,,,,,,,,,,,,,,,,,,,,,,,,,795.477,802.21,0.11875,-0.176785714,1,0,0,0.733,compass,0,18,18,21,1,SoundStimuli/BridgeOverTroubledWater_SimonAndGarfunkel_Original5S.wav,,,,,,,,,,,,,,,,,,,,,,,,,,,,,,,,,,,,,,,,,,,,,,,,,,,
,,,,,888007,001,2024-07-12_18h51.45.908,experiment,2024.1.5,MacIntel,30.3030303,5ea63ad9c8854764e110b128,6691931c2c63981b064e1f0c,6691b34ca8d561924cf6513a,,,,,,,,,,,,,,,,,,,,,,,,,,,,,,,,,,,,,,,,,,,,,,,,,,,,,,,,,,,,802.21,808.577,0.120535714,0.151785714,1,0,0,0.367,compass,0,19,19,17,1,SoundStimuli/IWannaDanceWithSomebody_WhitneyHouston_Original5S.wav,,,,,,,,,,,,,,,,,,,,,,,,,,,,,,,,,,,,,,,,,,,,,,,,,,,
,,,,,888007,001,2024-07-12_18h51.45.908,experiment,2024.1.5,MacIntel,30.3030303,5ea63ad9c8854764e110b128,6691931c2c63981b064e1f0c,6691b34ca8d561924cf6513a,,,,,,,,,,,,,,,,,,,,,,,,,,,,,,,,,,,,,,,,,,,,,,,,,,,,,,,,,,,,808.577,816.144,0.091964286,0.088392857,1,0,0,1.566,compass,0,20,20,3,1,SoundStimuli/PartyRockAnthem_LMFAO_Original5S.wav,,,,,,,,,,,,,,,,,,,,,,,,,,,,,,,,,,,,,,,,,,,,,,,,,,,
,,,,,888007,001,2024-07-12_18h51.45.908,experiment,2024.1.5,MacIntel,30.3030303,5ea63ad9c8854764e110b128,6691931c2c63981b064e1f0c,6691b34ca8d561924cf6513a,,,,,,,,,,,,,,,,,,,,,,,,,,,,,,,,,,,,,,,,,,,,,,,,,,,,,,,,,,,,816.145,822.844,0.122321429,0.129464286,1,0,0,0.666,compass,0,21,21,5,1,SoundStimuli/JoyToTheWorld_ThreeDogNight_Original5S.wav,,,,,,,,,,,,,,,,,,,,,,,,,,,,,,,,,,,,,,,,,,,,,,,,,,,
,,,,,888007,001,2024-07-12_18h51.45.908,experiment,2024.1.5,MacIntel,30.3030303,5ea63ad9c8854764e110b128,6691931c2c63981b064e1f0c,6691b34ca8d561924cf6513a,,,,,,,,,,,,,,,,,,,,,,,,,,,,,,,,,,,,,,,,,,,,,,,,,,,,,,,,,,,,822.844,829.511,0.115178571,0.088392857,1,0,0,0.667,compass,0,22,22,1,1,SoundStimuli/Smooth_SantanaRobThomas_Original5S.wav,,,,,,,,,,,,,,,,,,,,,,,,,,,,,,,,,,,,,,,,,,,,,,,,,,,
,,,,,888007,001,2024-07-12_18h51.45.908,experiment,2024.1.5,MacIntel,30.3030303,5ea63ad9c8854764e110b128,6691931c2c63981b064e1f0c,6691b34ca8d561924cf6513a,,,,,,,,,,,,,,,,,,,,,,,,,,,,,,,,,,,,,,,,,,,,,,,,,,,,,,,,,,,,829.511,836.177,0.114285714,0.089285714,1,0,0,0.633,compass,0,23,23,0,1,SoundStimuli/GimmeShelter_RollingStones_Original5S.wav,,,,,,,,,,,,,,,,,,,,,,,,,,,,,,,,,,,,,,,,,,,,,,,,,,,
,,,,,888007,001,2024-07-12_18h51.45.908,experiment,2024.1.5,MacIntel,30.3030303,5ea63ad9c8854764e110b128,6691931c2c63981b064e1f0c,6691b34ca8d561924cf6513a,,,,,,,,,,,,,,,,,,,,,,,,,,,,,,,,,,,,,,,,,,,,,,,,,,,,,,,,,,,,836.177,843.344,-0.123214286,0.128571429,1,0,0,1.165,compass,0,24,24,7,1,SoundStimuli/MackTheKnife_BobbyDarin_Cover5S.wav,,,,,,,,,,,,,,,,,,,,,,,,,,,,,,,,,,,,,,,,,,,,,,,,,,,
,,,,,888007,001,2024-07-12_18h51.45.908,experiment,2024.1.5,MacIntel,30.3030303,5ea63ad9c8854764e110b128,6691931c2c63981b064e1f0c,6691b34ca8d561924cf6513a,,,,,,,,,,,,,,,,,,,,,,,,,,,,,,,,,,,,,,,,,,,,,,,,,,,,,,,,,,,,843.344,850.411,0.117857143,0.16875,1,0,0,1.066,compass,0,25,25,10,1,SoundStimuli/LeFreak_Chic_Cover5S.wav,,,,,,,,,,,,,,,,,,,,,,,,,,,,,,,,,,,,,,,,,,,,,,,,,,,
,,,,,888007,001,2024-07-12_18h51.45.908,experiment,2024.1.5,MacIntel,30.3030303,5ea63ad9c8854764e110b128,6691931c2c63981b064e1f0c,6691b34ca8d561924cf6513a,,,,,,,,,,,,,,,,,,,,,,,,,,,,,,,,,,,,,,,,,,,,,,,,,,,,,,,,,,,,850.411,857.178,0.073214286,0.132142857,1,0,0,0.767,compass,0,26,26,27,1,SoundStimuli/EyeOfTheTiger_Survivor_Cover5S.wav,,,,,,,,,,,,,,,,,,,,,,,,,,,,,,,,,,,,,,,,,,,,,,,,,,,
,,,,,888007,001,2024-07-12_18h51.45.908,experiment,2024.1.5,MacIntel,30.3030303,5ea63ad9c8854764e110b128,6691931c2c63981b064e1f0c,6691b34ca8d561924cf6513a,,,,,,,,,,,,,,,,,,,,,,,,,,,,,,,,,,,,,,,,,,,,,,,,,,,,,,,,,,,,857.178,863.611,-0.157142857,-0.103571429,1,0,0,0.433,compass,0,27,27,6,1,SoundStimuli/SaveYourTears_TheWeekndArianaGrande_Cover5S.wav,,,,,,,,,,,,,,,,,,,,,,,,,,,,,,,,,,,,,,,,,,,,,,,,,,,
,,,,,888007,001,2024-07-12_18h51.45.908,experiment,2024.1.5,MacIntel,30.3030303,5ea63ad9c8854764e110b128,6691931c2c63981b064e1f0c,6691b34ca8d561924cf6513a,,,,,,,,,,,,,,,,,,,,,,,,,,,,,,,,,,,,,,,,,,,,,,,,,,,,,,,,,,,,863.612,870.078,-0.133035714,-0.125,1,0,0,0.433,compass,0,28,28,32,1,SoundStimuli/Dilemma_NellyKellyRowland_Cover5S.wav,,,,,,,,,,,,,,,,,,,,,,,,,,,,,,,,,,,,,,,,,,,,,,,,,,,
,,,,,888007,001,2024-07-12_18h51.45.908,experiment,2024.1.5,MacIntel,30.3030303,5ea63ad9c8854764e110b128,6691931c2c63981b064e1f0c,6691b34ca8d561924cf6513a,,,,,,,,,,,,,,,,,,,,,,,,,,,,,,,,,,,,,,,,,,,,,,,,,,,,,,,,,,,,870.078,876.845,0.108035714,0.063392857,1,0,0,0.767,compass,0,29,29,2,1,SoundStimuli/SmellsLikeTeenSpirit_Nirvana_Original5S.wav,,,,,,,,,,,,,,,,,,,,,,,,,,,,,,,,,,,,,,,,,,,,,,,,,,,
,,,,,888007,001,2024-07-12_18h51.45.908,experiment,2024.1.5,MacIntel,30.3030303,5ea63ad9c8854764e110b128,6691931c2c63981b064e1f0c,6691b34ca8d561924cf6513a,,,,,,,,,,,,,,,,,,,,,,,,,,,,,,,,,,,,,,,,,,,,,,,,,,,,,,,,,,,,876.845,883.745,0.110714286,-0.126785714,1,0,0,0.9,compass,0,30,30,19,1,SoundStimuli/YouLightUpMyLife_DebbyBoone_Original5S.wav,,,,,,,,,,,,,,,,,,,,,,,,,,,,,,,,,,,,,,,,,,,,,,,,,,,
,,,,,888007,001,2024-07-12_18h51.45.908,experiment,2024.1.5,MacIntel,30.3030303,5ea63ad9c8854764e110b128,6691931c2c63981b064e1f0c,6691b34ca8d561924cf6513a,,,,,,,,,,,,,,,,,,,,,,,,,,,,,,,,,,,,,,,,,,,,,,,,,,,,,,,,,,,,883.745,891.578,0.094642857,-0.13125,1,0,0,1.833,compass,0,31,31,13,1,SoundStimuli/Perfect_EdSheeran_Cover5S.wav,,,,,,,,,,,,,,,,,,,,,,,,,,,,,,,,,,,,,,,,,,,,,,,,,,,
,,,,,888007,001,2024-07-12_18h51.45.908,experiment,2024.1.5,MacIntel,30.3030303,5ea63ad9c8854764e110b128,6691931c2c63981b064e1f0c,6691b34ca8d561924cf6513a,,,,,,,,,,,,,,,,,,,,,,,,,,,,,,,,,,,,,,,,,,,,,,,,,,,,,,,,,,,,891.579,900.778,0.104464286,0.116071429,1,0,0,3.167,compass,0,32,32,26,1,SoundStimuli/TheSign_AceOfBase_Cover5S.wav,,,,,,,,,,,,,,,,,,,,,,,,,,,,,,,,,,,,,,,,,,,,,,,,,,,
,,,,,888007,001,2024-07-12_18h51.45.908,experiment,2024.1.5,MacIntel,30.3030303,5ea63ad9c8854764e110b128,6691931c2c63981b064e1f0c,6691b34ca8d561924cf6513a,,,,,,,,,,,,,,,,,,,,,,,,,,,,,,,,,,,,,,,,,,,,,,,,,,,,,,,,,,,,900.778,907.345,-0.101785714,-0.063392857,1,0,0,0.567,compass,0,33,33,23,1,SoundStimuli/IWalkTheLine_JohnnyCash_Original5S.wav,,,,,,,,,,,,,,,,,,,,,,,,,,,,,,,,,,,,,,,,,,,,,,,,,,,
,,,,,888007,001,2024-07-12_18h51.45.908,experiment,2024.1.5,MacIntel,30.3030303,5ea63ad9c8854764e110b128,6691931c2c63981b064e1f0c,6691b34ca8d561924cf6513a,,,,,,,,,,,,,,,,,,,,,,,,,,,,,,,,,,,,,,,,,,,,,,,,,,,,,,,,,,,,907.345,914.612,0.107142857,-0.05,1,0,0,1.233,compass,0,34,34,33,1,SoundStimuli/TheBoyIsMine_BrandyMonica_Original5S.wav,,,,,,,,,,,,,,,,,,,,,,,,,,,,,,,,,,,,,,,,,,,,,,,,,,,
,,,,,888007,001,2024-07-12_18h51.45.908,experiment,2024.1.5,MacIntel,30.3030303,5ea63ad9c8854764e110b128,6691931c2c63981b064e1f0c,6691b34ca8d561924cf6513a,,,,,,,,,,,,,,,,,,,,,,,,,,,,,,,,,,,,,,,,,,,,,,,,,,,,,,,,,,,,,,,,,,,,,,,,,,,914.612,923.312,space,8.668,,923.312,935.212,right,11.858,,0,1,1,1,1,block_order/blockD.xlsx,,,,,,,,,,,,,,,,,,,,,,,,,,,,,,,,,,,
,,,,,888007,001,2024-07-12_18h51.45.908,experiment,2024.1.5,MacIntel,30.3030303,5ea63ad9c8854764e110b128,6691931c2c63981b064e1f0c,6691b34ca8d561924cf6513a,,,,,,,,,,,,,,,,,,,,,,,,,,,,,,,,,,,,,,,,,,,,,,,,,,,,,,,,,,,,935.219,941.612,0.119642857,0.133035714,1,0,0,0.367,compass,0,0,0,30,1,SoundStimuli/PokerFace_LadyGaga_Original5S.wav,,,,,,,,,,,,,,,,,,,,,,,,,,,,,,,,,,,,,,,,,,,,,,,,,,,
,,,,,888007,001,2024-07-12_18h51.45.908,experiment,2024.1.5,MacIntel,30.3030303,5ea63ad9c8854764e110b128,6691931c2c63981b064e1f0c,6691b34ca8d561924cf6513a,,,,,,,,,,,,,,,,,,,,,,,,,,,,,,,,,,,,,,,,,,,,,,,,,,,,,,,,,,,,941.612,952.511,-0.150892857,-0.1875,1,0,0,4.867,compass,0,1,1,31,1,SoundStimuli/TheBattleOfNewOrleans_JohnnyHorton_Cover5S.wav,,,,,,,,,,,,,,,,,,,,,,,,,,,,,,,,,,,,,,,,,,,,,,,,,,,
,,,,,888007,001,2024-07-12_18h51.45.908,experiment,2024.1.5,MacIntel,30.3030303,5ea63ad9c8854764e110b128,6691931c2c63981b064e1f0c,6691b34ca8d561924cf6513a,,,,,,,,,,,,,,,,,,,,,,,,,,,,,,,,,,,,,,,,,,,,,,,,,,,,,,,,,,,,952.512,959.278,0.085714286,0.0875,1,0,0,0.766,compass,0,2,2,8,1,SoundStimuli/LikeAPrayer_Madonna_Original5S.wav,,,,,,,,,,,,,,,,,,,,,,,,,,,,,,,,,,,,,,,,,,,,,,,,,,,
,,,,,888007,001,2024-07-12_18h51.45.908,experiment,2024.1.5,MacIntel,30.3030303,5ea63ad9c8854764e110b128,6691931c2c63981b064e1f0c,6691b34ca8d561924cf6513a,,,,,,,,,,,,,,,,,,,,,,,,,,,,,,,,,,,,,,,,,,,,,,,,,,,,,,,,,,,,959.278,966.412,-0.089285714,0.101785714,1,0,0,1.133,compass,0,3,3,21,1,SoundStimuli/GoodGollyMissMolly_LittleRichard_Cover5S.wav,,,,,,,,,,,,,,,,,,,,,,,,,,,,,,,,,,,,,,,,,,,,,,,,,,,
,,,,,888007,001,2024-07-12_18h51.45.908,experiment,2024.1.5,MacIntel,30.3030303,5ea63ad9c8854764e110b128,6691931c2c63981b064e1f0c,6691b34ca8d561924cf6513a,,,,,,,,,,,,,,,,,,,,,,,,,,,,,,,,,,,,,,,,,,,,,,,,,,,,,,,,,,,,966.413,973.018,-0.18125,-0.058035714,1,0,0,0.573,compass,0,4,4,2,1,SoundStimuli/Mood_24kGoldnianndior_Cover5S.wav,,,,,,,,,,,,,,,,,,,,,,,,,,,,,,,,,,,,,,,,,,,,,,,,,,,
,,,,,888007,001,2024-07-12_18h51.45.908,experiment,2024.1.5,MacIntel,30.3030303,5ea63ad9c8854764e110b128,6691931c2c63981b064e1f0c,6691b34ca8d561924cf6513a,,,,,,,,,,,,,,,,,,,,,,,,,,,,,,,,,,,,,,,,,,,,,,,,,,,,,,,,,,,,973.018,981.618,0.084821429,0.064285714,1,0,0,2.573,compass,0,5,5,34,1,SoundStimuli/AChangeIsGonnaCome_SamCooke_Cover5S.wav,,,,,,,,,,,,,,,,,,,,,,,,,,,,,,,,,,,,,,,,,,,,,,,,,,,
,,,,,888007,001,2024-07-12_18h51.45.908,experiment,2024.1.5,MacIntel,30.3030303,5ea63ad9c8854764e110b128,6691931c2c63981b064e1f0c,6691b34ca8d561924cf6513a,,,,,,,,,,,,,,,,,,,,,,,,,,,,,,,,,,,,,,,,,,,,,,,,,,,,,,,,,,,,981.618,988.445,0.258035714,0.274107143,1,0,0,0.8,compass,0,6,6,0,1,SoundStimuli/StayinAlive_BeeGees_Original5S.wav,,,,,,,,,,,,,,,,,,,,,,,,,,,,,,,,,,,,,,,,,,,,,,,,,,,
,,,,,888007,001,2024-07-12_18h51.45.908,experiment,2024.1.5,MacIntel,30.3030303,5ea63ad9c8854764e110b128,6691931c2c63981b064e1f0c,6691b34ca8d561924cf6513a,,,,,,,,,,,,,,,,,,,,,,,,,,,,,,,,,,,,,,,,,,,,,,,,,,,,,,,,,,,,988.445,997.078,-0.125,-0.126785714,1,0,0,2.633,compass,0,7,7,15,1,SoundStimuli/TikTok_Kesha_Cover5S.wav,,,,,,,,,,,,,,,,,,,,,,,,,,,,,,,,,,,,,,,,,,,,,,,,,,,
,,,,,888007,001,2024-07-12_18h51.45.908,experiment,2024.1.5,MacIntel,30.3030303,5ea63ad9c8854764e110b128,6691931c2c63981b064e1f0c,6691b34ca8d561924cf6513a,,,,,,,,,,,,,,,,,,,,,,,,,,,,,,,,,,,,,,,,,,,,,,,,,,,,,,,,,,,,997.078,1003.511,-0.125892857,-0.126785714,1,0,0,0.432,compass,0,8,8,9,1,SoundStimuli/Despacito_LuisFonsiDaddyYankee_Cover5S.wav,,,,,,,,,,,,,,,,,,,,,,,,,,,,,,,,,,,,,,,,,,,,,,,,,,,
,,,,,888007,001,2024-07-12_18h51.45.908,experiment,2024.1.5,MacIntel,30.3030303,5ea63ad9c8854764e110b128,6691931c2c63981b064e1f0c,6691b34ca8d561924cf6513a,,,,,,,,,,,,,,,,,,,,,,,,,,,,,,,,,,,,,,,,,,,,,,,,,,,,,,,,,,,,1003.511,1011.146,-0.139285714,0.051785714,1,0,0,1.633,compass,0,9,9,1,1,SoundStimuli/Stronger_KanyeWest_Original5S.wav,,,,,,,,,,,,,,,,,,,,,,,,,,,,,,,,,,,,,,,,,,,,,,,,,,,
,,,,,888007,001,2024-07-12_18h51.45.908,experiment,2024.1.5,MacIntel,30.3030303,5ea63ad9c8854764e110b128,6691931c2c63981b064e1f0c,6691b34ca8d561924cf6513a,,,,,,,,,,,,,,,,,,,,,,,,,,,,,,,,,,,,,,,,,,,,,,,,,,,,,,,,,,,,1011.146,1019.879,-0.1,0.103571429,1,0,0,2.7,compass,0,10,10,4,1,SoundStimuli/GetUrFreakOn_MissyElliot_Original5S.wav,,,,,,,,,,,,,,,,,,,,,,,,,,,,,,,,,,,,,,,,,,,,,,,,,,,
,,,,,888007,001,2024-07-12_18h51.45.908,experiment,2024.1.5,MacIntel,30.3030303,5ea63ad9c8854764e110b128,6691931c2c63981b064e1f0c,6691b34ca8d561924cf6513a,,,,,,,,,,,,,,,,,,,,,,,,,,,,,,,,,,,,,,,,,,,,,,,,,,,,,,,,,,,,1019.879,1027.379,0.161607143,-0.059821429,1,0,0,1.467,compass,0,11,11,27,1,SoundStimuli/ShapeofYou_EdSheeran_Original5S.wav,,,,,,,,,,,,,,,,,,,,,,,,,,,,,,,,,,,,,,,,,,,,,,,,,,,
,,,,,888007,001,2024-07-12_18h51.45.908,experiment,2024.1.5,MacIntel,30.3030303,5ea63ad9c8854764e110b128,6691931c2c63981b064e1f0c,6691b34ca8d561924cf6513a,,,,,,,,,,,,,,,,,,,,,,,,,,,,,,,,,,,,,,,,,,,,,,,,,,,,,,,,,,,,1027.379,1034.846,-0.152678571,0.13125,1,0,0,1.434,compass,0,12,12,6,1,SoundStimuli/Levitating_DuaLipa_Cover5S.wav,,,,,,,,,,,,,,,,,,,,,,,,,,,,,,,,,,,,,,,,,,,,,,,,,,,
,,,,,888007,001,2024-07-12_18h51.45.908,experiment,2024.1.5,MacIntel,30.3030303,5ea63ad9c8854764e110b128,6691931c2c63981b064e1f0c,6691b34ca8d561924cf6513a,,,,,,,,,,,,,,,,,,,,,,,,,,,,,,,,,,,,,,,,,,,,,,,,,,,,,,,,,,,,1034.846,1041.279,0.146428571,0.109821429,1,0,0,0.433,compass,0,13,13,12,1,SoundStimuli/IWillAlwaysLoveYou_WhitneyHouston_Cover5S.wav,,,,,,,,,,,,,,,,,,,,,,,,,,,,,,,,,,,,,,,,,,,,,,,,,,,
,,,,,888007,001,2024-07-12_18h51.45.908,experiment,2024.1.5,MacIntel,30.3030303,5ea63ad9c8854764e110b128,6691931c2c63981b064e1f0c,6691b34ca8d561924cf6513a,,,,,,,,,,,,,,,,,,,,,,,,,,,,,,,,,,,,,,,,,,,,,,,,,,,,,,,,,,,,1041.279,1048.512,0.09375,-0.095535714,1,0,0,1.233,compass,0,14,14,17,1,SoundStimuli/Fallin_AliciaKeys_Original5S.wav,,,,,,,,,,,,,,,,,,,,,,,,,,,,,,,,,,,,,,,,,,,,,,,,,,,
,,,,,888007,001,2024-07-12_18h51.45.908,experiment,2024.1.5,MacIntel,30.3030303,5ea63ad9c8854764e110b128,6691931c2c63981b064e1f0c,6691b34ca8d561924cf6513a,,,,,,,,,,,,,,,,,,,,,,,,,,,,,,,,,,,,,,,,,,,,,,,,,,,,,,,,,,,,1048.513,1055.279,0.125,0.155357143,1,0,0,0.733,compass,0,15,15,25,1,SoundStimuli/Respect_ArethaFranklin_Original5S.wav,,,,,,,,,,,,,,,,,,,,,,,,,,,,,,,,,,,,,,,,,,,,,,,,,,,
,,,,,888007,001,2024-07-12_18h51.45.908,experiment,2024.1.5,MacIntel,30.3030303,5ea63ad9c8854764e110b128,6691931c2c63981b064e1f0c,6691b34ca8d561924cf6513a,,,,,,,,,,,,,,,,,,,,,,,,,,,,,,,,,,,,,,,,,,,,,,,,,,,,,,,,,,,,1055.279,1062.246,-0.109821429,-0.094642857,1,0,0,0.934,compass,0,16,16,19,1,SoundStimuli/LetsGetItOn_MarvinGaye_Cover5S.wav,,,,,,,,,,,,,,,,,,,,,,,,,,,,,,,,,,,,,,,,,,,,,,,,,,,
,,,,,888007,001,2024-07-12_18h51.45.908,experiment,2024.1.5,MacIntel,30.3030303,5ea63ad9c8854764e110b128,6691931c2c63981b064e1f0c,6691b34ca8d561924cf6513a,,,,,,,,,,,,,,,,,,,,,,,,,,,,,,,,,,,,,,,,,,,,,,,,,,,,,,,,,,,,1062.246,1068.946,0.099107143,0.063392857,1,0,0,0.667,compass,0,17,17,7,1,SoundStimuli/NoOne_AliciaKeys_Cover5S.wav,,,,,,,,,,,,,,,,,,,,,,,,,,,,,,,,,,,,,,,,,,,,,,,,,,,
,,,,,888007,001,2024-07-12_18h51.45.908,experiment,2024.1.5,MacIntel,30.3030303,5ea63ad9c8854764e110b128,6691931c2c63981b064e1f0c,6691b34ca8d561924cf6513a,,,,,,,,,,,,,,,,,,,,,,,,,,,,,,,,,,,,,,,,,,,,,,,,,,,,,,,,,,,,1068.946,1076.646,0.103571429,-0.082142857,1,0,0,1.7,compass,0,18,18,33,1,SoundStimuli/StandByMe_BenEKing_Cover5S.wav,,,,,,,,,,,,,,,,,,,,,,,,,,,,,,,,,,,,,,,,,,,,,,,,,,,
,,,,,888007,001,2024-07-12_18h51.45.908,experiment,2024.1.5,MacIntel,30.3030303,5ea63ad9c8854764e110b128,6691931c2c63981b064e1f0c,6691b34ca8d561924cf6513a,,,,,,,,,,,,,,,,,,,,,,,,,,,,,,,,,,,,,,,,,,,,,,,,,,,,,,,,,,,,1076.646,1083.213,-0.114285714,-0.111607143,1,0,0,0.567,compass,0,19,19,23,1,SoundStimuli/StrawberryFieldsForever_TheBeatles_Original5S.wav,,,,,,,,,,,,,,,,,,,,,,,,,,,,,,,,,,,,,,,,,,,,,,,,,,,
,,,,,888007,001,2024-07-12_18h51.45.908,experiment,2024.1.5,MacIntel,30.3030303,5ea63ad9c8854764e110b128,6691931c2c63981b064e1f0c,6691b34ca8d561924cf6513a,,,,,,,,,,,,,,,,,,,,,,,,,,,,,,,,,,,,,,,,,,,,,,,,,,,,,,,,,,,,1083.213,1090.485,0.108035714,-0.116964286,1,0,0,1.272,compass,0,20,20,10,1,SoundStimuli/BadDay_DanielPowter_Cover5S.wav,,,,,,,,,,,,,,,,,,,,,,,,,,,,,,,,,,,,,,,,,,,,,,,,,,,
,,,,,888007,001,2024-07-12_18h51.45.908,experiment,2024.1.5,MacIntel,30.3030303,5ea63ad9c8854764e110b128,6691931c2c63981b064e1f0c,6691b34ca8d561924cf6513a,,,,,,,,,,,,,,,,,,,,,,,,,,,,,,,,,,,,,,,,,,,,,,,,,,,,,,,,,,,,1090.485,1098.013,0.153571429,0.094642857,1,0,0,1.501,compass,0,21,21,22,1,SoundStimuli/RockWithYou_MichaelJackson_Original5S.wav,,,,,,,,,,,,,,,,,,,,,,,,,,,,,,,,,,,,,,,,,,,,,,,,,,,
,,,,,888007,001,2024-07-12_18h51.45.908,experiment,2024.1.5,MacIntel,30.3030303,5ea63ad9c8854764e110b128,6691931c2c63981b064e1f0c,6691b34ca8d561924cf6513a,,,,,,,,,,,,,,,,,,,,,,,,,,,,,,,,,,,,,,,,,,,,,,,,,,,,,,,,,,,,1098.013,1106.846,-0.0625,-0.055357143,1,0,0,2.833,compass,0,22,22,29,1,SoundStimuli/OldTownRoad_LilNasX_Original5S.wav,,,,,,,,,,,,,,,,,,,,,,,,,,,,,,,,,,,,,,,,,,,,,,,,,,,
,,,,,888007,001,2024-07-12_18h51.45.908,experiment,2024.1.5,MacIntel,30.3030303,5ea63ad9c8854764e110b128,6691931c2c63981b064e1f0c,6691b34ca8d561924cf6513a,,,,,,,,,,,,,,,,,,,,,,,,,,,,,,,,,,,,,,,,,,,,,,,,,,,,,,,,,,,,1106.846,1113.745,0.140178571,-0.065178571,1,0,0,0.899,compass,0,23,23,5,1,SoundStimuli/MyGirl_TheTemptations_Original5S.wav,,,,,,,,,,,,,,,,,,,,,,,,,,,,,,,,,,,,,,,,,,,,,,,,,,,
,,,,,888007,001,2024-07-12_18h51.45.908,experiment,2024.1.5,MacIntel,30.3030303,5ea63ad9c8854764e110b128,6691931c2c63981b064e1f0c,6691b34ca8d561924cf6513a,,,,,,,,,,,,,,,,,,,,,,,,,,,,,,,,,,,,,,,,,,,,,,,,,,,,,,,,,,,,1113.746,1120.313,-0.103571429,-0.13125,1,0,0,0.567,compass,0,24,24,16,1,SoundStimuli/BohemianRhapsody_Queen_Original5S.wav,,,,,,,,,,,,,,,,,,,,,,,,,,,,,,,,,,,,,,,,,,,,,,,,,,,
,,,,,888007,001,2024-07-12_18h51.45.908,experiment,2024.1.5,MacIntel,30.3030303,5ea63ad9c8854764e110b128,6691931c2c63981b064e1f0c,6691b34ca8d561924cf6513a,,,,,,,,,,,,,,,,,,,,,,,,,,,,,,,,,,,,,,,,,,,,,,,,,,,,,,,,,,,,1120.313,1126.812,-0.103571429,-0.13125,1,0,0,0.499,compass,0,25,25,32,1,SoundStimuli/HeatWaves_GlassAnimals_Original5S.wav,,,,,,,,,,,,,,,,,,,,,,,,,,,,,,,,,,,,,,,,,,,,,,,,,,,
,,,,,888007,001,2024-07-12_18h51.45.908,experiment,2024.1.5,MacIntel,30.3030303,5ea63ad9c8854764e110b128,6691931c2c63981b064e1f0c,6691b34ca8d561924cf6513a,,,,,,,,,,,,,,,,,,,,,,,,,,,,,,,,,,,,,,,,,,,,,,,,,,,,,,,,,,,,1126.812,1133.28,0.142857143,-0.110714286,1,0,0,0.466,compass,0,26,26,3,1,SoundStimuli/NoScrubs_TLC_Original5S.wav,,,,,,,,,,,,,,,,,,,,,,,,,,,,,,,,,,,,,,,,,,,,,,,,,,,
,,,,,888007,001,2024-07-12_18h51.45.908,experiment,2024.1.5,MacIntel,30.3030303,5ea63ad9c8854764e110b128,6691931c2c63981b064e1f0c,6691b34ca8d561924cf6513a,,,,,,,,,,,,,,,,,,,,,,,,,,,,,,,,,,,,,,,,,,,,,,,,,,,,,,,,,,,,1133.28,1141.88,0.128571429,0.134821429,1,0,0,2.567,compass,0,27,27,18,1,SoundStimuli/AnotherOneBitesTheDust_Queen_Original5S.wav,,,,,,,,,,,,,,,,,,,,,,,,,,,,,,,,,,,,,,,,,,,,,,,,,,,
,,,,,888007,001,2024-07-12_18h51.45.908,experiment,2024.1.5,MacIntel,30.3030303,5ea63ad9c8854764e110b128,6691931c2c63981b064e1f0c,6691b34ca8d561924cf6513a,,,,,,,,,,,,,,,,,,,,,,,,,,,,,,,,,,,,,,,,,,,,,,,,,,,,,,,,,,,,1141.88,1148.246,0.096428571,0.154464286,1,0,0,0.334,compass,0,28,28,14,1,SoundStimuli/BlindingLights_TheWeeknd_Original5S.wav,,,,,,,,,,,,,,,,,,,,,,,,,,,,,,,,,,,,,,,,,,,,,,,,,,,
,,,,,888007,001,2024-07-12_18h51.45.908,experiment,2024.1.5,MacIntel,30.3030303,5ea63ad9c8854764e110b128,6691931c2c63981b064e1f0c,6691b34ca8d561924cf6513a,,,,,,,,,,,,,,,,,,,,,,,,,,,,,,,,,,,,,,,,,,,,,,,,,,,,,,,,,,,,1148.246,1154.946,-0.142857143,-0.1125,1,0,0,0.7,compass,0,29,29,26,1,SoundStimuli/LivinOnAPrayer_BonJovi_Cover5S.wav,,,,,,,,,,,,,,,,,,,,,,,,,,,,,,,,,,,,,,,,,,,,,,,,,,,
,,,,,888007,001,2024-07-12_18h51.45.908,experiment,2024.1.5,MacIntel,30.3030303,5ea63ad9c8854764e110b128,6691931c2c63981b064e1f0c,6691b34ca8d561924cf6513a,,,,,,,,,,,,,,,,,,,,,,,,,,,,,,,,,,,,,,,,,,,,,,,,,,,,,,,,,,,,1154.947,1162.579,0.058928571,-0.075892857,1,0,0,1.6,compass,0,30,30,28,1,SoundStimuli/ComeAndGetYourLove_Redbone_Original5S.wav,,,,,,,,,,,,,,,,,,,,,,,,,,,,,,,,,,,,,,,,,,,,,,,,,,,
,,,,,888007,001,2024-07-12_18h51.45.908,experiment,2024.1.5,MacIntel,30.3030303,5ea63ad9c8854764e110b128,6691931c2c63981b064e1f0c,6691b34ca8d561924cf6513a,,,,,,,,,,,,,,,,,,,,,,,,,,,,,,,,,,,,,,,,,,,,,,,,,,,,,,,,,,,,1162.579,1169.08,-0.116071429,-0.122321429,1,0,0,0.5,compass,0,31,31,13,1,SoundStimuli/GodOnlyKnows_TheBeachBoys_Cover5S.wav,,,,,,,,,,,,,,,,,,,,,,,,,,,,,,,,,,,,,,,,,,,,,,,,,,,
,,,,,888007,001,2024-07-12_18h51.45.908,experiment,2024.1.5,MacIntel,30.3030303,5ea63ad9c8854764e110b128,6691931c2c63981b064e1f0c,6691b34ca8d561924cf6513a,,,,,,,,,,,,,,,,,,,,,,,,,,,,,,,,,,,,,,,,,,,,,,,,,,,,,,,,,,,,1169.08,1176.713,0.15625,0.057142857,1,0,0,1.633,compass,0,32,32,24,1,SoundStimuli/UptownFunk_MarkRonson_Original5S.wav,,,,,,,,,,,,,,,,,,,,,,,,,,,,,,,,,,,,,,,,,,,,,,,,,,,
,,,,,888007,001,2024-07-12_18h51.45.908,experiment,2024.1.5,MacIntel,30.3030303,5ea63ad9c8854764e110b128,6691931c2c63981b064e1f0c,6691b34ca8d561924cf6513a,,,,,,,,,,,,,,,,,,,,,,,,,,,,,,,,,,,,,,,,,,,,,,,,,,,,,,,,,,,,1176.713,1184.98,-0.077678571,-0.05625,1,0,0,2.267,compass,0,33,33,11,1,SoundStimuli/Superstition_StevieWonder_Cover5S.wav,,,,,,,,,,,,,,,,,,,,,,,,,,,,,,,,,,,,,,,,,,,,,,,,,,,
,,,,,888007,001,2024-07-12_18h51.45.908,experiment,2024.1.5,MacIntel,30.3030303,5ea63ad9c8854764e110b128,6691931c2c63981b064e1f0c,6691b34ca8d561924cf6513a,,,,,,,,,,,,,,,,,,,,,,,,,,,,,,,,,,,,,,,,,,,,,,,,,,,,,,,,,,,,1184.98,1192.18,-0.075,-0.066964286,1,0,0,1.2,compass,0,34,34,20,1,SoundStimuli/HeyYa_Outkast_Cover5S.wav,,,,,,,,,,,,,,,,,,,,,,,,,,,,,,,,,,,,,,,,,,,,,,,,,,,
,,,,,888007,001,2024-07-12_18h51.45.908,experiment,2024.1.5,MacIntel,30.3030303,5ea63ad9c8854764e110b128,6691931c2c63981b064e1f0c,6691b34ca8d561924cf6513a,,,,,,,,,,,,,,,,,,,,,,,,,,,,,,,,,,,,,,,,,,,,,,,,,,,,,,,,,,,,,,,,,,,,,,,,,,,1192.18,1205.547,space,13.326,,1205.547,1213.88,right,8.283,,0,2,2,2,1,block_order/blockA.xlsx,,,,,,,,,,,,,,,,,,,,,,,,,,,,,,,,,,,
,,,,,888007,001,2024-07-12_18h51.45.908,experiment,2024.1.5,MacIntel,30.3030303,5ea63ad9c8854764e110b128,6691931c2c63981b064e1f0c,6691b34ca8d561924cf6513a,,,,,,,,,,,,,,,,,,,,,,,,,,,,,,,,,,,,,,,,,,,,,,,,,,,,,,,,,,,,1213.888,1221.213,0.108928571,0.108035714,1,0,0,1.299,compass,0,0,0,1,1,SoundStimuli/Smooth_SantanaRobThomas_Cover5S.wav,,,,,,,,,,,,,,,,,,,,,,,,,,,,,,,,,,,,,,,,,,,,,,,,,,,
,,,,,888007,001,2024-07-12_18h51.45.908,experiment,2024.1.5,MacIntel,30.3030303,5ea63ad9c8854764e110b128,6691931c2c63981b064e1f0c,6691b34ca8d561924cf6513a,,,,,,,,,,,,,,,,,,,,,,,,,,,,,,,,,,,,,,,,,,,,,,,,,,,,,,,,,,,,1221.213,1227.846,-0.084821429,0.096428571,1,0,0,0.633,compass,0,1,1,3,1,SoundStimuli/PartyRockAnthem_LMFAO_Cover5S.wav,,,,,,,,,,,,,,,,,,,,,,,,,,,,,,,,,,,,,,,,,,,,,,,,,,,
,,,,,888007,001,2024-07-12_18h51.45.908,experiment,2024.1.5,MacIntel,30.3030303,5ea63ad9c8854764e110b128,6691931c2c63981b064e1f0c,6691b34ca8d561924cf6513a,,,,,,,,,,,,,,,,,,,,,,,,,,,,,,,,,,,,,,,,,,,,,,,,,,,,,,,,,,,,1227.846,1234.214,0.142857143,0.163392857,1,0,0,0.367,compass,0,2,2,27,1,SoundStimuli/EyeOfTheTiger_Survivor_Original5S.wav,,,,,,,,,,,,,,,,,,,,,,,,,,,,,,,,,,,,,,,,,,,,,,,,,,,
,,,,,888007,001,2024-07-12_18h51.45.908,experiment,2024.1.5,MacIntel,30.3030303,5ea63ad9c8854764e110b128,6691931c2c63981b064e1f0c,6691b34ca8d561924cf6513a,,,,,,,,,,,,,,,,,,,,,,,,,,,,,,,,,,,,,,,,,,,,,,,,,,,,,,,,,,,,1234.214,1242.913,0.101785714,-0.041071429,1,0,0,2.665,compass,0,3,3,29,1,SoundStimuli/BetteDavisEyes_KimCarnes_Cover5S.wav,,,,,,,,,,,,,,,,,,,,,,,,,,,,,,,,,,,,,,,,,,,,,,,,,,,
,,,,,888007,001,2024-07-12_18h51.45.908,experiment,2024.1.5,MacIntel,30.3030303,5ea63ad9c8854764e110b128,6691931c2c63981b064e1f0c,6691b34ca8d561924cf6513a,,,,,,,,,,,,,,,,,,,,,,,,,,,,,,,,,,,,,,,,,,,,,,,,,,,,,,,,,,,,1242.913,1249.547,0.145535714,0.158035714,1,0,0,0.634,compass,0,4,4,22,1,SoundStimuli/Happy_PharellWilliams_Cover5S.wav,,,,,,,,,,,,,,,,,,,,,,,,,,,,,,,,,,,,,,,,,,,,,,,,,,,
,,,,,888007,001,2024-07-12_18h51.45.908,experiment,2024.1.5,MacIntel,30.3030303,5ea63ad9c8854764e110b128,6691931c2c63981b064e1f0c,6691b34ca8d561924cf6513a,,,,,,,,,,,,,,,,,,,,,,,,,,,,,,,,,,,,,,,,,,,,,,,,,,,,,,,,,,,,1249.547,1255.647,-0.086607143,-0.074107143,1,0,0,0.1,compass,0,5,5,14,1,SoundStimuli/LikeARollingStone_BobDylan_Cover5S.wav,,,,,,,,,,,,,,,,,,,,,,,,,,,,,,,,,,,,,,,,,,,,,,,,,,,
,,,,,888007,001,2024-07-12_18h51.45.908,experiment,2024.1.5,MacIntel,30.3030303,5ea63ad9c8854764e110b128,6691931c2c63981b064e1f0c,6691b34ca8d561924cf6513a,,,,,,,,,,,,,,,,,,,,,,,,,,,,,,,,,,,,,,,,,,,,,,,,,,,,,,,,,,,,1255.647,1262.086,-0.124107143,0.133035714,1,0,0,0.439,compass,0,6,6,31,1,SoundStimuli/TossinAndTurnin_BobbyLewis_Cover5S.wav,,,,,,,,,,,,,,,,,,,,,,,,,,,,,,,,,,,,,,,,,,,,,,,,,,,
,,,,,888007,001,2024-07-12_18h51.45.908,experiment,2024.1.5,MacIntel,30.3030303,5ea63ad9c8854764e110b128,6691931c2c63981b064e1f0c,6691b34ca8d561924cf6513a,,,,,,,,,,,,,,,,,,,,,,,,,,,,,,,,,,,,,,,,,,,,,,,,,,,,,,,,,,,,1262.086,1269.746,-0.058928571,-0.096428571,1,0,0,1.633,compass,0,7,7,19,1,SoundStimuli/YouLightUpMyLife_DebbyBoone_Cover5S.wav,,,,,,,,,,,,,,,,,,,,,,,,,,,,,,,,,,,,,,,,,,,,,,,,,,,
,,,,,888007,001,2024-07-12_18h51.45.908,experiment,2024.1.5,MacIntel,30.3030303,5ea63ad9c8854764e110b128,6691931c2c63981b064e1f0c,6691b34ca8d561924cf6513a,,,,,,,,,,,,,,,,,,,,,,,,,,,,,,,,,,,,,,,,,,,,,,,,,,,,,,,,,,,,1269.747,1276.346,-0.071428571,-0.102678571,1,0,0,0.599,compass,0,8,8,28,1,SoundStimuli/IWantToHoldYourHand_TheBeatles_Cover5S.wav,,,,,,,,,,,,,,,,,,,,,,,,,,,,,,,,,,,,,,,,,,,,,,,,,,,
,,,,,888007,001,2024-07-12_18h51.45.908,experiment,2024.1.5,MacIntel,30.3030303,5ea63ad9c8854764e110b128,6691931c2c63981b064e1f0c,6691b34ca8d561924cf6513a,,,,,,,,,,,,,,,,,,,,,,,,,,,,,,,,,,,,,,,,,,,,,,,,,,,,,,,,,,,,1276.346,1283.714,0.066964286,-0.127678571,1,0,0,1.367,compass,0,9,9,25,1,SoundStimuli/IllMakeLoveToYou_BoyzIIMen_Original5S.wav,,,,,,,,,,,,,,,,,,,,,,,,,,,,,,,,,,,,,,,,,,,,,,,,,,,
,,,,,888007,001,2024-07-12_18h51.45.908,experiment,2024.1.5,MacIntel,30.3030303,5ea63ad9c8854764e110b128,6691931c2c63981b064e1f0c,6691b34ca8d561924cf6513a,,,,,,,,,,,,,,,,,,,,,,,,,,,,,,,,,,,,,,,,,,,,,,,,,,,,,,,,,,,,1283.714,1290.947,-0.075,-0.10625,1,0,0,1.233,compass,0,10,10,13,1,SoundStimuli/Perfect_EdSheeran_Original5S.wav,,,,,,,,,,,,,,,,,,,,,,,,,,,,,,,,,,,,,,,,,,,,,,,,,,,
,,,,,888007,001,2024-07-12_18h51.45.908,experiment,2024.1.5,MacIntel,30.3030303,5ea63ad9c8854764e110b128,6691931c2c63981b064e1f0c,6691b34ca8d561924cf6513a,,,,,,,,,,,,,,,,,,,,,,,,,,,,,,,,,,,,,,,,,,,,,,,,,,,,,,,,,,,,1290.947,1298.447,0.096428571,0.086607143,1,0,0,1.5,compass,0,11,11,5,1,SoundStimuli/JoyToTheWorld_ThreeDogNight_Cover5S.wav,,,,,,,,,,,,,,,,,,,,,,,,,,,,,,,,,,,,,,,,,,,,,,,,,,,
,,,,,888007,001,2024-07-12_18h51.45.908,experiment,2024.1.5,MacIntel,30.3030303,5ea63ad9c8854764e110b128,6691931c2c63981b064e1f0c,6691b34ca8d561924cf6513a,,,,,,,,,,,,,,,,,,,,,,,,,,,,,,,,,,,,,,,,,,,,,,,,,,,,,,,,,,,,1298.448,1306.414,0.096428571,-0.042857143,1,0,0,1.934,compass,0,12,12,8,1,SoundStimuli/EndlessLove_DianaRossLionelRichie_Original5S.wav,,,,,,,,,,,,,,,,,,,,,,,,,,,,,,,,,,,,,,,,,,,,,,,,,,,
,,,,,888007,001,2024-07-12_18h51.45.908,experiment,2024.1.5,MacIntel,30.3030303,5ea63ad9c8854764e110b128,6691931c2c63981b064e1f0c,6691b34ca8d561924cf6513a,,,,,,,,,,,,,,,,,,,,,,,,,,,,,,,,,,,,,,,,,,,,,,,,,,,,,,,,,,,,1306.414,1312.814,0.096428571,-0.041964286,1,0,0,0.4,compass,0,13,13,32,1,SoundStimuli/Dilemma_NellyKellyRowland_Original5S.wav,,,,,,,,,,,,,,,,,,,,,,,,,,,,,,,,,,,,,,,,,,,,,,,,,,,
,,,,,888007,001,2024-07-12_18h51.45.908,experiment,2024.1.5,MacIntel,30.3030303,5ea63ad9c8854764e110b128,6691931c2c63981b064e1f0c,6691b34ca8d561924cf6513a,,,,,,,,,,,,,,,,,,,,,,,,,,,,,,,,,,,,,,,,,,,,,,,,,,,,,,,,,,,,1312.814,1319.614,0.0875,0.107142857,1,0,0,0.8,compass,0,14,14,24,1,SoundStimuli/Kiss_Prince_Original5S.wav,,,,,,,,,,,,,,,,,,,,,,,,,,,,,,,,,,,,,,,,,,,,,,,,,,,
,,,,,888007,001,2024-07-12_18h51.45.908,experiment,2024.1.5,MacIntel,30.3030303,5ea63ad9c8854764e110b128,6691931c2c63981b064e1f0c,6691b34ca8d561924cf6513a,,,,,,,,,,,,,,,,,,,,,,,,,,,,,,,,,,,,,,,,,,,,,,,,,,,,,,,,,,,,1319.614,1327.447,0.088392857,-0.042857143,1,0,0,1.833,compass,0,15,15,9,1,SoundStimuli/HowDoILive_LeAnnRimes_Original5S.wav,,,,,,,,,,,,,,,,,,,,,,,,,,,,,,,,,,,,,,,,,,,,,,,,,,,
,,,,,888007,001,2024-07-12_18h51.45.908,experiment,2024.1.5,MacIntel,30.3030303,5ea63ad9c8854764e110b128,6691931c2c63981b064e1f0c,6691b34ca8d561924cf6513a,,,,,,,,,,,,,,,,,,,,,,,,,,,,,,,,,,,,,,,,,,,,,,,,,,,,,,,,,,,,1327.448,1334.614,-0.059821429,-0.077678571,1,0,0,1.134,compass,0,16,16,17,1,SoundStimuli/IWannaDanceWithSomebody_WhitneyHouston_Cover5S.wav,,,,,,,,,,,,,,,,,,,,,,,,,,,,,,,,,,,,,,,,,,,,,,,,,,,
,,,,,888007,001,2024-07-12_18h51.45.908,experiment,2024.1.5,MacIntel,30.3030303,5ea63ad9c8854764e110b128,6691931c2c63981b064e1f0c,6691b34ca8d561924cf6513a,,,,,,,,,,,,,,,,,,,,,,,,,,,,,,,,,,,,,,,,,,,,,,,,,,,,,,,,,,,,1334.614,1342.381,-0.059821429,-0.078571429,1,0,0,1.767,compass,0,17,17,12,1,SoundStimuli/UnbreakMyHeart_ToniBraxton_Cover5S.wav,,,,,,,,,,,,,,,,,,,,,,,,,,,,,,,,,,,,,,,,,,,,,,,,,,,
,,,,,888007,001,2024-07-12_18h51.45.908,experiment,2024.1.5,MacIntel,30.3030303,5ea63ad9c8854764e110b128,6691931c2c63981b064e1f0c,6691b34ca8d561924cf6513a,,,,,,,,,,,,,,,,,,,,,,,,,,,,,,,,,,,,,,,,,,,,,,,,,,,,,,,,,,,,1342.381,1350.147,-0.058928571,0.082142857,1,0,0,1.766,compass,0,18,18,0,1,SoundStimuli/GimmeShelter_RollingStones_Cover5S.wav,,,,,,,,,,,,,,,,,,,,,,,,,,,,,,,,,,,,,,,,,,,,,,,,,,,
,,,,,888007,001,2024-07-12_18h51.45.908,experiment,2024.1.5,MacIntel,30.3030303,5ea63ad9c8854764e110b128,6691931c2c63981b064e1f0c,6691b34ca8d561924cf6513a,,,,,,,,,,,,,,,,,,,,,,,,,,,,,,,,,,,,,,,,,,,,,,,,,,,,,,,,,,,,1350.148,1357.347,0.058928571,-0.074107143,1,0,0,1.166,compass,0,19,19,18,1,SoundStimuli/Weak_SWV_Original5S.wav,,,,,,,,,,,,,,,,,,,,,,,,,,,,,,,,,,,,,,,,,,,,,,,,,,,
,,,,,888007,001,2024-07-12_18h51.45.908,experiment,2024.1.5,MacIntel,30.3030303,5ea63ad9c8854764e110b128,6691931c2c63981b064e1f0c,6691b34ca8d561924cf6513a,,,,,,,,,,,,,,,,,,,,,,,,,,,,,,,,,,,,,,,,,,,,,,,,,,,,,,,,,,,,1357.347,1364.581,0.094642857,0.092857143,1,0,0,1.233,compass,0,20,20,30,1,SoundStimuli/SomebodyThatIUsedtoKnow_Gotye_Cover5S.wav,,,,,,,,,,,,,,,,,,,,,,,,,,,,,,,,,,,,,,,,,,,,,,,,,,,
,,,,,888007,001,2024-07-12_18h51.45.908,experiment,2024.1.5,MacIntel,30.3030303,5ea63ad9c8854764e110b128,6691931c2c63981b064e1f0c,6691b34ca8d561924cf6513a,,,,,,,,,,,,,,,,,,,,,,,,,,,,,,,,,,,,,,,,,,,,,,,,,,,,,,,,,,,,1364.581,1371.681,-0.066964286,-0.083035714,1,0,0,1.1,compass,0,21,21,16,1,SoundStimuli/ItsAllInTheGame_TommyEdwards_Original5S.wav,,,,,,,,,,,,,,,,,,,,,,,,,,,,,,,,,,,,,,,,,,,,,,,,,,,
,,,,,888007,001,2024-07-12_18h51.45.908,experiment,2024.1.5,MacIntel,30.3030303,5ea63ad9c8854764e110b128,6691931c2c63981b064e1f0c,6691b34ca8d561924cf6513a,,,,,,,,,,,,,,,,,,,,,,,,,,,,,,,,,,,,,,,,,,,,,,,,,,,,,,,,,,,,1371.681,1379.186,0.020535714,-0.080357143,1,0,0,1.505,compass,0,22,22,21,1,SoundStimuli/BridgeOverTroubledWater_SimonAndGarfunkel_Cover5S.wav,,,,,,,,,,,,,,,,,,,,,,,,,,,,,,,,,,,,,,,,,,,,,,,,,,,
,,,,,888007,001,2024-07-12_18h51.45.908,experiment,2024.1.5,MacIntel,30.3030303,5ea63ad9c8854764e110b128,6691931c2c63981b064e1f0c,6691b34ca8d561924cf6513a,,,,,,,,,,,,,,,,,,,,,,,,,,,,,,,,,,,,,,,,,,,,,,,,,,,,,,,,,,,,1379.187,1385.647,0.060714286,-0.058035714,1,0,0,0.433,compass,0,23,23,33,1,SoundStimuli/TheBoyIsMine_BrandyMonica_Cover5S.wav,,,,,,,,,,,,,,,,,,,,,,,,,,,,,,,,,,,,,,,,,,,,,,,,,,,
,,,,,888007,001,2024-07-12_18h51.45.908,experiment,2024.1.5,MacIntel,30.3030303,5ea63ad9c8854764e110b128,6691931c2c63981b064e1f0c,6691b34ca8d561924cf6513a,,,,,,,,,,,,,,,,,,,,,,,,,,,,,,,,,,,,,,,,,,,,,,,,,,,,,,,,,,,,1385.647,1392.814,0.122321429,0.123214286,1,0,0,1.167,compass,0,24,24,11,1,SoundStimuli/BlurredLines_RobinThicke_Original5S.wav,,,,,,,,,,,,,,,,,,,,,,,,,,,,,,,,,,,,,,,,,,,,,,,,,,,
,,,,,888007,001,2024-07-12_18h51.45.908,experiment,2024.1.5,MacIntel,30.3030303,5ea63ad9c8854764e110b128,6691931c2c63981b064e1f0c,6691b34ca8d561924cf6513a,,,,,,,,,,,,,,,,,,,,,,,,,,,,,,,,,,,,,,,,,,,,,,,,,,,,,,,,,,,,1392.815,1399.748,0.121428571,0.124107143,1,0,0,0.9,compass,0,25,25,26,1,SoundStimuli/TheSign_AceOfBase_Original5S.wav,,,,,,,,,,,,,,,,,,,,,,,,,,,,,,,,,,,,,,,,,,,,,,,,,,,
,,,,,888007,001,2024-07-12_18h51.45.908,experiment,2024.1.5,MacIntel,30.3030303,5ea63ad9c8854764e110b128,6691931c2c63981b064e1f0c,6691b34ca8d561924cf6513a,,,,,,,,,,,,,,,,,,,,,,,,,,,,,,,,,,,,,,,,,,,,,,,,,,,,,,,,,,,,1399.748,1407.048,0.121428571,0.123214286,1,0,0,1.267,compass,0,26,26,6,1,SoundStimuli/SaveYourTears_TheWeekndArianaGrande_Original5S.wav,,,,,,,,,,,,,,,,,,,,,,,,,,,,,,,,,,,,,,,,,,,,,,,,,,,
,,,,,888007,001,2024-07-12_18h51.45.908,experiment,2024.1.5,MacIntel,30.3030303,5ea63ad9c8854764e110b128,6691931c2c63981b064e1f0c,6691b34ca8d561924cf6513a,,,,,,,,,,,,,,,,,,,,,,,,,,,,,,,,,,,,,,,,,,,,,,,,,,,,,,,,,,,,1407.048,1413.38,-0.090178571,0.119642857,1,0,0,0.332,compass,0,27,27,2,1,SoundStimuli/SmellsLikeTeenSpirit_Nirvana_Cover5S.wav,,,,,,,,,,,,,,,,,,,,,,,,,,,,,,,,,,,,,,,,,,,,,,,,,,,
,,,,,888007,001,2024-07-12_18h51.45.908,experiment,2024.1.5,MacIntel,30.3030303,5ea63ad9c8854764e110b128,6691931c2c63981b064e1f0c,6691b34ca8d561924cf6513a,,,,,,,,,,,,,,,,,,,,,,,,,,,,,,,,,,,,,,,,,,,,,,,,,,,,,,,,,,,,1413.38,1422.581,0.1,-0.096428571,1,0,0,3.2,compass,0,28,28,7,1,SoundStimuli/MackTheKnife_BobbyDarin_Original5S.wav,,,,,,,,,,,,,,,,,,,,,,,,,,,,,,,,,,,,,,,,,,,,,,,,,,,
,,,,,888007,001,2024-07-12_18h51.45.908,experiment,2024.1.5,MacIntel,30.3030303,5ea63ad9c8854764e110b128,6691931c2c63981b064e1f0c,6691b34ca8d561924cf6513a,,,,,,,,,,,,,,,,,,,,,,,,,,,,,,,,,,,,,,,,,,,,,,,,,,,,,,,,,,,,1422.581,1429.048,0.091964286,-0.063392857,1,0,0,0.467,compass,0,29,29,34,1,SoundStimuli/Irreplaceable_Beyonce_Original5S.wav,,,,,,,,,,,,,,,,,,,,,,,,,,,,,,,,,,,,,,,,,,,,,,,,,,,
,,,,,888007,001,2024-07-12_18h51.45.908,experiment,2024.1.5,MacIntel,30.3030303,5ea63ad9c8854764e110b128,6691931c2c63981b064e1f0c,6691b34ca8d561924cf6513a,,,,,,,,,,,,,,,,,,,,,,,,,,,,,,,,,,,,,,,,,,,,,,,,,,,,,,,,,,,,1429.048,1435.515,0.134821429,0.090178571,1,0,0,0.467,compass,0,30,30,15,1,SoundStimuli/CrazyInLove_BeyonceFtJayZ_Original5S.wav,,,,,,,,,,,,,,,,,,,,,,,,,,,,,,,,,,,,,,,,,,,,,,,,,,,
,,,,,888007,001,2024-07-12_18h51.45.908,experiment,2024.1.5,MacIntel,30.3030303,5ea63ad9c8854764e110b128,6691931c2c63981b064e1f0c,6691b34ca8d561924cf6513a,,,,,,,,,,,,,,,,,,,,,,,,,,,,,,,,,,,,,,,,,,,,,,,,,,,,,,,,,,,,1435.515,1442.381,0.1375,0.10625,1,0,0,0.833,compass,0,31,31,10,1,SoundStimuli/LeFreak_Chic_Original5S.wav,,,,,,,,,,,,,,,,,,,,,,,,,,,,,,,,,,,,,,,,,,,,,,,,,,,
,,,,,888007,001,2024-07-12_18h51.45.908,experiment,2024.1.5,MacIntel,30.3030303,5ea63ad9c8854764e110b128,6691931c2c63981b064e1f0c,6691b34ca8d561924cf6513a,,,,,,,,,,,,,,,,,,,,,,,,,,,,,,,,,,,,,,,,,,,,,,,,,,,,,,,,,,,,1442.381,1448.915,-0.064285714,-0.078571429,1,0,0,0.534,compass,0,32,32,23,1,SoundStimuli/IWalkTheLine_JohnnyCash_Cover5S.wav,,,,,,,,,,,,,,,,,,,,,,,,,,,,,,,,,,,,,,,,,,,,,,,,,,,
,,,,,888007,001,2024-07-12_18h51.45.908,experiment,2024.1.5,MacIntel,30.3030303,5ea63ad9c8854764e110b128,6691931c2c63981b064e1f0c,6691b34ca8d561924cf6513a,,,,,,,,,,,,,,,,,,,,,,,,,,,,,,,,,,,,,,,,,,,,,,,,,,,,,,,,,,,,1448.915,1456.148,0.048214286,-0.110714286,1,0,0,1.233,compass,0,33,33,4,1,SoundStimuli/Dreams_FleetwoodMac_Cover5S.wav,,,,,,,,,,,,,,,,,,,,,,,,,,,,,,,,,,,,,,,,,,,,,,,,,,,
,,,,,888007,001,2024-07-12_18h51.45.908,experiment,2024.1.5,MacIntel,30.3030303,5ea63ad9c8854764e110b128,6691931c2c63981b064e1f0c,6691b34ca8d561924cf6513a,,,,,,,,,,,,,,,,,,,,,,,,,,,,,,,,,,,,,,,,,,,,,,,,,,,,,,,,,,,,1456.148,1462.815,0.108035714,0.13125,1,0,0,0.667,compass,0,34,34,20,1,SoundStimuli/FlashdanceWhatAFeeling_IreneCara_Cover5S.wav,,,,,,,,,,,,,,,,,,,,,,,,,,,,,,,,,,,,,,,,,,,,,,,,,,,
,,,,,888007,001,2024-07-12_18h51.45.908,experiment,2024.1.5,MacIntel,30.3030303,5ea63ad9c8854764e110b128,6691931c2c63981b064e1f0c,6691b34ca8d561924cf6513a,,,,,,,,,,,,,,,,,,,,,,,,,,,,,,,,,,,,,,,,,,,,,,,,,,,,,,,,,,,,,,,,,,,,,,,,,,,1462.815,1462.815,,,,1462.815,1462.815,,,,0,3,3,3,1,block_order/blockB.xlsx,,,,,,,,,,,,,,,,,,,,,,,,,,,,,,,,,,,
,,,,,888007,001,2024-07-12_18h51.45.908,experiment,2024.1.5,MacIntel,30.3030303,5ea63ad9c8854764e110b128,6691931c2c63981b064e1f0c,6691b34ca8d561924cf6513a,,,,,,,,,,,,,,,,,,,,,,,,,,,,,,,,,,,,,,,,,,,,,,,,,,,,,,,,,,,,,,,,,,,,,,,,,,,,,,,,,,,,,,,,,,,69,Item 2,played the saxophone from 6th grade through high school.,Item 3,"YouTube, Apple, Radio",5,7,"driving, painting art works, exercising, reading",Never,Never,Rarely,Always,Never,Never,Never,Never,Never,Never,Rarely,Sometimes,Sometimes,Sometimes,Sometimes,Rarely,Smooth Jazz,80's,Electronic,I listen more for relaxation.  I like calmer and softer music than when I was younger.,0,0,0,0,1,,
,,,,,888007,001,2024-07-12_18h51.45.908,experiment,2024.1.5,MacIntel,30.3030303,5ea63ad9c8854764e110b128,6691931c2c63981b064e1f0c,6691b34ca8d561924cf6513a,,,,,,,,,,,,,,,,,,,,,,,,,,,,,,,,,,,,,,,,,,,,,,,,,,,,,,,,,,,,,,,,,,,,,,,,,,,,,,,,,,,,,,,,,,,,,,,,,,,,,,,,,,,,,,,,,,,,,,,,,,,,1912.953,1915.384
