welcome.started,welcome.stopped,space_to_continue.keys,space_to_continue.rt,space_to_continue.duration,participant,session,date,expName,psychopyVersion,OS,frameRate,PROLIFIC_PID,STUDY_ID,SESSION_ID,consent.consent,consent.consent_recontact,consent_check.started,consent_check.stopped,calibration_ready.started,calibration_ready.stopped,cal_ready.keys,cal_ready.rt,cal_ready.duration,calibration.started,calibration.stopped,mouse.x,mouse.y,mouse.leftButton,mouse.midButton,mouse.rightButton,mouse.time,mouse.clicked_name,move_on.keys,move_on.rt,move_on.duration,run_cal.thisRepN,run_cal.thisTrialN,run_cal.thisN,run_cal.thisIndex,run_cal.ran,emotion_training_ready.started,emotion_training_ready.stopped,training_move_on.keys,training_move_on.rt,training_move_on.duration,examples.started,examples.stopped,emotion_scale.started,emotion_scale.stopped,scale_next.keys,scale_next.rt,scale_next.duration,instructions.started,instructions.stopped,next.keys,next.rt,next.duration,practice_task.started,practice_task.stopped,mouse_rating_2.x,mouse_rating_2.y,mouse_rating_2.leftButton,mouse_rating_2.midButton,mouse_rating_2.rightButton,mouse_rating_2.time,mouse_rating_2.clicked_name,ready.started,ready.stopped,key_resp.keys,key_resp.rt,key_resp.duration,set_group.started,set_group.stopped,task.started,task.stopped,mouse_rating.x,mouse_rating.y,mouse_rating.leftButton,mouse_rating.midButton,mouse_rating.rightButton,mouse_rating.time,mouse_rating.clicked_name,trials.thisRepN,trials.thisTrialN,trials.thisN,trials.thisIndex,trials.ran,clip,short_break.started,short_break.stopped,space_to_move_on.keys,space_to_move_on.rt,space_to_move_on.duration,instruction_reminder.started,instruction_reminder.stopped,reminder_move_on.keys,reminder_move_on.rt,reminder_move_on.duration,blocks.thisRepN,blocks.thisTrialN,blocks.thisN,blocks.thisIndex,blocks.ran,block,post_survey.age,post_survey.musician,post_survey.music_making,post_survey.listen_time,post_survey.medium,post_survey.music_seeking,post_survey.music_choice,post_survey.activities,post_survey.question1.Alternative rock,post_survey.question1.Reggae,post_survey.question1.Folk/indie,post_survey.question1.Country,post_survey.question1.A cappella,post_survey.question1.Electronic (EDM),post_survey.question1.Classic rock,post_survey.question1.Disco,post_survey.question1.Hip hop,post_survey.question1.Latin,post_survey.question1.R&B,post_survey.question1.Jazz,post_survey.question1.Classical,post_survey.question1.Pop,post_survey.question1.Metal,post_survey.question1.Ambient,post_survey.genres_ranked.text1,post_survey.genres_ranked.text2,post_survey.genres_ranked.text3,post_survey.habit_change,post_survey.habits,show_exp.thisRepN,show_exp.thisTrialN,show_exp.thisN,show_exp.thisIndex,show_exp.ran,goodbye.started,goodbye.stopped
0,1.4071,space,1.3909,,929959,001,2024-07-12_15h53.03.405,experiment,2024.1.5,Win32,48.07692308,657902cb3ec27ddda81b758f,6691931c2c63981b064e1f0c,6691b3aab15e4a1ba0c047e5,,,,,,,,,,,,,,,,,,,,,,,,,,,,,,,,,,,,,,,,,,,,,,,,,,,,,,,,,,,,,,,,,,,,,,,,,,,,,,,,,,,,,,,,,,,,,,,,,,,,,,,,,,,,,,,,,,,,,,,,,,,,,,
,,,,,929959,001,2024-07-12_15h53.03.405,experiment,2024.1.5,Win32,48.07692308,657902cb3ec27ddda81b758f,6691931c2c63981b064e1f0c,6691b3aab15e4a1ba0c047e5,yes,no,,,,,,,,,,,,,,,,,,,,,,,,,,,,,,,,,,,,,,,,,,,,,,,,,,,,,,,,,,,,,,,,,,,,,,,,,,,,,,,,,,,,,,,,,,,,,,,,,,,,,,,,,,,,,,,,,,,,,,,,,,,,
,,,,,929959,001,2024-07-12_15h53.03.405,experiment,2024.1.5,Win32,48.07692308,657902cb3ec27ddda81b758f,6691931c2c63981b064e1f0c,6691b3aab15e4a1ba0c047e5,,,9.8022,9.8023,,,,,,,,,,,,,,,,,,,,,,,,,,,,,,,,,,,,,,,,,,,,,,,,,,,,,,,,,,,,,,,,,,,,,,,,,,,,,,,,,,,,,,,,,,,,,,,,,,,,,,,,,,,,,,,,,,,,,,,,,,
,,,,,929959,001,2024-07-12_15h53.03.405,experiment,2024.1.5,Win32,48.07692308,657902cb3ec27ddda81b758f,6691931c2c63981b064e1f0c,6691b3aab15e4a1ba0c047e5,,,,,9.8035,12.8019,space,2.9801,,12.8027,29.8417,[-0.019512145499872968],[-0.42276422764227645],[1],[0],[0],[7.124500000000005],"[""play_button""]",y,15.9935,,0,0,0,0,1,,,,,,,,,,,,,,,,,,,,,,,,,,,,,,,,,,,,,,,,,,,,,,,,,,,,,,,,,,,,,,,,,,,,,,,,,,,,,,,,,,,,,,,,,,,,,,,,,,,,
,,,,,929959,001,2024-07-12_15h53.03.405,experiment,2024.1.5,Win32,48.07692308,657902cb3ec27ddda81b758f,6691931c2c63981b064e1f0c,6691b3aab15e4a1ba0c047e5,,,,,,,,,,,,,,,,,,,,,,,,,,,29.8424,35.591,space,5.7072,,35.5911,155.5979,155.5981,163.972,right,4.8301,,163.9722,173.575,space,9.5809,,173.5752,181.8028,0.153929589,-0.148509493,1,0,0,2.2083,compass_2,181.803,183.1568,space,1.338,,183.157,183.1707,183.1955,190.3018,0.174525729,0.214634138,1,0,0,1.1038,compass,0,0,0,22,1,SoundStimuli/Happy_PharellWilliams_Cover5S.wav,,,,,,,,,,,,,,,,,,,,,,,,,,,,,,,,,,,,,,,,,,,,,,,,,,,,
,,,,,929959,001,2024-07-12_15h53.03.405,experiment,2024.1.5,Win32,48.07692308,657902cb3ec27ddda81b758f,6691931c2c63981b064e1f0c,6691b3aab15e4a1ba0c047e5,,,,,,,,,,,,,,,,,,,,,,,,,,,,,,,,,,,,,,,,,,,,,,,,,,,,,,,,,,,,190.3096,197.1132,0.213550185,-0.120325228,1,0,0,0.7914,compass,0,1,1,7,1,SoundStimuli/MackTheKnife_BobbyDarin_Original5S.wav,,,,,,,,,,,,,,,,,,,,,,,,,,,,,,,,,,,,,,,,,,,,,,,,,,,,
,,,,,929959,001,2024-07-12_15h53.03.405,experiment,2024.1.5,Win32,48.07692308,657902cb3ec27ddda81b758f,6691931c2c63981b064e1f0c,6691b3aab15e4a1ba0c047e5,,,,,,,,,,,,,,,,,,,,,,,,,,,,,,,,,,,,,,,,,,,,,,,,,,,,,,,,,,,,197.1205,207.4248,0.158265566,-0.150677565,1,0,0,4.2915,compass,0,2,2,14,1,SoundStimuli/LikeARollingStone_BobDylan_Cover5S.wav,,,,,,,,,,,,,,,,,,,,,,,,,,,,,,,,,,,,,,,,,,,,,,,,,,,,
,,,,,929959,001,2024-07-12_15h53.03.405,experiment,2024.1.5,Win32,48.07692308,657902cb3ec27ddda81b758f,6691931c2c63981b064e1f0c,6691b3aab15e4a1ba0c047e5,,,,,,,,,,,,,,,,,,,,,,,,,,,,,,,,,,,,,,,,,,,,,,,,,,,,,,,,,,,,207.4365,213.8614,0.147425458,0.218970177,1,0,0,0.4167,compass,0,3,3,26,1,SoundStimuli/TheSign_AceOfBase_Original5S.wav,,,,,,,,,,,,,,,,,,,,,,,,,,,,,,,,,,,,,,,,,,,,,,,,,,,,
,,,,,929959,001,2024-07-12_15h53.03.405,experiment,2024.1.5,Win32,48.07692308,657902cb3ec27ddda81b758f,6691931c2c63981b064e1f0c,6691b3aab15e4a1ba0c047e5,,,,,,,,,,,,,,,,,,,,,,,,,,,,,,,,,,,,,,,,,,,,,,,,,,,,,,,,,,,,213.8771,220.444,-0.118157198,-0.178861789,1,0,0,0.5626,compass,0,4,4,13,1,SoundStimuli/Perfect_EdSheeran_Original5S.wav,,,,,,,,,,,,,,,,,,,,,,,,,,,,,,,,,,,,,,,,,,,,,,,,,,,,
,,,,,929959,001,2024-07-12_15h53.03.405,experiment,2024.1.5,Win32,48.07692308,657902cb3ec27ddda81b758f,6691931c2c63981b064e1f0c,6691b3aab15e4a1ba0c047e5,,,,,,,,,,,,,,,,,,,,,,,,,,,,,,,,,,,,,,,,,,,,,,,,,,,,,,,,,,,,220.4509,227.0267,-0.183197849,0.142005404,1,0,0,0.5624,compass,0,5,5,2,1,SoundStimuli/SmellsLikeTeenSpirit_Nirvana_Cover5S.wav,,,,,,,,,,,,,,,,,,,,,,,,,,,,,,,,,,,,,,,,,,,,,,,,,,,,
,,,,,929959,001,2024-07-12_15h53.03.405,experiment,2024.1.5,Win32,48.07692308,657902cb3ec27ddda81b758f,6691931c2c63981b064e1f0c,6691b3aab15e4a1ba0c047e5,,,,,,,,,,,,,,,,,,,,,,,,,,,,,,,,,,,,,,,,,,,,,,,,,,,,,,,,,,,,227.0417,233.8597,0.202710077,-0.185365878,1,0,0,0.8128,compass,0,6,6,19,1,SoundStimuli/YouLightUpMyLife_DebbyBoone_Cover5S.wav,,,,,,,,,,,,,,,,,,,,,,,,,,,,,,,,,,,,,,,,,,,,,,,,,,,,
,,,,,929959,001,2024-07-12_15h53.03.405,experiment,2024.1.5,Win32,48.07692308,657902cb3ec27ddda81b758f,6691931c2c63981b064e1f0c,6691b3aab15e4a1ba0c047e5,,,,,,,,,,,,,,,,,,,,,,,,,,,,,,,,,,,,,,,,,,,,,,,,,,,,,,,,,,,,233.884,242.1704,-0.191869803,0.227642276,1,0,0,1.4253,compass,0,7,7,11,1,SoundStimuli/BlurredLines_RobinThicke_Original5S.wav,,,,,,,,,,,,,,,,,,,,,,,,,,,,,,,,,,,,,,,,,,,,,,,,,,,,
,,,,,929959,001,2024-07-12_15h53.03.405,experiment,2024.1.5,Win32,48.07692308,657902cb3ec27ddda81b758f,6691931c2c63981b064e1f0c,6691b3aab15e4a1ba0c047e5,,,,,,,,,,,,,,,,,,,,,,,,,,,,,,,,,,,,,,,,,,,,,,,,,,,,,,,,,,,,242.1777,248.6698,-0.208129966,-0.099729088,1,0,0,0.4794,compass,0,8,8,28,1,SoundStimuli/IWantToHoldYourHand_TheBeatles_Cover5S.wav,,,,,,,,,,,,,,,,,,,,,,,,,,,,,,,,,,,,,,,,,,,,,,,,,,,,
,,,,,929959,001,2024-07-12_15h53.03.405,experiment,2024.1.5,Win32,48.07692308,657902cb3ec27ddda81b758f,6691931c2c63981b064e1f0c,6691b3aab15e4a1ba0c047e5,,,,,,,,,,,,,,,,,,,,,,,,,,,,,,,,,,,,,,,,,,,,,,,,,,,,,,,,,,,,248.6769,255.1897,0.153929589,0.140921409,1,0,0,0.5,compass,0,9,9,33,1,SoundStimuli/TheBoyIsMine_BrandyMonica_Cover5S.wav,,,,,,,,,,,,,,,,,,,,,,,,,,,,,,,,,,,,,,,,,,,,,,,,,,,,
,,,,,929959,001,2024-07-12_15h53.03.405,experiment,2024.1.5,Win32,48.07692308,657902cb3ec27ddda81b758f,6691931c2c63981b064e1f0c,6691b3aab15e4a1ba0c047e5,,,,,,,,,,,,,,,,,,,,,,,,,,,,,,,,,,,,,,,,,,,,,,,,,,,,,,,,,,,,255.1969,261.7099,0.153929589,0.140921409,1,0,0,0.5002,compass,0,10,10,4,1,SoundStimuli/Dreams_FleetwoodMac_Cover5S.wav,,,,,,,,,,,,,,,,,,,,,,,,,,,,,,,,,,,,,,,,,,,,,,,,,,,,
,,,,,929959,001,2024-07-12_15h53.03.405,experiment,2024.1.5,Win32,48.07692308,657902cb3ec27ddda81b758f,6691931c2c63981b064e1f0c,6691b3aab15e4a1ba0c047e5,,,,,,,,,,,,,,,,,,,,,,,,,,,,,,,,,,,,,,,,,,,,,,,,,,,,,,,,,,,,261.7177,268.7507,0.104065024,-0.211382114,1,0,0,1.0208,compass,0,11,11,32,1,SoundStimuli/Dilemma_NellyKellyRowland_Original5S.wav,,,,,,,,,,,,,,,,,,,,,,,,,,,,,,,,,,,,,,,,,,,,,,,,,,,,
,,,,,929959,001,2024-07-12_15h53.03.405,experiment,2024.1.5,Win32,48.07692308,657902cb3ec27ddda81b758f,6691931c2c63981b064e1f0c,6691b3aab15e4a1ba0c047e5,,,,,,,,,,,,,,,,,,,,,,,,,,,,,,,,,,,,,,,,,,,,,,,,,,,,,,,,,,,,268.7579,275.0625,-0.19295388,0.178861789,1,0,0,0.2917,compass,0,12,12,31,1,SoundStimuli/TossinAndTurnin_BobbyLewis_Cover5S.wav,,,,,,,,,,,,,,,,,,,,,,,,,,,,,,,,,,,,,,,,,,,,,,,,,,,,
,,,,,929959,001,2024-07-12_15h53.03.405,experiment,2024.1.5,Win32,48.07692308,657902cb3ec27ddda81b758f,6691931c2c63981b064e1f0c,6691b3aab15e4a1ba0c047e5,,,,,,,,,,,,,,,,,,,,,,,,,,,,,,,,,,,,,,,,,,,,,,,,,,,,,,,,,,,,275.0704,281.1035,0.145257469,-0.178861789,1,0,0,0.0208,compass,0,13,13,29,1,SoundStimuli/BetteDavisEyes_KimCarnes_Cover5S.wav,,,,,,,,,,,,,,,,,,,,,,,,,,,,,,,,,,,,,,,,,,,,,,,,,,,,
,,,,,929959,001,2024-07-12_15h53.03.405,experiment,2024.1.5,Win32,48.07692308,657902cb3ec27ddda81b758f,6691931c2c63981b064e1f0c,6691b3aab15e4a1ba0c047e5,,,,,,,,,,,,,,,,,,,,,,,,,,,,,,,,,,,,,,,,,,,,,,,,,,,,,,,,,,,,281.1108,287.7485,0.131165295,0.190785912,1,0,0,0.625,compass,0,14,14,1,1,SoundStimuli/Smooth_SantanaRobThomas_Cover5S.wav,,,,,,,,,,,,,,,,,,,,,,,,,,,,,,,,,,,,,,,,,,,,,,,,,,,,
,,,,,929959,001,2024-07-12_15h53.03.405,experiment,2024.1.5,Win32,48.07692308,657902cb3ec27ddda81b758f,6691931c2c63981b064e1f0c,6691b3aab15e4a1ba0c047e5,,,,,,,,,,,,,,,,,,,,,,,,,,,,,,,,,,,,,,,,,,,,,,,,,,,,,,,,,,,,287.7561,294.2062,0.134417361,-0.144173433,1,0,0,0.4379,compass,0,15,15,30,1,SoundStimuli/SomebodyThatIUsedtoKnow_Gotye_Cover5S.wav,,,,,,,,,,,,,,,,,,,,,,,,,,,,,,,,,,,,,,,,,,,,,,,,,,,,
,,,,,929959,001,2024-07-12_15h53.03.405,experiment,2024.1.5,Win32,48.07692308,657902cb3ec27ddda81b758f,6691931c2c63981b064e1f0c,6691b3aab15e4a1ba0c047e5,,,,,,,,,,,,,,,,,,,,,,,,,,,,,,,,,,,,,,,,,,,,,,,,,,,,,,,,,,,,294.217,302.7258,-0.212466108,-0.166937686,1,0,0,2.4997,compass,0,16,16,8,1,SoundStimuli/EndlessLove_DianaRossLionelRichie_Original5S.wav,,,,,,,,,,,,,,,,,,,,,,,,,,,,,,,,,,,,,,,,,,,,,,,,,,,,
,,,,,929959,001,2024-07-12_15h53.03.405,experiment,2024.1.5,Win32,48.07692308,657902cb3ec27ddda81b758f,6691931c2c63981b064e1f0c,6691b3aab15e4a1ba0c047e5,,,,,,,,,,,,,,,,,,,,,,,,,,,,,,,,,,,,,,,,,,,,,,,,,,,,,,,,,,,,302.7341,310.4956,0.215718174,0.184281843,1,0,0,1.7495,compass,0,17,17,0,1,SoundStimuli/GimmeShelter_RollingStones_Cover5S.wav,,,,,,,,,,,,,,,,,,,,,,,,,,,,,,,,,,,,,,,,,,,,,,,,,,,,
,,,,,929959,001,2024-07-12_15h53.03.405,experiment,2024.1.5,Win32,48.07692308,657902cb3ec27ddda81b758f,6691931c2c63981b064e1f0c,6691b3aab15e4a1ba0c047e5,,,,,,,,,,,,,,,,,,,,,,,,,,,,,,,,,,,,,,,,,,,,,,,,,,,,,,,,,,,,310.5033,317.1411,0.16368562,0.172357678,1,0,0,0.6251,compass,0,18,18,10,1,SoundStimuli/LeFreak_Chic_Original5S.wav,,,,,,,,,,,,,,,,,,,,,,,,,,,,,,,,,,,,,,,,,,,,,,,,,,,,
,,,,,929959,001,2024-07-12_15h53.03.405,experiment,2024.1.5,Win32,48.07692308,657902cb3ec27ddda81b758f,6691931c2c63981b064e1f0c,6691b3aab15e4a1ba0c047e5,,,,,,,,,,,,,,,,,,,,,,,,,,,,,,,,,,,,,,,,,,,,,,,,,,,,,,,,,,,,317.1566,325.2859,0.16368562,0.169105695,1,0,0,2.1245,compass,0,19,19,15,1,SoundStimuli/CrazyInLove_BeyonceFtJayZ_Original5S.wav,,,,,,,,,,,,,,,,,,,,,,,,,,,,,,,,,,,,,,,,,,,,,,,,,,,,
,,,,,929959,001,2024-07-12_15h53.03.405,experiment,2024.1.5,Win32,48.07692308,657902cb3ec27ddda81b758f,6691931c2c63981b064e1f0c,6691b3aab15e4a1ba0c047e5,,,,,,,,,,,,,,,,,,,,,,,,,,,,,,,,,,,,,,,,,,,,,,,,,,,,,,,,,,,,325.294,337.3261,-0.229810182,0.185365858,1,0,0,6.0202,compass,0,20,20,3,1,SoundStimuli/PartyRockAnthem_LMFAO_Cover5S.wav,,,,,,,,,,,,,,,,,,,,,,,,,,,,,,,,,,,,,,,,,,,,,,,,,,,,
,,,,,929959,001,2024-07-12_15h53.03.405,experiment,2024.1.5,Win32,48.07692308,657902cb3ec27ddda81b758f,6691931c2c63981b064e1f0c,6691b3aab15e4a1ba0c047e5,,,,,,,,,,,,,,,,,,,,,,,,,,,,,,,,,,,,,,,,,,,,,,,,,,,,,,,,,,,,337.3336,347.2624,-0.204878065,-0.133333325,1,0,0,3.9163,compass,0,21,21,21,1,SoundStimuli/BridgeOverTroubledWater_SimonAndGarfunkel_Cover5S.wav,,,,,,,,,,,,,,,,,,,,,,,,,,,,,,,,,,,,,,,,,,,,,,,,,,,,
,,,,,929959,001,2024-07-12_15h53.03.405,experiment,2024.1.5,Win32,48.07692308,657902cb3ec27ddda81b758f,6691931c2c63981b064e1f0c,6691b3aab15e4a1ba0c047e5,,,,,,,,,,,,,,,,,,,,,,,,,,,,,,,,,,,,,,,,,,,,,,,,,,,,,,,,,,,,347.2811,356.8027,0.133333366,-0.135501355,1,0,0,3.5198,compass,0,22,22,27,1,SoundStimuli/EyeOfTheTiger_Survivor_Original5S.wav,,,,,,,,,,,,,,,,,,,,,,,,,,,,,,,,,,,,,,,,,,,,,,,,,,,,
,,,,,929959,001,2024-07-12_15h53.03.405,experiment,2024.1.5,Win32,48.07692308,657902cb3ec27ddda81b758f,6691931c2c63981b064e1f0c,6691b3aab15e4a1ba0c047e5,,,,,,,,,,,,,,,,,,,,,,,,,,,,,,,,,,,,,,,,,,,,,,,,,,,,,,,,,,,,356.8103,363.8444,-0.222222222,-0.092140921,1,0,0,1.0212,compass,0,23,23,17,1,SoundStimuli/IWannaDanceWithSomebody_WhitneyHouston_Cover5S.wav,,,,,,,,,,,,,,,,,,,,,,,,,,,,,,,,,,,,,,,,,,,,,,,,,,,,
,,,,,929959,001,2024-07-12_15h53.03.405,experiment,2024.1.5,Win32,48.07692308,657902cb3ec27ddda81b758f,6691931c2c63981b064e1f0c,6691b3aab15e4a1ba0c047e5,,,,,,,,,,,,,,,,,,,,,,,,,,,,,,,,,,,,,,,,,,,,,,,,,,,,,,,,,,,,363.8634,370.593,0.170189752,-0.220054234,1,0,0,0.7292,compass,0,24,24,6,1,SoundStimuli/SaveYourTears_TheWeekndArianaGrande_Original5S.wav,,,,,,,,,,,,,,,,,,,,,,,,,,,,,,,,,,,,,,,,,,,,,,,,,,,,
,,,,,929959,001,2024-07-12_15h53.03.405,experiment,2024.1.5,Win32,48.07692308,657902cb3ec27ddda81b758f,6691931c2c63981b064e1f0c,6691b3aab15e4a1ba0c047e5,,,,,,,,,,,,,,,,,,,,,,,,,,,,,,,,,,,,,,,,,,,,,,,,,,,,,,,,,,,,370.6002,378.0296,-0.158265566,-0.202710077,1,0,0,1.4163,compass,0,25,25,9,1,SoundStimuli/HowDoILive_LeAnnRimes_Original5S.wav,,,,,,,,,,,,,,,,,,,,,,,,,,,,,,,,,,,,,,,,,,,,,,,,,,,,
,,,,,929959,001,2024-07-12_15h53.03.405,experiment,2024.1.5,Win32,48.07692308,657902cb3ec27ddda81b758f,6691931c2c63981b064e1f0c,6691b3aab15e4a1ba0c047e5,,,,,,,,,,,,,,,,,,,,,,,,,,,,,,,,,,,,,,,,,,,,,,,,,,,,,,,,,,,,378.037,385.1961,0.058536602,-0.224390294,1,0,0,1.1465,compass,0,26,26,16,1,SoundStimuli/ItsAllInTheGame_TommyEdwards_Original5S.wav,,,,,,,,,,,,,,,,,,,,,,,,,,,,,,,,,,,,,,,,,,,,,,,,,,,,
,,,,,929959,001,2024-07-12_15h53.03.405,experiment,2024.1.5,Win32,48.07692308,657902cb3ec27ddda81b758f,6691931c2c63981b064e1f0c,6691b3aab15e4a1ba0c047e5,,,,,,,,,,,,,,,,,,,,,,,,,,,,,,,,,,,,,,,,,,,,,,,,,,,,,,,,,,,,385.2214,391.8825,-0.209214043,-0.19187001,1,0,0,0.646,compass,0,27,27,18,1,SoundStimuli/Weak_SWV_Original5S.wav,,,,,,,,,,,,,,,,,,,,,,,,,,,,,,,,,,,,,,,,,,,,,,,,,,,,
,,,,,929959,001,2024-07-12_15h53.03.405,experiment,2024.1.5,Win32,48.07692308,657902cb3ec27ddda81b758f,6691931c2c63981b064e1f0c,6691b3aab15e4a1ba0c047e5,,,,,,,,,,,,,,,,,,,,,,,,,,,,,,,,,,,,,,,,,,,,,,,,,,,,,,,,,,,,391.8897,398.5477,-0.209214043,-0.19187001,1,0,0,0.6456,compass,0,28,28,23,1,SoundStimuli/IWalkTheLine_JohnnyCash_Cover5S.wav,,,,,,,,,,,,,,,,,,,,,,,,,,,,,,,,,,,,,,,,,,,,,,,,,,,,
,,,,,929959,001,2024-07-12_15h53.03.405,experiment,2024.1.5,Win32,48.07692308,657902cb3ec27ddda81b758f,6691931c2c63981b064e1f0c,6691b3aab15e4a1ba0c047e5,,,,,,,,,,,,,,,,,,,,,,,,,,,,,,,,,,,,,,,,,,,,,,,,,,,,,,,,,,,,398.5564,405.0681,-0.280758824,0.236314355,1,0,0,0.5002,compass,0,29,29,34,1,SoundStimuli/Irreplaceable_Beyonce_Original5S.wav,,,,,,,,,,,,,,,,,,,,,,,,,,,,,,,,,,,,,,,,,,,,,,,,,,,,
,,,,,929959,001,2024-07-12_15h53.03.405,experiment,2024.1.5,Win32,48.07692308,657902cb3ec27ddda81b758f,6691931c2c63981b064e1f0c,6691b3aab15e4a1ba0c047e5,,,,,,,,,,,,,,,,,,,,,,,,,,,,,,,,,,,,,,,,,,,,,,,,,,,,,,,,,,,,405.0761,412.0049,0.147425458,-0.099729088,1,0,0,0.9169,compass,0,30,30,12,1,SoundStimuli/UnbreakMyHeart_ToniBraxton_Cover5S.wav,,,,,,,,,,,,,,,,,,,,,,,,,,,,,,,,,,,,,,,,,,,,,,,,,,,,
,,,,,929959,001,2024-07-12_15h53.03.405,experiment,2024.1.5,Win32,48.07692308,657902cb3ec27ddda81b758f,6691931c2c63981b064e1f0c,6691b3aab15e4a1ba0c047e5,,,,,,,,,,,,,,,,,,,,,,,,,,,,,,,,,,,,,,,,,,,,,,,,,,,,,,,,,,,,412.012,418.2746,-0.308943089,0.23523034,1,0,0,0.25,compass,0,31,31,5,1,SoundStimuli/JoyToTheWorld_ThreeDogNight_Cover5S.wav,,,,,,,,,,,,,,,,,,,,,,,,,,,,,,,,,,,,,,,,,,,,,,,,,,,,
,,,,,929959,001,2024-07-12_15h53.03.405,experiment,2024.1.5,Win32,48.07692308,657902cb3ec27ddda81b758f,6691931c2c63981b064e1f0c,6691b3aab15e4a1ba0c047e5,,,,,,,,,,,,,,,,,,,,,,,,,,,,,,,,,,,,,,,,,,,,,,,,,,,,,,,,,,,,418.2823,425.9195,0.123577252,-0.195121951,1,0,0,1.625,compass,0,32,32,20,1,SoundStimuli/FlashdanceWhatAFeeling_IreneCara_Cover5S.wav,,,,,,,,,,,,,,,,,,,,,,,,,,,,,,,,,,,,,,,,,,,,,,,,,,,,
,,,,,929959,001,2024-07-12_15h53.03.405,experiment,2024.1.5,Win32,48.07692308,657902cb3ec27ddda81b758f,6691931c2c63981b064e1f0c,6691b3aab15e4a1ba0c047e5,,,,,,,,,,,,,,,,,,,,,,,,,,,,,,,,,,,,,,,,,,,,,,,,,,,,,,,,,,,,425.9271,432.9399,0.137669426,0.147425458,1,0,0,1.0004,compass,0,33,33,24,1,SoundStimuli/Kiss_Prince_Original5S.wav,,,,,,,,,,,,,,,,,,,,,,,,,,,,,,,,,,,,,,,,,,,,,,,,,,,,
,,,,,929959,001,2024-07-12_15h53.03.405,experiment,2024.1.5,Win32,48.07692308,657902cb3ec27ddda81b758f,6691931c2c63981b064e1f0c,6691b3aab15e4a1ba0c047e5,,,,,,,,,,,,,,,,,,,,,,,,,,,,,,,,,,,,,,,,,,,,,,,,,,,,,,,,,,,,432.9491,440.8968,-0.19295388,-0.054200542,1,0,0,1.937,compass,0,34,34,25,1,SoundStimuli/IllMakeLoveToYou_BoyzIIMen_Original5S.wav,,,,,,,,,,,,,,,,,,,,,,,,,,,,,,,,,,,,,,,,,,,,,,,,,,,,
,,,,,929959,001,2024-07-12_15h53.03.405,experiment,2024.1.5,Win32,48.07692308,657902cb3ec27ddda81b758f,6691931c2c63981b064e1f0c,6691b3aab15e4a1ba0c047e5,,,,,,,,,,,,,,,,,,,,,,,,,,,,,,,,,,,,,,,,,,,,,,,,,,,,,,,,,,,,,,,,,,,,,,,,,,,440.9046,442.6264,space,1.7037,,442.6265,445.7301,right,3.076,,0,0,0,0,1,block_order/blockB.xlsx,,,,,,,,,,,,,,,,,,,,,,,,,,,,,,,,,,,,
,,,,,929959,001,2024-07-12_15h53.03.405,experiment,2024.1.5,Win32,48.07692308,657902cb3ec27ddda81b758f,6691931c2c63981b064e1f0c,6691b3aab15e4a1ba0c047e5,,,,,,,,,,,,,,,,,,,,,,,,,,,,,,,,,,,,,,,,,,,,,,,,,,,,,,,,,,,,445.7422,452.3126,-0.106233013,-0.16585365,1,0,0,0.5625,compass,0,0,0,33,1,SoundStimuli/StandByMe_BenEKing_Cover5S.wav,,,,,,,,,,,,,,,,,,,,,,,,,,,,,,,,,,,,,,,,,,,,,,,,,,,,
,,,,,929959,001,2024-07-12_15h53.03.405,experiment,2024.1.5,Win32,48.07692308,657902cb3ec27ddda81b758f,6691931c2c63981b064e1f0c,6691b3aab15e4a1ba0c047e5,,,,,,,,,,,,,,,,,,,,,,,,,,,,,,,,,,,,,,,,,,,,,,,,,,,,,,,,,,,,452.32,507.4321,,,,,,,,0,1,1,22,1,SoundStimuli/RockWithYou_MichaelJackson_Original5S.wav,,,,,,,,,,,,,,,,,,,,,,,,,,,,,,,,,,,,,,,,,,,,,,,,,,,,
,,,,,929959,001,2024-07-12_15h53.03.405,experiment,2024.1.5,Win32,48.07692308,657902cb3ec27ddda81b758f,6691931c2c63981b064e1f0c,6691b3aab15e4a1ba0c047e5,,,,,,,,,,,,,,,,,,,,,,,,,,,,,,,,,,,,,,,,,,,,,,,,,,,,,,,,,,,,507.4399,514.8689,-0.136585349,0.140921409,1,0,0,1.4171,compass,0,2,2,17,1,SoundStimuli/Fallin_AliciaKeys_Original5S.wav,,,,,,,,,,,,,,,,,,,,,,,,,,,,,,,,,,,,,,,,,,,,,,,,,,,,
,,,,,929959,001,2024-07-12_15h53.03.405,experiment,2024.1.5,Win32,48.07692308,657902cb3ec27ddda81b758f,6691931c2c63981b064e1f0c,6691b3aab15e4a1ba0c047e5,,,,,,,,,,,,,,,,,,,,,,,,,,,,,,,,,,,,,,,,,,,,,,,,,,,,,,,,,,,,514.8951,525.9292,-0.148509369,0.106233054,1,0,0,5.0205,compass,0,3,3,34,1,SoundStimuli/AChangeIsGonnaCome_SamCooke_Cover5S.wav,,,,,,,,,,,,,,,,,,,,,,,,,,,,,,,,,,,,,,,,,,,,,,,,,,,,
,,,,,929959,001,2024-07-12_15h53.03.405,experiment,2024.1.5,Win32,48.07692308,657902cb3ec27ddda81b758f,6691931c2c63981b064e1f0c,6691b3aab15e4a1ba0c047e5,,,,,,,,,,,,,,,,,,,,,,,,,,,,,,,,,,,,,,,,,,,,,,,,,,,,,,,,,,,,525.9404,532.5947,0.295934992,-0.144173433,1,0,0,0.6458,compass,0,4,4,5,1,SoundStimuli/MyGirl_TheTemptations_Original5S.wav,,,,,,,,,,,,,,,,,,,,,,,,,,,,,,,,,,,,,,,,,,,,,,,,,,,,
,,,,,929959,001,2024-07-12_15h53.03.405,experiment,2024.1.5,Win32,48.07692308,657902cb3ec27ddda81b758f,6691931c2c63981b064e1f0c,6691b3aab15e4a1ba0c047e5,,,,,,,,,,,,,,,,,,,,,,,,,,,,,,,,,,,,,,,,,,,,,,,,,,,,,,,,,,,,532.6026,539.6773,-0.132249207,0.20379403,1,0,0,1.0627,compass,0,5,5,6,1,SoundStimuli/Levitating_DuaLipa_Cover5S.wav,,,,,,,,,,,,,,,,,,,,,,,,,,,,,,,,,,,,,,,,,,,,,,,,,,,,
,,,,,929959,001,2024-07-12_15h53.03.405,experiment,2024.1.5,Win32,48.07692308,657902cb3ec27ddda81b758f,6691931c2c63981b064e1f0c,6691b3aab15e4a1ba0c047e5,,,,,,,,,,,,,,,,,,,,,,,,,,,,,,,,,,,,,,,,,,,,,,,,,,,,,,,,,,,,539.6849,546.4887,0.063956656,-0.084552837,1,0,0,0.7915,compass,0,6,6,1,1,SoundStimuli/Stronger_KanyeWest_Original5S.wav,,,,,,,,,,,,,,,,,,,,,,,,,,,,,,,,,,,,,,,,,,,,,,,,,,,,
,,,,,929959,001,2024-07-12_15h53.03.405,experiment,2024.1.5,Win32,48.07692308,657902cb3ec27ddda81b758f,6691931c2c63981b064e1f0c,6691b3aab15e4a1ba0c047e5,,,,,,,,,,,,,,,,,,,,,,,,,,,,,,,,,,,,,,,,,,,,,,,,,,,,,,,,,,,,546.4964,552.8641,0.214634179,0.164769615,1,0,0,0.3552,compass,0,7,7,14,1,SoundStimuli/BlindingLights_TheWeeknd_Original5S.wav,,,,,,,,,,,,,,,,,,,,,,,,,,,,,,,,,,,,,,,,,,,,,,,,,,,,
,,,,,929959,001,2024-07-12_15h53.03.405,experiment,2024.1.5,Win32,48.07692308,657902cb3ec27ddda81b758f,6691931c2c63981b064e1f0c,6691b3aab15e4a1ba0c047e5,,,,,,,,,,,,,,,,,,,,,,,,,,,,,,,,,,,,,,,,,,,,,,,,,,,,,,,,,,,,552.8846,560.0913,0.093224916,-0.127913271,1,0,0,1.1867,compass,0,8,8,28,1,SoundStimuli/ComeAndGetYourLove_Redbone_Original5S.wav,,,,,,,,,,,,,,,,,,,,,,,,,,,,,,,,,,,,,,,,,,,,,,,,,,,,
,,,,,929959,001,2024-07-12_15h53.03.405,experiment,2024.1.5,Win32,48.07692308,657902cb3ec27ddda81b758f,6691931c2c63981b064e1f0c,6691b3aab15e4a1ba0c047e5,,,,,,,,,,,,,,,,,,,,,,,,,,,,,,,,,,,,,,,,,,,,,,,,,,,,,,,,,,,,560.0984,567.0492,0.07804883,-0.133333325,1,0,0,0.9375,compass,0,9,9,27,1,SoundStimuli/ShapeofYou_EdSheeran_Original5S.wav,,,,,,,,,,,,,,,,,,,,,,,,,,,,,,,,,,,,,,,,,,,,,,,,,,,,
,,,,,929959,001,2024-07-12_15h53.03.405,experiment,2024.1.5,Win32,48.07692308,657902cb3ec27ddda81b758f,6691931c2c63981b064e1f0c,6691b3aab15e4a1ba0c047e5,,,,,,,,,,,,,,,,,,,,,,,,,,,,,,,,,,,,,,,,,,,,,,,,,,,,,,,,,,,,567.0565,573.8813,0.136585349,-0.209214125,1,0,0,0.812,compass,0,10,10,32,1,SoundStimuli/HeatWaves_GlassAnimals_Original5S.wav,,,,,,,,,,,,,,,,,,,,,,,,,,,,,,,,,,,,,,,,,,,,,,,,,,,,
,,,,,929959,001,2024-07-12_15h53.03.405,experiment,2024.1.5,Win32,48.07692308,657902cb3ec27ddda81b758f,6691931c2c63981b064e1f0c,6691b3aab15e4a1ba0c047e5,,,,,,,,,,,,,,,,,,,,,,,,,,,,,,,,,,,,,,,,,,,,,,,,,,,,,,,,,,,,573.8884,580.9848,0.1766938,-0.171273704,1,0,0,1.0832,compass,0,11,11,3,1,SoundStimuli/NoScrubs_TLC_Original5S.wav,,,,,,,,,,,,,,,,,,,,,,,,,,,,,,,,,,,,,,,,,,,,,,,,,,,,
,,,,,929959,001,2024-07-12_15h53.03.405,experiment,2024.1.5,Win32,48.07692308,657902cb3ec27ddda81b758f,6691931c2c63981b064e1f0c,6691b3aab15e4a1ba0c047e5,,,,,,,,,,,,,,,,,,,,,,,,,,,,,,,,,,,,,,,,,,,,,,,,,,,,,,,,,,,,580.9933,587.7132,0.152845512,-0.142005445,1,0,0,0.7078,compass,0,12,12,8,1,SoundStimuli/LikeAPrayer_Madonna_Original5S.wav,,,,,,,,,,,,,,,,,,,,,,,,,,,,,,,,,,,,,,,,,,,,,,,,,,,,
,,,,,929959,001,2024-07-12_15h53.03.405,experiment,2024.1.5,Win32,48.07692308,657902cb3ec27ddda81b758f,6691931c2c63981b064e1f0c,6691b3aab15e4a1ba0c047e5,,,,,,,,,,,,,,,,,,,,,,,,,,,,,,,,,,,,,,,,,,,,,,,,,,,,,,,,,,,,587.7205,594.4208,-0.202709911,0.19945799,1,0,0,0.6878,compass,0,13,13,25,1,SoundStimuli/Respect_ArethaFranklin_Original5S.wav,,,,,,,,,,,,,,,,,,,,,,,,,,,,,,,,,,,,,,,,,,,,,,,,,,,,
,,,,,929959,001,2024-07-12_15h53.03.405,experiment,2024.1.5,Win32,48.07692308,657902cb3ec27ddda81b758f,6691931c2c63981b064e1f0c,6691b3aab15e4a1ba0c047e5,,,,,,,,,,,,,,,,,,,,,,,,,,,,,,,,,,,,,,,,,,,,,,,,,,,,,,,,,,,,594.4282,600.9615,-0.235230237,-0.118157239,1,0,0,0.5207,compass,0,14,14,13,1,SoundStimuli/GodOnlyKnows_TheBeachBoys_Cover5S.wav,,,,,,,,,,,,,,,,,,,,,,,,,,,,,,,,,,,,,,,,,,,,,,,,,,,,
,,,,,929959,001,2024-07-12_15h53.03.405,experiment,2024.1.5,Win32,48.07692308,657902cb3ec27ddda81b758f,6691931c2c63981b064e1f0c,6691b3aab15e4a1ba0c047e5,,,,,,,,,,,,,,,,,,,,,,,,,,,,,,,,,,,,,,,,,,,,,,,,,,,,,,,,,,,,600.9699,607.7527,0.144173475,0.174525749,1,0,0,0.7706,compass,0,15,15,7,1,SoundStimuli/NoOne_AliciaKeys_Cover5S.wav,,,,,,,,,,,,,,,,,,,,,,,,,,,,,,,,,,,,,,,,,,,,,,,,,,,,
,,,,,929959,001,2024-07-12_15h53.03.405,experiment,2024.1.5,Win32,48.07692308,657902cb3ec27ddda81b758f,6691931c2c63981b064e1f0c,6691b3aab15e4a1ba0c047e5,,,,,,,,,,,,,,,,,,,,,,,,,,,,,,,,,,,,,,,,,,,,,,,,,,,,,,,,,,,,607.7684,614.6474,-0.155013501,-0.093224957,1,0,0,0.8741,compass,0,16,16,11,1,SoundStimuli/Superstition_StevieWonder_Cover5S.wav,,,,,,,,,,,,,,,,,,,,,,,,,,,,,,,,,,,,,,,,,,,,,,,,,,,,
,,,,,929959,001,2024-07-12_15h53.03.405,experiment,2024.1.5,Win32,48.07692308,657902cb3ec27ddda81b758f,6691931c2c63981b064e1f0c,6691b3aab15e4a1ba0c047e5,,,,,,,,,,,,,,,,,,,,,,,,,,,,,,,,,,,,,,,,,,,,,,,,,,,,,,,,,,,,614.6555,624.3552,-0.156097578,-0.086720867,1,0,0,3.6872,compass,0,17,17,31,1,SoundStimuli/TheBattleOfNewOrleans_JohnnyHorton_Cover5S.wav,,,,,,,,,,,,,,,,,,,,,,,,,,,,,,,,,,,,,,,,,,,,,,,,,,,,
,,,,,929959,001,2024-07-12_15h53.03.405,experiment,2024.1.5,Win32,48.07692308,657902cb3ec27ddda81b758f,6691931c2c63981b064e1f0c,6691b3aab15e4a1ba0c047e5,,,,,,,,,,,,,,,,,,,,,,,,,,,,,,,,,,,,,,,,,,,,,,,,,,,,,,,,,,,,624.3686,631.0829,0.243902439,-0.117073162,1,0,0,0.7083,compass,0,18,18,10,1,SoundStimuli/BadDay_DanielPowter_Cover5S.wav,,,,,,,,,,,,,,,,,,,,,,,,,,,,,,,,,,,,,,,,,,,,,,,,,,,,
,,,,,929959,001,2024-07-12_15h53.03.405,experiment,2024.1.5,Win32,48.07692308,657902cb3ec27ddda81b758f,6691931c2c63981b064e1f0c,6691b3aab15e4a1ba0c047e5,,,,,,,,,,,,,,,,,,,,,,,,,,,,,,,,,,,,,,,,,,,,,,,,,,,,,,,,,,,,631.0904,638.1657,0.243902439,-0.117073162,1,0,0,1.0626,compass,0,19,19,18,1,SoundStimuli/AnotherOneBitesTheDust_Queen_Original5S.wav,,,,,,,,,,,,,,,,,,,,,,,,,,,,,,,,,,,,,,,,,,,,,,,,,,,,
,,,,,929959,001,2024-07-12_15h53.03.405,experiment,2024.1.5,Win32,48.07692308,657902cb3ec27ddda81b758f,6691931c2c63981b064e1f0c,6691b3aab15e4a1ba0c047e5,,,,,,,,,,,,,,,,,,,,,,,,,,,,,,,,,,,,,,,,,,,,,,,,,,,,,,,,,,,,638.1741,646.394,-0.185365837,0.220054192,1,0,0,2.2078,compass,0,20,20,23,1,SoundStimuli/StrawberryFieldsForever_TheBeatles_Original5S.wav,,,,,,,,,,,,,,,,,,,,,,,,,,,,,,,,,,,,,,,,,,,,,,,,,,,,
,,,,,929959,001,2024-07-12_15h53.03.405,experiment,2024.1.5,Win32,48.07692308,657902cb3ec27ddda81b758f,6691931c2c63981b064e1f0c,6691b3aab15e4a1ba0c047e5,,,,,,,,,,,,,,,,,,,,,,,,,,,,,,,,,,,,,,,,,,,,,,,,,,,,,,,,,,,,646.4032,655.4138,-0.187533826,-0.085636873,1,0,0,2.9995,compass,0,21,21,2,1,SoundStimuli/Mood_24kGoldnianndior_Cover5S.wav,,,,,,,,,,,,,,,,,,,,,,,,,,,,,,,,,,,,,,,,,,,,,,,,,,,,
,,,,,929959,001,2024-07-12_15h53.03.405,experiment,2024.1.5,Win32,48.07692308,657902cb3ec27ddda81b758f,6691931c2c63981b064e1f0c,6691b3aab15e4a1ba0c047e5,,,,,,,,,,,,,,,,,,,,,,,,,,,,,,,,,,,,,,,,,,,,,,,,,,,,,,,,,,,,655.4214,663.768,0.100813041,0.084552837,1,0,0,2.3336,compass,0,22,22,4,1,SoundStimuli/GetUrFreakOn_MissyElliot_Original5S.wav,,,,,,,,,,,,,,,,,,,,,,,,,,,,,,,,,,,,,,,,,,,,,,,,,,,,
,,,,,929959,001,2024-07-12_15h53.03.405,experiment,2024.1.5,Win32,48.07692308,657902cb3ec27ddda81b758f,6691931c2c63981b064e1f0c,6691b3aab15e4a1ba0c047e5,,,,,,,,,,,,,,,,,,,,,,,,,,,,,,,,,,,,,,,,,,,,,,,,,,,,,,,,,,,,663.7945,673.3283,-0.169105675,-0.125745282,1,0,0,3.5205,compass,0,23,23,19,1,SoundStimuli/LetsGetItOn_MarvinGaye_Cover5S.wav,,,,,,,,,,,,,,,,,,,,,,,,,,,,,,,,,,,,,,,,,,,,,,,,,,,,
,,,,,929959,001,2024-07-12_15h53.03.405,experiment,2024.1.5,Win32,48.07692308,657902cb3ec27ddda81b758f,6691931c2c63981b064e1f0c,6691b3aab15e4a1ba0c047e5,,,,,,,,,,,,,,,,,,,,,,,,,,,,,,,,,,,,,,,,,,,,,,,,,,,,,,,,,,,,673.3359,680.1194,0.164769697,0.119241192,1,0,0,0.7705,compass,0,24,24,0,1,SoundStimuli/StayinAlive_BeeGees_Original5S.wav,,,,,,,,,,,,,,,,,,,,,,,,,,,,,,,,,,,,,,,,,,,,,,,,,,,,
,,,,,929959,001,2024-07-12_15h53.03.405,experiment,2024.1.5,Win32,48.07692308,657902cb3ec27ddda81b758f,6691931c2c63981b064e1f0c,6691b3aab15e4a1ba0c047e5,,,,,,,,,,,,,,,,,,,,,,,,,,,,,,,,,,,,,,,,,,,,,,,,,,,,,,,,,,,,680.1288,688.8897,0.147425458,-0.148509493,1,0,0,2.7503,compass,0,25,25,9,1,SoundStimuli/Despacito_LuisFonsiDaddyYankee_Cover5S.wav,,,,,,,,,,,,,,,,,,,,,,,,,,,,,,,,,,,,,,,,,,,,,,,,,,,,
,,,,,929959,001,2024-07-12_15h53.03.405,experiment,2024.1.5,Win32,48.07692308,657902cb3ec27ddda81b758f,6691931c2c63981b064e1f0c,6691b3aab15e4a1ba0c047e5,,,,,,,,,,,,,,,,,,,,,,,,,,,,,,,,,,,,,,,,,,,,,,,,,,,,,,,,,,,,688.897,700.0547,-0.053116548,-0.146341463,1,0,0,5.1458,compass,0,26,26,21,1,SoundStimuli/GoodGollyMissMolly_LittleRichard_Cover5S.wav,,,,,,,,,,,,,,,,,,,,,,,,,,,,,,,,,,,,,,,,,,,,,,,,,,,,
,,,,,929959,001,2024-07-12_15h53.03.405,experiment,2024.1.5,Win32,48.07692308,657902cb3ec27ddda81b758f,6691931c2c63981b064e1f0c,6691b3aab15e4a1ba0c047e5,,,,,,,,,,,,,,,,,,,,,,,,,,,,,,,,,,,,,,,,,,,,,,,,,,,,,,,,,,,,700.0622,706.9076,0.128997307,0.127913271,1,0,0,0.8324,compass,0,27,27,24,1,SoundStimuli/UptownFunk_MarkRonson_Original5S.wav,,,,,,,,,,,,,,,,,,,,,,,,,,,,,,,,,,,,,,,,,,,,,,,,,,,,
,,,,,929959,001,2024-07-12_15h53.03.405,experiment,2024.1.5,Win32,48.07692308,657902cb3ec27ddda81b758f,6691931c2c63981b064e1f0c,6691b3aab15e4a1ba0c047e5,,,,,,,,,,,,,,,,,,,,,,,,,,,,,,,,,,,,,,,,,,,,,,,,,,,,,,,,,,,,706.9152,716.886,-0.149593446,-0.228726271,1,0,0,3.9583,compass,0,28,28,26,1,SoundStimuli/LivinOnAPrayer_BonJovi_Cover5S.wav,,,,,,,,,,,,,,,,,,,,,,,,,,,,,,,,,,,,,,,,,,,,,,,,,,,,
,,,,,929959,001,2024-07-12_15h53.03.405,experiment,2024.1.5,Win32,48.07692308,657902cb3ec27ddda81b758f,6691931c2c63981b064e1f0c,6691b3aab15e4a1ba0c047e5,,,,,,,,,,,,,,,,,,,,,,,,,,,,,,,,,,,,,,,,,,,,,,,,,,,,,,,,,,,,716.8937,742.7163,-0.196205946,-0.235230402,1,0,0,19.8104,compass,0,29,29,16,1,SoundStimuli/BohemianRhapsody_Queen_Original5S.wav,,,,,,,,,,,,,,,,,,,,,,,,,,,,,,,,,,,,,,,,,,,,,,,,,,,,
,,,,,929959,001,2024-07-12_15h53.03.405,experiment,2024.1.5,Win32,48.07692308,657902cb3ec27ddda81b758f,6691931c2c63981b064e1f0c,6691b3aab15e4a1ba0c047e5,,,,,,,,,,,,,,,,,,,,,,,,,,,,,,,,,,,,,,,,,,,,,,,,,,,,,,,,,,,,742.7293,750.5065,0.130081301,-0.27967483,1,0,0,1.7703,compass,0,30,30,15,1,SoundStimuli/TikTok_Kesha_Cover5S.wav,,,,,,,,,,,,,,,,,,,,,,,,,,,,,,,,,,,,,,,,,,,,,,,,,,,,
,,,,,929959,001,2024-07-12_15h53.03.405,experiment,2024.1.5,Win32,48.07692308,657902cb3ec27ddda81b758f,6691931c2c63981b064e1f0c,6691b3aab15e4a1ba0c047e5,,,,,,,,,,,,,,,,,,,,,,,,,,,,,,,,,,,,,,,,,,,,,,,,,,,,,,,,,,,,750.5139,759.3182,0.157181572,-0.229810348,1,0,0,2.7914,compass,0,31,31,29,1,SoundStimuli/OldTownRoad_LilNasX_Original5S.wav,,,,,,,,,,,,,,,,,,,,,,,,,,,,,,,,,,,,,,,,,,,,,,,,,,,,
,,,,,929959,001,2024-07-12_15h53.03.405,experiment,2024.1.5,Win32,48.07692308,657902cb3ec27ddda81b758f,6691931c2c63981b064e1f0c,6691b3aab15e4a1ba0c047e5,,,,,,,,,,,,,,,,,,,,,,,,,,,,,,,,,,,,,,,,,,,,,,,,,,,,,,,,,,,,759.3264,769.9833,-0.236314314,-0.196205946,1,0,0,4.6451,compass,0,32,32,12,1,SoundStimuli/IWillAlwaysLoveYou_WhitneyHouston_Cover5S.wav,,,,,,,,,,,,,,,,,,,,,,,,,,,,,,,,,,,,,,,,,,,,,,,,,,,,
,,,,,929959,001,2024-07-12_15h53.03.405,experiment,2024.1.5,Win32,48.07692308,657902cb3ec27ddda81b758f,6691931c2c63981b064e1f0c,6691b3aab15e4a1ba0c047e5,,,,,,,,,,,,,,,,,,,,,,,,,,,,,,,,,,,,,,,,,,,,,,,,,,,,,,,,,,,,769.9906,779.0461,0.105149101,0.229810244,1,0,0,3.0422,compass,0,33,33,30,1,SoundStimuli/PokerFace_LadyGaga_Original5S.wav,,,,,,,,,,,,,,,,,,,,,,,,,,,,,,,,,,,,,,,,,,,,,,,,,,,,
,,,,,929959,001,2024-07-12_15h53.03.405,experiment,2024.1.5,Win32,48.07692308,657902cb3ec27ddda81b758f,6691931c2c63981b064e1f0c,6691b3aab15e4a1ba0c047e5,,,,,,,,,,,,,,,,,,,,,,,,,,,,,,,,,,,,,,,,,,,,,,,,,,,,,,,,,,,,779.0578,786.3358,-0.122493175,-0.113821138,1,0,0,1.2707,compass,0,34,34,20,1,SoundStimuli/HeyYa_Outkast_Cover5S.wav,,,,,,,,,,,,,,,,,,,,,,,,,,,,,,,,,,,,,,,,,,,,,,,,,,,,
,,,,,929959,001,2024-07-12_15h53.03.405,experiment,2024.1.5,Win32,48.07692308,657902cb3ec27ddda81b758f,6691931c2c63981b064e1f0c,6691b3aab15e4a1ba0c047e5,,,,,,,,,,,,,,,,,,,,,,,,,,,,,,,,,,,,,,,,,,,,,,,,,,,,,,,,,,,,,,,,,,,,,,,,,,,786.3359,796.8557,space,10.5045,,796.8558,799.647,right,2.7692,,0,1,1,1,1,block_order/blockA.xlsx,,,,,,,,,,,,,,,,,,,,,,,,,,,,,,,,,,,,
,,,,,929959,001,2024-07-12_15h53.03.405,experiment,2024.1.5,Win32,48.07692308,657902cb3ec27ddda81b758f,6691931c2c63981b064e1f0c,6691b3aab15e4a1ba0c047e5,,,,,,,,,,,,,,,,,,,,,,,,,,,,,,,,,,,,,,,,,,,,,,,,,,,,,,,,,,,,799.6602,806.3754,-0.237398391,0.155013542,1,0,0,0.7086,compass,0,0,0,7,1,SoundStimuli/MackTheKnife_BobbyDarin_Cover5S.wav,,,,,,,,,,,,,,,,,,,,,,,,,,,,,,,,,,,,,,,,,,,,,,,,,,,,
,,,,,929959,001,2024-07-12_15h53.03.405,experiment,2024.1.5,Win32,48.07692308,657902cb3ec27ddda81b758f,6691931c2c63981b064e1f0c,6691b3aab15e4a1ba0c047e5,,,,,,,,,,,,,,,,,,,,,,,,,,,,,,,,,,,,,,,,,,,,,,,,,,,,,,,,,,,,806.3902,813.1452,-0.214634097,0.163685641,1,0,0,0.75,compass,0,1,1,2,1,SoundStimuli/SmellsLikeTeenSpirit_Nirvana_Original5S.wav,,,,,,,,,,,,,,,,,,,,,,,,,,,,,,,,,,,,,,,,,,,,,,,,,,,,
,,,,,929959,001,2024-07-12_15h53.03.405,experiment,2024.1.5,Win32,48.07692308,657902cb3ec27ddda81b758f,6691931c2c63981b064e1f0c,6691b3aab15e4a1ba0c047e5,,,,,,,,,,,,,,,,,,,,,,,,,,,,,,,,,,,,,,,,,,,,,,,,,,,,,,,,,,,,813.153,820.7693,0.130081301,0.177777774,1,0,0,1.6038,compass,0,2,2,8,1,SoundStimuli/EndlessLove_DianaRossLionelRichie_Cover5S.wav,,,,,,,,,,,,,,,,,,,,,,,,,,,,,,,,,,,,,,,,,,,,,,,,,,,,
,,,,,929959,001,2024-07-12_15h53.03.405,experiment,2024.1.5,Win32,48.07692308,657902cb3ec27ddda81b758f,6691931c2c63981b064e1f0c,6691b3aab15e4a1ba0c047e5,,,,,,,,,,,,,,,,,,,,,,,,,,,,,,,,,,,,,,,,,,,,,,,,,,,,,,,,,,,,820.7769,827.3726,0.173441734,0.148509452,1,0,0,0.5833,compass,0,3,3,13,1,SoundStimuli/Perfect_EdSheeran_Cover5S.wav,,,,,,,,,,,,,,,,,,,,,,,,,,,,,,,,,,,,,,,,,,,,,,,,,,,,
,,,,,929959,001,2024-07-12_15h53.03.405,experiment,2024.1.5,Win32,48.07692308,657902cb3ec27ddda81b758f,6691931c2c63981b064e1f0c,6691b3aab15e4a1ba0c047e5,,,,,,,,,,,,,,,,,,,,,,,,,,,,,,,,,,,,,,,,,,,,,,,,,,,,,,,,,,,,827.3803,835.7262,0.173441734,0.148509452,1,0,0,2.3332,compass,0,4,4,17,1,SoundStimuli/IWannaDanceWithSomebody_WhitneyHouston_Original5S.wav,,,,,,,,,,,,,,,,,,,,,,,,,,,,,,,,,,,,,,,,,,,,,,,,,,,,
,,,,,929959,001,2024-07-12_15h53.03.405,experiment,2024.1.5,Win32,48.07692308,657902cb3ec27ddda81b758f,6691931c2c63981b064e1f0c,6691b3aab15e4a1ba0c047e5,,,,,,,,,,,,,,,,,,,,,,,,,,,,,,,,,,,,,,,,,,,,,,,,,,,,,,,,,,,,835.743,844.0164,0.174525729,-0.210298202,1,0,0,2.27,compass,0,5,5,32,1,SoundStimuli/Dilemma_NellyKellyRowland_Cover5S.wav,,,,,,,,,,,,,,,,,,,,,,,,,,,,,,,,,,,,,,,,,,,,,,,,,,,,
,,,,,929959,001,2024-07-12_15h53.03.405,experiment,2024.1.5,Win32,48.07692308,657902cb3ec27ddda81b758f,6691931c2c63981b064e1f0c,6691b3aab15e4a1ba0c047e5,,,,,,,,,,,,,,,,,,,,,,,,,,,,,,,,,,,,,,,,,,,,,,,,,,,,,,,,,,,,844.0247,850.8697,-0.104065024,0.09864497,1,0,0,0.8328,compass,0,6,6,10,1,SoundStimuli/LeFreak_Chic_Cover5S.wav,,,,,,,,,,,,,,,,,,,,,,,,,,,,,,,,,,,,,,,,,,,,,,,,,,,,
,,,,,929959,001,2024-07-12_15h53.03.405,experiment,2024.1.5,Win32,48.07692308,657902cb3ec27ddda81b758f,6691931c2c63981b064e1f0c,6691b3aab15e4a1ba0c047e5,,,,,,,,,,,,,,,,,,,,,,,,,,,,,,,,,,,,,,,,,,,,,,,,,,,,,,,,,,,,850.8769,857.3068,-0.196205946,-0.189701897,1,0,0,0.4164,compass,0,7,7,9,1,SoundStimuli/HowDoILive_LeAnnRimes_Cover5S.wav,,,,,,,,,,,,,,,,,,,,,,,,,,,,,,,,,,,,,,,,,,,,,,,,,,,,
,,,,,929959,001,2024-07-12_15h53.03.405,experiment,2024.1.5,Win32,48.07692308,657902cb3ec27ddda81b758f,6691931c2c63981b064e1f0c,6691b3aab15e4a1ba0c047e5,,,,,,,,,,,,,,,,,,,,,,,,,,,,,,,,,,,,,,,,,,,,,,,,,,,,,,,,,,,,857.3198,864.556,0.135501355,0.212466129,1,0,0,1.2288,compass,0,8,8,20,1,SoundStimuli/FlashdanceWhatAFeeling_IreneCara_Original5S.wav,,,,,,,,,,,,,,,,,,,,,,,,,,,,,,,,,,,,,,,,,,,,,,,,,,,,
,,,,,929959,001,2024-07-12_15h53.03.405,experiment,2024.1.5,Win32,48.07692308,657902cb3ec27ddda81b758f,6691931c2c63981b064e1f0c,6691b3aab15e4a1ba0c047e5,,,,,,,,,,,,,,,,,,,,,,,,,,,,,,,,,,,,,,,,,,,,,,,,,,,,,,,,,,,,864.5637,870.8054,-0.177777794,-0.099729006,1,0,0,0.229,compass,0,9,9,12,1,SoundStimuli/UnbreakMyHeart_ToniBraxton_Original5S.wav,,,,,,,,,,,,,,,,,,,,,,,,,,,,,,,,,,,,,,,,,,,,,,,,,,,,
,,,,,929959,001,2024-07-12_15h53.03.405,experiment,2024.1.5,Win32,48.07692308,657902cb3ec27ddda81b758f,6691931c2c63981b064e1f0c,6691b3aab15e4a1ba0c047e5,,,,,,,,,,,,,,,,,,,,,,,,,,,,,,,,,,,,,,,,,,,,,,,,,,,,,,,,,,,,870.8129,878.1178,0.058536602,-0.125745282,1,0,0,1.2922,compass,0,10,10,0,1,SoundStimuli/GimmeShelter_RollingStones_Original5S.wav,,,,,,,,,,,,,,,,,,,,,,,,,,,,,,,,,,,,,,,,,,,,,,,,,,,,
,,,,,929959,001,2024-07-12_15h53.03.405,experiment,2024.1.5,Win32,48.07692308,657902cb3ec27ddda81b758f,6691931c2c63981b064e1f0c,6691b3aab15e4a1ba0c047e5,,,,,,,,,,,,,,,,,,,,,,,,,,,,,,,,,,,,,,,,,,,,,,,,,,,,,,,,,,,,878.1439,886.9072,-0.165853609,-0.107317131,1,0,0,2.7493,compass,0,11,11,25,1,SoundStimuli/IllMakeLoveToYou_BoyzIIMen_Cover5S.wav,,,,,,,,,,,,,,,,,,,,,,,,,,,,,,,,,,,,,,,,,,,,,,,,,,,,
,,,,,929959,001,2024-07-12_15h53.03.405,experiment,2024.1.5,Win32,48.07692308,657902cb3ec27ddda81b758f,6691931c2c63981b064e1f0c,6691b3aab15e4a1ba0c047e5,,,,,,,,,,,,,,,,,,,,,,,,,,,,,,,,,,,,,,,,,,,,,,,,,,,,,,,,,,,,886.9149,895.5314,-0.201626,-0.135501355,1,0,0,2.6038,compass,0,12,12,16,1,SoundStimuli/ItsAllInTheGame_TommyEdwards_Cover5S.wav,,,,,,,,,,,,,,,,,,,,,,,,,,,,,,,,,,,,,,,,,,,,,,,,,,,,
,,,,,929959,001,2024-07-12_15h53.03.405,experiment,2024.1.5,Win32,48.07692308,657902cb3ec27ddda81b758f,6691931c2c63981b064e1f0c,6691b3aab15e4a1ba0c047e5,,,,,,,,,,,,,,,,,,,,,,,,,,,,,,,,,,,,,,,,,,,,,,,,,,,,,,,,,,,,895.5389,902.6765,-0.211382114,-0.133333325,1,0,0,1.125,compass,0,13,13,21,1,SoundStimuli/BridgeOverTroubledWater_SimonAndGarfunkel_Original5S.wav,,,,,,,,,,,,,,,,,,,,,,,,,,,,,,,,,,,,,,,,,,,,,,,,,,,,
,,,,,929959,001,2024-07-12_15h53.03.405,experiment,2024.1.5,Win32,48.07692308,657902cb3ec27ddda81b758f,6691931c2c63981b064e1f0c,6691b3aab15e4a1ba0c047e5,,,,,,,,,,,,,,,,,,,,,,,,,,,,,,,,,,,,,,,,,,,,,,,,,,,,,,,,,,,,902.6841,915.7798,-0.081300813,-0.089972891,1,0,0,1.5854,compass,0,14,14,28,1,SoundStimuli/IWantToHoldYourHand_TheBeatles_Original5S.wav,,,,,,,,,,,,,,,,,,,,,,,,,,,,,,,,,,,,,,,,,,,,,,,,,,,,
,,,,,929959,001,2024-07-12_15h53.03.405,experiment,2024.1.5,Win32,48.07692308,657902cb3ec27ddda81b758f,6691931c2c63981b064e1f0c,6691b3aab15e4a1ba0c047e5,,,,,,,,,,,,,,,,,,,,,,,,,,,,,,,,,,,,,,,,,,,,,,,,,,,,,,,,,,,,915.7998,923.6948,-0.238482385,0.139837374,1,0,0,1.8749,compass,0,15,15,30,1,SoundStimuli/SomebodyThatIUsedtoKnow_Gotye_Original5S.wav,,,,,,,,,,,,,,,,,,,,,,,,,,,,,,,,,,,,,,,,,,,,,,,,,,,,
,,,,,929959,001,2024-07-12_15h53.03.405,experiment,2024.1.5,Win32,48.07692308,657902cb3ec27ddda81b758f,6691931c2c63981b064e1f0c,6691b3aab15e4a1ba0c047e5,,,,,,,,,,,,,,,,,,,,,,,,,,,,,,,,,,,,,,,,,,,,,,,,,,,,,,,,,,,,923.7038,930.09,0.150677523,-0.155013542,1,0,0,0.3751,compass,0,16,16,26,1,SoundStimuli/TheSign_AceOfBase_Cover5S.wav,,,,,,,,,,,,,,,,,,,,,,,,,,,,,,,,,,,,,,,,,,,,,,,,,,,,
,,,,,929959,001,2024-07-12_15h53.03.405,experiment,2024.1.5,Win32,48.07692308,657902cb3ec27ddda81b758f,6691931c2c63981b064e1f0c,6691b3aab15e4a1ba0c047e5,,,,,,,,,,,,,,,,,,,,,,,,,,,,,,,,,,,,,,,,,,,,,,,,,,,,,,,,,,,,930.1022,937.5889,-0.226558282,-0.076964794,1,0,0,1.4788,compass,0,17,17,24,1,SoundStimuli/Kiss_Prince_Cover5S.wav,,,,,,,,,,,,,,,,,,,,,,,,,,,,,,,,,,,,,,,,,,,,,,,,,,,,
,,,,,929959,001,2024-07-12_15h53.03.405,experiment,2024.1.5,Win32,48.07692308,657902cb3ec27ddda81b758f,6691931c2c63981b064e1f0c,6691b3aab15e4a1ba0c047e5,,,,,,,,,,,,,,,,,,,,,,,,,,,,,,,,,,,,,,,,,,,,,,,,,,,,,,,,,,,,937.5965,943.9841,0.153929589,0.082384807,1,0,0,0.3748,compass,0,18,18,31,1,SoundStimuli/TossinAndTurnin_BobbyLewis_Original5S.wav,,,,,,,,,,,,,,,,,,,,,,,,,,,,,,,,,,,,,,,,,,,,,,,,,,,,
,,,,,929959,001,2024-07-12_15h53.03.405,experiment,2024.1.5,Win32,48.07692308,657902cb3ec27ddda81b758f,6691931c2c63981b064e1f0c,6691b3aab15e4a1ba0c047e5,,,,,,,,,,,,,,,,,,,,,,,,,,,,,,,,,,,,,,,,,,,,,,,,,,,,,,,,,,,,943.9924,950.5247,0.291598933,-0.076964794,1,0,0,0.5206,compass,0,19,19,33,1,SoundStimuli/TheBoyIsMine_BrandyMonica_Original5S.wav,,,,,,,,,,,,,,,,,,,,,,,,,,,,,,,,,,,,,,,,,,,,,,,,,,,,
,,,,,929959,001,2024-07-12_15h53.03.405,experiment,2024.1.5,Win32,48.07692308,657902cb3ec27ddda81b758f,6691931c2c63981b064e1f0c,6691b3aab15e4a1ba0c047e5,,,,,,,,,,,,,,,,,,,,,,,,,,,,,,,,,,,,,,,,,,,,,,,,,,,,,,,,,,,,950.5321,957.7323,-0.119241192,-0.089972891,1,0,0,1.1875,compass,0,20,20,6,1,SoundStimuli/SaveYourTears_TheWeekndArianaGrande_Cover5S.wav,,,,,,,,,,,,,,,,,,,,,,,,,,,,,,,,,,,,,,,,,,,,,,,,,,,,
,,,,,929959,001,2024-07-12_15h53.03.405,experiment,2024.1.5,Win32,48.07692308,657902cb3ec27ddda81b758f,6691931c2c63981b064e1f0c,6691b3aab15e4a1ba0c047e5,,,,,,,,,,,,,,,,,,,,,,,,,,,,,,,,,,,,,,,,,,,,,,,,,,,,,,,,,,,,957.7397,966.7324,0.20596206,0.09647694,1,0,0,2.9796,compass,0,21,21,22,1,SoundStimuli/Happy_PharellWilliams_Original5S.wav,,,,,,,,,,,,,,,,,,,,,,,,,,,,,,,,,,,,,,,,,,,,,,,,,,,,
,,,,,929959,001,2024-07-12_15h53.03.405,experiment,2024.1.5,Win32,48.07692308,657902cb3ec27ddda81b758f,6691931c2c63981b064e1f0c,6691b3aab15e4a1ba0c047e5,,,,,,,,,,,,,,,,,,,,,,,,,,,,,,,,,,,,,,,,,,,,,,,,,,,,,,,,,,,,966.7431,974.5847,-0.262330508,-0.057452566,1,0,0,1.833,compass,0,22,22,19,1,SoundStimuli/YouLightUpMyLife_DebbyBoone_Original5S.wav,,,,,,,,,,,,,,,,,,,,,,,,,,,,,,,,,,,,,,,,,,,,,,,,,,,,
,,,,,929959,001,2024-07-12_15h53.03.405,experiment,2024.1.5,Win32,48.07692308,657902cb3ec27ddda81b758f,6691931c2c63981b064e1f0c,6691b3aab15e4a1ba0c047e5,,,,,,,,,,,,,,,,,,,,,,,,,,,,,,,,,,,,,,,,,,,,,,,,,,,,,,,,,,,,974.5918,981.0004,-0.222222222,-0.050948518,1,0,0,0.3954,compass,0,23,23,4,1,SoundStimuli/Dreams_FleetwoodMac_Original5S.wav,,,,,,,,,,,,,,,,,,,,,,,,,,,,,,,,,,,,,,,,,,,,,,,,,,,,
,,,,,929959,001,2024-07-12_15h53.03.405,experiment,2024.1.5,Win32,48.07692308,657902cb3ec27ddda81b758f,6691931c2c63981b064e1f0c,6691b3aab15e4a1ba0c047e5,,,,,,,,,,,,,,,,,,,,,,,,,,,,,,,,,,,,,,,,,,,,,,,,,,,,,,,,,,,,981.0077,987.1248,0.159349643,-0.107317131,1,0,0,0.1045,compass,0,24,24,34,1,SoundStimuli/Irreplaceable_Beyonce_Cover5S.wav,,,,,,,,,,,,,,,,,,,,,,,,,,,,,,,,,,,,,,,,,,,,,,,,,,,,
,,,,,929959,001,2024-07-12_15h53.03.405,experiment,2024.1.5,Win32,48.07692308,657902cb3ec27ddda81b758f,6691931c2c63981b064e1f0c,6691b3aab15e4a1ba0c047e5,,,,,,,,,,,,,,,,,,,,,,,,,,,,,,,,,,,,,,,,,,,,,,,,,,,,,,,,,,,,987.1322,993.8744,-0.080216819,0.186449831,1,0,0,0.7294,compass,0,25,25,27,1,SoundStimuli/EyeOfTheTiger_Survivor_Cover5S.wav,,,,,,,,,,,,,,,,,,,,,,,,,,,,,,,,,,,,,,,,,,,,,,,,,,,,
,,,,,929959,001,2024-07-12_15h53.03.405,experiment,2024.1.5,Win32,48.07692308,657902cb3ec27ddda81b758f,6691931c2c63981b064e1f0c,6691b3aab15e4a1ba0c047e5,,,,,,,,,,,,,,,,,,,,,,,,,,,,,,,,,,,,,,,,,,,,,,,,,,,,,,,,,,,,993.8921,1000.9356,-0.217886162,-0.075880759,1,0,0,1.041,compass,0,26,26,18,1,SoundStimuli/Weak_SWV_Cover5S.wav,,,,,,,,,,,,,,,,,,,,,,,,,,,,,,,,,,,,,,,,,,,,,,,,,,,,
,,,,,929959,001,2024-07-12_15h53.03.405,experiment,2024.1.5,Win32,48.07692308,657902cb3ec27ddda81b758f,6691931c2c63981b064e1f0c,6691b3aab15e4a1ba0c047e5,,,,,,,,,,,,,,,,,,,,,,,,,,,,,,,,,,,,,,,,,,,,,,,,,,,,,,,,,,,,1000.943,1009.6224,-0.112737144,-0.110569114,1,0,0,2.6665,compass,0,27,27,5,1,SoundStimuli/JoyToTheWorld_ThreeDogNight_Original5S.wav,,,,,,,,,,,,,,,,,,,,,,,,,,,,,,,,,,,,,,,,,,,,,,,,,,,,
,,,,,929959,001,2024-07-12_15h53.03.405,experiment,2024.1.5,Win32,48.07692308,657902cb3ec27ddda81b758f,6691931c2c63981b064e1f0c,6691b3aab15e4a1ba0c047e5,,,,,,,,,,,,,,,,,,,,,,,,,,,,,,,,,,,,,,,,,,,,,,,,,,,,,,,,,,,,1009.6409,1016.5587,-0.137669261,0.15934956,1,0,0,0.916,compass,0,28,28,1,1,SoundStimuli/Smooth_SantanaRobThomas_Original5S.wav,,,,,,,,,,,,,,,,,,,,,,,,,,,,,,,,,,,,,,,,,,,,,,,,,,,,
,,,,,929959,001,2024-07-12_15h53.03.405,experiment,2024.1.5,Win32,48.07692308,657902cb3ec27ddda81b758f,6691931c2c63981b064e1f0c,6691b3aab15e4a1ba0c047e5,,,,,,,,,,,,,,,,,,,,,,,,,,,,,,,,,,,,,,,,,,,,,,,,,,,,,,,,,,,,1016.566,1028.2449,-0.148509369,-0.089972891,1,0,0,5.6659,compass,0,29,29,15,1,SoundStimuli/CrazyInLove_BeyonceFtJayZ_Cover5S.wav,,,,,,,,,,,,,,,,,,,,,,,,,,,,,,,,,,,,,,,,,,,,,,,,,,,,
,,,,,929959,001,2024-07-12_15h53.03.405,experiment,2024.1.5,Win32,48.07692308,657902cb3ec27ddda81b758f,6691931c2c63981b064e1f0c,6691b3aab15e4a1ba0c047e5,,,,,,,,,,,,,,,,,,,,,,,,,,,,,,,,,,,,,,,,,,,,,,,,,,,,,,,,,,,,1028.2528,1035.3068,0.226558282,0.181029777,1,0,0,1.0416,compass,0,30,30,3,1,SoundStimuli/PartyRockAnthem_LMFAO_Original5S.wav,,,,,,,,,,,,,,,,,,,,,,,,,,,,,,,,,,,,,,,,,,,,,,,,,,,,
,,,,,929959,001,2024-07-12_15h53.03.405,experiment,2024.1.5,Win32,48.07692308,657902cb3ec27ddda81b758f,6691931c2c63981b064e1f0c,6691b3aab15e4a1ba0c047e5,,,,,,,,,,,,,,,,,,,,,,,,,,,,,,,,,,,,,,,,,,,,,,,,,,,,,,,,,,,,1035.3144,1045.0346,0.233062331,-0.06720868,1,0,0,3.7077,compass,0,31,31,14,1,SoundStimuli/LikeARollingStone_BobDylan_Original5S.wav,,,,,,,,,,,,,,,,,,,,,,,,,,,,,,,,,,,,,,,,,,,,,,,,,,,,
,,,,,929959,001,2024-07-12_15h53.03.405,experiment,2024.1.5,Win32,48.07692308,657902cb3ec27ddda81b758f,6691931c2c63981b064e1f0c,6691b3aab15e4a1ba0c047e5,,,,,,,,,,,,,,,,,,,,,,,,,,,,,,,,,,,,,,,,,,,,,,,,,,,,,,,,,,,,1045.0418,1054.1182,0.096476981,-0.053116548,1,0,0,3.0633,compass,0,32,32,11,1,SoundStimuli/BlurredLines_RobinThicke_Cover5S.wav,,,,,,,,,,,,,,,,,,,,,,,,,,,,,,,,,,,,,,,,,,,,,,,,,,,,
,,,,,929959,001,2024-07-12_15h53.03.405,experiment,2024.1.5,Win32,48.07692308,657902cb3ec27ddda81b758f,6691931c2c63981b064e1f0c,6691b3aab15e4a1ba0c047e5,,,,,,,,,,,,,,,,,,,,,,,,,,,,,,,,,,,,,,,,,,,,,,,,,,,,,,,,,,,,1054.1264,1060.5746,-0.199458011,-0.132249331,1,0,0,0.4377,compass,0,33,33,23,1,SoundStimuli/IWalkTheLine_JohnnyCash_Original5S.wav,,,,,,,,,,,,,,,,,,,,,,,,,,,,,,,,,,,,,,,,,,,,,,,,,,,,
,,,,,929959,001,2024-07-12_15h53.03.405,experiment,2024.1.5,Win32,48.07692308,657902cb3ec27ddda81b758f,6691931c2c63981b064e1f0c,6691b3aab15e4a1ba0c047e5,,,,,,,,,,,,,,,,,,,,,,,,,,,,,,,,,,,,,,,,,,,,,,,,,,,,,,,,,,,,1060.5819,1067.1156,-0.189701897,-0.222222222,1,0,0,0.5208,compass,0,34,34,29,1,SoundStimuli/BetteDavisEyes_KimCarnes_Original5S.wav,,,,,,,,,,,,,,,,,,,,,,,,,,,,,,,,,,,,,,,,,,,,,,,,,,,,
,,,,,929959,001,2024-07-12_15h53.03.405,experiment,2024.1.5,Win32,48.07692308,657902cb3ec27ddda81b758f,6691931c2c63981b064e1f0c,6691b3aab15e4a1ba0c047e5,,,,,,,,,,,,,,,,,,,,,,,,,,,,,,,,,,,,,,,,,,,,,,,,,,,,,,,,,,,,,,,,,,,,,,,,,,,1067.1157,1070.8444,space,3.7178,,1070.8445,1072.8025,right,1.9461,,0,2,2,2,1,block_order/blockD.xlsx,,,,,,,,,,,,,,,,,,,,,,,,,,,,,,,,,,,,
,,,,,929959,001,2024-07-12_15h53.03.405,experiment,2024.1.5,Win32,48.07692308,657902cb3ec27ddda81b758f,6691931c2c63981b064e1f0c,6691b3aab15e4a1ba0c047e5,,,,,,,,,,,,,,,,,,,,,,,,,,,,,,,,,,,,,,,,,,,,,,,,,,,,,,,,,,,,1072.8134,1079.5516,0.095392987,0.070460705,1,0,0,0.6977,compass,0,0,0,32,1,SoundStimuli/HeatWaves_GlassAnimals_Cover5S.wav,,,,,,,,,,,,,,,,,,,,,,,,,,,,,,,,,,,,,,,,,,,,,,,,,,,,
,,,,,929959,001,2024-07-12_15h53.03.405,experiment,2024.1.5,Win32,48.07692308,657902cb3ec27ddda81b758f,6691931c2c63981b064e1f0c,6691b3aab15e4a1ba0c047e5,,,,,,,,,,,,,,,,,,,,,,,,,,,,,,,,,,,,,,,,,,,,,,,,,,,,,,,,,,,,1079.5673,1086.1966,0.126829318,0.113821138,1,0,0,0.6247,compass,0,1,1,26,1,SoundStimuli/LivinOnAPrayer_BonJovi_Original5S.wav,,,,,,,,,,,,,,,,,,,,,,,,,,,,,,,,,,,,,,,,,,,,,,,,,,,,
,,,,,929959,001,2024-07-12_15h53.03.405,experiment,2024.1.5,Win32,48.07692308,657902cb3ec27ddda81b758f,6691931c2c63981b064e1f0c,6691b3aab15e4a1ba0c047e5,,,,,,,,,,,,,,,,,,,,,,,,,,,,,,,,,,,,,,,,,,,,,,,,,,,,,,,,,,,,1086.2042,1092.8415,0.124661247,0.113821138,1,0,0,0.6251,compass,0,2,2,6,1,SoundStimuli/Levitating_DuaLipa_Original5S.wav,,,,,,,,,,,,,,,,,,,,,,,,,,,,,,,,,,,,,,,,,,,,,,,,,,,,
,,,,,929959,001,2024-07-12_15h53.03.405,experiment,2024.1.5,Win32,48.07692308,657902cb3ec27ddda81b758f,6691931c2c63981b064e1f0c,6691b3aab15e4a1ba0c047e5,,,,,,,,,,,,,,,,,,,,,,,,,,,,,,,,,,,,,,,,,,,,,,,,,,,,,,,,,,,,1092.8486,1102.4237,-0.173441734,0.088888856,1,0,0,3.562,compass,0,3,3,1,1,SoundStimuli/Stronger_KanyeWest_Cover5S.wav,,,,,,,,,,,,,,,,,,,,,,,,,,,,,,,,,,,,,,,,,,,,,,,,,,,,
,,,,,929959,001,2024-07-12_15h53.03.405,experiment,2024.1.5,Win32,48.07692308,657902cb3ec27ddda81b758f,6691931c2c63981b064e1f0c,6691b3aab15e4a1ba0c047e5,,,,,,,,,,,,,,,,,,,,,,,,,,,,,,,,,,,,,,,,,,,,,,,,,,,,,,,,,,,,1102.4317,1109.4437,0.250406488,-0.092140921,1,0,0,0.9994,compass,0,4,4,31,1,SoundStimuli/TheBattleOfNewOrleans_JohnnyHorton_Original5S.wav,,,,,,,,,,,,,,,,,,,,,,,,,,,,,,,,,,,,,,,,,,,,,,,,,,,,
,,,,,929959,001,2024-07-12_15h53.03.405,experiment,2024.1.5,Win32,48.07692308,657902cb3ec27ddda81b758f,6691931c2c63981b064e1f0c,6691b3aab15e4a1ba0c047e5,,,,,,,,,,,,,,,,,,,,,,,,,,,,,,,,,,,,,,,,,,,,,,,,,,,,,,,,,,,,1109.4514,1117.443,-0.084552796,-0.049864523,1,0,0,1.9792,compass,0,5,5,22,1,SoundStimuli/RockWithYou_MichaelJackson_Cover5S.wav,,,,,,,,,,,,,,,,,,,,,,,,,,,,,,,,,,,,,,,,,,,,,,,,,,,,
,,,,,929959,001,2024-07-12_15h53.03.405,experiment,2024.1.5,Win32,48.07692308,657902cb3ec27ddda81b758f,6691931c2c63981b064e1f0c,6691b3aab15e4a1ba0c047e5,,,,,,,,,,,,,,,,,,,,,,,,,,,,,,,,,,,,,,,,,,,,,,,,,,,,,,,,,,,,1117.4516,1124.2756,-0.086720867,-0.049864523,1,0,0,0.8123,compass,0,6,6,14,1,SoundStimuli/BlindingLights_TheWeeknd_Cover5S.wav,,,,,,,,,,,,,,,,,,,,,,,,,,,,,,,,,,,,,,,,,,,,,,,,,,,,
,,,,,929959,001,2024-07-12_15h53.03.405,experiment,2024.1.5,Win32,48.07692308,657902cb3ec27ddda81b758f,6691931c2c63981b064e1f0c,6691b3aab15e4a1ba0c047e5,,,,,,,,,,,,,,,,,,,,,,,,,,,,,,,,,,,,,,,,,,,,,,,,,,,,,,,,,,,,1124.287,1131.5664,0.186449914,-0.106233054,1,0,0,1.2707,compass,0,7,7,5,1,SoundStimuli/MyGirl_TheTemptations_Cover5S.wav,,,,,,,,,,,,,,,,,,,,,,,,,,,,,,,,,,,,,,,,,,,,,,,,,,,,
,,,,,929959,001,2024-07-12_15h53.03.405,experiment,2024.1.5,Win32,48.07692308,657902cb3ec27ddda81b758f,6691931c2c63981b064e1f0c,6691b3aab15e4a1ba0c047e5,,,,,,,,,,,,,,,,,,,,,,,,,,,,,,,,,,,,,,,,,,,,,,,,,,,,,,,,,,,,1131.576,1138.3571,-0.161517632,0.194037936,1,0,0,0.7706,compass,0,8,8,11,1,SoundStimuli/Superstition_StevieWonder_Original5S.wav,,,,,,,,,,,,,,,,,,,,,,,,,,,,,,,,,,,,,,,,,,,,,,,,,,,,
,,,,,929959,001,2024-07-12_15h53.03.405,experiment,2024.1.5,Win32,48.07692308,657902cb3ec27ddda81b758f,6691931c2c63981b064e1f0c,6691b3aab15e4a1ba0c047e5,,,,,,,,,,,,,,,,,,,,,,,,,,,,,,,,,,,,,,,,,,,,,,,,,,,,,,,,,,,,1138.3711,1147.7517,0.27533877,-0.160433596,1,0,0,3.3743,compass,0,9,9,3,1,SoundStimuli/NoScrubs_TLC_Cover5S.wav,,,,,,,,,,,,,,,,,,,,,,,,,,,,,,,,,,,,,,,,,,,,,,,,,,,,
,,,,,929959,001,2024-07-12_15h53.03.405,experiment,2024.1.5,Win32,48.07692308,657902cb3ec27ddda81b758f,6691931c2c63981b064e1f0c,6691b3aab15e4a1ba0c047e5,,,,,,,,,,,,,,,,,,,,,,,,,,,,,,,,,,,,,,,,,,,,,,,,,,,,,,,,,,,,1147.7588,1154.0842,0.171273746,0.122493217,1,0,0,0.3119,compass,0,10,10,0,1,SoundStimuli/StayinAlive_BeeGees_Cover5S.wav,,,,,,,,,,,,,,,,,,,,,,,,,,,,,,,,,,,,,,,,,,,,,,,,,,,,
,,,,,929959,001,2024-07-12_15h53.03.405,experiment,2024.1.5,Win32,48.07692308,657902cb3ec27ddda81b758f,6691931c2c63981b064e1f0c,6691b3aab15e4a1ba0c047e5,,,,,,,,,,,,,,,,,,,,,,,,,,,,,,,,,,,,,,,,,,,,,,,,,,,,,,,,,,,,1154.092,1161.4173,0.16802168,0.111653108,1,0,0,1.3125,compass,0,11,11,9,1,SoundStimuli/Despacito_LuisFonsiDaddyYankee_Original5S.wav,,,,,,,,,,,,,,,,,,,,,,,,,,,,,,,,,,,,,,,,,,,,,,,,,,,,
,,,,,929959,001,2024-07-12_15h53.03.405,experiment,2024.1.5,Win32,48.07692308,657902cb3ec27ddda81b758f,6691931c2c63981b064e1f0c,6691b3aab15e4a1ba0c047e5,,,,,,,,,,,,,,,,,,,,,,,,,,,,,,,,,,,,,,,,,,,,,,,,,,,,,,,,,,,,1161.4245,1170.5827,-0.170189586,-0.076964794,1,0,0,3.1456,compass,0,12,12,12,1,SoundStimuli/IWillAlwaysLoveYou_WhitneyHouston_Original5S.wav,,,,,,,,,,,,,,,,,,,,,,,,,,,,,,,,,,,,,,,,,,,,,,,,,,,,
,,,,,929959,001,2024-07-12_15h53.03.405,experiment,2024.1.5,Win32,48.07692308,657902cb3ec27ddda81b758f,6691931c2c63981b064e1f0c,6691b3aab15e4a1ba0c047e5,,,,,,,,,,,,,,,,,,,,,,,,,,,,,,,,,,,,,,,,,,,,,,,,,,,,,,,,,,,,1170.5902,1178.4147,0.110569155,-0.10514906,1,0,0,1.8121,compass,0,13,13,23,1,SoundStimuli/StrawberryFieldsForever_TheBeatles_Cover5S.wav,,,,,,,,,,,,,,,,,,,,,,,,,,,,,,,,,,,,,,,,,,,,,,,,,,,,
,,,,,929959,001,2024-07-12_15h53.03.405,experiment,2024.1.5,Win32,48.07692308,657902cb3ec27ddda81b758f,6691931c2c63981b064e1f0c,6691b3aab15e4a1ba0c047e5,,,,,,,,,,,,,,,,,,,,,,,,,,,,,,,,,,,,,,,,,,,,,,,,,,,,,,,,,,,,1178.4224,1185.6015,-0.169105675,0.173441734,1,0,0,1.1663,compass,0,14,14,4,1,SoundStimuli/GetUrFreakOn_MissyElliot_Cover5S.wav,,,,,,,,,,,,,,,,,,,,,,,,,,,,,,,,,,,,,,,,,,,,,,,,,,,,
,,,,,929959,001,2024-07-12_15h53.03.405,experiment,2024.1.5,Win32,48.07692308,657902cb3ec27ddda81b758f,6691931c2c63981b064e1f0c,6691b3aab15e4a1ba0c047e5,,,,,,,,,,,,,,,,,,,,,,,,,,,,,,,,,,,,,,,,,,,,,,,,,,,,,,,,,,,,1185.609,1201.5166,0.184281843,-0.146341463,1,0,0,9.8948,compass,0,15,15,30,1,SoundStimuli/PokerFace_LadyGaga_Cover5S.wav,,,,,,,,,,,,,,,,,,,,,,,,,,,,,,,,,,,,,,,,,,,,,,,,,,,,
,,,,,929959,001,2024-07-12_15h53.03.405,experiment,2024.1.5,Win32,48.07692308,657902cb3ec27ddda81b758f,6691931c2c63981b064e1f0c,6691b3aab15e4a1ba0c047e5,,,,,,,,,,,,,,,,,,,,,,,,,,,,,,,,,,,,,,,,,,,,,,,,,,,,,,,,,,,,1201.5239,1208.0784,0.145257469,0.095392946,1,0,0,0.5418,compass,0,16,16,20,1,SoundStimuli/HeyYa_Outkast_Original5S.wav,,,,,,,,,,,,,,,,,,,,,,,,,,,,,,,,,,,,,,,,,,,,,,,,,,,,
,,,,,929959,001,2024-07-12_15h53.03.405,experiment,2024.1.5,Win32,48.07692308,657902cb3ec27ddda81b758f,6691931c2c63981b064e1f0c,6691b3aab15e4a1ba0c047e5,,,,,,,,,,,,,,,,,,,,,,,,,,,,,,,,,,,,,,,,,,,,,,,,,,,,,,,,,,,,1208.0875,1215.6812,0.161517632,-0.112737185,1,0,0,1.5829,compass,0,17,17,18,1,SoundStimuli/AnotherOneBitesTheDust_Queen_Cover5S.wav,,,,,,,,,,,,,,,,,,,,,,,,,,,,,,,,,,,,,,,,,,,,,,,,,,,,
,,,,,929959,001,2024-07-12_15h53.03.405,experiment,2024.1.5,Win32,48.07692308,657902cb3ec27ddda81b758f,6691931c2c63981b064e1f0c,6691b3aab15e4a1ba0c047e5,,,,,,,,,,,,,,,,,,,,,,,,,,,,,,,,,,,,,,,,,,,,,,,,,,,,,,,,,,,,1215.6906,1222.1597,0.108401084,0.140921409,1,0,0,0.4584,compass,0,18,18,24,1,SoundStimuli/UptownFunk_MarkRonson_Cover5S.wav,,,,,,,,,,,,,,,,,,,,,,,,,,,,,,,,,,,,,,,,,,,,,,,,,,,,
,,,,,929959,001,2024-07-12_15h53.03.405,experiment,2024.1.5,Win32,48.07692308,657902cb3ec27ddda81b758f,6691931c2c63981b064e1f0c,6691b3aab15e4a1ba0c047e5,,,,,,,,,,,,,,,,,,,,,,,,,,,,,,,,,,,,,,,,,,,,,,,,,,,,,,,,,,,,1222.1671,1228.2841,0.191869968,-0.185365878,1,0,0,0.1042,compass,0,19,19,2,1,SoundStimuli/Mood_24kGoldnianndior_Original5S.wav,,,,,,,,,,,,,,,,,,,,,,,,,,,,,,,,,,,,,,,,,,,,,,,,,,,,
,,,,,929959,001,2024-07-12_15h53.03.405,experiment,2024.1.5,Win32,48.07692308,657902cb3ec27ddda81b758f,6691931c2c63981b064e1f0c,6691b3aab15e4a1ba0c047e5,,,,,,,,,,,,,,,,,,,,,,,,,,,,,,,,,,,,,,,,,,,,,,,,,,,,,,,,,,,,1228.2918,1234.6164,-0.177777794,0.22439019,1,0,0,0.3121,compass,0,20,20,25,1,SoundStimuli/Respect_ArethaFranklin_Cover5S.wav,,,,,,,,,,,,,,,,,,,,,,,,,,,,,,,,,,,,,,,,,,,,,,,,,,,,
,,,,,929959,001,2024-07-12_15h53.03.405,experiment,2024.1.5,Win32,48.07692308,657902cb3ec27ddda81b758f,6691931c2c63981b064e1f0c,6691b3aab15e4a1ba0c047e5,,,,,,,,,,,,,,,,,,,,,,,,,,,,,,,,,,,,,,,,,,,,,,,,,,,,,,,,,,,,1234.6233,1240.7203,0.16802168,0.183197828,1,0,0,0.0832,compass,0,21,21,17,1,SoundStimuli/Fallin_AliciaKeys_Cover5S.wav,,,,,,,,,,,,,,,,,,,,,,,,,,,,,,,,,,,,,,,,,,,,,,,,,,,,
,,,,,929959,001,2024-07-12_15h53.03.405,experiment,2024.1.5,Win32,48.07692308,657902cb3ec27ddda81b758f,6691931c2c63981b064e1f0c,6691b3aab15e4a1ba0c047e5,,,,,,,,,,,,,,,,,,,,,,,,,,,,,,,,,,,,,,,,,,,,,,,,,,,,,,,,,,,,1240.7277,1247.9899,0.240650456,-0.147425499,1,0,0,1.2495,compass,0,22,22,29,1,SoundStimuli/OldTownRoad_LilNasX_Cover5S.wav,,,,,,,,,,,,,,,,,,,,,,,,,,,,,,,,,,,,,,,,,,,,,,,,,,,,
,,,,,929959,001,2024-07-12_15h53.03.405,experiment,2024.1.5,Win32,48.07692308,657902cb3ec27ddda81b758f,6691931c2c63981b064e1f0c,6691b3aab15e4a1ba0c047e5,,,,,,,,,,,,,,,,,,,,,,,,,,,,,,,,,,,,,,,,,,,,,,,,,,,,,,,,,,,,1247.9982,1256.0933,-0.128997307,-0.144173433,1,0,0,2.0833,compass,0,23,23,34,1,SoundStimuli/AChangeIsGonnaCome_SamCooke_Original5S.wav,,,,,,,,,,,,,,,,,,,,,,,,,,,,,,,,,,,,,,,,,,,,,,,,,,,,
,,,,,929959,001,2024-07-12_15h53.03.405,experiment,2024.1.5,Win32,48.07692308,657902cb3ec27ddda81b758f,6691931c2c63981b064e1f0c,6691b3aab15e4a1ba0c047e5,,,,,,,,,,,,,,,,,,,,,,,,,,,,,,,,,,,,,,,,,,,,,,,,,,,,,,,,,,,,1256.1007,1262.53,-0.063956656,-0.160433596,1,0,0,0.4165,compass,0,24,24,19,1,SoundStimuli/LetsGetItOn_MarvinGaye_Original5S.wav,,,,,,,,,,,,,,,,,,,,,,,,,,,,,,,,,,,,,,,,,,,,,,,,,,,,
,,,,,929959,001,2024-07-12_15h53.03.405,experiment,2024.1.5,Win32,48.07692308,657902cb3ec27ddda81b758f,6691931c2c63981b064e1f0c,6691b3aab15e4a1ba0c047e5,,,,,,,,,,,,,,,,,,,,,,,,,,,,,,,,,,,,,,,,,,,,,,,,,,,,,,,,,,,,1262.5375,1269.6738,0.174525729,0.113821138,1,0,0,1.1239,compass,0,25,25,21,1,SoundStimuli/GoodGollyMissMolly_LittleRichard_Original5S.wav,,,,,,,,,,,,,,,,,,,,,,,,,,,,,,,,,,,,,,,,,,,,,,,,,,,,
,,,,,929959,001,2024-07-12_15h53.03.405,experiment,2024.1.5,Win32,48.07692308,657902cb3ec27ddda81b758f,6691931c2c63981b064e1f0c,6691b3aab15e4a1ba0c047e5,,,,,,,,,,,,,,,,,,,,,,,,,,,,,,,,,,,,,,,,,,,,,,,,,,,,,,,,,,,,1269.6814,1276.2991,-0.179945783,0.124661247,1,0,0,0.604,compass,0,26,26,28,1,SoundStimuli/ComeAndGetYourLove_Redbone_Cover5S.wav,,,,,,,,,,,,,,,,,,,,,,,,,,,,,,,,,,,,,,,,,,,,,,,,,,,,
,,,,,929959,001,2024-07-12_15h53.03.405,experiment,2024.1.5,Win32,48.07692308,657902cb3ec27ddda81b758f,6691931c2c63981b064e1f0c,6691b3aab15e4a1ba0c047e5,,,,,,,,,,,,,,,,,,,,,,,,,,,,,,,,,,,,,,,,,,,,,,,,,,,,,,,,,,,,1276.3065,1290.631,-0.179945783,0.121409181,1,0,0,8.312,compass,0,27,27,33,1,SoundStimuli/StandByMe_BenEKing_Original5S.wav,,,,,,,,,,,,,,,,,,,,,,,,,,,,,,,,,,,,,,,,,,,,,,,,,,,,
,,,,,929959,001,2024-07-12_15h53.03.405,experiment,2024.1.5,Win32,48.07692308,657902cb3ec27ddda81b758f,6691931c2c63981b064e1f0c,6691b3aab15e4a1ba0c047e5,,,,,,,,,,,,,,,,,,,,,,,,,,,,,,,,,,,,,,,,,,,,,,,,,,,,,,,,,,,,1290.6387,1296.7137,0.137669426,-0.252574559,1,0,0,0.0626,compass,0,28,28,8,1,SoundStimuli/LikeAPrayer_Madonna_Cover5S.wav,,,,,,,,,,,,,,,,,,,,,,,,,,,,,,,,,,,,,,,,,,,,,,,,,,,,
,,,,,929959,001,2024-07-12_15h53.03.405,experiment,2024.1.5,Win32,48.07692308,657902cb3ec27ddda81b758f,6691931c2c63981b064e1f0c,6691b3aab15e4a1ba0c047e5,,,,,,,,,,,,,,,,,,,,,,,,,,,,,,,,,,,,,,,,,,,,,,,,,,,,,,,,,,,,1296.7212,1302.9005,0.156097578,-0.073712729,1,0,0,0.1668,compass,0,29,29,16,1,SoundStimuli/BohemianRhapsody_Queen_Cover5S.wav,,,,,,,,,,,,,,,,,,,,,,,,,,,,,,,,,,,,,,,,,,,,,,,,,,,,
,,,,,929959,001,2024-07-12_15h53.03.405,experiment,2024.1.5,Win32,48.07692308,657902cb3ec27ddda81b758f,6691931c2c63981b064e1f0c,6691b3aab15e4a1ba0c047e5,,,,,,,,,,,,,,,,,,,,,,,,,,,,,,,,,,,,,,,,,,,,,,,,,,,,,,,,,,,,1302.9077,1308.9623,-0.118157198,0.092140921,1,0,0,0.0419,compass,0,30,30,7,1,SoundStimuli/NoOne_AliciaKeys_Original5S.wav,,,,,,,,,,,,,,,,,,,,,,,,,,,,,,,,,,,,,,,,,,,,,,,,,,,,
,,,,,929959,001,2024-07-12_15h53.03.405,experiment,2024.1.5,Win32,48.07692308,657902cb3ec27ddda81b758f,6691931c2c63981b064e1f0c,6691b3aab15e4a1ba0c047e5,,,,,,,,,,,,,,,,,,,,,,,,,,,,,,,,,,,,,,,,,,,,,,,,,,,,,,,,,,,,1308.9698,1315.5448,0.132249372,0.107317048,1,0,0,0.5623,compass,0,31,31,15,1,SoundStimuli/TikTok_Kesha_Original5S.wav,,,,,,,,,,,,,,,,,,,,,,,,,,,,,,,,,,,,,,,,,,,,,,,,,,,,
,,,,,929959,001,2024-07-12_15h53.03.405,experiment,2024.1.5,Win32,48.07692308,657902cb3ec27ddda81b758f,6691931c2c63981b064e1f0c,6691b3aab15e4a1ba0c047e5,,,,,,,,,,,,,,,,,,,,,,,,,,,,,,,,,,,,,,,,,,,,,,,,,,,,,,,,,,,,1315.5522,1322.2521,0.132249372,0.107317048,1,0,0,0.6876,compass,0,32,32,13,1,SoundStimuli/GodOnlyKnows_TheBeachBoys_Original5S.wav,,,,,,,,,,,,,,,,,,,,,,,,,,,,,,,,,,,,,,,,,,,,,,,,,,,,
,,,,,929959,001,2024-07-12_15h53.03.405,experiment,2024.1.5,Win32,48.07692308,657902cb3ec27ddda81b758f,6691931c2c63981b064e1f0c,6691b3aab15e4a1ba0c047e5,,,,,,,,,,,,,,,,,,,,,,,,,,,,,,,,,,,,,,,,,,,,,,,,,,,,,,,,,,,,1322.26,1328.668,0.177777794,-0.128997348,1,0,0,0.3955,compass,0,33,33,10,1,SoundStimuli/BadDay_DanielPowter_Original5S.wav,,,,,,,,,,,,,,,,,,,,,,,,,,,,,,,,,,,,,,,,,,,,,,,,,,,,
,,,,,929959,001,2024-07-12_15h53.03.405,experiment,2024.1.5,Win32,48.07692308,657902cb3ec27ddda81b758f,6691931c2c63981b064e1f0c,6691b3aab15e4a1ba0c047e5,,,,,,,,,,,,,,,,,,,,,,,,,,,,,,,,,,,,,,,,,,,,,,,,,,,,,,,,,,,,1328.6753,1334.938,0.101897036,-0.079132783,1,0,0,0.2498,compass,0,34,34,27,1,SoundStimuli/ShapeofYou_EdSheeran_Cover5S.wav,,,,,,,,,,,,,,,,,,,,,,,,,,,,,,,,,,,,,,,,,,,,,,,,,,,,
,,,,,929959,001,2024-07-12_15h53.03.405,experiment,2024.1.5,Win32,48.07692308,657902cb3ec27ddda81b758f,6691931c2c63981b064e1f0c,6691b3aab15e4a1ba0c047e5,,,,,,,,,,,,,,,,,,,,,,,,,,,,,,,,,,,,,,,,,,,,,,,,,,,,,,,,,,,,,,,,,,,,,,,,,,,1334.9382,1334.9382,,,,1334.9382,1334.9382,,,,0,3,3,3,1,block_order/blockC.xlsx,,,,,,,,,,,,,,,,,,,,,,,,,,,,,,,,,,,,
,,,,,929959,001,2024-07-12_15h53.03.405,experiment,2024.1.5,Win32,48.07692308,657902cb3ec27ddda81b758f,6691931c2c63981b064e1f0c,6691b3aab15e4a1ba0c047e5,,,,,,,,,,,,,,,,,,,,,,,,,,,,,,,,,,,,,,,,,,,,,,,,,,,,,,,,,,,,,,,,,,,,,,,,,,,,,,,,,,,,,,,,,,,25,Item 2,I have never performed any music.,Item 4,Spotify,3,5,"Exercising, driving, casual",Sometimes,Sometimes,Often,Rarely,Rarely,Rarely,Sometimes,Rarely,Often,Rarely,Always,Rarely,Rarely,Always,Rarely,Rarely,Pop,R&B,Hiphop,My artists I enjoy listening to have changed. I also listen more based on my mood now.,I like to listen to different genres depending on my intensity of activity.,0,0,0,0,1,,
,,,,,929959,001,2024-07-12_15h53.03.405,experiment,2024.1.5,Win32,48.07692308,657902cb3ec27ddda81b758f,6691931c2c63981b064e1f0c,6691b3aab15e4a1ba0c047e5,,,,,,,,,,,,,,,,,,,,,,,,,,,,,,,,,,,,,,,,,,,,,,,,,,,,,,,,,,,,,,,,,,,,,,,,,,,,,,,,,,,,,,,,,,,,,,,,,,,,,,,,,,,,,,,,,,,,,,,,,,,,,1453.8696,1455.7371
