welcome.started,welcome.stopped,space_to_continue.keys,space_to_continue.rt,space_to_continue.duration,participant,session,date,expName,psychopyVersion,OS,frameRate,PROLIFIC_PID,STUDY_ID,SESSION_ID,consent.consent,consent.consent_recontact,consent_check.started,consent_check.stopped,calibration_ready.started,calibration_ready.stopped,cal_ready.keys,cal_ready.rt,cal_ready.duration,calibration.started,calibration.stopped,mouse.x,mouse.y,mouse.leftButton,mouse.midButton,mouse.rightButton,mouse.time,mouse.clicked_name,move_on.keys,move_on.rt,move_on.duration,run_cal.thisRepN,run_cal.thisTrialN,run_cal.thisN,run_cal.thisIndex,run_cal.ran,emotion_training_ready.started,emotion_training_ready.stopped,training_move_on.keys,training_move_on.rt,training_move_on.duration,examples.started,examples.stopped,emotion_scale.started,emotion_scale.stopped,scale_next.keys,scale_next.rt,scale_next.duration,instructions.started,instructions.stopped,next.keys,next.rt,next.duration,practice_task.started,practice_task.stopped,mouse_rating_2.x,mouse_rating_2.y,mouse_rating_2.leftButton,mouse_rating_2.midButton,mouse_rating_2.rightButton,mouse_rating_2.time,mouse_rating_2.clicked_name,ready.started,ready.stopped,key_resp.keys,key_resp.rt,key_resp.duration,set_group.started,set_group.stopped,task.started,task.stopped,mouse_rating.x,mouse_rating.y,mouse_rating.leftButton,mouse_rating.midButton,mouse_rating.rightButton,mouse_rating.time,mouse_rating.clicked_name,trials.thisRepN,trials.thisTrialN,trials.thisN,trials.thisIndex,trials.ran,clip,short_break.started,short_break.stopped,space_to_move_on.keys,space_to_move_on.rt,space_to_move_on.duration,instruction_reminder.started,instruction_reminder.stopped,reminder_move_on.keys,reminder_move_on.rt,reminder_move_on.duration,blocks.thisRepN,blocks.thisTrialN,blocks.thisN,blocks.thisIndex,blocks.ran,block,post_survey.age,post_survey.musician,post_survey.music_making,post_survey.listen_time,post_survey.medium,post_survey.music_seeking,post_survey.music_choice,post_survey.activities,post_survey.question1.Folk/indie,post_survey.question1.Classic rock,post_survey.question1.Alternative rock,post_survey.question1.Ambient,post_survey.question1.Pop,post_survey.question1.A cappella,post_survey.question1.Country,post_survey.question1.Metal,post_survey.question1.Latin,post_survey.question1.Hip hop,post_survey.question1.Classical,post_survey.question1.R&B,post_survey.question1.Disco,post_survey.question1.Reggae,post_survey.question1.Jazz,post_survey.question1.Electronic (EDM),post_survey.genres_ranked.text1,post_survey.genres_ranked.text2,post_survey.genres_ranked.text3,post_survey.habit_change,post_survey.habits,show_exp.thisRepN,show_exp.thisTrialN,show_exp.thisN,show_exp.thisIndex,show_exp.ran,goodbye.started,goodbye.stopped
0.0055,1.7276,space,1.6942,,948793,001,2024-07-12_19h36.01.646,experiment,2024.1.5,Win32,60.24096386,57e4d48d6c447e000116b22a,6691931c2c63981b064e1f0c,6691bd49f05f8af21da73491,,,,,,,,,,,,,,,,,,,,,,,,,,,,,,,,,,,,,,,,,,,,,,,,,,,,,,,,,,,,,,,,,,,,,,,,,,,,,,,,,,,,,,,,,,,,,,,,,,,,,,,,,,,,,,,,,,,,,,,,,,,,,,
,,,,,948793,001,2024-07-12_19h36.01.646,experiment,2024.1.5,Win32,60.24096386,57e4d48d6c447e000116b22a,6691931c2c63981b064e1f0c,6691bd49f05f8af21da73491,yes,yes,,,,,,,,,,,,,,,,,,,,,,,,,,,,,,,,,,,,,,,,,,,,,,,,,,,,,,,,,,,,,,,,,,,,,,,,,,,,,,,,,,,,,,,,,,,,,,,,,,,,,,,,,,,,,,,,,,,,,,,,,,,,
,,,,,948793,001,2024-07-12_19h36.01.646,experiment,2024.1.5,Win32,60.24096386,57e4d48d6c447e000116b22a,6691931c2c63981b064e1f0c,6691bd49f05f8af21da73491,,,17.6073,17.6076,,,,,,,,,,,,,,,,,,,,,,,,,,,,,,,,,,,,,,,,,,,,,,,,,,,,,,,,,,,,,,,,,,,,,,,,,,,,,,,,,,,,,,,,,,,,,,,,,,,,,,,,,,,,,,,,,,,,,,,,,,
,,,,,948793,001,2024-07-12_19h36.01.646,experiment,2024.1.5,Win32,60.24096386,57e4d48d6c447e000116b22a,6691931c2c63981b064e1f0c,6691bd49f05f8af21da73491,,,,,17.6099,19.5771,space,1.9486,,19.5786,33.8606,[-0.041666666666666664],[-0.4148148430718316],[1],[0],[0],[9.010700000002984],[],n,13.2395,,0,0,0,0,1,,,,,,,,,,,,,,,,,,,,,,,,,,,,,,,,,,,,,,,,,,,,,,,,,,,,,,,,,,,,,,,,,,,,,,,,,,,,,,,,,,,,,,,,,,,,,,,,,,,,
,,,,,948793,001,2024-07-12_19h36.01.646,experiment,2024.1.5,Win32,60.24096386,57e4d48d6c447e000116b22a,6691931c2c63981b064e1f0c,6691bd49f05f8af21da73491,,,,,,,,,,33.8699,37.0436,[],[],[],[],[],[],[],n,2.1439,,1,0,1,0,1,,,,,,,,,,,,,,,,,,,,,,,,,,,,,,,,,,,,,,,,,,,,,,,,,,,,,,,,,,,,,,,,,,,,,,,,,,,,,,,,,,,,,,,,,,,,,,,,,,,,
,,,,,948793,001,2024-07-12_19h36.01.646,experiment,2024.1.5,Win32,60.24096386,57e4d48d6c447e000116b22a,6691931c2c63981b064e1f0c,6691bd49f05f8af21da73491,,,,,,,,,,37.0444,38.7435,[],[],[],[],[],[],[],n,0.6665,,2,0,2,0,1,,,,,,,,,,,,,,,,,,,,,,,,,,,,,,,,,,,,,,,,,,,,,,,,,,,,,,,,,,,,,,,,,,,,,,,,,,,,,,,,,,,,,,,,,,,,,,,,,,,,
,,,,,948793,001,2024-07-12_19h36.01.646,experiment,2024.1.5,Win32,60.24096386,57e4d48d6c447e000116b22a,6691931c2c63981b064e1f0c,6691bd49f05f8af21da73491,,,,,,,,,,38.744,40.1768,[],[],[],[],[],[],[],n,0.3925,,3,0,3,0,1,,,,,,,,,,,,,,,,,,,,,,,,,,,,,,,,,,,,,,,,,,,,,,,,,,,,,,,,,,,,,,,,,,,,,,,,,,,,,,,,,,,,,,,,,,,,,,,,,,,,
,,,,,948793,001,2024-07-12_19h36.01.646,experiment,2024.1.5,Win32,60.24096386,57e4d48d6c447e000116b22a,6691931c2c63981b064e1f0c,6691bd49f05f8af21da73491,,,,,,,,,,40.1773,42.4601,[],[],[],[],[],[],[],n,1.2588,,4,0,4,0,1,,,,,,,,,,,,,,,,,,,,,,,,,,,,,,,,,,,,,,,,,,,,,,,,,,,,,,,,,,,,,,,,,,,,,,,,,,,,,,,,,,,,,,,,,,,,,,,,,,,,
,,,,,948793,001,2024-07-12_19h36.01.646,experiment,2024.1.5,Win32,60.24096386,57e4d48d6c447e000116b22a,6691931c2c63981b064e1f0c,6691bd49f05f8af21da73491,,,,,,,,,,,,,,,,,,,,,,,,,,,42.4614,62.6271,space,20.144,,62.6272,182.6438,182.644,189.8111,right,3.6329,,189.8112,195.7448,space,5.9126,,195.7451,206.4937,0.344172679,-0.190359739,1,0,0,3.9316,compass_2,206.4938,208.0764,space,1.5559,,208.0765,208.0828,208.098,217.8942,0.314244639,0.296546749,1,0,0,3.7818,compass,0,0,0,22,1,SoundStimuli/RockWithYou_MichaelJackson_Cover5S.wav,,,,,,,,,,,,,,,,,,,,,,,,,,,,,,,,,,,,,,,,,,,,,,,,,,,,
,,,,,948793,001,2024-07-12_19h36.01.646,experiment,2024.1.5,Win32,60.24096386,57e4d48d6c447e000116b22a,6691931c2c63981b064e1f0c,6691bd49f05f8af21da73491,,,,,,,,,,,,,,,,,,,,,,,,,,,,,,,,,,,,,,,,,,,,,,,,,,,,,,,,,,,,217.8997,227.3602,-0.082877663,0.111223004,1,0,0,3.4473,compass,0,1,1,1,1,SoundStimuli/Stronger_KanyeWest_Cover5S.wav,,,,,,,,,,,,,,,,,,,,,,,,,,,,,,,,,,,,,,,,,,,,,,,,,,,,
,,,,,948793,001,2024-07-12_19h36.01.646,experiment,2024.1.5,Win32,60.24096386,57e4d48d6c447e000116b22a,6691931c2c63981b064e1f0c,6691bd49f05f8af21da73491,,,,,,,,,,,,,,,,,,,,,,,,,,,,,,,,,,,,,,,,,,,,,,,,,,,,,,,,,,,,227.3655,235.11,0.344172679,0.335683447,1,0,0,1.7318,compass,0,2,2,32,1,SoundStimuli/HeatWaves_GlassAnimals_Cover5S.wav,,,,,,,,,,,,,,,,,,,,,,,,,,,,,,,,,,,,,,,,,,,,,,,,,,,,
,,,,,948793,001,2024-07-12_19h36.01.646,experiment,2024.1.5,Win32,60.24096386,57e4d48d6c447e000116b22a,6691931c2c63981b064e1f0c,6691bd49f05f8af21da73491,,,,,,,,,,,,,,,,,,,,,,,,,,,,,,,,,,,,,,,,,,,,,,,,,,,,,,,,,,,,235.1155,243.0601,0.325755431,-0.290503632,1,0,0,1.9317,compass,0,3,3,5,1,SoundStimuli/MyGirl_TheTemptations_Cover5S.wav,,,,,,,,,,,,,,,,,,,,,,,,,,,,,,,,,,,,,,,,,,,,,,,,,,,,
,,,,,948793,001,2024-07-12_19h36.01.646,experiment,2024.1.5,Win32,60.24096386,57e4d48d6c447e000116b22a,6691931c2c63981b064e1f0c,6691bd49f05f8af21da73491,,,,,,,,,,,,,,,,,,,,,,,,,,,,,,,,,,,,,,,,,,,,,,,,,,,,,,,,,,,,243.0652,253.4599,-0.173812932,-0.193812967,1,0,0,4.3808,compass,0,4,4,29,1,SoundStimuli/OldTownRoad_LilNasX_Cover5S.wav,,,,,,,,,,,,,,,,,,,,,,,,,,,,,,,,,,,,,,,,,,,,,,,,,,,,
,,,,,948793,001,2024-07-12_19h36.01.646,experiment,2024.1.5,Win32,60.24096386,57e4d48d6c447e000116b22a,6691931c2c63981b064e1f0c,6691bd49f05f8af21da73491,,,,,,,,,,,,,,,,,,,,,,,,,,,,,,,,,,,,,,,,,,,,,,,,,,,,,,,,,,,,253.4652,261.1102,0.332661888,0.329928051,1,0,0,1.6337,compass,0,5,5,21,1,SoundStimuli/GoodGollyMissMolly_LittleRichard_Original5S.wav,,,,,,,,,,,,,,,,,,,,,,,,,,,,,,,,,,,,,,,,,,,,,,,,,,,,
,,,,,948793,001,2024-07-12_19h36.01.646,experiment,2024.1.5,Win32,60.24096386,57e4d48d6c447e000116b22a,6691931c2c63981b064e1f0c,6691bd49f05f8af21da73491,,,,,,,,,,,,,,,,,,,,,,,,,,,,,,,,,,,,,,,,,,,,,,,,,,,,,,,,,,,,261.1151,271.7265,-0.222158221,-0.005035971,1,0,0,4.5999,compass,0,6,6,7,1,SoundStimuli/NoOne_AliciaKeys_Original5S.wav,,,,,,,,,,,,,,,,,,,,,,,,,,,,,,,,,,,,,,,,,,,,,,,,,,,,
,,,,,948793,001,2024-07-12_19h36.01.646,experiment,2024.1.5,Win32,60.24096386,57e4d48d6c447e000116b22a,6691931c2c63981b064e1f0c,6691bd49f05f8af21da73491,,,,,,,,,,,,,,,,,,,,,,,,,,,,,,,,,,,,,,,,,,,,,,,,,,,,,,,,,,,,271.732,278.3108,0.349928075,0.347194238,1,0,0,0.5653,compass,0,7,7,24,1,SoundStimuli/UptownFunk_MarkRonson_Cover5S.wav,,,,,,,,,,,,,,,,,,,,,,,,,,,,,,,,,,,,,,,,,,,,,,,,,,,,
,,,,,948793,001,2024-07-12_19h36.01.646,experiment,2024.1.5,Win32,60.24096386,57e4d48d6c447e000116b22a,6691931c2c63981b064e1f0c,6691bd49f05f8af21da73491,,,,,,,,,,,,,,,,,,,,,,,,,,,,,,,,,,,,,,,,,,,,,,,,,,,,,,,,,,,,278.3156,286.0939,0.142733831,0.140000004,1,0,0,1.7669,compass,0,8,8,11,1,SoundStimuli/Superstition_StevieWonder_Original5S.wav,,,,,,,,,,,,,,,,,,,,,,,,,,,,,,,,,,,,,,,,,,,,,,,,,,,,
,,,,,948793,001,2024-07-12_19h36.01.646,experiment,2024.1.5,Win32,60.24096386,57e4d48d6c447e000116b22a,6691931c2c63981b064e1f0c,6691bd49f05f8af21da73491,,,,,,,,,,,,,,,,,,,,,,,,,,,,,,,,,,,,,,,,,,,,,,,,,,,,,,,,,,,,286.0998,292.8098,-0.234820161,0.320719427,1,0,0,0.6973,compass,0,9,9,16,1,SoundStimuli/BohemianRhapsody_Queen_Cover5S.wav,,,,,,,,,,,,,,,,,,,,,,,,,,,,,,,,,,,,,,,,,,,,,,,,,,,,
,,,,,948793,001,2024-07-12_19h36.01.646,experiment,2024.1.5,Win32,60.24096386,57e4d48d6c447e000116b22a,6691931c2c63981b064e1f0c,6691bd49f05f8af21da73491,,,,,,,,,,,,,,,,,,,,,,,,,,,,,,,,,,,,,,,,,,,,,,,,,,,,,,,,,,,,292.8154,299.2099,-0.250935199,0.31841726,1,0,0,0.3814,compass,0,10,10,23,1,SoundStimuli/StrawberryFieldsForever_TheBeatles_Cover5S.wav,,,,,,,,,,,,,,,,,,,,,,,,,,,,,,,,,,,,,,,,,,,,,,,,,,,,
,,,,,948793,001,2024-07-12_19h36.01.646,experiment,2024.1.5,Win32,60.24096386,57e4d48d6c447e000116b22a,6691931c2c63981b064e1f0c,6691bd49f05f8af21da73491,,,,,,,,,,,,,,,,,,,,,,,,,,,,,,,,,,,,,,,,,,,,,,,,,,,,,,,,,,,,299.2153,309.7107,0.248633076,0.310359708,1,0,0,4.4831,compass,0,11,11,12,1,SoundStimuli/IWillAlwaysLoveYou_WhitneyHouston_Original5S.wav,,,,,,,,,,,,,,,,,,,,,,,,,,,,,,,,,,,,,,,,,,,,,,,,,,,,
,,,,,948793,001,2024-07-12_19h36.01.646,experiment,2024.1.5,Win32,60.24096386,57e4d48d6c447e000116b22a,6691931c2c63981b064e1f0c,6691bd49f05f8af21da73491,,,,,,,,,,,,,,,,,,,,,,,,,,,,,,,,,,,,,,,,,,,,,,,,,,,,,,,,,,,,309.716,318.1266,0.340719407,0.323021583,1,0,0,2.3998,compass,0,12,12,33,1,SoundStimuli/StandByMe_BenEKing_Original5S.wav,,,,,,,,,,,,,,,,,,,,,,,,,,,,,,,,,,,,,,,,,,,,,,,,,,,,
,,,,,948793,001,2024-07-12_19h36.01.646,experiment,2024.1.5,Win32,60.24096386,57e4d48d6c447e000116b22a,6691931c2c63981b064e1f0c,6691bd49f05f8af21da73491,,,,,,,,,,,,,,,,,,,,,,,,,,,,,,,,,,,,,,,,,,,,,,,,,,,,,,,,,,,,318.1318,327.0769,0.021870521,0.222877689,1,0,0,2.9333,compass,0,13,13,17,1,SoundStimuli/Fallin_AliciaKeys_Cover5S.wav,,,,,,,,,,,,,,,,,,,,,,,,,,,,,,,,,,,,,,,,,,,,,,,,,,,,
,,,,,948793,001,2024-07-12_19h36.01.646,experiment,2024.1.5,Win32,60.24096386,57e4d48d6c447e000116b22a,6691931c2c63981b064e1f0c,6691bd49f05f8af21da73491,,,,,,,,,,,,,,,,,,,,,,,,,,,,,,,,,,,,,,,,,,,,,,,,,,,,,,,,,,,,327.0831,335.0099,0.141582769,-0.243309405,1,0,0,1.9148,compass,0,14,14,34,1,SoundStimuli/AChangeIsGonnaCome_SamCooke_Original5S.wav,,,,,,,,,,,,,,,,,,,,,,,,,,,,,,,,,,,,,,,,,,,,,,,,,,,,
,,,,,948793,001,2024-07-12_19h36.01.646,experiment,2024.1.5,Win32,60.24096386,57e4d48d6c447e000116b22a,6691931c2c63981b064e1f0c,6691bd49f05f8af21da73491,,,,,,,,,,,,,,,,,,,,,,,,,,,,,,,,,,,,,,,,,,,,,,,,,,,,,,,,,,,,335.016,342.4933,0.067913687,0.278129479,1,0,0,1.4665,compass,0,15,15,3,1,SoundStimuli/NoScrubs_TLC_Cover5S.wav,,,,,,,,,,,,,,,,,,,,,,,,,,,,,,,,,,,,,,,,,,,,,,,,,,,,
,,,,,948793,001,2024-07-12_19h36.01.646,experiment,2024.1.5,Win32,60.24096386,57e4d48d6c447e000116b22a,6691931c2c63981b064e1f0c,6691bd49f05f8af21da73491,,,,,,,,,,,,,,,,,,,,,,,,,,,,,,,,,,,,,,,,,,,,,,,,,,,,,,,,,,,,342.4987,349.5266,0.013813002,0.288489209,1,0,0,1.0143,compass,0,16,16,4,1,SoundStimuli/GetUrFreakOn_MissyElliot_Cover5S.wav,,,,,,,,,,,,,,,,,,,,,,,,,,,,,,,,,,,,,,,,,,,,,,,,,,,,
,,,,,948793,001,2024-07-12_19h36.01.646,experiment,2024.1.5,Win32,60.24096386,57e4d48d6c447e000116b22a,6691931c2c63981b064e1f0c,6691bd49f05f8af21da73491,,,,,,,,,,,,,,,,,,,,,,,,,,,,,,,,,,,,,,,,,,,,,,,,,,,,,,,,,,,,349.5314,356.2608,0.320000035,0.243597105,1,0,0,0.7154,compass,0,17,17,31,1,SoundStimuli/TheBattleOfNewOrleans_JohnnyHorton_Original5S.wav,,,,,,,,,,,,,,,,,,,,,,,,,,,,,,,,,,,,,,,,,,,,,,,,,,,,
,,,,,948793,001,2024-07-12_19h36.01.646,experiment,2024.1.5,Win32,60.24096386,57e4d48d6c447e000116b22a,6691931c2c63981b064e1f0c,6691bd49f05f8af21da73491,,,,,,,,,,,,,,,,,,,,,,,,,,,,,,,,,,,,,,,,,,,,,,,,,,,,,,,,,,,,356.2665,362.7942,0.345323741,0.336834508,1,0,0,0.5175,compass,0,18,18,6,1,SoundStimuli/Levitating_DuaLipa_Original5S.wav,,,,,,,,,,,,,,,,,,,,,,,,,,,,,,,,,,,,,,,,,,,,,,,,,,,,
,,,,,948793,001,2024-07-12_19h36.01.646,experiment,2024.1.5,Win32,60.24096386,57e4d48d6c447e000116b22a,6691931c2c63981b064e1f0c,6691bd49f05f8af21da73491,,,,,,,,,,,,,,,,,,,,,,,,,,,,,,,,,,,,,,,,,,,,,,,,,,,,,,,,,,,,362.7991,372.1112,0.214100702,-0.087913766,1,0,0,3.2987,compass,0,19,19,14,1,SoundStimuli/BlindingLights_TheWeeknd_Cover5S.wav,,,,,,,,,,,,,,,,,,,,,,,,,,,,,,,,,,,,,,,,,,,,,,,,,,,,
,,,,,948793,001,2024-07-12_19h36.01.646,experiment,2024.1.5,Win32,60.24096386,57e4d48d6c447e000116b22a,6691931c2c63981b064e1f0c,6691bd49f05f8af21da73491,,,,,,,,,,,,,,,,,,,,,,,,,,,,,,,,,,,,,,,,,,,,,,,,,,,,,,,,,,,,372.1165,378.7767,-0.187625847,-0.081007221,1,0,0,0.6476,compass,0,20,20,18,1,SoundStimuli/AnotherOneBitesTheDust_Queen_Cover5S.wav,,,,,,,,,,,,,,,,,,,,,,,,,,,,,,,,,,,,,,,,,,,,,,,,,,,,
,,,,,948793,001,2024-07-12_19h36.01.646,experiment,2024.1.5,Win32,60.24096386,57e4d48d6c447e000116b22a,6691931c2c63981b064e1f0c,6691bd49f05f8af21da73491,,,,,,,,,,,,,,,,,,,,,,,,,,,,,,,,,,,,,,,,,,,,,,,,,,,,,,,,,,,,378.7823,387.1942,0.122014371,-0.079856115,1,0,0,2.3987,compass,0,21,21,28,1,SoundStimuli/ComeAndGetYourLove_Redbone_Cover5S.wav,,,,,,,,,,,,,,,,,,,,,,,,,,,,,,,,,,,,,,,,,,,,,,,,,,,,
,,,,,948793,001,2024-07-12_19h36.01.646,experiment,2024.1.5,Win32,60.24096386,57e4d48d6c447e000116b22a,6691931c2c63981b064e1f0c,6691bd49f05f8af21da73491,,,,,,,,,,,,,,,,,,,,,,,,,,,,,,,,,,,,,,,,,,,,,,,,,,,,,,,,,,,,387.1997,397.1609,0.08057554,0.25625898,1,0,0,3.9483,compass,0,22,22,8,1,SoundStimuli/LikeAPrayer_Madonna_Cover5S.wav,,,,,,,,,,,,,,,,,,,,,,,,,,,,,,,,,,,,,,,,,,,,,,,,,,,,
,,,,,948793,001,2024-07-12_19h36.01.646,experiment,2024.1.5,Win32,60.24096386,57e4d48d6c447e000116b22a,6691931c2c63981b064e1f0c,6691bd49f05f8af21da73491,,,,,,,,,,,,,,,,,,,,,,,,,,,,,,,,,,,,,,,,,,,,,,,,,,,,,,,,,,,,397.1666,405.0606,-0.332661888,-0.074100719,1,0,0,1.8812,compass,0,23,23,10,1,SoundStimuli/BadDay_DanielPowter_Original5S.wav,,,,,,,,,,,,,,,,,,,,,,,,,,,,,,,,,,,,,,,,,,,,,,,,,,,,
,,,,,948793,001,2024-07-12_19h36.01.646,experiment,2024.1.5,Win32,60.24096386,57e4d48d6c447e000116b22a,6691931c2c63981b064e1f0c,6691bd49f05f8af21da73491,,,,,,,,,,,,,,,,,,,,,,,,,,,,,,,,,,,,,,,,,,,,,,,,,,,,,,,,,,,,405.0658,414.5607,0.287769784,0.104316547,1,0,0,3.4819,compass,0,24,24,25,1,SoundStimuli/Respect_ArethaFranklin_Cover5S.wav,,,,,,,,,,,,,,,,,,,,,,,,,,,,,,,,,,,,,,,,,,,,,,,,,,,,
,,,,,948793,001,2024-07-12_19h36.01.646,experiment,2024.1.5,Win32,60.24096386,57e4d48d6c447e000116b22a,6691931c2c63981b064e1f0c,6691bd49f05f8af21da73491,,,,,,,,,,,,,,,,,,,,,,,,,,,,,,,,,,,,,,,,,,,,,,,,,,,,,,,,,,,,414.5666,421.8605,0.302733848,0.001870486,1,0,0,1.2835,compass,0,25,25,27,1,SoundStimuli/ShapeofYou_EdSheeran_Cover5S.wav,,,,,,,,,,,,,,,,,,,,,,,,,,,,,,,,,,,,,,,,,,,,,,,,,,,,
,,,,,948793,001,2024-07-12_19h36.01.646,experiment,2024.1.5,Win32,60.24096386,57e4d48d6c447e000116b22a,6691931c2c63981b064e1f0c,6691bd49f05f8af21da73491,,,,,,,,,,,,,,,,,,,,,,,,,,,,,,,,,,,,,,,,,,,,,,,,,,,,,,,,,,,,421.8667,428.6941,0.310791367,0.294244604,1,0,0,0.8173,compass,0,26,26,26,1,SoundStimuli/LivinOnAPrayer_BonJovi_Original5S.wav,,,,,,,,,,,,,,,,,,,,,,,,,,,,,,,,,,,,,,,,,,,,,,,,,,,,
,,,,,948793,001,2024-07-12_19h36.01.646,experiment,2024.1.5,Win32,60.24096386,57e4d48d6c447e000116b22a,6691931c2c63981b064e1f0c,6691bd49f05f8af21da73491,,,,,,,,,,,,,,,,,,,,,,,,,,,,,,,,,,,,,,,,,,,,,,,,,,,,,,,,,,,,428.6993,436.8612,0.298129514,-0.00388491,1,0,0,2.1483,compass,0,27,27,0,1,SoundStimuli/StayinAlive_BeeGees_Cover5S.wav,,,,,,,,,,,,,,,,,,,,,,,,,,,,,,,,,,,,,,,,,,,,,,,,,,,,
,,,,,948793,001,2024-07-12_19h36.01.646,experiment,2024.1.5,Win32,60.24096386,57e4d48d6c447e000116b22a,6691931c2c63981b064e1f0c,6691bd49f05f8af21da73491,,,,,,,,,,,,,,,,,,,,,,,,,,,,,,,,,,,,,,,,,,,,,,,,,,,,,,,,,,,,436.867,445.1792,0.056402895,0.005323715,1,0,0,2.3006,compass,0,28,28,2,1,SoundStimuli/Mood_24kGoldnianndior_Original5S.wav,,,,,,,,,,,,,,,,,,,,,,,,,,,,,,,,,,,,,,,,,,,,,,,,,,,,
,,,,,948793,001,2024-07-12_19h36.01.646,experiment,2024.1.5,Win32,60.24096386,57e4d48d6c447e000116b22a,6691931c2c63981b064e1f0c,6691bd49f05f8af21da73491,,,,,,,,,,,,,,,,,,,,,,,,,,,,,,,,,,,,,,,,,,,,,,,,,,,,,,,,,,,,445.185,453.577,-0.24287768,0.31496402,1,0,0,2.3836,compass,0,29,29,9,1,SoundStimuli/Despacito_LuisFonsiDaddyYankee_Original5S.wav,,,,,,,,,,,,,,,,,,,,,,,,,,,,,,,,,,,,,,,,,,,,,,,,,,,,
,,,,,948793,001,2024-07-12_19h36.01.646,experiment,2024.1.5,Win32,60.24096386,57e4d48d6c447e000116b22a,6691931c2c63981b064e1f0c,6691bd49f05f8af21da73491,,,,,,,,,,,,,,,,,,,,,,,,,,,,,,,,,,,,,,,,,,,,,,,,,,,,,,,,,,,,453.5826,462.8438,-0.004604334,0.281582686,1,0,0,3.248,compass,0,30,30,20,1,SoundStimuli/HeyYa_Outkast_Original5S.wav,,,,,,,,,,,,,,,,,,,,,,,,,,,,,,,,,,,,,,,,,,,,,,,,,,,,
,,,,,948793,001,2024-07-12_19h36.01.646,experiment,2024.1.5,Win32,60.24096386,57e4d48d6c447e000116b22a,6691931c2c63981b064e1f0c,6691bd49f05f8af21da73491,,,,,,,,,,,,,,,,,,,,,,,,,,,,,,,,,,,,,,,,,,,,,,,,,,,,,,,,,,,,462.8495,470.7601,0.322302158,0.321870499,1,0,0,1.8975,compass,0,31,31,19,1,SoundStimuli/LetsGetItOn_MarvinGaye_Original5S.wav,,,,,,,,,,,,,,,,,,,,,,,,,,,,,,,,,,,,,,,,,,,,,,,,,,,,
,,,,,948793,001,2024-07-12_19h36.01.646,experiment,2024.1.5,Win32,60.24096386,57e4d48d6c447e000116b22a,6691931c2c63981b064e1f0c,6691bd49f05f8af21da73491,,,,,,,,,,,,,,,,,,,,,,,,,,,,,,,,,,,,,,,,,,,,,,,,,,,,,,,,,,,,470.7651,479.0269,0.309640305,0.00647482,1,0,0,2.2499,compass,0,32,32,13,1,SoundStimuli/GodOnlyKnows_TheBeachBoys_Original5S.wav,,,,,,,,,,,,,,,,,,,,,,,,,,,,,,,,,,,,,,,,,,,,,,,,,,,,
,,,,,948793,001,2024-07-12_19h36.01.646,experiment,2024.1.5,Win32,60.24096386,57e4d48d6c447e000116b22a,6691931c2c63981b064e1f0c,6691bd49f05f8af21da73491,,,,,,,,,,,,,,,,,,,,,,,,,,,,,,,,,,,,,,,,,,,,,,,,,,,,,,,,,,,,479.0331,487.7112,0.098992788,-0.005035971,1,0,0,2.6648,compass,0,33,33,30,1,SoundStimuli/PokerFace_LadyGaga_Cover5S.wav,,,,,,,,,,,,,,,,,,,,,,,,,,,,,,,,,,,,,,,,,,,,,,,,,,,,
,,,,,948793,001,2024-07-12_19h36.01.646,experiment,2024.1.5,Win32,60.24096386,57e4d48d6c447e000116b22a,6691931c2c63981b064e1f0c,6691bd49f05f8af21da73491,,,,,,,,,,,,,,,,,,,,,,,,,,,,,,,,,,,,,,,,,,,,,,,,,,,,,,,,,,,,487.7169,494.527,0.260143867,0.339136686,1,0,0,0.8,compass,0,34,34,15,1,SoundStimuli/TikTok_Kesha_Original5S.wav,,,,,,,,,,,,,,,,,,,,,,,,,,,,,,,,,,,,,,,,,,,,,,,,,,,,
,,,,,948793,001,2024-07-12_19h36.01.646,experiment,2024.1.5,Win32,60.24096386,57e4d48d6c447e000116b22a,6691931c2c63981b064e1f0c,6691bd49f05f8af21da73491,,,,,,,,,,,,,,,,,,,,,,,,,,,,,,,,,,,,,,,,,,,,,,,,,,,,,,,,,,,,,,,,,,,,,,,,,,,494.5329,496.7436,space,2.1951,0.0002,496.7436,554.4443,right,57.6676,,0,0,0,0,1,block_order/blockC.xlsx,,,,,,,,,,,,,,,,,,,,,,,,,,,,,,,,,,,,
,,,,,948793,001,2024-07-12_19h36.01.646,experiment,2024.1.5,Win32,60.24096386,57e4d48d6c447e000116b22a,6691931c2c63981b064e1f0c,6691bd49f05f8af21da73491,,,,,,,,,,,,,,,,,,,,,,,,,,,,,,,,,,,,,,,,,,,,,,,,,,,,,,,,,,,,554.4504,563.5775,-0.002777735,-0.14907406,1,0,0,3.117,compass,0,0,0,18,1,SoundStimuli/Weak_SWV_Cover5S.wav,,,,,,,,,,,,,,,,,,,,,,,,,,,,,,,,,,,,,,,,,,,,,,,,,,,,
,,,,,948793,001,2024-07-12_19h36.01.646,experiment,2024.1.5,Win32,60.24096386,57e4d48d6c447e000116b22a,6691931c2c63981b064e1f0c,6691bd49f05f8af21da73491,,,,,,,,,,,,,,,,,,,,,,,,,,,,,,,,,,,,,,,,,,,,,,,,,,,,,,,,,,,,563.5834,570.0769,0.324074074,0.320370374,1,0,0,0.4829,compass,0,1,1,3,1,SoundStimuli/PartyRockAnthem_LMFAO_Original5S.wav,,,,,,,,,,,,,,,,,,,,,,,,,,,,,,,,,,,,,,,,,,,,,,,,,,,,
,,,,,948793,001,2024-07-12_19h36.01.646,experiment,2024.1.5,Win32,60.24096386,57e4d48d6c447e000116b22a,6691931c2c63981b064e1f0c,6691bd49f05f8af21da73491,,,,,,,,,,,,,,,,,,,,,,,,,,,,,,,,,,,,,,,,,,,,,,,,,,,,,,,,,,,,570.0824,578.9107,-0.268518519,0.199999986,1,0,0,2.8165,compass,0,2,2,0,1,SoundStimuli/GimmeShelter_RollingStones_Original5S.wav,,,,,,,,,,,,,,,,,,,,,,,,,,,,,,,,,,,,,,,,,,,,,,,,,,,,
,,,,,948793,001,2024-07-12_19h36.01.646,experiment,2024.1.5,Win32,60.24096386,57e4d48d6c447e000116b22a,6691931c2c63981b064e1f0c,6691bd49f05f8af21da73491,,,,,,,,,,,,,,,,,,,,,,,,,,,,,,,,,,,,,,,,,,,,,,,,,,,,,,,,,,,,578.9254,587.9944,-0.283333319,0.14444443,1,0,0,3.0665,compass,0,3,3,31,1,SoundStimuli/TossinAndTurnin_BobbyLewis_Original5S.wav,,,,,,,,,,,,,,,,,,,,,,,,,,,,,,,,,,,,,,,,,,,,,,,,,,,,
,,,,,948793,001,2024-07-12_19h36.01.646,experiment,2024.1.5,Win32,60.24096386,57e4d48d6c447e000116b22a,6691931c2c63981b064e1f0c,6691bd49f05f8af21da73491,,,,,,,,,,,,,,,,,,,,,,,,,,,,,,,,,,,,,,,,,,,,,,,,,,,,,,,,,,,,588.0039,596.794,-0.115740741,0.058333326,1,0,0,2.7833,compass,0,4,4,20,1,SoundStimuli/FlashdanceWhatAFeeling_IreneCara_Original5S.wav,,,,,,,,,,,,,,,,,,,,,,,,,,,,,,,,,,,,,,,,,,,,,,,,,,,,
,,,,,948793,001,2024-07-12_19h36.01.646,experiment,2024.1.5,Win32,60.24096386,57e4d48d6c447e000116b22a,6691931c2c63981b064e1f0c,6691bd49f05f8af21da73491,,,,,,,,,,,,,,,,,,,,,,,,,,,,,,,,,,,,,,,,,,,,,,,,,,,,,,,,,,,,596.8026,603.9276,-0.299999979,0.318518515,1,0,0,1.1132,compass,0,5,5,11,1,SoundStimuli/BlurredLines_RobinThicke_Cover5S.wav,,,,,,,,,,,,,,,,,,,,,,,,,,,,,,,,,,,,,,,,,,,,,,,,,,,,
,,,,,948793,001,2024-07-12_19h36.01.646,experiment,2024.1.5,Win32,60.24096386,57e4d48d6c447e000116b22a,6691931c2c63981b064e1f0c,6691bd49f05f8af21da73491,,,,,,,,,,,,,,,,,,,,,,,,,,,,,,,,,,,,,,,,,,,,,,,,,,,,,,,,,,,,603.9421,610.8107,-0.339814822,-0.183333362,1,0,0,0.8664,compass,0,6,6,30,1,SoundStimuli/SomebodyThatIUsedtoKnow_Gotye_Original5S.wav,,,,,,,,,,,,,,,,,,,,,,,,,,,,,,,,,,,,,,,,,,,,,,,,,,,,
,,,,,948793,001,2024-07-12_19h36.01.646,experiment,2024.1.5,Win32,60.24096386,57e4d48d6c447e000116b22a,6691931c2c63981b064e1f0c,6691bd49f05f8af21da73491,,,,,,,,,,,,,,,,,,,,,,,,,,,,,,,,,,,,,,,,,,,,,,,,,,,,,,,,,,,,610.819,622.4775,-0.121296282,0.13703703,1,0,0,5.6494,compass,0,7,7,14,1,SoundStimuli/LikeARollingStone_BobDylan_Original5S.wav,,,,,,,,,,,,,,,,,,,,,,,,,,,,,,,,,,,,,,,,,,,,,,,,,,,,
,,,,,948793,001,2024-07-12_19h36.01.646,experiment,2024.1.5,Win32,60.24096386,57e4d48d6c447e000116b22a,6691931c2c63981b064e1f0c,6691bd49f05f8af21da73491,,,,,,,,,,,,,,,,,,,,,,,,,,,,,,,,,,,,,,,,,,,,,,,,,,,,,,,,,,,,622.4867,629.9941,-0.238888847,-0.044444437,1,0,0,1.4973,compass,0,8,8,4,1,SoundStimuli/Dreams_FleetwoodMac_Original5S.wav,,,,,,,,,,,,,,,,,,,,,,,,,,,,,,,,,,,,,,,,,,,,,,,,,,,,
,,,,,948793,001,2024-07-12_19h36.01.646,experiment,2024.1.5,Win32,60.24096386,57e4d48d6c447e000116b22a,6691931c2c63981b064e1f0c,6691bd49f05f8af21da73491,,,,,,,,,,,,,,,,,,,,,,,,,,,,,,,,,,,,,,,,,,,,,,,,,,,,,,,,,,,,630.0038,636.4279,0.273148148,0.229629623,1,0,0,0.414,compass,0,9,9,28,1,SoundStimuli/IWantToHoldYourHand_TheBeatles_Original5S.wav,,,,,,,,,,,,,,,,,,,,,,,,,,,,,,,,,,,,,,,,,,,,,,,,,,,,
,,,,,948793,001,2024-07-12_19h36.01.646,experiment,2024.1.5,Win32,60.24096386,57e4d48d6c447e000116b22a,6691931c2c63981b064e1f0c,6691bd49f05f8af21da73491,,,,,,,,,,,,,,,,,,,,,,,,,,,,,,,,,,,,,,,,,,,,,,,,,,,,,,,,,,,,636.4285,644.9943,0.313888974,-0.262037065,1,0,0,2.5637,compass,0,10,10,13,1,SoundStimuli/Perfect_EdSheeran_Cover5S.wav,,,,,,,,,,,,,,,,,,,,,,,,,,,,,,,,,,,,,,,,,,,,,,,,,,,,
,,,,,948793,001,2024-07-12_19h36.01.646,experiment,2024.1.5,Win32,60.24096386,57e4d48d6c447e000116b22a,6691931c2c63981b064e1f0c,6691bd49f05f8af21da73491,,,,,,,,,,,,,,,,,,,,,,,,,,,,,,,,,,,,,,,,,,,,,,,,,,,,,,,,,,,,645.0032,651.6304,-0.342592593,-0.261111153,1,0,0,0.6195,compass,0,11,11,12,1,SoundStimuli/UnbreakMyHeart_ToniBraxton_Original5S.wav,,,,,,,,,,,,,,,,,,,,,,,,,,,,,,,,,,,,,,,,,,,,,,,,,,,,
,,,,,948793,001,2024-07-12_19h36.01.646,experiment,2024.1.5,Win32,60.24096386,57e4d48d6c447e000116b22a,6691931c2c63981b064e1f0c,6691bd49f05f8af21da73491,,,,,,,,,,,,,,,,,,,,,,,,,,,,,,,,,,,,,,,,,,,,,,,,,,,,,,,,,,,,651.6388,661.6943,-0.182407379,0.00462963,1,0,0,4.047,compass,0,12,12,32,1,SoundStimuli/Dilemma_NellyKellyRowland_Cover5S.wav,,,,,,,,,,,,,,,,,,,,,,,,,,,,,,,,,,,,,,,,,,,,,,,,,,,,
,,,,,948793,001,2024-07-12_19h36.01.646,experiment,2024.1.5,Win32,60.24096386,57e4d48d6c447e000116b22a,6691931c2c63981b064e1f0c,6691bd49f05f8af21da73491,,,,,,,,,,,,,,,,,,,,,,,,,,,,,,,,,,,,,,,,,,,,,,,,,,,,,,,,,,,,661.7036,669.511,-0.187962921,0.175925926,1,0,0,1.8002,compass,0,13,13,34,1,SoundStimuli/Irreplaceable_Beyonce_Cover5S.wav,,,,,,,,,,,,,,,,,,,,,,,,,,,,,,,,,,,,,,,,,,,,,,,,,,,,
,,,,,948793,001,2024-07-12_19h36.01.646,experiment,2024.1.5,Win32,60.24096386,57e4d48d6c447e000116b22a,6691931c2c63981b064e1f0c,6691bd49f05f8af21da73491,,,,,,,,,,,,,,,,,,,,,,,,,,,,,,,,,,,,,,,,,,,,,,,,,,,,,,,,,,,,669.5206,676.6608,-0.324999986,-0.08888891,1,0,0,1.13,compass,0,14,14,6,1,SoundStimuli/SaveYourTears_TheWeekndArianaGrande_Cover5S.wav,,,,,,,,,,,,,,,,,,,,,,,,,,,,,,,,,,,,,,,,,,,,,,,,,,,,
,,,,,948793,001,2024-07-12_19h36.01.646,experiment,2024.1.5,Win32,60.24096386,57e4d48d6c447e000116b22a,6691931c2c63981b064e1f0c,6691bd49f05f8af21da73491,,,,,,,,,,,,,,,,,,,,,,,,,,,,,,,,,,,,,,,,,,,,,,,,,,,,,,,,,,,,676.6699,684.3442,-0.199074074,0.105555534,1,0,0,1.6634,compass,0,15,15,7,1,SoundStimuli/MackTheKnife_BobbyDarin_Cover5S.wav,,,,,,,,,,,,,,,,,,,,,,,,,,,,,,,,,,,,,,,,,,,,,,,,,,,,
,,,,,948793,001,2024-07-12_19h36.01.646,experiment,2024.1.5,Win32,60.24096386,57e4d48d6c447e000116b22a,6691931c2c63981b064e1f0c,6691bd49f05f8af21da73491,,,,,,,,,,,,,,,,,,,,,,,,,,,,,,,,,,,,,,,,,,,,,,,,,,,,,,,,,,,,684.3538,690.7776,0.318518603,0.312962956,1,0,0,0.414,compass,0,16,16,26,1,SoundStimuli/TheSign_AceOfBase_Cover5S.wav,,,,,,,,,,,,,,,,,,,,,,,,,,,,,,,,,,,,,,,,,,,,,,,,,,,,
,,,,,948793,001,2024-07-12_19h36.01.646,experiment,2024.1.5,Win32,60.24096386,57e4d48d6c447e000116b22a,6691931c2c63981b064e1f0c,6691bd49f05f8af21da73491,,,,,,,,,,,,,,,,,,,,,,,,,,,,,,,,,,,,,,,,,,,,,,,,,,,,,,,,,,,,690.7869,699.378,-0.240740741,0.083333333,1,0,0,2.5837,compass,0,17,17,9,1,SoundStimuli/HowDoILive_LeAnnRimes_Cover5S.wav,,,,,,,,,,,,,,,,,,,,,,,,,,,,,,,,,,,,,,,,,,,,,,,,,,,,
,,,,,948793,001,2024-07-12_19h36.01.646,experiment,2024.1.5,Win32,60.24096386,57e4d48d6c447e000116b22a,6691931c2c63981b064e1f0c,6691bd49f05f8af21da73491,,,,,,,,,,,,,,,,,,,,,,,,,,,,,,,,,,,,,,,,,,,,,,,,,,,,,,,,,,,,699.387,710.2447,0.203703704,0.239814811,1,0,0,4.8498,compass,0,18,18,1,1,SoundStimuli/Smooth_SantanaRobThomas_Original5S.wav,,,,,,,,,,,,,,,,,,,,,,,,,,,,,,,,,,,,,,,,,,,,,,,,,,,,
,,,,,948793,001,2024-07-12_19h36.01.646,experiment,2024.1.5,Win32,60.24096386,57e4d48d6c447e000116b22a,6691931c2c63981b064e1f0c,6691bd49f05f8af21da73491,,,,,,,,,,,,,,,,,,,,,,,,,,,,,,,,,,,,,,,,,,,,,,,,,,,,,,,,,,,,710.2545,717.0941,0.001851894,0.087037016,1,0,0,0.8302,compass,0,19,19,24,1,SoundStimuli/Kiss_Prince_Cover5S.wav,,,,,,,,,,,,,,,,,,,,,,,,,,,,,,,,,,,,,,,,,,,,,,,,,,,,
,,,,,948793,001,2024-07-12_19h36.01.646,experiment,2024.1.5,Win32,60.24096386,57e4d48d6c447e000116b22a,6691931c2c63981b064e1f0c,6691bd49f05f8af21da73491,,,,,,,,,,,,,,,,,,,,,,,,,,,,,,,,,,,,,,,,,,,,,,,,,,,,,,,,,,,,717.103,726.5944,0.232407393,-0.170370384,1,0,0,3.4834,compass,0,20,20,19,1,SoundStimuli/YouLightUpMyLife_DebbyBoone_Original5S.wav,,,,,,,,,,,,,,,,,,,,,,,,,,,,,,,,,,,,,,,,,,,,,,,,,,,,
,,,,,948793,001,2024-07-12_19h36.01.646,experiment,2024.1.5,Win32,60.24096386,57e4d48d6c447e000116b22a,6691931c2c63981b064e1f0c,6691bd49f05f8af21da73491,,,,,,,,,,,,,,,,,,,,,,,,,,,,,,,,,,,,,,,,,,,,,,,,,,,,,,,,,,,,726.6036,736.5971,-0.297222208,0.269444448,1,0,0,3.9863,compass,0,21,21,33,1,SoundStimuli/TheBoyIsMine_BrandyMonica_Original5S.wav,,,,,,,,,,,,,,,,,,,,,,,,,,,,,,,,,,,,,,,,,,,,,,,,,,,,
,,,,,948793,001,2024-07-12_19h36.01.646,experiment,2024.1.5,Win32,60.24096386,57e4d48d6c447e000116b22a,6691931c2c63981b064e1f0c,6691bd49f05f8af21da73491,,,,,,,,,,,,,,,,,,,,,,,,,,,,,,,,,,,,,,,,,,,,,,,,,,,,,,,,,,,,736.6072,744.0945,-0.205555527,0.175925926,1,0,0,1.4807,compass,0,22,22,5,1,SoundStimuli/JoyToTheWorld_ThreeDogNight_Original5S.wav,,,,,,,,,,,,,,,,,,,,,,,,,,,,,,,,,,,,,,,,,,,,,,,,,,,,
,,,,,948793,001,2024-07-12_19h36.01.646,experiment,2024.1.5,Win32,60.24096386,57e4d48d6c447e000116b22a,6691931c2c63981b064e1f0c,6691bd49f05f8af21da73491,,,,,,,,,,,,,,,,,,,,,,,,,,,,,,,,,,,,,,,,,,,,,,,,,,,,,,,,,,,,744.1048,752.761,0.316666638,0.185185185,1,0,0,2.65,compass,0,23,23,27,1,SoundStimuli/EyeOfTheTiger_Survivor_Cover5S.wav,,,,,,,,,,,,,,,,,,,,,,,,,,,,,,,,,,,,,,,,,,,,,,,,,,,,
,,,,,948793,001,2024-07-12_19h36.01.646,experiment,2024.1.5,Win32,60.24096386,57e4d48d6c447e000116b22a,6691931c2c63981b064e1f0c,6691bd49f05f8af21da73491,,,,,,,,,,,,,,,,,,,,,,,,,,,,,,,,,,,,,,,,,,,,,,,,,,,,,,,,,,,,752.7695,759.9278,0.202777792,-0.005555577,1,0,0,1.147,compass,0,24,24,23,1,SoundStimuli/IWalkTheLine_JohnnyCash_Original5S.wav,,,,,,,,,,,,,,,,,,,,,,,,,,,,,,,,,,,,,,,,,,,,,,,,,,,,
,,,,,948793,001,2024-07-12_19h36.01.646,experiment,2024.1.5,Win32,60.24096386,57e4d48d6c447e000116b22a,6691931c2c63981b064e1f0c,6691bd49f05f8af21da73491,,,,,,,,,,,,,,,,,,,,,,,,,,,,,,,,,,,,,,,,,,,,,,,,,,,,,,,,,,,,759.9367,766.3442,0.324074074,0.333333333,1,0,0,0.4,compass,0,25,25,17,1,SoundStimuli/IWannaDanceWithSomebody_WhitneyHouston_Original5S.wav,,,,,,,,,,,,,,,,,,,,,,,,,,,,,,,,,,,,,,,,,,,,,,,,,,,,
,,,,,948793,001,2024-07-12_19h36.01.646,experiment,2024.1.5,Win32,60.24096386,57e4d48d6c447e000116b22a,6691931c2c63981b064e1f0c,6691bd49f05f8af21da73491,,,,,,,,,,,,,,,,,,,,,,,,,,,,,,,,,,,,,,,,,,,,,,,,,,,,,,,,,,,,766.3531,773.0277,-0.193518533,-0.235185199,1,0,0,0.664,compass,0,26,26,21,1,SoundStimuli/BridgeOverTroubledWater_SimonAndGarfunkel_Original5S.wav,,,,,,,,,,,,,,,,,,,,,,,,,,,,,,,,,,,,,,,,,,,,,,,,,,,,
,,,,,948793,001,2024-07-12_19h36.01.646,experiment,2024.1.5,Win32,60.24096386,57e4d48d6c447e000116b22a,6691931c2c63981b064e1f0c,6691bd49f05f8af21da73491,,,,,,,,,,,,,,,,,,,,,,,,,,,,,,,,,,,,,,,,,,,,,,,,,,,,,,,,,,,,773.0366,780.161,0.116666653,0.289814808,1,0,0,1.1139,compass,0,27,27,10,1,SoundStimuli/LeFreak_Chic_Cover5S.wav,,,,,,,,,,,,,,,,,,,,,,,,,,,,,,,,,,,,,,,,,,,,,,,,,,,,
,,,,,948793,001,2024-07-12_19h36.01.646,experiment,2024.1.5,Win32,60.24096386,57e4d48d6c447e000116b22a,6691931c2c63981b064e1f0c,6691bd49f05f8af21da73491,,,,,,,,,,,,,,,,,,,,,,,,,,,,,,,,,,,,,,,,,,,,,,,,,,,,,,,,,,,,780.1695,786.8278,0.343518575,0.345370363,1,0,0,0.6498,compass,0,28,28,22,1,SoundStimuli/Happy_PharellWilliams_Original5S.wav,,,,,,,,,,,,,,,,,,,,,,,,,,,,,,,,,,,,,,,,,,,,,,,,,,,,
,,,,,948793,001,2024-07-12_19h36.01.646,experiment,2024.1.5,Win32,60.24096386,57e4d48d6c447e000116b22a,6691931c2c63981b064e1f0c,6691bd49f05f8af21da73491,,,,,,,,,,,,,,,,,,,,,,,,,,,,,,,,,,,,,,,,,,,,,,,,,,,,,,,,,,,,786.8368,795.3611,-0.298148155,0.001851859,1,0,0,2.5137,compass,0,29,29,8,1,SoundStimuli/EndlessLove_DianaRossLionelRichie_Cover5S.wav,,,,,,,,,,,,,,,,,,,,,,,,,,,,,,,,,,,,,,,,,,,,,,,,,,,,
,,,,,948793,001,2024-07-12_19h36.01.646,experiment,2024.1.5,Win32,60.24096386,57e4d48d6c447e000116b22a,6691931c2c63981b064e1f0c,6691bd49f05f8af21da73491,,,,,,,,,,,,,,,,,,,,,,,,,,,,,,,,,,,,,,,,,,,,,,,,,,,,,,,,,,,,795.3702,803.1444,-0.243518476,0.274999989,1,0,0,1.7636,compass,0,30,30,2,1,SoundStimuli/SmellsLikeTeenSpirit_Nirvana_Original5S.wav,,,,,,,,,,,,,,,,,,,,,,,,,,,,,,,,,,,,,,,,,,,,,,,,,,,,
,,,,,948793,001,2024-07-12_19h36.01.646,experiment,2024.1.5,Win32,60.24096386,57e4d48d6c447e000116b22a,6691931c2c63981b064e1f0c,6691bd49f05f8af21da73491,,,,,,,,,,,,,,,,,,,,,,,,,,,,,,,,,,,,,,,,,,,,,,,,,,,,,,,,,,,,803.1528,810.3944,-0.304629608,-0.25462963,1,0,0,1.2334,compass,0,31,31,16,1,SoundStimuli/ItsAllInTheGame_TommyEdwards_Cover5S.wav,,,,,,,,,,,,,,,,,,,,,,,,,,,,,,,,,,,,,,,,,,,,,,,,,,,,
,,,,,948793,001,2024-07-12_19h36.01.646,experiment,2024.1.5,Win32,60.24096386,57e4d48d6c447e000116b22a,6691931c2c63981b064e1f0c,6691bd49f05f8af21da73491,,,,,,,,,,,,,,,,,,,,,,,,,,,,,,,,,,,,,,,,,,,,,,,,,,,,,,,,,,,,810.4037,817.311,-0.287037037,0.130555541,1,0,0,0.9,compass,0,32,32,29,1,SoundStimuli/BetteDavisEyes_KimCarnes_Original5S.wav,,,,,,,,,,,,,,,,,,,,,,,,,,,,,,,,,,,,,,,,,,,,,,,,,,,,
,,,,,948793,001,2024-07-12_19h36.01.646,experiment,2024.1.5,Win32,60.24096386,57e4d48d6c447e000116b22a,6691931c2c63981b064e1f0c,6691bd49f05f8af21da73491,,,,,,,,,,,,,,,,,,,,,,,,,,,,,,,,,,,,,,,,,,,,,,,,,,,,,,,,,,,,817.3194,824.8109,-0.219444416,0.000925912,1,0,0,1.4804,compass,0,33,33,15,1,SoundStimuli/CrazyInLove_BeyonceFtJayZ_Cover5S.wav,,,,,,,,,,,,,,,,,,,,,,,,,,,,,,,,,,,,,,,,,,,,,,,,,,,,
,,,,,948793,001,2024-07-12_19h36.01.646,experiment,2024.1.5,Win32,60.24096386,57e4d48d6c447e000116b22a,6691931c2c63981b064e1f0c,6691bd49f05f8af21da73491,,,,,,,,,,,,,,,,,,,,,,,,,,,,,,,,,,,,,,,,,,,,,,,,,,,,,,,,,,,,824.8196,833.2948,0.251851894,-0.207407422,1,0,0,2.4645,compass,0,34,34,25,1,SoundStimuli/IllMakeLoveToYou_BoyzIIMen_Cover5S.wav,,,,,,,,,,,,,,,,,,,,,,,,,,,,,,,,,,,,,,,,,,,,,,,,,,,,
,,,,,948793,001,2024-07-12_19h36.01.646,experiment,2024.1.5,Win32,60.24096386,57e4d48d6c447e000116b22a,6691931c2c63981b064e1f0c,6691bd49f05f8af21da73491,,,,,,,,,,,,,,,,,,,,,,,,,,,,,,,,,,,,,,,,,,,,,,,,,,,,,,,,,,,,,,,,,,,,,,,,,,,833.3045,1000.8447,space,167.523,,1000.8449,1005.5619,right,4.6848,,0,1,1,1,1,block_order/blockD.xlsx,,,,,,,,,,,,,,,,,,,,,,,,,,,,,,,,,,,,
,,,,,948793,001,2024-07-12_19h36.01.646,experiment,2024.1.5,Win32,60.24096386,57e4d48d6c447e000116b22a,6691931c2c63981b064e1f0c,6691bd49f05f8af21da73491,,,,,,,,,,,,,,,,,,,,,,,,,,,,,,,,,,,,,,,,,,,,,,,,,,,,,,,,,,,,1005.5725,1012.1778,0.235185199,0.180555556,1,0,0,0.5972,compass,0,0,0,28,1,SoundStimuli/ComeAndGetYourLove_Redbone_Original5S.wav,,,,,,,,,,,,,,,,,,,,,,,,,,,,,,,,,,,,,,,,,,,,,,,,,,,,
,,,,,948793,001,2024-07-12_19h36.01.646,experiment,2024.1.5,Win32,60.24096386,57e4d48d6c447e000116b22a,6691931c2c63981b064e1f0c,6691bd49f05f8af21da73491,,,,,,,,,,,,,,,,,,,,,,,,,,,,,,,,,,,,,,,,,,,,,,,,,,,,,,,,,,,,1012.1837,1019.6961,-0.259259259,-0.178703732,1,0,0,1.4991,compass,0,1,1,31,1,SoundStimuli/TheBattleOfNewOrleans_JohnnyHorton_Cover5S.wav,,,,,,,,,,,,,,,,,,,,,,,,,,,,,,,,,,,,,,,,,,,,,,,,,,,,
,,,,,948793,001,2024-07-12_19h36.01.646,experiment,2024.1.5,Win32,60.24096386,57e4d48d6c447e000116b22a,6691931c2c63981b064e1f0c,6691bd49f05f8af21da73491,,,,,,,,,,,,,,,,,,,,,,,,,,,,,,,,,,,,,,,,,,,,,,,,,,,,,,,,,,,,1019.7016,1026.2454,0.310185185,-0.290740755,1,0,0,0.5318,compass,0,2,2,15,1,SoundStimuli/TikTok_Kesha_Cover5S.wav,,,,,,,,,,,,,,,,,,,,,,,,,,,,,,,,,,,,,,,,,,,,,,,,,,,,
,,,,,948793,001,2024-07-12_19h36.01.646,experiment,2024.1.5,Win32,60.24096386,57e4d48d6c447e000116b22a,6691931c2c63981b064e1f0c,6691bd49f05f8af21da73491,,,,,,,,,,,,,,,,,,,,,,,,,,,,,,,,,,,,,,,,,,,,,,,,,,,,,,,,,,,,1026.2511,1034.8109,0.087037051,0.087962963,1,0,0,2.5476,compass,0,3,3,34,1,SoundStimuli/AChangeIsGonnaCome_SamCooke_Cover5S.wav,,,,,,,,,,,,,,,,,,,,,,,,,,,,,,,,,,,,,,,,,,,,,,,,,,,,
,,,,,948793,001,2024-07-12_19h36.01.646,experiment,2024.1.5,Win32,60.24096386,57e4d48d6c447e000116b22a,6691931c2c63981b064e1f0c,6691bd49f05f8af21da73491,,,,,,,,,,,,,,,,,,,,,,,,,,,,,,,,,,,,,,,,,,,,,,,,,,,,,,,,,,,,1034.8174,1041.7612,-0.255555541,0.292592596,1,0,0,0.9313,compass,0,4,4,18,1,SoundStimuli/AnotherOneBitesTheDust_Queen_Original5S.wav,,,,,,,,,,,,,,,,,,,,,,,,,,,,,,,,,,,,,,,,,,,,,,,,,,,,
,,,,,948793,001,2024-07-12_19h36.01.646,experiment,2024.1.5,Win32,60.24096386,57e4d48d6c447e000116b22a,6691931c2c63981b064e1f0c,6691bd49f05f8af21da73491,,,,,,,,,,,,,,,,,,,,,,,,,,,,,,,,,,,,,,,,,,,,,,,,,,,,,,,,,,,,1041.7673,1049.7446,-0.179629644,0.316666656,1,0,0,1.9637,compass,0,5,5,14,1,SoundStimuli/BlindingLights_TheWeeknd_Original5S.wav,,,,,,,,,,,,,,,,,,,,,,,,,,,,,,,,,,,,,,,,,,,,,,,,,,,,
,,,,,948793,001,2024-07-12_19h36.01.646,experiment,2024.1.5,Win32,60.24096386,57e4d48d6c447e000116b22a,6691931c2c63981b064e1f0c,6691bd49f05f8af21da73491,,,,,,,,,,,,,,,,,,,,,,,,,,,,,,,,,,,,,,,,,,,,,,,,,,,,,,,,,,,,1049.7507,1057.9944,-0.333333333,0.002777771,1,0,0,2.2333,compass,0,6,6,16,1,SoundStimuli/BohemianRhapsody_Queen_Original5S.wav,,,,,,,,,,,,,,,,,,,,,,,,,,,,,,,,,,,,,,,,,,,,,,,,,,,,
,,,,,948793,001,2024-07-12_19h36.01.646,experiment,2024.1.5,Win32,60.24096386,57e4d48d6c447e000116b22a,6691931c2c63981b064e1f0c,6691bd49f05f8af21da73491,,,,,,,,,,,,,,,,,,,,,,,,,,,,,,,,,,,,,,,,,,,,,,,,,,,,,,,,,,,,1058.0004,1064.9111,-0.261111083,-0.002777771,1,0,0,0.8979,compass,0,7,7,29,1,SoundStimuli/OldTownRoad_LilNasX_Original5S.wav,,,,,,,,,,,,,,,,,,,,,,,,,,,,,,,,,,,,,,,,,,,,,,,,,,,,
,,,,,948793,001,2024-07-12_19h36.01.646,experiment,2024.1.5,Win32,60.24096386,57e4d48d6c447e000116b22a,6691931c2c63981b064e1f0c,6691bd49f05f8af21da73491,,,,,,,,,,,,,,,,,,,,,,,,,,,,,,,,,,,,,,,,,,,,,,,,,,,,,,,,,,,,1064.9167,1072.8114,0.20185188,-0.095370399,1,0,0,1.8833,compass,0,8,8,26,1,SoundStimuli/LivinOnAPrayer_BonJovi_Cover5S.wav,,,,,,,,,,,,,,,,,,,,,,,,,,,,,,,,,,,,,,,,,,,,,,,,,,,,
,,,,,948793,001,2024-07-12_19h36.01.646,experiment,2024.1.5,Win32,60.24096386,57e4d48d6c447e000116b22a,6691931c2c63981b064e1f0c,6691bd49f05f8af21da73491,,,,,,,,,,,,,,,,,,,,,,,,,,,,,,,,,,,,,,,,,,,,,,,,,,,,,,,,,,,,1072.8172,1080.2631,0.195370356,0.216666663,1,0,0,1.4327,compass,0,9,9,32,1,SoundStimuli/HeatWaves_GlassAnimals_Original5S.wav,,,,,,,,,,,,,,,,,,,,,,,,,,,,,,,,,,,,,,,,,,,,,,,,,,,,
,,,,,948793,001,2024-07-12_19h36.01.646,experiment,2024.1.5,Win32,60.24096386,57e4d48d6c447e000116b22a,6691931c2c63981b064e1f0c,6691bd49f05f8af21da73491,,,,,,,,,,,,,,,,,,,,,,,,,,,,,,,,,,,,,,,,,,,,,,,,,,,,,,,,,,,,1080.2693,1090.2443,-0.265740712,-0.237037023,1,0,0,3.9663,compass,0,10,10,10,1,SoundStimuli/BadDay_DanielPowter_Cover5S.wav,,,,,,,,,,,,,,,,,,,,,,,,,,,,,,,,,,,,,,,,,,,,,,,,,,,,
,,,,,948793,001,2024-07-12_19h36.01.646,experiment,2024.1.5,Win32,60.24096386,57e4d48d6c447e000116b22a,6691931c2c63981b064e1f0c,6691bd49f05f8af21da73491,,,,,,,,,,,,,,,,,,,,,,,,,,,,,,,,,,,,,,,,,,,,,,,,,,,,,,,,,,,,1090.2499,1096.8301,-0.243518476,0.284259249,1,0,0,0.5689,compass,0,11,11,3,1,SoundStimuli/NoScrubs_TLC_Original5S.wav,,,,,,,,,,,,,,,,,,,,,,,,,,,,,,,,,,,,,,,,,,,,,,,,,,,,
,,,,,948793,001,2024-07-12_19h36.01.646,experiment,2024.1.5,Win32,60.24096386,57e4d48d6c447e000116b22a,6691931c2c63981b064e1f0c,6691bd49f05f8af21da73491,,,,,,,,,,,,,,,,,,,,,,,,,,,,,,,,,,,,,,,,,,,,,,,,,,,,,,,,,,,,1096.8354,1104.5119,0.000925912,0.094444452,1,0,0,1.6651,compass,0,12,12,11,1,SoundStimuli/Superstition_StevieWonder_Cover5S.wav,,,,,,,,,,,,,,,,,,,,,,,,,,,,,,,,,,,,,,,,,,,,,,,,,,,,
,,,,,948793,001,2024-07-12_19h36.01.646,experiment,2024.1.5,Win32,60.24096386,57e4d48d6c447e000116b22a,6691931c2c63981b064e1f0c,6691bd49f05f8af21da73491,,,,,,,,,,,,,,,,,,,,,,,,,,,,,,,,,,,,,,,,,,,,,,,,,,,,,,,,,,,,1104.5177,1111.7283,0.327777863,0.180555556,1,0,0,1.2001,compass,0,13,13,5,1,SoundStimuli/MyGirl_TheTemptations_Original5S.wav,,,,,,,,,,,,,,,,,,,,,,,,,,,,,,,,,,,,,,,,,,,,,,,,,,,,
,,,,,948793,001,2024-07-12_19h36.01.646,experiment,2024.1.5,Win32,60.24096386,57e4d48d6c447e000116b22a,6691931c2c63981b064e1f0c,6691bd49f05f8af21da73491,,,,,,,,,,,,,,,,,,,,,,,,,,,,,,,,,,,,,,,,,,,,,,,,,,,,,,,,,,,,1111.7341,1118.4444,0.169444473,-0.224074116,1,0,0,0.6982,compass,0,14,14,19,1,SoundStimuli/LetsGetItOn_MarvinGaye_Cover5S.wav,,,,,,,,,,,,,,,,,,,,,,,,,,,,,,,,,,,,,,,,,,,,,,,,,,,,
,,,,,948793,001,2024-07-12_19h36.01.646,experiment,2024.1.5,Win32,60.24096386,57e4d48d6c447e000116b22a,6691931c2c63981b064e1f0c,6691bd49f05f8af21da73491,,,,,,,,,,,,,,,,,,,,,,,,,,,,,,,,,,,,,,,,,,,,,,,,,,,,,,,,,,,,1118.4499,1125.0449,0.202777792,0.064814815,1,0,0,0.5836,compass,0,15,15,12,1,SoundStimuli/IWillAlwaysLoveYou_WhitneyHouston_Cover5S.wav,,,,,,,,,,,,,,,,,,,,,,,,,,,,,,,,,,,,,,,,,,,,,,,,,,,,
,,,,,948793,001,2024-07-12_19h36.01.646,experiment,2024.1.5,Win32,60.24096386,57e4d48d6c447e000116b22a,6691931c2c63981b064e1f0c,6691bd49f05f8af21da73491,,,,,,,,,,,,,,,,,,,,,,,,,,,,,,,,,,,,,,,,,,,,,,,,,,,,,,,,,,,,1125.0504,1131.6111,-0.250925912,-0.251851894,1,0,0,0.5497,compass,0,16,16,13,1,SoundStimuli/GodOnlyKnows_TheBeachBoys_Cover5S.wav,,,,,,,,,,,,,,,,,,,,,,,,,,,,,,,,,,,,,,,,,,,,,,,,,,,,
,,,,,948793,001,2024-07-12_19h36.01.646,experiment,2024.1.5,Win32,60.24096386,57e4d48d6c447e000116b22a,6691931c2c63981b064e1f0c,6691bd49f05f8af21da73491,,,,,,,,,,,,,,,,,,,,,,,,,,,,,,,,,,,,,,,,,,,,,,,,,,,,,,,,,,,,1131.6164,1140.9789,0.216666681,0.111111111,1,0,0,3.3508,compass,0,17,17,6,1,SoundStimuli/Levitating_DuaLipa_Cover5S.wav,,,,,,,,,,,,,,,,,,,,,,,,,,,,,,,,,,,,,,,,,,,,,,,,,,,,
,,,,,948793,001,2024-07-12_19h36.01.646,experiment,2024.1.5,Win32,60.24096386,57e4d48d6c447e000116b22a,6691931c2c63981b064e1f0c,6691bd49f05f8af21da73491,,,,,,,,,,,,,,,,,,,,,,,,,,,,,,,,,,,,,,,,,,,,,,,,,,,,,,,,,,,,1140.9851,1147.7612,0.215740769,0.10833334,1,0,0,0.7658,compass,0,18,18,21,1,SoundStimuli/GoodGollyMissMolly_LittleRichard_Cover5S.wav,,,,,,,,,,,,,,,,,,,,,,,,,,,,,,,,,,,,,,,,,,,,,,,,,,,,
,,,,,948793,001,2024-07-12_19h36.01.646,experiment,2024.1.5,Win32,60.24096386,57e4d48d6c447e000116b22a,6691931c2c63981b064e1f0c,6691bd49f05f8af21da73491,,,,,,,,,,,,,,,,,,,,,,,,,,,,,,,,,,,,,,,,,,,,,,,,,,,,,,,,,,,,1147.7668,1155.0946,0.174074102,0,1,0,0,1.316,compass,0,19,19,22,1,SoundStimuli/RockWithYou_MichaelJackson_Original5S.wav,,,,,,,,,,,,,,,,,,,,,,,,,,,,,,,,,,,,,,,,,,,,,,,,,,,,
,,,,,948793,001,2024-07-12_19h36.01.646,experiment,2024.1.5,Win32,60.24096386,57e4d48d6c447e000116b22a,6691931c2c63981b064e1f0c,6691bd49f05f8af21da73491,,,,,,,,,,,,,,,,,,,,,,,,,,,,,,,,,,,,,,,,,,,,,,,,,,,,,,,,,,,,1155.1001,1161.4944,0.244444459,-0.131481524,1,0,0,0.3812,compass,0,20,20,17,1,SoundStimuli/Fallin_AliciaKeys_Original5S.wav,,,,,,,,,,,,,,,,,,,,,,,,,,,,,,,,,,,,,,,,,,,,,,,,,,,,
,,,,,948793,001,2024-07-12_19h36.01.646,experiment,2024.1.5,Win32,60.24096386,57e4d48d6c447e000116b22a,6691931c2c63981b064e1f0c,6691bd49f05f8af21da73491,,,,,,,,,,,,,,,,,,,,,,,,,,,,,,,,,,,,,,,,,,,,,,,,,,,,,,,,,,,,1161.4999,1170.1779,0.25,-0.218518504,1,0,0,2.6664,compass,0,21,21,23,1,SoundStimuli/StrawberryFieldsForever_TheBeatles_Original5S.wav,,,,,,,,,,,,,,,,,,,,,,,,,,,,,,,,,,,,,,,,,,,,,,,,,,,,
,,,,,948793,001,2024-07-12_19h36.01.646,experiment,2024.1.5,Win32,60.24096386,57e4d48d6c447e000116b22a,6691931c2c63981b064e1f0c,6691bd49f05f8af21da73491,,,,,,,,,,,,,,,,,,,,,,,,,,,,,,,,,,,,,,,,,,,,,,,,,,,,,,,,,,,,1170.1832,1176.7622,0.341666751,0.343518522,1,0,0,0.566,compass,0,22,22,24,1,SoundStimuli/UptownFunk_MarkRonson_Original5S.wav,,,,,,,,,,,,,,,,,,,,,,,,,,,,,,,,,,,,,,,,,,,,,,,,,,,,
,,,,,948793,001,2024-07-12_19h36.01.646,experiment,2024.1.5,Win32,60.24096386,57e4d48d6c447e000116b22a,6691931c2c63981b064e1f0c,6691bd49f05f8af21da73491,,,,,,,,,,,,,,,,,,,,,,,,,,,,,,,,,,,,,,,,,,,,,,,,,,,,,,,,,,,,1176.7682,1183.412,-0.262036995,0.150000007,1,0,0,0.6338,compass,0,23,23,2,1,SoundStimuli/Mood_24kGoldnianndior_Cover5S.wav,,,,,,,,,,,,,,,,,,,,,,,,,,,,,,,,,,,,,,,,,,,,,,,,,,,,
,,,,,948793,001,2024-07-12_19h36.01.646,experiment,2024.1.5,Win32,60.24096386,57e4d48d6c447e000116b22a,6691931c2c63981b064e1f0c,6691bd49f05f8af21da73491,,,,,,,,,,,,,,,,,,,,,,,,,,,,,,,,,,,,,,,,,,,,,,,,,,,,,,,,,,,,1183.4174,1190.1613,0.088888875,0.323148145,1,0,0,0.7316,compass,0,24,24,1,1,SoundStimuli/Stronger_KanyeWest_Original5S.wav,,,,,,,,,,,,,,,,,,,,,,,,,,,,,,,,,,,,,,,,,,,,,,,,,,,,
,,,,,948793,001,2024-07-12_19h36.01.646,experiment,2024.1.5,Win32,60.24096386,57e4d48d6c447e000116b22a,6691931c2c63981b064e1f0c,6691bd49f05f8af21da73491,,,,,,,,,,,,,,,,,,,,,,,,,,,,,,,,,,,,,,,,,,,,,,,,,,,,,,,,,,,,1190.1664,1196.9112,-0.175925926,0.314814815,1,0,0,0.7333,compass,0,25,25,7,1,SoundStimuli/NoOne_AliciaKeys_Cover5S.wav,,,,,,,,,,,,,,,,,,,,,,,,,,,,,,,,,,,,,,,,,,,,,,,,,,,,
,,,,,948793,001,2024-07-12_19h36.01.646,experiment,2024.1.5,Win32,60.24096386,57e4d48d6c447e000116b22a,6691931c2c63981b064e1f0c,6691bd49f05f8af21da73491,,,,,,,,,,,,,,,,,,,,,,,,,,,,,,,,,,,,,,,,,,,,,,,,,,,,,,,,,,,,1196.9173,1203.9947,0.262037065,0.2462963,1,0,0,1.0668,compass,0,26,26,8,1,SoundStimuli/LikeAPrayer_Madonna_Original5S.wav,,,,,,,,,,,,,,,,,,,,,,,,,,,,,,,,,,,,,,,,,,,,,,,,,,,,
,,,,,948793,001,2024-07-12_19h36.01.646,experiment,2024.1.5,Win32,60.24096386,57e4d48d6c447e000116b22a,6691931c2c63981b064e1f0c,6691bd49f05f8af21da73491,,,,,,,,,,,,,,,,,,,,,,,,,,,,,,,,,,,,,,,,,,,,,,,,,,,,,,,,,,,,1203.9999,1210.5282,0.258333347,0.081481474,1,0,0,0.5152,compass,0,27,27,33,1,SoundStimuli/StandByMe_BenEKing_Cover5S.wav,,,,,,,,,,,,,,,,,,,,,,,,,,,,,,,,,,,,,,,,,,,,,,,,,,,,
,,,,,948793,001,2024-07-12_19h36.01.646,experiment,2024.1.5,Win32,60.24096386,57e4d48d6c447e000116b22a,6691931c2c63981b064e1f0c,6691bd49f05f8af21da73491,,,,,,,,,,,,,,,,,,,,,,,,,,,,,,,,,,,,,,,,,,,,,,,,,,,,,,,,,,,,1210.5333,1217.1779,0.190740727,0.226851852,1,0,0,0.6332,compass,0,28,28,9,1,SoundStimuli/Despacito_LuisFonsiDaddyYankee_Cover5S.wav,,,,,,,,,,,,,,,,,,,,,,,,,,,,,,,,,,,,,,,,,,,,,,,,,,,,
,,,,,948793,001,2024-07-12_19h36.01.646,experiment,2024.1.5,Win32,60.24096386,57e4d48d6c447e000116b22a,6691931c2c63981b064e1f0c,6691bd49f05f8af21da73491,,,,,,,,,,,,,,,,,,,,,,,,,,,,,,,,,,,,,,,,,,,,,,,,,,,,,,,,,,,,1217.183,1224.2447,0.243518547,-0.199999986,1,0,0,1.0501,compass,0,29,29,20,1,SoundStimuli/HeyYa_Outkast_Cover5S.wav,,,,,,,,,,,,,,,,,,,,,,,,,,,,,,,,,,,,,,,,,,,,,,,,,,,,
,,,,,948793,001,2024-07-12_19h36.01.646,experiment,2024.1.5,Win32,60.24096386,57e4d48d6c447e000116b22a,6691931c2c63981b064e1f0c,6691bd49f05f8af21da73491,,,,,,,,,,,,,,,,,,,,,,,,,,,,,,,,,,,,,,,,,,,,,,,,,,,,,,,,,,,,1224.2507,1231.2612,0.000925912,0.324074074,1,0,0,1,compass,0,30,30,30,1,SoundStimuli/PokerFace_LadyGaga_Original5S.wav,,,,,,,,,,,,,,,,,,,,,,,,,,,,,,,,,,,,,,,,,,,,,,,,,,,,
,,,,,948793,001,2024-07-12_19h36.01.646,experiment,2024.1.5,Win32,60.24096386,57e4d48d6c447e000116b22a,6691931c2c63981b064e1f0c,6691bd49f05f8af21da73491,,,,,,,,,,,,,,,,,,,,,,,,,,,,,,,,,,,,,,,,,,,,,,,,,,,,,,,,,,,,1231.2663,1239.9281,-0.180555556,0.313888885,1,0,0,2.6497,compass,0,31,31,25,1,SoundStimuli/Respect_ArethaFranklin_Original5S.wav,,,,,,,,,,,,,,,,,,,,,,,,,,,,,,,,,,,,,,,,,,,,,,,,,,,,
,,,,,948793,001,2024-07-12_19h36.01.646,experiment,2024.1.5,Win32,60.24096386,57e4d48d6c447e000116b22a,6691931c2c63981b064e1f0c,6691bd49f05f8af21da73491,,,,,,,,,,,,,,,,,,,,,,,,,,,,,,,,,,,,,,,,,,,,,,,,,,,,,,,,,,,,1239.9343,1246.8446,0.329629686,0.274999989,1,0,0,0.8999,compass,0,32,32,0,1,SoundStimuli/StayinAlive_BeeGees_Original5S.wav,,,,,,,,,,,,,,,,,,,,,,,,,,,,,,,,,,,,,,,,,,,,,,,,,,,,
,,,,,948793,001,2024-07-12_19h36.01.646,experiment,2024.1.5,Win32,60.24096386,57e4d48d6c447e000116b22a,6691931c2c63981b064e1f0c,6691bd49f05f8af21da73491,,,,,,,,,,,,,,,,,,,,,,,,,,,,,,,,,,,,,,,,,,,,,,,,,,,,,,,,,,,,1246.8494,1253.4946,0.267592607,0.292592596,1,0,0,0.6307,compass,0,33,33,27,1,SoundStimuli/ShapeofYou_EdSheeran_Original5S.wav,,,,,,,,,,,,,,,,,,,,,,,,,,,,,,,,,,,,,,,,,,,,,,,,,,,,
,,,,,948793,001,2024-07-12_19h36.01.646,experiment,2024.1.5,Win32,60.24096386,57e4d48d6c447e000116b22a,6691931c2c63981b064e1f0c,6691bd49f05f8af21da73491,,,,,,,,,,,,,,,,,,,,,,,,,,,,,,,,,,,,,,,,,,,,,,,,,,,,,,,,,,,,1253.4997,1259.8947,0.275925954,0.290740737,1,0,0,0.3835,compass,0,34,34,4,1,SoundStimuli/GetUrFreakOn_MissyElliot_Original5S.wav,,,,,,,,,,,,,,,,,,,,,,,,,,,,,,,,,,,,,,,,,,,,,,,,,,,,
,,,,,948793,001,2024-07-12_19h36.01.646,experiment,2024.1.5,Win32,60.24096386,57e4d48d6c447e000116b22a,6691931c2c63981b064e1f0c,6691bd49f05f8af21da73491,,,,,,,,,,,,,,,,,,,,,,,,,,,,,,,,,,,,,,,,,,,,,,,,,,,,,,,,,,,,,,,,,,,,,,,,,,,1259.8997,1261.8451,space,1.9227,,1261.8452,1280.912,right,19.0451,,0,2,2,2,1,block_order/blockA.xlsx,,,,,,,,,,,,,,,,,,,,,,,,,,,,,,,,,,,,
,,,,,948793,001,2024-07-12_19h36.01.646,experiment,2024.1.5,Win32,60.24096386,57e4d48d6c447e000116b22a,6691931c2c63981b064e1f0c,6691bd49f05f8af21da73491,,,,,,,,,,,,,,,,,,,,,,,,,,,,,,,,,,,,,,,,,,,,,,,,,,,,,,,,,,,,1280.9185,1287.9946,-0.224074046,0.231481481,1,0,0,1.0666,compass,0,0,0,1,1,SoundStimuli/Smooth_SantanaRobThomas_Cover5S.wav,,,,,,,,,,,,,,,,,,,,,,,,,,,,,,,,,,,,,,,,,,,,,,,,,,,,
,,,,,948793,001,2024-07-12_19h36.01.646,experiment,2024.1.5,Win32,60.24096386,57e4d48d6c447e000116b22a,6691931c2c63981b064e1f0c,6691bd49f05f8af21da73491,,,,,,,,,,,,,,,,,,,,,,,,,,,,,,,,,,,,,,,,,,,,,,,,,,,,,,,,,,,,1287.9997,1295.2613,-0.162962949,0.217592593,1,0,0,1.2483,compass,0,1,1,5,1,SoundStimuli/JoyToTheWorld_ThreeDogNight_Cover5S.wav,,,,,,,,,,,,,,,,,,,,,,,,,,,,,,,,,,,,,,,,,,,,,,,,,,,,
,,,,,948793,001,2024-07-12_19h36.01.646,experiment,2024.1.5,Win32,60.24096386,57e4d48d6c447e000116b22a,6691931c2c63981b064e1f0c,6691bd49f05f8af21da73491,,,,,,,,,,,,,,,,,,,,,,,,,,,,,,,,,,,,,,,,,,,,,,,,,,,,,,,,,,,,1295.2663,1302.0781,-0.271296254,0.217592593,1,0,0,0.7999,compass,0,2,2,33,1,SoundStimuli/TheBoyIsMine_BrandyMonica_Cover5S.wav,,,,,,,,,,,,,,,,,,,,,,,,,,,,,,,,,,,,,,,,,,,,,,,,,,,,
,,,,,948793,001,2024-07-12_19h36.01.646,experiment,2024.1.5,Win32,60.24096386,57e4d48d6c447e000116b22a,6691931c2c63981b064e1f0c,6691bd49f05f8af21da73491,,,,,,,,,,,,,,,,,,,,,,,,,,,,,,,,,,,,,,,,,,,,,,,,,,,,,,,,,,,,1302.0841,1308.5448,0.300000085,-0.27870369,1,0,0,0.4496,compass,0,3,3,16,1,SoundStimuli/ItsAllInTheGame_TommyEdwards_Original5S.wav,,,,,,,,,,,,,,,,,,,,,,,,,,,,,,,,,,,,,,,,,,,,,,,,,,,,
,,,,,948793,001,2024-07-12_19h36.01.646,experiment,2024.1.5,Win32,60.24096386,57e4d48d6c447e000116b22a,6691931c2c63981b064e1f0c,6691bd49f05f8af21da73491,,,,,,,,,,,,,,,,,,,,,,,,,,,,,,,,,,,,,,,,,,,,,,,,,,,,,,,,,,,,1308.5505,1315.578,-0.107407393,0.262962959,1,0,0,1.0146,compass,0,4,4,31,1,SoundStimuli/TossinAndTurnin_BobbyLewis_Cover5S.wav,,,,,,,,,,,,,,,,,,,,,,,,,,,,,,,,,,,,,,,,,,,,,,,,,,,,
,,,,,948793,001,2024-07-12_19h36.01.646,experiment,2024.1.5,Win32,60.24096386,57e4d48d6c447e000116b22a,6691931c2c63981b064e1f0c,6691bd49f05f8af21da73491,,,,,,,,,,,,,,,,,,,,,,,,,,,,,,,,,,,,,,,,,,,,,,,,,,,,,,,,,,,,1315.5831,1323.578,-0.003703718,0.088888875,1,0,0,1.9832,compass,0,5,5,29,1,SoundStimuli/BetteDavisEyes_KimCarnes_Cover5S.wav,,,,,,,,,,,,,,,,,,,,,,,,,,,,,,,,,,,,,,,,,,,,,,,,,,,,
,,,,,948793,001,2024-07-12_19h36.01.646,experiment,2024.1.5,Win32,60.24096386,57e4d48d6c447e000116b22a,6691931c2c63981b064e1f0c,6691bd49f05f8af21da73491,,,,,,,,,,,,,,,,,,,,,,,,,,,,,,,,,,,,,,,,,,,,,,,,,,,,,,,,,,,,1323.5837,1329.6133,-0.310185185,0.217592593,1,0,0,0.0163,compass,0,6,6,12,1,SoundStimuli/UnbreakMyHeart_ToniBraxton_Cover5S.wav,,,,,,,,,,,,,,,,,,,,,,,,,,,,,,,,,,,,,,,,,,,,,,,,,,,,
,,,,,948793,001,2024-07-12_19h36.01.646,experiment,2024.1.5,Win32,60.24096386,57e4d48d6c447e000116b22a,6691931c2c63981b064e1f0c,6691bd49f05f8af21da73491,,,,,,,,,,,,,,,,,,,,,,,,,,,,,,,,,,,,,,,,,,,,,,,,,,,,,,,,,,,,1329.619,1336.2613,-0.299999979,-0.243518547,1,0,0,0.6332,compass,0,7,7,9,1,SoundStimuli/HowDoILive_LeAnnRimes_Original5S.wav,,,,,,,,,,,,,,,,,,,,,,,,,,,,,,,,,,,,,,,,,,,,,,,,,,,,
,,,,,948793,001,2024-07-12_19h36.01.646,experiment,2024.1.5,Win32,60.24096386,57e4d48d6c447e000116b22a,6691931c2c63981b064e1f0c,6691bd49f05f8af21da73491,,,,,,,,,,,,,,,,,,,,,,,,,,,,,,,,,,,,,,,,,,,,,,,,,,,,,,,,,,,,1336.2669,1342.878,0.006481524,0.302777767,1,0,0,0.5975,compass,0,8,8,15,1,SoundStimuli/CrazyInLove_BeyonceFtJayZ_Original5S.wav,,,,,,,,,,,,,,,,,,,,,,,,,,,,,,,,,,,,,,,,,,,,,,,,,,,,
,,,,,948793,001,2024-07-12_19h36.01.646,experiment,2024.1.5,Win32,60.24096386,57e4d48d6c447e000116b22a,6691931c2c63981b064e1f0c,6691bd49f05f8af21da73491,,,,,,,,,,,,,,,,,,,,,,,,,,,,,,,,,,,,,,,,,,,,,,,,,,,,,,,,,,,,1342.8833,1349.0952,-0.139814801,-0.001851859,1,0,0,0.1977,compass,0,9,9,4,1,SoundStimuli/Dreams_FleetwoodMac_Cover5S.wav,,,,,,,,,,,,,,,,,,,,,,,,,,,,,,,,,,,,,,,,,,,,,,,,,,,,
,,,,,948793,001,2024-07-12_19h36.01.646,experiment,2024.1.5,Win32,60.24096386,57e4d48d6c447e000116b22a,6691931c2c63981b064e1f0c,6691bd49f05f8af21da73491,,,,,,,,,,,,,,,,,,,,,,,,,,,,,,,,,,,,,,,,,,,,,,,,,,,,,,,,,,,,1349.1011,1357.3122,0.238888917,-0.173148191,1,0,0,2.199,compass,0,10,10,17,1,SoundStimuli/IWannaDanceWithSomebody_WhitneyHouston_Cover5S.wav,,,,,,,,,,,,,,,,,,,,,,,,,,,,,,,,,,,,,,,,,,,,,,,,,,,,
,,,,,948793,001,2024-07-12_19h36.01.646,experiment,2024.1.5,Win32,60.24096386,57e4d48d6c447e000116b22a,6691931c2c63981b064e1f0c,6691bd49f05f8af21da73491,,,,,,,,,,,,,,,,,,,,,,,,,,,,,,,,,,,,,,,,,,,,,,,,,,,,,,,,,,,,1357.3183,1366.6447,-0.002777735,-0.261111153,1,0,0,3.3164,compass,0,11,11,8,1,SoundStimuli/EndlessLove_DianaRossLionelRichie_Original5S.wav,,,,,,,,,,,,,,,,,,,,,,,,,,,,,,,,,,,,,,,,,,,,,,,,,,,,
,,,,,948793,001,2024-07-12_19h36.01.646,experiment,2024.1.5,Win32,60.24096386,57e4d48d6c447e000116b22a,6691931c2c63981b064e1f0c,6691bd49f05f8af21da73491,,,,,,,,,,,,,,,,,,,,,,,,,,,,,,,,,,,,,,,,,,,,,,,,,,,,,,,,,,,,1366.6505,1373.9783,0.210185228,0.148148148,1,0,0,1.3139,compass,0,12,12,7,1,SoundStimuli/MackTheKnife_BobbyDarin_Original5S.wav,,,,,,,,,,,,,,,,,,,,,,,,,,,,,,,,,,,,,,,,,,,,,,,,,,,,
,,,,,948793,001,2024-07-12_19h36.01.646,experiment,2024.1.5,Win32,60.24096386,57e4d48d6c447e000116b22a,6691931c2c63981b064e1f0c,6691bd49f05f8af21da73491,,,,,,,,,,,,,,,,,,,,,,,,,,,,,,,,,,,,,,,,,,,,,,,,,,,,,,,,,,,,1373.9835,1383.2285,0.138888889,-0.24537037,1,0,0,3.2315,compass,0,13,13,13,1,SoundStimuli/Perfect_EdSheeran_Original5S.wav,,,,,,,,,,,,,,,,,,,,,,,,,,,,,,,,,,,,,,,,,,,,,,,,,,,,
,,,,,948793,001,2024-07-12_19h36.01.646,experiment,2024.1.5,Win32,60.24096386,57e4d48d6c447e000116b22a,6691931c2c63981b064e1f0c,6691bd49f05f8af21da73491,,,,,,,,,,,,,,,,,,,,,,,,,,,,,,,,,,,,,,,,,,,,,,,,,,,,,,,,,,,,1383.2346,1392.3782,-0.328703704,0.197222215,1,0,0,3.1311,compass,0,14,14,30,1,SoundStimuli/SomebodyThatIUsedtoKnow_Gotye_Cover5S.wav,,,,,,,,,,,,,,,,,,,,,,,,,,,,,,,,,,,,,,,,,,,,,,,,,,,,
,,,,,948793,001,2024-07-12_19h36.01.646,experiment,2024.1.5,Win32,60.24096386,57e4d48d6c447e000116b22a,6691931c2c63981b064e1f0c,6691bd49f05f8af21da73491,,,,,,,,,,,,,,,,,,,,,,,,,,,,,,,,,,,,,,,,,,,,,,,,,,,,,,,,,,,,1392.3831,1399.5451,-0.316666674,0.318518515,1,0,0,1.148,compass,0,15,15,2,1,SoundStimuli/SmellsLikeTeenSpirit_Nirvana_Cover5S.wav,,,,,,,,,,,,,,,,,,,,,,,,,,,,,,,,,,,,,,,,,,,,,,,,,,,,
,,,,,948793,001,2024-07-12_19h36.01.646,experiment,2024.1.5,Win32,60.24096386,57e4d48d6c447e000116b22a,6691931c2c63981b064e1f0c,6691bd49f05f8af21da73491,,,,,,,,,,,,,,,,,,,,,,,,,,,,,,,,,,,,,,,,,,,,,,,,,,,,,,,,,,,,1399.5517,1406.7801,-0.329629616,0.095370363,1,0,0,1.218,compass,0,16,16,6,1,SoundStimuli/SaveYourTears_TheWeekndArianaGrande_Original5S.wav,,,,,,,,,,,,,,,,,,,,,,,,,,,,,,,,,,,,,,,,,,,,,,,,,,,,
,,,,,948793,001,2024-07-12_19h36.01.646,experiment,2024.1.5,Win32,60.24096386,57e4d48d6c447e000116b22a,6691931c2c63981b064e1f0c,6691bd49f05f8af21da73491,,,,,,,,,,,,,,,,,,,,,,,,,,,,,,,,,,,,,,,,,,,,,,,,,,,,,,,,,,,,1406.7857,1413.3617,0.174074102,0.062037044,1,0,0,0.5639,compass,0,17,17,0,1,SoundStimuli/GimmeShelter_RollingStones_Cover5S.wav,,,,,,,,,,,,,,,,,,,,,,,,,,,,,,,,,,,,,,,,,,,,,,,,,,,,
,,,,,948793,001,2024-07-12_19h36.01.646,experiment,2024.1.5,Win32,60.24096386,57e4d48d6c447e000116b22a,6691931c2c63981b064e1f0c,6691bd49f05f8af21da73491,,,,,,,,,,,,,,,,,,,,,,,,,,,,,,,,,,,,,,,,,,,,,,,,,,,,,,,,,,,,1413.3671,1420.3952,0.295370384,-0.291666667,1,0,0,1.015,compass,0,18,18,28,1,SoundStimuli/IWantToHoldYourHand_TheBeatles_Cover5S.wav,,,,,,,,,,,,,,,,,,,,,,,,,,,,,,,,,,,,,,,,,,,,,,,,,,,,
,,,,,948793,001,2024-07-12_19h36.01.646,experiment,2024.1.5,Win32,60.24096386,57e4d48d6c447e000116b22a,6691931c2c63981b064e1f0c,6691bd49f05f8af21da73491,,,,,,,,,,,,,,,,,,,,,,,,,,,,,,,,,,,,,,,,,,,,,,,,,,,,,,,,,,,,1420.4005,1427.1621,0.147222236,0.290740737,1,0,0,0.7486,compass,0,19,19,26,1,SoundStimuli/TheSign_AceOfBase_Original5S.wav,,,,,,,,,,,,,,,,,,,,,,,,,,,,,,,,,,,,,,,,,,,,,,,,,,,,
,,,,,948793,001,2024-07-12_19h36.01.646,experiment,2024.1.5,Win32,60.24096386,57e4d48d6c447e000116b22a,6691931c2c63981b064e1f0c,6691bd49f05f8af21da73491,,,,,,,,,,,,,,,,,,,,,,,,,,,,,,,,,,,,,,,,,,,,,,,,,,,,,,,,,,,,1427.1691,1434.9283,0.270370413,0.308333326,1,0,0,1.7478,compass,0,20,20,3,1,SoundStimuli/PartyRockAnthem_LMFAO_Cover5S.wav,,,,,,,,,,,,,,,,,,,,,,,,,,,,,,,,,,,,,,,,,,,,,,,,,,,,
,,,,,948793,001,2024-07-12_19h36.01.646,experiment,2024.1.5,Win32,60.24096386,57e4d48d6c447e000116b22a,6691931c2c63981b064e1f0c,6691bd49f05f8af21da73491,,,,,,,,,,,,,,,,,,,,,,,,,,,,,,,,,,,,,,,,,,,,,,,,,,,,,,,,,,,,1434.934,1442.6781,0.336111139,0.234259252,1,0,0,1.733,compass,0,21,21,27,1,SoundStimuli/EyeOfTheTiger_Survivor_Original5S.wav,,,,,,,,,,,,,,,,,,,,,,,,,,,,,,,,,,,,,,,,,,,,,,,,,,,,
,,,,,948793,001,2024-07-12_19h36.01.646,experiment,2024.1.5,Win32,60.24096386,57e4d48d6c447e000116b22a,6691931c2c63981b064e1f0c,6691bd49f05f8af21da73491,,,,,,,,,,,,,,,,,,,,,,,,,,,,,,,,,,,,,,,,,,,,,,,,,,,,,,,,,,,,1442.6833,1449.7957,0.263888889,0.008333312,1,0,0,1.0984,compass,0,22,22,23,1,SoundStimuli/IWalkTheLine_JohnnyCash_Cover5S.wav,,,,,,,,,,,,,,,,,,,,,,,,,,,,,,,,,,,,,,,,,,,,,,,,,,,,
,,,,,948793,001,2024-07-12_19h36.01.646,experiment,2024.1.5,Win32,60.24096386,57e4d48d6c447e000116b22a,6691931c2c63981b064e1f0c,6691bd49f05f8af21da73491,,,,,,,,,,,,,,,,,,,,,,,,,,,,,,,,,,,,,,,,,,,,,,,,,,,,,,,,,,,,1449.8006,1456.0949,0.294444473,0.274074078,1,0,0,0.2828,compass,0,23,23,34,1,SoundStimuli/Irreplaceable_Beyonce_Original5S.wav,,,,,,,,,,,,,,,,,,,,,,,,,,,,,,,,,,,,,,,,,,,,,,,,,,,,
,,,,,948793,001,2024-07-12_19h36.01.646,experiment,2024.1.5,Win32,60.24096386,57e4d48d6c447e000116b22a,6691931c2c63981b064e1f0c,6691bd49f05f8af21da73491,,,,,,,,,,,,,,,,,,,,,,,,,,,,,,,,,,,,,,,,,,,,,,,,,,,,,,,,,,,,1456.1004,1464.0124,-0.324999986,-0.204629616,1,0,0,1.8982,compass,0,24,24,18,1,SoundStimuli/Weak_SWV_Original5S.wav,,,,,,,,,,,,,,,,,,,,,,,,,,,,,,,,,,,,,,,,,,,,,,,,,,,,
,,,,,948793,001,2024-07-12_19h36.01.646,experiment,2024.1.5,Win32,60.24096386,57e4d48d6c447e000116b22a,6691931c2c63981b064e1f0c,6691bd49f05f8af21da73491,,,,,,,,,,,,,,,,,,,,,,,,,,,,,,,,,,,,,,,,,,,,,,,,,,,,,,,,,,,,1464.018,1471.2449,0.141666695,0.105555534,1,0,0,1.2161,compass,0,25,25,14,1,SoundStimuli/LikeARollingStone_BobDylan_Cover5S.wav,,,,,,,,,,,,,,,,,,,,,,,,,,,,,,,,,,,,,,,,,,,,,,,,,,,,
,,,,,948793,001,2024-07-12_19h36.01.646,experiment,2024.1.5,Win32,60.24096386,57e4d48d6c447e000116b22a,6691931c2c63981b064e1f0c,6691bd49f05f8af21da73491,,,,,,,,,,,,,,,,,,,,,,,,,,,,,,,,,,,,,,,,,,,,,,,,,,,,,,,,,,,,1471.2503,1478.3456,0.247222265,-0.185185185,1,0,0,1.0841,compass,0,26,26,19,1,SoundStimuli/YouLightUpMyLife_DebbyBoone_Cover5S.wav,,,,,,,,,,,,,,,,,,,,,,,,,,,,,,,,,,,,,,,,,,,,,,,,,,,,
,,,,,948793,001,2024-07-12_19h36.01.646,experiment,2024.1.5,Win32,60.24096386,57e4d48d6c447e000116b22a,6691931c2c63981b064e1f0c,6691bd49f05f8af21da73491,,,,,,,,,,,,,,,,,,,,,,,,,,,,,,,,,,,,,,,,,,,,,,,,,,,,,,,,,,,,1478.3512,1485.5117,-0.000925912,0.285185178,1,0,0,1.1503,compass,0,27,27,20,1,SoundStimuli/FlashdanceWhatAFeeling_IreneCara_Cover5S.wav,,,,,,,,,,,,,,,,,,,,,,,,,,,,,,,,,,,,,,,,,,,,,,,,,,,,
,,,,,948793,001,2024-07-12_19h36.01.646,experiment,2024.1.5,Win32,60.24096386,57e4d48d6c447e000116b22a,6691931c2c63981b064e1f0c,6691bd49f05f8af21da73491,,,,,,,,,,,,,,,,,,,,,,,,,,,,,,,,,,,,,,,,,,,,,,,,,,,,,,,,,,,,1485.5172,1492.1952,0.294444473,0.346296293,1,0,0,0.6665,compass,0,28,28,10,1,SoundStimuli/LeFreak_Chic_Original5S.wav,,,,,,,,,,,,,,,,,,,,,,,,,,,,,,,,,,,,,,,,,,,,,,,,,,,,
,,,,,948793,001,2024-07-12_19h36.01.646,experiment,2024.1.5,Win32,60.24096386,57e4d48d6c447e000116b22a,6691931c2c63981b064e1f0c,6691bd49f05f8af21da73491,,,,,,,,,,,,,,,,,,,,,,,,,,,,,,,,,,,,,,,,,,,,,,,,,,,,,,,,,,,,1492.2014,1500.595,0.270370413,-0.00462963,1,0,0,2.3831,compass,0,29,29,25,1,SoundStimuli/IllMakeLoveToYou_BoyzIIMen_Original5S.wav,,,,,,,,,,,,,,,,,,,,,,,,,,,,,,,,,,,,,,,,,,,,,,,,,,,,
,,,,,948793,001,2024-07-12_19h36.01.646,experiment,2024.1.5,Win32,60.24096386,57e4d48d6c447e000116b22a,6691931c2c63981b064e1f0c,6691bd49f05f8af21da73491,,,,,,,,,,,,,,,,,,,,,,,,,,,,,,,,,,,,,,,,,,,,,,,,,,,,,,,,,,,,1500.6008,1507.1949,-0.001851824,0.287037037,1,0,0,0.5832,compass,0,30,30,32,1,SoundStimuli/Dilemma_NellyKellyRowland_Original5S.wav,,,,,,,,,,,,,,,,,,,,,,,,,,,,,,,,,,,,,,,,,,,,,,,,,,,,
,,,,,948793,001,2024-07-12_19h36.01.646,experiment,2024.1.5,Win32,60.24096386,57e4d48d6c447e000116b22a,6691931c2c63981b064e1f0c,6691bd49f05f8af21da73491,,,,,,,,,,,,,,,,,,,,,,,,,,,,,,,,,,,,,,,,,,,,,,,,,,,,,,,,,,,,1507.2003,1513.6618,-0.332407386,0.325000004,1,0,0,0.4477,compass,0,31,31,11,1,SoundStimuli/BlurredLines_RobinThicke_Original5S.wav,,,,,,,,,,,,,,,,,,,,,,,,,,,,,,,,,,,,,,,,,,,,,,,,,,,,
,,,,,948793,001,2024-07-12_19h36.01.646,experiment,2024.1.5,Win32,60.24096386,57e4d48d6c447e000116b22a,6691931c2c63981b064e1f0c,6691bd49f05f8af21da73491,,,,,,,,,,,,,,,,,,,,,,,,,,,,,,,,,,,,,,,,,,,,,,,,,,,,,,,,,,,,1513.667,1521.495,0.238888917,0.290740737,1,0,0,1.8166,compass,0,32,32,24,1,SoundStimuli/Kiss_Prince_Original5S.wav,,,,,,,,,,,,,,,,,,,,,,,,,,,,,,,,,,,,,,,,,,,,,,,,,,,,
,,,,,948793,001,2024-07-12_19h36.01.646,experiment,2024.1.5,Win32,60.24096386,57e4d48d6c447e000116b22a,6691931c2c63981b064e1f0c,6691bd49f05f8af21da73491,,,,,,,,,,,,,,,,,,,,,,,,,,,,,,,,,,,,,,,,,,,,,,,,,,,,,,,,,,,,1521.5005,1527.9284,0.342592593,0.341666663,1,0,0,0.4164,compass,0,33,33,22,1,SoundStimuli/Happy_PharellWilliams_Cover5S.wav,,,,,,,,,,,,,,,,,,,,,,,,,,,,,,,,,,,,,,,,,,,,,,,,,,,,
,,,,,948793,001,2024-07-12_19h36.01.646,experiment,2024.1.5,Win32,60.24096386,57e4d48d6c447e000116b22a,6691931c2c63981b064e1f0c,6691bd49f05f8af21da73491,,,,,,,,,,,,,,,,,,,,,,,,,,,,,,,,,,,,,,,,,,,,,,,,,,,,,,,,,,,,1527.9344,1534.7617,-0.231481481,-0.20185188,1,0,0,0.8151,compass,0,34,34,21,1,SoundStimuli/BridgeOverTroubledWater_SimonAndGarfunkel_Cover5S.wav,,,,,,,,,,,,,,,,,,,,,,,,,,,,,,,,,,,,,,,,,,,,,,,,,,,,
,,,,,948793,001,2024-07-12_19h36.01.646,experiment,2024.1.5,Win32,60.24096386,57e4d48d6c447e000116b22a,6691931c2c63981b064e1f0c,6691bd49f05f8af21da73491,,,,,,,,,,,,,,,,,,,,,,,,,,,,,,,,,,,,,,,,,,,,,,,,,,,,,,,,,,,,,,,,,,,,,,,,,,,1534.7672,1534.7672,,,,1534.7672,1534.7672,,,,0,3,3,3,1,block_order/blockB.xlsx,,,,,,,,,,,,,,,,,,,,,,,,,,,,,,,,,,,,
,,,,,948793,001,2024-07-12_19h36.01.646,experiment,2024.1.5,Win32,60.24096386,57e4d48d6c447e000116b22a,6691931c2c63981b064e1f0c,6691bd49f05f8af21da73491,,,,,,,,,,,,,,,,,,,,,,,,,,,,,,,,,,,,,,,,,,,,,,,,,,,,,,,,,,,,,,,,,,,,,,,,,,,,,,,,,,,,,,,,,,,32,Item 3,I learned piano from my grandmother starting at age 6-13 on and off when I'd come see her. Guitar in school around ages 11-12. I have a guitar and still practice here and thee.,Item 3,"Radio, spotify, youtube",4,4,cooking and cleaning and getting ready for the day. Also driving in the car.,Often,Often,Often,Unsure,Often,Sometimes,Often,Sometimes,Unsure,Often,Rarely,Often,Rarely,Often,Rarely,Often,rock,country,pop,I used to listen to rap more and no country too much but now I listen to a lot more country and less rap.,I have a few different radio stations I like to listen to with all different types of music that I'm feeling for that day.,0,0,0,0,1,,
,,,,,948793,001,2024-07-12_19h36.01.646,experiment,2024.1.5,Win32,60.24096386,57e4d48d6c447e000116b22a,6691931c2c63981b064e1f0c,6691bd49f05f8af21da73491,,,,,,,,,,,,,,,,,,,,,,,,,,,,,,,,,,,,,,,,,,,,,,,,,,,,,,,,,,,,,,,,,,,,,,,,,,,,,,,,,,,,,,,,,,,,,,,,,,,,,,,,,,,,,,,,,,,,,,,,,,,,,1868.0592,1870.5456
