welcome.started,welcome.stopped,space_to_continue.keys,space_to_continue.rt,space_to_continue.duration,participant,session,date,expName,psychopyVersion,OS,frameRate,PROLIFIC_PID,STUDY_ID,SESSION_ID,consent.consent,consent.consent_recontact,consent_check.started,consent_check.stopped,calibration_ready.started,calibration_ready.stopped,cal_ready.keys,cal_ready.rt,cal_ready.duration,calibration.started,calibration.stopped,mouse.x,mouse.y,mouse.leftButton,mouse.midButton,mouse.rightButton,mouse.time,mouse.clicked_name,move_on.keys,move_on.rt,move_on.duration,run_cal.thisRepN,run_cal.thisTrialN,run_cal.thisN,run_cal.thisIndex,run_cal.ran,emotion_training_ready.started,emotion_training_ready.stopped,training_move_on.keys,training_move_on.rt,training_move_on.duration,examples.started,examples.stopped,emotion_scale.started,emotion_scale.stopped,scale_next.keys,scale_next.rt,scale_next.duration,instructions.started,instructions.stopped,next.keys,next.rt,next.duration,practice_task.started,practice_task.stopped,mouse_rating_2.x,mouse_rating_2.y,mouse_rating_2.leftButton,mouse_rating_2.midButton,mouse_rating_2.rightButton,mouse_rating_2.time,mouse_rating_2.clicked_name,ready.started,ready.stopped,key_resp.keys,key_resp.rt,key_resp.duration,set_group.started,set_group.stopped,task.started,task.stopped,mouse_rating.x,mouse_rating.y,mouse_rating.leftButton,mouse_rating.midButton,mouse_rating.rightButton,mouse_rating.time,mouse_rating.clicked_name,trials.thisRepN,trials.thisTrialN,trials.thisN,trials.thisIndex,trials.ran,clip,short_break.started,short_break.stopped,space_to_move_on.keys,space_to_move_on.rt,space_to_move_on.duration,instruction_reminder.started,instruction_reminder.stopped,reminder_move_on.keys,reminder_move_on.rt,reminder_move_on.duration,blocks.thisRepN,blocks.thisTrialN,blocks.thisN,blocks.thisIndex,blocks.ran,block,post_survey.age,post_survey.musician,post_survey.music_making,post_survey.listen_time,post_survey.medium,post_survey.music_seeking,post_survey.music_choice,post_survey.activities,post_survey.question1.Classic rock,post_survey.question1.R&B,post_survey.question1.Metal,post_survey.question1.Alternative rock,post_survey.question1.Disco,post_survey.question1.Hip hop,post_survey.question1.Folk/indie,post_survey.question1.Latin,post_survey.question1.Electronic (EDM),post_survey.question1.Ambient,post_survey.question1.Reggae,post_survey.question1.Pop,post_survey.question1.Classical,post_survey.question1.Jazz,post_survey.question1.Country,post_survey.other_genres,post_survey.genres_ranked.text1,post_survey.genres_ranked.text2,post_survey.genres_ranked.text3,post_survey.habit_change,post_survey.habits,show_exp.thisRepN,show_exp.thisTrialN,show_exp.thisN,show_exp.thisIndex,show_exp.ran,goodbye.started,goodbye.stopped
0.0002,7.0917,space,7.0781,,959167,001,2024-07-12_15h41.26.186,experiment,2024.1.5,MacIntel,56.17977528,614c1267826bcb89bd92e726,6691931c2c63981b064e1f0c,6691b0dc720e8dcc562ed284,,,,,,,,,,,,,,,,,,,,,,,,,,,,,,,,,,,,,,,,,,,,,,,,,,,,,,,,,,,,,,,,,,,,,,,,,,,,,,,,,,,,,,,,,,,,,,,,,,,,,,,,,,,,,,,,,,,,,,,,,,,,,,
,,,,,959167,001,2024-07-12_15h41.26.186,experiment,2024.1.5,MacIntel,56.17977528,614c1267826bcb89bd92e726,6691931c2c63981b064e1f0c,6691b0dc720e8dcc562ed284,yes,yes,,,,,,,,,,,,,,,,,,,,,,,,,,,,,,,,,,,,,,,,,,,,,,,,,,,,,,,,,,,,,,,,,,,,,,,,,,,,,,,,,,,,,,,,,,,,,,,,,,,,,,,,,,,,,,,,,,,,,,,,,,,,
,,,,,959167,001,2024-07-12_15h41.26.186,experiment,2024.1.5,MacIntel,56.17977528,614c1267826bcb89bd92e726,6691931c2c63981b064e1f0c,6691b0dc720e8dcc562ed284,,,48.2243,48.2245,,,,,,,,,,,,,,,,,,,,,,,,,,,,,,,,,,,,,,,,,,,,,,,,,,,,,,,,,,,,,,,,,,,,,,,,,,,,,,,,,,,,,,,,,,,,,,,,,,,,,,,,,,,,,,,,,,,,,,,,,,
,,,,,959167,001,2024-07-12_15h41.26.186,experiment,2024.1.5,MacIntel,56.17977528,614c1267826bcb89bd92e726,6691931c2c63981b064e1f0c,6691b0dc720e8dcc562ed284,,,,,48.2263,815.0614,space,766.8247,,815.0631,871.984,[-0.0025245949074074073],[-0.43274366590711805],[1],[0],[0],[35.468300000011936],"[""play_button""]",y,55.8885,,0,0,0,0,1,,,,,,,,,,,,,,,,,,,,,,,,,,,,,,,,,,,,,,,,,,,,,,,,,,,,,,,,,,,,,,,,,,,,,,,,,,,,,,,,,,,,,,,,,,,,,,,,,,,,
,,,,,959167,001,2024-07-12_15h41.26.186,experiment,2024.1.5,MacIntel,56.17977528,614c1267826bcb89bd92e726,6691931c2c63981b064e1f0c,6691b0dc720e8dcc562ed284,,,,,,,,,,,,,,,,,,,,,,,,,,,871.9845,921.4415,space,49.4377,,921.4416,1041.443,1041.4433,1060.4258,right,15.4509,,1060.4258,1069.2081,space,8.7573,,1069.2083,1080.0249,0.102052251,-0.170604847,1,0,0,4.8159,compass_2,1080.025,1085.9761,space,5.9329,,1085.9761,1085.986,1086.0075,1096.3088,-0.222977024,0.137703818,1,0,0,4.2996,compass,0,0,0,34,1,SoundStimuli/Irreplaceable_Beyonce_Original5S.wav,,,,,,,,,,,,,,,,,,,,,,,,,,,,,,,,,,,,,,,,,,,,,,,,,,,,
,,,,,959167,001,2024-07-12_15h41.26.186,experiment,2024.1.5,MacIntel,56.17977528,614c1267826bcb89bd92e726,6691931c2c63981b064e1f0c,6691b0dc720e8dcc562ed284,,,,,,,,,,,,,,,,,,,,,,,,,,,,,,,,,,,,,,,,,,,,,,,,,,,,,,,,,,,,1096.3184,1105.0582,0.160368178,-0.218915304,1,0,0,2.7325,compass,0,1,1,18,1,SoundStimuli/Weak_SWV_Original5S.wav,,,,,,,,,,,,,,,,,,,,,,,,,,,,,,,,,,,,,,,,,,,,,,,,,,,,
,,,,,959167,001,2024-07-12_15h41.26.186,experiment,2024.1.5,MacIntel,56.17977528,614c1267826bcb89bd92e726,6691931c2c63981b064e1f0c,6691b0dc720e8dcc562ed284,,,,,,,,,,,,,,,,,,,,,,,,,,,,,,,,,,,,,,,,,,,,,,,,,,,,,,,,,,,,1105.0694,1113.7251,-0.090159324,-0.038244911,1,0,0,2.6496,compass,0,2,2,0,1,SoundStimuli/GimmeShelter_RollingStones_Cover5S.wav,,,,,,,,,,,,,,,,,,,,,,,,,,,,,,,,,,,,,,,,,,,,,,,,,,,,
,,,,,959167,001,2024-07-12_15h41.26.186,experiment,2024.1.5,MacIntel,56.17977528,614c1267826bcb89bd92e726,6691931c2c63981b064e1f0c,6691b0dc720e8dcc562ed284,,,,,,,,,,,,,,,,,,,,,,,,,,,,,,,,,,,,,,,,,,,,,,,,,,,,,,,,,,,,1113.7347,1126.0256,0.247260087,-0.16657794,1,0,0,6.2843,compass,0,3,3,17,1,SoundStimuli/IWannaDanceWithSomebody_WhitneyHouston_Cover5S.wav,,,,,,,,,,,,,,,,,,,,,,,,,,,,,,,,,,,,,,,,,,,,,,,,,,,,
,,,,,959167,001,2024-07-12_15h41.26.186,experiment,2024.1.5,MacIntel,56.17977528,614c1267826bcb89bd92e726,6691931c2c63981b064e1f0c,6691b0dc720e8dcc562ed284,,,,,,,,,,,,,,,,,,,,,,,,,,,,,,,,,,,,,,,,,,,,,,,,,,,,,,,,,,,,1126.0359,1136.0082,0.078832217,-0.193345077,1,0,0,3.9662,compass,0,4,4,13,1,SoundStimuli/Perfect_EdSheeran_Original5S.wav,,,,,,,,,,,,,,,,,,,,,,,,,,,,,,,,,,,,,,,,,,,,,,,,,,,,
,,,,,959167,001,2024-07-12_15h41.26.186,experiment,2024.1.5,MacIntel,56.17977528,614c1267826bcb89bd92e726,6691931c2c63981b064e1f0c,6691b0dc720e8dcc562ed284,,,,,,,,,,,,,,,,,,,,,,,,,,,,,,,,,,,,,,,,,,,,,,,,,,,,,,,,,,,,1136.0187,1144.1923,0.062111749,-0.022834213,1,0,0,2.167,compass,0,5,5,4,1,SoundStimuli/Dreams_FleetwoodMac_Cover5S.wav,,,,,,,,,,,,,,,,,,,,,,,,,,,,,,,,,,,,,,,,,,,,,,,,,,,,
,,,,,959167,001,2024-07-12_15h41.26.186,experiment,2024.1.5,MacIntel,56.17977528,614c1267826bcb89bd92e726,6691931c2c63981b064e1f0c,6691b0dc720e8dcc562ed284,,,,,,,,,,,,,,,,,,,,,,,,,,,,,,,,,,,,,,,,,,,,,,,,,,,,,,,,,,,,1144.2036,1152.1252,0.302189693,0.034942599,1,0,0,1.9162,compass,0,6,6,3,1,SoundStimuli/PartyRockAnthem_LMFAO_Cover5S.wav,,,,,,,,,,,,,,,,,,,,,,,,,,,,,,,,,,,,,,,,,,,,,,,,,,,,
,,,,,959167,001,2024-07-12_15h41.26.186,experiment,2024.1.5,MacIntel,56.17977528,614c1267826bcb89bd92e726,6691931c2c63981b064e1f0c,6691b0dc720e8dcc562ed284,,,,,,,,,,,,,,,,,,,,,,,,,,,,,,,,,,,,,,,,,,,,,,,,,,,,,,,,,,,,1152.1352,1160.3425,0.255901874,-0.274917829,1,0,0,2.2011,compass,0,7,7,25,1,SoundStimuli/IllMakeLoveToYou_BoyzIIMen_Original5S.wav,,,,,,,,,,,,,,,,,,,,,,,,,,,,,,,,,,,,,,,,,,,,,,,,,,,,
,,,,,959167,001,2024-07-12_15h41.26.186,experiment,2024.1.5,MacIntel,56.17977528,614c1267826bcb89bd92e726,6691931c2c63981b064e1f0c,6691b0dc720e8dcc562ed284,,,,,,,,,,,,,,,,,,,,,,,,,,,,,,,,,,,,,,,,,,,,,,,,,,,,,,,,,,,,1160.3528,1171.1248,0.056983609,-0.244464337,1,0,0,4.767,compass,0,8,8,23,1,SoundStimuli/IWalkTheLine_JohnnyCash_Cover5S.wav,,,,,,,,,,,,,,,,,,,,,,,,,,,,,,,,,,,,,,,,,,,,,,,,,,,,
,,,,,959167,001,2024-07-12_15h41.26.186,experiment,2024.1.5,MacIntel,56.17977528,614c1267826bcb89bd92e726,6691931c2c63981b064e1f0c,6691b0dc720e8dcc562ed284,,,,,,,,,,,,,,,,,,,,,,,,,,,,,,,,,,,,,,,,,,,,,,,,,,,,,,,,,,,,1171.1349,1179.3577,-0.295946192,0.109584582,1,0,0,2.2163,compass,0,9,9,12,1,SoundStimuli/UnbreakMyHeart_ToniBraxton_Cover5S.wav,,,,,,,,,,,,,,,,,,,,,,,,,,,,,,,,,,,,,,,,,,,,,,,,,,,,
,,,,,959167,001,2024-07-12_15h41.26.186,experiment,2024.1.5,MacIntel,56.17977528,614c1267826bcb89bd92e726,6691931c2c63981b064e1f0c,6691b0dc720e8dcc562ed284,,,,,,,,,,,,,,,,,,,,,,,,,,,,,,,,,,,,,,,,,,,,,,,,,,,,,,,,,,,,1179.3685,1189.6412,0.226464844,-0.270324481,1,0,0,4.2652,compass,0,10,10,19,1,SoundStimuli/YouLightUpMyLife_DebbyBoone_Cover5S.wav,,,,,,,,,,,,,,,,,,,,,,,,,,,,,,,,,,,,,,,,,,,,,,,,,,,,
,,,,,959167,001,2024-07-12_15h41.26.186,experiment,2024.1.5,MacIntel,56.17977528,614c1267826bcb89bd92e726,6691931c2c63981b064e1f0c,6691b0dc720e8dcc562ed284,,,,,,,,,,,,,,,,,,,,,,,,,,,,,,,,,,,,,,,,,,,,,,,,,,,,,,,,,,,,1189.6516,1199.9753,-0.083915428,-0.098907697,1,0,0,4.3173,compass,0,11,11,7,1,SoundStimuli/MackTheKnife_BobbyDarin_Original5S.wav,,,,,,,,,,,,,,,,,,,,,,,,,,,,,,,,,,,,,,,,,,,,,,,,,,,,
,,,,,959167,001,2024-07-12_15h41.26.186,experiment,2024.1.5,MacIntel,56.17977528,614c1267826bcb89bd92e726,6691931c2c63981b064e1f0c,6691b0dc720e8dcc562ed284,,,,,,,,,,,,,,,,,,,,,,,,,,,,,,,,,,,,,,,,,,,,,,,,,,,,,,,,,,,,1199.9841,1212.3078,0.057307999,0.336003763,1,0,0,6.3161,compass,0,12,12,11,1,SoundStimuli/BlurredLines_RobinThicke_Original5S.wav,,,,,,,,,,,,,,,,,,,,,,,,,,,,,,,,,,,,,,,,,,,,,,,,,,,,
,,,,,959167,001,2024-07-12_15h41.26.186,experiment,2024.1.5,MacIntel,56.17977528,614c1267826bcb89bd92e726,6691931c2c63981b064e1f0c,6691b0dc720e8dcc562ed284,,,,,,,,,,,,,,,,,,,,,,,,,,,,,,,,,,,,,,,,,,,,,,,,,,,,,,,,,,,,1212.3173,1223.5247,0.17541097,-0.021638545,1,0,0,5.1998,compass,0,13,13,16,1,SoundStimuli/ItsAllInTheGame_TommyEdwards_Original5S.wav,,,,,,,,,,,,,,,,,,,,,,,,,,,,,,,,,,,,,,,,,,,,,,,,,,,,
,,,,,959167,001,2024-07-12_15h41.26.186,experiment,2024.1.5,MacIntel,56.17977528,614c1267826bcb89bd92e726,6691931c2c63981b064e1f0c,6691b0dc720e8dcc562ed284,,,,,,,,,,,,,,,,,,,,,,,,,,,,,,,,,,,,,,,,,,,,,,,,,,,,,,,,,,,,1223.5342,1236.225,-0.133669083,-0.070193312,1,0,0,6.6825,compass,0,14,14,9,1,SoundStimuli/HowDoILive_LeAnnRimes_Original5S.wav,,,,,,,,,,,,,,,,,,,,,,,,,,,,,,,,,,,,,,,,,,,,,,,,,,,,
,,,,,959167,001,2024-07-12_15h41.26.186,experiment,2024.1.5,MacIntel,56.17977528,614c1267826bcb89bd92e726,6691931c2c63981b064e1f0c,6691b0dc720e8dcc562ed284,,,,,,,,,,,,,,,,,,,,,,,,,,,,,,,,,,,,,,,,,,,,,,,,,,,,,,,,,,,,1236.2352,1248.8249,0.019170577,0.232243291,1,0,0,6.5833,compass,0,15,15,20,1,SoundStimuli/FlashdanceWhatAFeeling_IreneCara_Cover5S.wav,,,,,,,,,,,,,,,,,,,,,,,,,,,,,,,,,,,,,,,,,,,,,,,,,,,,
,,,,,959167,001,2024-07-12_15h41.26.186,experiment,2024.1.5,MacIntel,56.17977528,614c1267826bcb89bd92e726,6691931c2c63981b064e1f0c,6691b0dc720e8dcc562ed284,,,,,,,,,,,,,,,,,,,,,,,,,,,,,,,,,,,,,,,,,,,,,,,,,,,,,,,,,,,,1248.8363,1261.2413,-0.063148499,-0.260413728,1,0,0,6.4,compass,0,16,16,29,1,SoundStimuli/BetteDavisEyes_KimCarnes_Cover5S.wav,,,,,,,,,,,,,,,,,,,,,,,,,,,,,,,,,,,,,,,,,,,,,,,,,,,,
,,,,,959167,001,2024-07-12_15h41.26.186,experiment,2024.1.5,MacIntel,56.17977528,614c1267826bcb89bd92e726,6691931c2c63981b064e1f0c,6691b0dc720e8dcc562ed284,,,,,,,,,,,,,,,,,,,,,,,,,,,,,,,,,,,,,,,,,,,,,,,,,,,,,,,,,,,,1261.2507,1273.1417,0.251637099,0.249953348,1,0,0,5.8836,compass,0,17,17,31,1,SoundStimuli/TossinAndTurnin_BobbyLewis_Cover5S.wav,,,,,,,,,,,,,,,,,,,,,,,,,,,,,,,,,,,,,,,,,,,,,,,,,,,,
,,,,,959167,001,2024-07-12_15h41.26.186,experiment,2024.1.5,MacIntel,56.17977528,614c1267826bcb89bd92e726,6691931c2c63981b064e1f0c,6691b0dc720e8dcc562ed284,,,,,,,,,,,,,,,,,,,,,,,,,,,,,,,,,,,,,,,,,,,,,,,,,,,,,,,,,,,,1273.1526,1283.2088,0.102902109,-0.298107967,1,0,0,4.0501,compass,0,18,18,8,1,SoundStimuli/EndlessLove_DianaRossLionelRichie_Original5S.wav,,,,,,,,,,,,,,,,,,,,,,,,,,,,,,,,,,,,,,,,,,,,,,,,,,,,
,,,,,959167,001,2024-07-12_15h41.26.186,experiment,2024.1.5,MacIntel,56.17977528,614c1267826bcb89bd92e726,6691931c2c63981b064e1f0c,6691b0dc720e8dcc562ed284,,,,,,,,,,,,,,,,,,,,,,,,,,,,,,,,,,,,,,,,,,,,,,,,,,,,,,,,,,,,1283.219,1290.808,0.306355907,0.308904648,1,0,0,1.5831,compass,0,19,19,10,1,SoundStimuli/LeFreak_Chic_Original5S.wav,,,,,,,,,,,,,,,,,,,,,,,,,,,,,,,,,,,,,,,,,,,,,,,,,,,,
,,,,,959167,001,2024-07-12_15h41.26.186,experiment,2024.1.5,MacIntel,56.17977528,614c1267826bcb89bd92e726,6691931c2c63981b064e1f0c,6691b0dc720e8dcc562ed284,,,,,,,,,,,,,,,,,,,,,,,,,,,,,,,,,,,,,,,,,,,,,,,,,,,,,,,,,,,,1290.818,1299.6757,-0.255311924,0.25455619,1,0,0,2.8505,compass,0,20,20,5,1,SoundStimuli/JoyToTheWorld_ThreeDogNight_Cover5S.wav,,,,,,,,,,,,,,,,,,,,,,,,,,,,,,,,,,,,,,,,,,,,,,,,,,,,
,,,,,959167,001,2024-07-12_15h41.26.186,experiment,2024.1.5,MacIntel,56.17977528,614c1267826bcb89bd92e726,6691931c2c63981b064e1f0c,6691b0dc720e8dcc562ed284,,,,,,,,,,,,,,,,,,,,,,,,,,,,,,,,,,,,,,,,,,,,,,,,,,,,,,,,,,,,1299.6865,1308.9916,0.262499774,0.305527835,1,0,0,3.3001,compass,0,21,21,26,1,SoundStimuli/TheSign_AceOfBase_Original5S.wav,,,,,,,,,,,,,,,,,,,,,,,,,,,,,,,,,,,,,,,,,,,,,,,,,,,,
,,,,,959167,001,2024-07-12_15h41.26.186,experiment,2024.1.5,MacIntel,56.17977528,614c1267826bcb89bd92e726,6691931c2c63981b064e1f0c,6691b0dc720e8dcc562ed284,,,,,,,,,,,,,,,,,,,,,,,,,,,,,,,,,,,,,,,,,,,,,,,,,,,,,,,,,,,,1309.0014,1318.1591,0.145495945,-0.314673643,1,0,0,3.1513,compass,0,22,22,28,1,SoundStimuli/IWantToHoldYourHand_TheBeatles_Cover5S.wav,,,,,,,,,,,,,,,,,,,,,,,,,,,,,,,,,,,,,,,,,,,,,,,,,,,,
,,,,,959167,001,2024-07-12_15h41.26.186,experiment,2024.1.5,MacIntel,56.17977528,614c1267826bcb89bd92e726,6691931c2c63981b064e1f0c,6691b0dc720e8dcc562ed284,,,,,,,,,,,,,,,,,,,,,,,,,,,,,,,,,,,,,,,,,,,,,,,,,,,,,,,,,,,,1318.1685,1328.658,0.159042584,0.269582,1,0,0,4.4824,compass,0,23,23,2,1,SoundStimuli/SmellsLikeTeenSpirit_Nirvana_Cover5S.wav,,,,,,,,,,,,,,,,,,,,,,,,,,,,,,,,,,,,,,,,,,,,,,,,,,,,
,,,,,959167,001,2024-07-12_15h41.26.186,experiment,2024.1.5,MacIntel,56.17977528,614c1267826bcb89bd92e726,6691931c2c63981b064e1f0c,6691b0dc720e8dcc562ed284,,,,,,,,,,,,,,,,,,,,,,,,,,,,,,,,,,,,,,,,,,,,,,,,,,,,,,,,,,,,1328.6682,1339.092,0.21899934,0.0482269,1,0,0,4.4176,compass,0,24,24,1,1,SoundStimuli/Smooth_SantanaRobThomas_Cover5S.wav,,,,,,,,,,,,,,,,,,,,,,,,,,,,,,,,,,,,,,,,,,,,,,,,,,,,
,,,,,959167,001,2024-07-12_15h41.26.186,experiment,2024.1.5,MacIntel,56.17977528,614c1267826bcb89bd92e726,6691931c2c63981b064e1f0c,6691b0dc720e8dcc562ed284,,,,,,,,,,,,,,,,,,,,,,,,,,,,,,,,,,,,,,,,,,,,,,,,,,,,,,,,,,,,1339.102,1350.3758,0.036357738,-0.168455675,1,0,0,5.2669,compass,0,25,25,32,1,SoundStimuli/Dilemma_NellyKellyRowland_Original5S.wav,,,,,,,,,,,,,,,,,,,,,,,,,,,,,,,,,,,,,,,,,,,,,,,,,,,,
,,,,,959167,001,2024-07-12_15h41.26.186,experiment,2024.1.5,MacIntel,56.17977528,614c1267826bcb89bd92e726,6691931c2c63981b064e1f0c,6691b0dc720e8dcc562ed284,,,,,,,,,,,,,,,,,,,,,,,,,,,,,,,,,,,,,,,,,,,,,,,,,,,,,,,,,,,,1350.3867,1364.0256,0.019202056,-0.100917901,1,0,0,7.6343,compass,0,26,26,21,1,SoundStimuli/BridgeOverTroubledWater_SimonAndGarfunkel_Cover5S.wav,,,,,,,,,,,,,,,,,,,,,,,,,,,,,,,,,,,,,,,,,,,,,,,,,,,,
,,,,,959167,001,2024-07-12_15h41.26.186,experiment,2024.1.5,MacIntel,56.17977528,614c1267826bcb89bd92e726,6691931c2c63981b064e1f0c,6691b0dc720e8dcc562ed284,,,,,,,,,,,,,,,,,,,,,,,,,,,,,,,,,,,,,,,,,,,,,,,,,,,,,,,,,,,,1364.0368,1373.7248,0.336489303,0.201214797,1,0,0,3.6827,compass,0,27,27,22,1,SoundStimuli/Happy_PharellWilliams_Cover5S.wav,,,,,,,,,,,,,,,,,,,,,,,,,,,,,,,,,,,,,,,,,,,,,,,,,,,,
,,,,,959167,001,2024-07-12_15h41.26.186,experiment,2024.1.5,MacIntel,56.17977528,614c1267826bcb89bd92e726,6691931c2c63981b064e1f0c,6691b0dc720e8dcc562ed284,,,,,,,,,,,,,,,,,,,,,,,,,,,,,,,,,,,,,,,,,,,,,,,,,,,,,,,,,,,,1373.7353,1384.8251,0.259244227,0.113036036,1,0,0,5.0838,compass,0,28,28,24,1,SoundStimuli/Kiss_Prince_Original5S.wav,,,,,,,,,,,,,,,,,,,,,,,,,,,,,,,,,,,,,,,,,,,,,,,,,,,,
,,,,,959167,001,2024-07-12_15h41.26.186,experiment,2024.1.5,MacIntel,56.17977528,614c1267826bcb89bd92e726,6691931c2c63981b064e1f0c,6691b0dc720e8dcc562ed284,,,,,,,,,,,,,,,,,,,,,,,,,,,,,,,,,,,,,,,,,,,,,,,,,,,,,,,,,,,,1384.8361,1394.5918,-0.229416233,0.075296021,1,0,0,3.7492,compass,0,29,29,33,1,SoundStimuli/TheBoyIsMine_BrandyMonica_Cover5S.wav,,,,,,,,,,,,,,,,,,,,,,,,,,,,,,,,,,,,,,,,,,,,,,,,,,,,
,,,,,959167,001,2024-07-12_15h41.26.186,experiment,2024.1.5,MacIntel,56.17977528,614c1267826bcb89bd92e726,6691931c2c63981b064e1f0c,6691b0dc720e8dcc562ed284,,,,,,,,,,,,,,,,,,,,,,,,,,,,,,,,,,,,,,,,,,,,,,,,,,,,,,,,,,,,1394.6015,1410.1082,0.067047458,0.168499615,1,0,0,9.4991,compass,0,30,30,15,1,SoundStimuli/CrazyInLove_BeyonceFtJayZ_Original5S.wav,,,,,,,,,,,,,,,,,,,,,,,,,,,,,,,,,,,,,,,,,,,,,,,,,,,,
,,,,,959167,001,2024-07-12_15h41.26.186,experiment,2024.1.5,MacIntel,56.17977528,614c1267826bcb89bd92e726,6691931c2c63981b064e1f0c,6691b0dc720e8dcc562ed284,,,,,,,,,,,,,,,,,,,,,,,,,,,,,,,,,,,,,,,,,,,,,,,,,,,,,,,,,,,,1410.119,1418.4749,-0.279946391,-0.058015781,1,0,0,2.3503,compass,0,31,31,30,1,SoundStimuli/SomebodyThatIUsedtoKnow_Gotye_Cover5S.wav,,,,,,,,,,,,,,,,,,,,,,,,,,,,,,,,,,,,,,,,,,,,,,,,,,,,
,,,,,959167,001,2024-07-12_15h41.26.186,experiment,2024.1.5,MacIntel,56.17977528,614c1267826bcb89bd92e726,6691931c2c63981b064e1f0c,6691b0dc720e8dcc562ed284,,,,,,,,,,,,,,,,,,,,,,,,,,,,,,,,,,,,,,,,,,,,,,,,,,,,,,,,,,,,1418.4837,1428.2749,-0.164972545,-0.092426893,1,0,0,3.7829,compass,0,32,32,14,1,SoundStimuli/LikeARollingStone_BobDylan_Cover5S.wav,,,,,,,,,,,,,,,,,,,,,,,,,,,,,,,,,,,,,,,,,,,,,,,,,,,,
,,,,,959167,001,2024-07-12_15h41.26.186,experiment,2024.1.5,MacIntel,56.17977528,614c1267826bcb89bd92e726,6691931c2c63981b064e1f0c,6691b0dc720e8dcc562ed284,,,,,,,,,,,,,,,,,,,,,,,,,,,,,,,,,,,,,,,,,,,,,,,,,,,,,,,,,,,,1428.2832,1438.6913,-0.235576149,0.135129265,1,0,0,4.3992,compass,0,33,33,6,1,SoundStimuli/SaveYourTears_TheWeekndArianaGrande_Original5S.wav,,,,,,,,,,,,,,,,,,,,,,,,,,,,,,,,,,,,,,,,,,,,,,,,,,,,
,,,,,959167,001,2024-07-12_15h41.26.186,experiment,2024.1.5,MacIntel,56.17977528,614c1267826bcb89bd92e726,6691931c2c63981b064e1f0c,6691b0dc720e8dcc562ed284,,,,,,,,,,,,,,,,,,,,,,,,,,,,,,,,,,,,,,,,,,,,,,,,,,,,,,,,,,,,1438.7016,1446.1089,0.312705711,0.18221348,1,0,0,1.4007,compass,0,34,34,27,1,SoundStimuli/EyeOfTheTiger_Survivor_Original5S.wav,,,,,,,,,,,,,,,,,,,,,,,,,,,,,,,,,,,,,,,,,,,,,,,,,,,,
,,,,,959167,001,2024-07-12_15h41.26.186,experiment,2024.1.5,MacIntel,56.17977528,614c1267826bcb89bd92e726,6691931c2c63981b064e1f0c,6691b0dc720e8dcc562ed284,,,,,,,,,,,,,,,,,,,,,,,,,,,,,,,,,,,,,,,,,,,,,,,,,,,,,,,,,,,,,,,,,,,,,,,,,,,1446.1194,1448.9662,space,2.8357,,1448.9662,1456.9087,right,7.9249,,0,0,0,0,1,block_order/blockB.xlsx,,,,,,,,,,,,,,,,,,,,,,,,,,,,,,,,,,,,
,,,,,959167,001,2024-07-12_15h41.26.186,experiment,2024.1.5,MacIntel,56.17977528,614c1267826bcb89bd92e726,6691931c2c63981b064e1f0c,6691b0dc720e8dcc562ed284,,,,,,,,,,,,,,,,,,,,,,,,,,,,,,,,,,,,,,,,,,,,,,,,,,,,,,,,,,,,1456.9254,1464.5086,0.314316474,0.301537196,1,0,0,1.583,compass,0,0,0,15,1,SoundStimuli/TikTok_Kesha_Original5S.wav,,,,,,,,,,,,,,,,,,,,,,,,,,,,,,,,,,,,,,,,,,,,,,,,,,,,
,,,,,959167,001,2024-07-12_15h41.26.186,experiment,2024.1.5,MacIntel,56.17977528,614c1267826bcb89bd92e726,6691931c2c63981b064e1f0c,6691b0dc720e8dcc562ed284,,,,,,,,,,,,,,,,,,,,,,,,,,,,,,,,,,,,,,,,,,,,,,,,,,,,,,,,,,,,1464.5173,1474.1756,0.252206873,-0.107933723,1,0,0,3.6502,compass,0,1,1,19,1,SoundStimuli/LetsGetItOn_MarvinGaye_Original5S.wav,,,,,,,,,,,,,,,,,,,,,,,,,,,,,,,,,,,,,,,,,,,,,,,,,,,,
,,,,,959167,001,2024-07-12_15h41.26.186,experiment,2024.1.5,MacIntel,56.17977528,614c1267826bcb89bd92e726,6691931c2c63981b064e1f0c,6691b0dc720e8dcc562ed284,,,,,,,,,,,,,,,,,,,,,,,,,,,,,,,,,,,,,,,,,,,,,,,,,,,,,,,,,,,,1474.186,1483.858,0.249807739,-0.298075076,1,0,0,3.6656,compass,0,2,2,5,1,SoundStimuli/MyGirl_TheTemptations_Cover5S.wav,,,,,,,,,,,,,,,,,,,,,,,,,,,,,,,,,,,,,,,,,,,,,,,,,,,,
,,,,,959167,001,2024-07-12_15h41.26.186,experiment,2024.1.5,MacIntel,56.17977528,614c1267826bcb89bd92e726,6691931c2c63981b064e1f0c,6691b0dc720e8dcc562ed284,,,,,,,,,,,,,,,,,,,,,,,,,,,,,,,,,,,,,,,,,,,,,,,,,,,,,,,,,,,,1483.8679,1492.5594,0.118339143,0.063396567,1,0,0,2.6839,compass,0,3,3,9,1,SoundStimuli/Despacito_LuisFonsiDaddyYankee_Original5S.wav,,,,,,,,,,,,,,,,,,,,,,,,,,,,,,,,,,,,,,,,,,,,,,,,,,,,
,,,,,959167,001,2024-07-12_15h41.26.186,experiment,2024.1.5,MacIntel,56.17977528,614c1267826bcb89bd92e726,6691931c2c63981b064e1f0c,6691b0dc720e8dcc562ed284,,,,,,,,,,,,,,,,,,,,,,,,,,,,,,,,,,,,,,,,,,,,,,,,,,,,,,,,,,,,1492.5697,1500.992,0.034517133,-0.202074009,1,0,0,2.4162,compass,0,4,4,34,1,SoundStimuli/AChangeIsGonnaCome_SamCooke_Original5S.wav,,,,,,,,,,,,,,,,,,,,,,,,,,,,,,,,,,,,,,,,,,,,,,,,,,,,
,,,,,959167,001,2024-07-12_15h41.26.186,experiment,2024.1.5,MacIntel,56.17977528,614c1267826bcb89bd92e726,6691931c2c63981b064e1f0c,6691b0dc720e8dcc562ed284,,,,,,,,,,,,,,,,,,,,,,,,,,,,,,,,,,,,,,,,,,,,,,,,,,,,,,,,,,,,1501.0031,1509.8084,0.221208247,0.125756469,1,0,0,2.7996,compass,0,5,5,26,1,SoundStimuli/LivinOnAPrayer_BonJovi_Original5S.wav,,,,,,,,,,,,,,,,,,,,,,,,,,,,,,,,,,,,,,,,,,,,,,,,,,,,
,,,,,959167,001,2024-07-12_15h41.26.186,experiment,2024.1.5,MacIntel,56.17977528,614c1267826bcb89bd92e726,6691931c2c63981b064e1f0c,6691b0dc720e8dcc562ed284,,,,,,,,,,,,,,,,,,,,,,,,,,,,,,,,,,,,,,,,,,,,,,,,,,,,,,,,,,,,1509.8183,1522.0248,0.063953428,0.062754624,1,0,0,6.1999,compass,0,6,6,31,1,SoundStimuli/TheBattleOfNewOrleans_JohnnyHorton_Original5S.wav,,,,,,,,,,,,,,,,,,,,,,,,,,,,,,,,,,,,,,,,,,,,,,,,,,,,
,,,,,959167,001,2024-07-12_15h41.26.186,experiment,2024.1.5,MacIntel,56.17977528,614c1267826bcb89bd92e726,6691931c2c63981b064e1f0c,6691b0dc720e8dcc562ed284,,,,,,,,,,,,,,,,,,,,,,,,,,,,,,,,,,,,,,,,,,,,,,,,,,,,,,,,,,,,1522.0352,1530.4921,0.071074083,-0.145868937,1,0,0,2.4501,compass,0,7,7,22,1,SoundStimuli/RockWithYou_MichaelJackson_Cover5S.wav,,,,,,,,,,,,,,,,,,,,,,,,,,,,,,,,,,,,,,,,,,,,,,,,,,,,
,,,,,959167,001,2024-07-12_15h41.26.186,experiment,2024.1.5,MacIntel,56.17977528,614c1267826bcb89bd92e726,6691931c2c63981b064e1f0c,6691b0dc720e8dcc562ed284,,,,,,,,,,,,,,,,,,,,,,,,,,,,,,,,,,,,,,,,,,,,,,,,,,,,,,,,,,,,1530.5023,1541.9921,0.104273252,-0.034981396,1,0,0,5.4833,compass,0,8,8,17,1,SoundStimuli/Fallin_AliciaKeys_Cover5S.wav,,,,,,,,,,,,,,,,,,,,,,,,,,,,,,,,,,,,,,,,,,,,,,,,,,,,
,,,,,959167,001,2024-07-12_15h41.26.186,experiment,2024.1.5,MacIntel,56.17977528,614c1267826bcb89bd92e726,6691931c2c63981b064e1f0c,6691b0dc720e8dcc562ed284,,,,,,,,,,,,,,,,,,,,,,,,,,,,,,,,,,,,,,,,,,,,,,,,,,,,,,,,,,,,1542.0031,1561.4755,-0.013968969,-0.156295776,1,0,0,13.4672,compass,0,9,9,29,1,SoundStimuli/OldTownRoad_LilNasX_Cover5S.wav,,,,,,,,,,,,,,,,,,,,,,,,,,,,,,,,,,,,,,,,,,,,,,,,,,,,
,,,,,959167,001,2024-07-12_15h41.26.186,experiment,2024.1.5,MacIntel,56.17977528,614c1267826bcb89bd92e726,6691931c2c63981b064e1f0c,6691b0dc720e8dcc562ed284,,,,,,,,,,,,,,,,,,,,,,,,,,,,,,,,,,,,,,,,,,,,,,,,,,,,,,,,,,,,1561.4857,1570.2596,0.154451723,0.053867312,1,0,0,2.768,compass,0,10,10,6,1,SoundStimuli/Levitating_DuaLipa_Original5S.wav,,,,,,,,,,,,,,,,,,,,,,,,,,,,,,,,,,,,,,,,,,,,,,,,,,,,
,,,,,959167,001,2024-07-12_15h41.26.186,experiment,2024.1.5,MacIntel,56.17977528,614c1267826bcb89bd92e726,6691931c2c63981b064e1f0c,6691b0dc720e8dcc562ed284,,,,,,,,,,,,,,,,,,,,,,,,,,,,,,,,,,,,,,,,,,,,,,,,,,,,,,,,,,,,1570.2698,1577.8081,0.26376128,0.265375674,1,0,0,1.5328,compass,0,11,11,0,1,SoundStimuli/StayinAlive_BeeGees_Cover5S.wav,,,,,,,,,,,,,,,,,,,,,,,,,,,,,,,,,,,,,,,,,,,,,,,,,,,,
,,,,,959167,001,2024-07-12_15h41.26.186,experiment,2024.1.5,MacIntel,56.17977528,614c1267826bcb89bd92e726,6691931c2c63981b064e1f0c,6691b0dc720e8dcc562ed284,,,,,,,,,,,,,,,,,,,,,,,,,,,,,,,,,,,,,,,,,,,,,,,,,,,,,,,,,,,,1577.8184,1587.859,-0.27902476,-0.209202011,1,0,0,4.0345,compass,0,12,12,10,1,SoundStimuli/BadDay_DanielPowter_Original5S.wav,,,,,,,,,,,,,,,,,,,,,,,,,,,,,,,,,,,,,,,,,,,,,,,,,,,,
,,,,,959167,001,2024-07-12_15h41.26.186,experiment,2024.1.5,MacIntel,56.17977528,614c1267826bcb89bd92e726,6691931c2c63981b064e1f0c,6691b0dc720e8dcc562ed284,,,,,,,,,,,,,,,,,,,,,,,,,,,,,,,,,,,,,,,,,,,,,,,,,,,,,,,,,,,,1587.868,1596.259,-0.29097923,0.130242637,1,0,0,2.3833,compass,0,13,13,16,1,SoundStimuli/BohemianRhapsody_Queen_Cover5S.wav,,,,,,,,,,,,,,,,,,,,,,,,,,,,,,,,,,,,,,,,,,,,,,,,,,,,
,,,,,959167,001,2024-07-12_15h41.26.186,experiment,2024.1.5,MacIntel,56.17977528,614c1267826bcb89bd92e726,6691931c2c63981b064e1f0c,6691b0dc720e8dcc562ed284,,,,,,,,,,,,,,,,,,,,,,,,,,,,,,,,,,,,,,,,,,,,,,,,,,,,,,,,,,,,1596.2705,1605.243,0.307293588,0.124151922,1,0,0,2.9679,compass,0,14,14,20,1,SoundStimuli/HeyYa_Outkast_Original5S.wav,,,,,,,,,,,,,,,,,,,,,,,,,,,,,,,,,,,,,,,,,,,,,,,,,,,,
,,,,,959167,001,2024-07-12_15h41.26.186,experiment,2024.1.5,MacIntel,56.17977528,614c1267826bcb89bd92e726,6691931c2c63981b064e1f0c,6691b0dc720e8dcc562ed284,,,,,,,,,,,,,,,,,,,,,,,,,,,,,,,,,,,,,,,,,,,,,,,,,,,,,,,,,,,,1605.2522,1617.7588,0.289158009,0.178454759,1,0,0,6.499,compass,0,15,15,8,1,SoundStimuli/LikeAPrayer_Madonna_Cover5S.wav,,,,,,,,,,,,,,,,,,,,,,,,,,,,,,,,,,,,,,,,,,,,,,,,,,,,
,,,,,959167,001,2024-07-12_15h41.26.186,experiment,2024.1.5,MacIntel,56.17977528,614c1267826bcb89bd92e726,6691931c2c63981b064e1f0c,6691b0dc720e8dcc562ed284,,,,,,,,,,,,,,,,,,,,,,,,,,,,,,,,,,,,,,,,,,,,,,,,,,,,,,,,,,,,1617.77,1632.4088,-0.048435409,0.158851567,1,0,0,8.6334,compass,0,16,16,11,1,SoundStimuli/Superstition_StevieWonder_Original5S.wav,,,,,,,,,,,,,,,,,,,,,,,,,,,,,,,,,,,,,,,,,,,,,,,,,,,,
,,,,,959167,001,2024-07-12_15h41.26.186,experiment,2024.1.5,MacIntel,56.17977528,614c1267826bcb89bd92e726,6691931c2c63981b064e1f0c,6691b0dc720e8dcc562ed284,,,,,,,,,,,,,,,,,,,,,,,,,,,,,,,,,,,,,,,,,,,,,,,,,,,,,,,,,,,,1632.4193,1646.4929,-0.251018157,0.092311916,1,0,0,8.0667,compass,0,17,17,2,1,SoundStimuli/Mood_24kGoldnianndior_Original5S.wav,,,,,,,,,,,,,,,,,,,,,,,,,,,,,,,,,,,,,,,,,,,,,,,,,,,,
,,,,,959167,001,2024-07-12_15h41.26.186,experiment,2024.1.5,MacIntel,56.17977528,614c1267826bcb89bd92e726,6691931c2c63981b064e1f0c,6691b0dc720e8dcc562ed284,,,,,,,,,,,,,,,,,,,,,,,,,,,,,,,,,,,,,,,,,,,,,,,,,,,,,,,,,,,,1646.5038,1659.9255,0.139422268,-0.210960558,1,0,0,7.4165,compass,0,18,18,33,1,SoundStimuli/StandByMe_BenEKing_Original5S.wav,,,,,,,,,,,,,,,,,,,,,,,,,,,,,,,,,,,,,,,,,,,,,,,,,,,,
,,,,,959167,001,2024-07-12_15h41.26.186,experiment,2024.1.5,MacIntel,56.17977528,614c1267826bcb89bd92e726,6691931c2c63981b064e1f0c,6691b0dc720e8dcc562ed284,,,,,,,,,,,,,,,,,,,,,,,,,,,,,,,,,,,,,,,,,,,,,,,,,,,,,,,,,,,,1659.936,1680.6264,-0.027357313,0.116336003,1,0,0,14.6844,compass,0,19,19,30,1,SoundStimuli/PokerFace_LadyGaga_Cover5S.wav,,,,,,,,,,,,,,,,,,,,,,,,,,,,,,,,,,,,,,,,,,,,,,,,,,,,
,,,,,959167,001,2024-07-12_15h41.26.186,experiment,2024.1.5,MacIntel,56.17977528,614c1267826bcb89bd92e726,6691931c2c63981b064e1f0c,6691b0dc720e8dcc562ed284,,,,,,,,,,,,,,,,,,,,,,,,,,,,,,,,,,,,,,,,,,,,,,,,,,,,,,,,,,,,1680.6383,1691.4413,-0.1387094,-0.028658662,1,0,0,4.7997,compass,0,20,20,3,1,SoundStimuli/NoScrubs_TLC_Cover5S.wav,,,,,,,,,,,,,,,,,,,,,,,,,,,,,,,,,,,,,,,,,,,,,,,,,,,,
,,,,,959167,001,2024-07-12_15h41.26.186,experiment,2024.1.5,MacIntel,56.17977528,614c1267826bcb89bd92e726,6691931c2c63981b064e1f0c,6691b0dc720e8dcc562ed284,,,,,,,,,,,,,,,,,,,,,,,,,,,,,,,,,,,,,,,,,,,,,,,,,,,,,,,,,,,,1691.4532,1703.1251,0.13443434,0.044195472,1,0,0,5.6651,compass,0,21,21,4,1,SoundStimuli/GetUrFreakOn_MissyElliot_Cover5S.wav,,,,,,,,,,,,,,,,,,,,,,,,,,,,,,,,,,,,,,,,,,,,,,,,,,,,
,,,,,959167,001,2024-07-12_15h41.26.186,experiment,2024.1.5,MacIntel,56.17977528,614c1267826bcb89bd92e726,6691931c2c63981b064e1f0c,6691b0dc720e8dcc562ed284,,,,,,,,,,,,,,,,,,,,,,,,,,,,,,,,,,,,,,,,,,,,,,,,,,,,,,,,,,,,1703.1356,1723.2914,0.078186939,0.105697914,1,0,0,14.1488,compass,0,22,22,32,1,SoundStimuli/HeatWaves_GlassAnimals_Cover5S.wav,,,,,,,,,,,,,,,,,,,,,,,,,,,,,,,,,,,,,,,,,,,,,,,,,,,,
,,,,,959167,001,2024-07-12_15h41.26.186,experiment,2024.1.5,MacIntel,56.17977528,614c1267826bcb89bd92e726,6691931c2c63981b064e1f0c,6691b0dc720e8dcc562ed284,,,,,,,,,,,,,,,,,,,,,,,,,,,,,,,,,,,,,,,,,,,,,,,,,,,,,,,,,,,,1723.302,1741.1589,-0.024550939,0.066415603,1,0,0,11.85,compass,0,23,23,27,1,SoundStimuli/ShapeofYou_EdSheeran_Cover5S.wav,,,,,,,,,,,,,,,,,,,,,,,,,,,,,,,,,,,,,,,,,,,,,,,,,,,,
,,,,,959167,001,2024-07-12_15h41.26.186,experiment,2024.1.5,MacIntel,56.17977528,614c1267826bcb89bd92e726,6691931c2c63981b064e1f0c,6691b0dc720e8dcc562ed284,,,,,,,,,,,,,,,,,,,,,,,,,,,,,,,,,,,,,,,,,,,,,,,,,,,,,,,,,,,,1741.1689,1767.0418,0.048054335,0.085698615,1,0,0,19.8666,compass,0,24,24,7,1,SoundStimuli/NoOne_AliciaKeys_Original5S.wav,,,,,,,,,,,,,,,,,,,,,,,,,,,,,,,,,,,,,,,,,,,,,,,,,,,,
,,,,,959167,001,2024-07-12_15h41.26.186,experiment,2024.1.5,MacIntel,56.17977528,614c1267826bcb89bd92e726,6691931c2c63981b064e1f0c,6691b0dc720e8dcc562ed284,,,,,,,,,,,,,,,,,,,,,,,,,,,,,,,,,,,,,,,,,,,,,,,,,,,,,,,,,,,,1767.0513,1774.2923,0.270218122,0.233210415,1,0,0,1.2335,compass,0,25,25,21,1,SoundStimuli/GoodGollyMissMolly_LittleRichard_Original5S.wav,,,,,,,,,,,,,,,,,,,,,,,,,,,,,,,,,,,,,,,,,,,,,,,,,,,,
,,,,,959167,001,2024-07-12_15h41.26.186,experiment,2024.1.5,MacIntel,56.17977528,614c1267826bcb89bd92e726,6691931c2c63981b064e1f0c,6691b0dc720e8dcc562ed284,,,,,,,,,,,,,,,,,,,,,,,,,,,,,,,,,,,,,,,,,,,,,,,,,,,,,,,,,,,,1774.3029,1790.5749,0.110788303,0.172772047,1,0,0,10.2661,compass,0,26,26,1,1,SoundStimuli/Stronger_KanyeWest_Cover5S.wav,,,,,,,,,,,,,,,,,,,,,,,,,,,,,,,,,,,,,,,,,,,,,,,,,,,,
,,,,,959167,001,2024-07-12_15h41.26.186,experiment,2024.1.5,MacIntel,56.17977528,614c1267826bcb89bd92e726,6691931c2c63981b064e1f0c,6691b0dc720e8dcc562ed284,,,,,,,,,,,,,,,,,,,,,,,,,,,,,,,,,,,,,,,,,,,,,,,,,,,,,,,,,,,,1790.5836,1799.5585,-0.222745712,-0.146630803,1,0,0,2.967,compass,0,27,27,18,1,SoundStimuli/AnotherOneBitesTheDust_Queen_Cover5S.wav,,,,,,,,,,,,,,,,,,,,,,,,,,,,,,,,,,,,,,,,,,,,,,,,,,,,
,,,,,959167,001,2024-07-12_15h41.26.186,experiment,2024.1.5,MacIntel,56.17977528,614c1267826bcb89bd92e726,6691931c2c63981b064e1f0c,6691b0dc720e8dcc562ed284,,,,,,,,,,,,,,,,,,,,,,,,,,,,,,,,,,,,,,,,,,,,,,,,,,,,,,,,,,,,1799.5691,1809.6413,-0.212879435,0.20672161,1,0,0,4.0659,compass,0,28,28,23,1,SoundStimuli/StrawberryFieldsForever_TheBeatles_Cover5S.wav,,,,,,,,,,,,,,,,,,,,,,,,,,,,,,,,,,,,,,,,,,,,,,,,,,,,
,,,,,959167,001,2024-07-12_15h41.26.186,experiment,2024.1.5,MacIntel,56.17977528,614c1267826bcb89bd92e726,6691931c2c63981b064e1f0c,6691b0dc720e8dcc562ed284,,,,,,,,,,,,,,,,,,,,,,,,,,,,,,,,,,,,,,,,,,,,,,,,,,,,,,,,,,,,1809.6517,1817.9246,0.216831349,0.021784408,1,0,0,2.2658,compass,0,29,29,28,1,SoundStimuli/ComeAndGetYourLove_Redbone_Cover5S.wav,,,,,,,,,,,,,,,,,,,,,,,,,,,,,,,,,,,,,,,,,,,,,,,,,,,,
,,,,,959167,001,2024-07-12_15h41.26.186,experiment,2024.1.5,MacIntel,56.17977528,614c1267826bcb89bd92e726,6691931c2c63981b064e1f0c,6691b0dc720e8dcc562ed284,,,,,,,,,,,,,,,,,,,,,,,,,,,,,,,,,,,,,,,,,,,,,,,,,,,,,,,,,,,,1817.9355,1829.1755,-0.192553089,-0.013277294,1,0,0,5.2336,compass,0,30,30,13,1,SoundStimuli/GodOnlyKnows_TheBeachBoys_Original5S.wav,,,,,,,,,,,,,,,,,,,,,,,,,,,,,,,,,,,,,,,,,,,,,,,,,,,,
,,,,,959167,001,2024-07-12_15h41.26.186,experiment,2024.1.5,MacIntel,56.17977528,614c1267826bcb89bd92e726,6691931c2c63981b064e1f0c,6691b0dc720e8dcc562ed284,,,,,,,,,,,,,,,,,,,,,,,,,,,,,,,,,,,,,,,,,,,,,,,,,,,,,,,,,,,,1829.1861,1842.142,-0.146543658,0.036382746,1,0,0,6.9489,compass,0,31,31,14,1,SoundStimuli/BlindingLights_TheWeeknd_Cover5S.wav,,,,,,,,,,,,,,,,,,,,,,,,,,,,,,,,,,,,,,,,,,,,,,,,,,,,
,,,,,959167,001,2024-07-12_15h41.26.186,experiment,2024.1.5,MacIntel,56.17977528,614c1267826bcb89bd92e726,6691931c2c63981b064e1f0c,6691b0dc720e8dcc562ed284,,,,,,,,,,,,,,,,,,,,,,,,,,,,,,,,,,,,,,,,,,,,,,,,,,,,,,,,,,,,1842.1524,1853.5421,0.217022366,-0.14711705,1,0,0,5.3835,compass,0,32,32,12,1,SoundStimuli/IWillAlwaysLoveYou_WhitneyHouston_Original5S.wav,,,,,,,,,,,,,,,,,,,,,,,,,,,,,,,,,,,,,,,,,,,,,,,,,,,,
,,,,,959167,001,2024-07-12_15h41.26.186,experiment,2024.1.5,MacIntel,56.17977528,614c1267826bcb89bd92e726,6691931c2c63981b064e1f0c,6691b0dc720e8dcc562ed284,,,,,,,,,,,,,,,,,,,,,,,,,,,,,,,,,,,,,,,,,,,,,,,,,,,,,,,,,,,,1853.5528,1861.992,-0.138382184,0.273249082,1,0,0,2.4333,compass,0,33,33,25,1,SoundStimuli/Respect_ArethaFranklin_Cover5S.wav,,,,,,,,,,,,,,,,,,,,,,,,,,,,,,,,,,,,,,,,,,,,,,,,,,,,
,,,,,959167,001,2024-07-12_15h41.26.186,experiment,2024.1.5,MacIntel,56.17977528,614c1267826bcb89bd92e726,6691931c2c63981b064e1f0c,6691b0dc720e8dcc562ed284,,,,,,,,,,,,,,,,,,,,,,,,,,,,,,,,,,,,,,,,,,,,,,,,,,,,,,,,,,,,1862.0021,1871.3417,0.094557699,0.217569761,1,0,0,3.3337,compass,0,34,34,24,1,SoundStimuli/UptownFunk_MarkRonson_Cover5S.wav,,,,,,,,,,,,,,,,,,,,,,,,,,,,,,,,,,,,,,,,,,,,,,,,,,,,
,,,,,959167,001,2024-07-12_15h41.26.186,experiment,2024.1.5,MacIntel,56.17977528,614c1267826bcb89bd92e726,6691931c2c63981b064e1f0c,6691b0dc720e8dcc562ed284,,,,,,,,,,,,,,,,,,,,,,,,,,,,,,,,,,,,,,,,,,,,,,,,,,,,,,,,,,,,,,,,,,,,,,,,,,,1871.3512,1873.359,space,1.9943,,1873.359,1878.6922,right,5.3158,,0,1,1,1,1,block_order/blockC.xlsx,,,,,,,,,,,,,,,,,,,,,,,,,,,,,,,,,,,,
,,,,,959167,001,2024-07-12_15h41.26.186,experiment,2024.1.5,MacIntel,56.17977528,614c1267826bcb89bd92e726,6691931c2c63981b064e1f0c,6691b0dc720e8dcc562ed284,,,,,,,,,,,,,,,,,,,,,,,,,,,,,,,,,,,,,,,,,,,,,,,,,,,,,,,,,,,,1878.711,1894.3914,-0.02265382,0.28390924,1,0,0,9.6662,compass,0,0,0,17,1,SoundStimuli/IWannaDanceWithSomebody_WhitneyHouston_Original5S.wav,,,,,,,,,,,,,,,,,,,,,,,,,,,,,,,,,,,,,,,,,,,,,,,,,,,,
,,,,,959167,001,2024-07-12_15h41.26.186,experiment,2024.1.5,MacIntel,56.17977528,614c1267826bcb89bd92e726,6691931c2c63981b064e1f0c,6691b0dc720e8dcc562ed284,,,,,,,,,,,,,,,,,,,,,,,,,,,,,,,,,,,,,,,,,,,,,,,,,,,,,,,,,,,,1894.4015,1902.9934,0.082591982,0.085994607,1,0,0,2.5853,compass,0,1,1,27,1,SoundStimuli/EyeOfTheTiger_Survivor_Cover5S.wav,,,,,,,,,,,,,,,,,,,,,,,,,,,,,,,,,,,,,,,,,,,,,,,,,,,,
,,,,,959167,001,2024-07-12_15h41.26.186,experiment,2024.1.5,MacIntel,56.17977528,614c1267826bcb89bd92e726,6691931c2c63981b064e1f0c,6691b0dc720e8dcc562ed284,,,,,,,,,,,,,,,,,,,,,,,,,,,,,,,,,,,,,,,,,,,,,,,,,,,,,,,,,,,,1903.0031,1912.3926,0.093200345,-0.056459667,1,0,0,3.3841,compass,0,2,2,29,1,SoundStimuli/BetteDavisEyes_KimCarnes_Original5S.wav,,,,,,,,,,,,,,,,,,,,,,,,,,,,,,,,,,,,,,,,,,,,,,,,,,,,
,,,,,959167,001,2024-07-12_15h41.26.186,experiment,2024.1.5,MacIntel,56.17977528,614c1267826bcb89bd92e726,6691931c2c63981b064e1f0c,6691b0dc720e8dcc562ed284,,,,,,,,,,,,,,,,,,,,,,,,,,,,,,,,,,,,,,,,,,,,,,,,,,,,,,,,,,,,1912.4023,1919.5926,-0.136791484,-0.0508255,1,0,0,1.1836,compass,0,3,3,7,1,SoundStimuli/MackTheKnife_BobbyDarin_Cover5S.wav,,,,,,,,,,,,,,,,,,,,,,,,,,,,,,,,,,,,,,,,,,,,,,,,,,,,
,,,,,959167,001,2024-07-12_15h41.26.186,experiment,2024.1.5,MacIntel,56.17977528,614c1267826bcb89bd92e726,6691931c2c63981b064e1f0c,6691b0dc720e8dcc562ed284,,,,,,,,,,,,,,,,,,,,,,,,,,,,,,,,,,,,,,,,,,,,,,,,,,,,,,,,,,,,1919.6028,1930.359,-0.23479473,-0.202343072,1,0,0,4.7511,compass,0,4,4,4,1,SoundStimuli/Dreams_FleetwoodMac_Original5S.wav,,,,,,,,,,,,,,,,,,,,,,,,,,,,,,,,,,,,,,,,,,,,,,,,,,,,
,,,,,959167,001,2024-07-12_15h41.26.186,experiment,2024.1.5,MacIntel,56.17977528,614c1267826bcb89bd92e726,6691931c2c63981b064e1f0c,6691b0dc720e8dcc562ed284,,,,,,,,,,,,,,,,,,,,,,,,,,,,,,,,,,,,,,,,,,,,,,,,,,,,,,,,,,,,1930.369,1941.9749,-0.249460687,-0.072990361,1,0,0,5.599,compass,0,5,5,30,1,SoundStimuli/SomebodyThatIUsedtoKnow_Gotye_Original5S.wav,,,,,,,,,,,,,,,,,,,,,,,,,,,,,,,,,,,,,,,,,,,,,,,,,,,,
,,,,,959167,001,2024-07-12_15h41.26.186,experiment,2024.1.5,MacIntel,56.17977528,614c1267826bcb89bd92e726,6691931c2c63981b064e1f0c,6691b0dc720e8dcc562ed284,,,,,,,,,,,,,,,,,,,,,,,,,,,,,,,,,,,,,,,,,,,,,,,,,,,,,,,,,,,,1941.9843,1952.7079,0.121488331,-0.219590985,1,0,0,4.7161,compass,0,6,6,23,1,SoundStimuli/IWalkTheLine_JohnnyCash_Original5S.wav,,,,,,,,,,,,,,,,,,,,,,,,,,,,,,,,,,,,,,,,,,,,,,,,,,,,
,,,,,959167,001,2024-07-12_15h41.26.186,experiment,2024.1.5,MacIntel,56.17977528,614c1267826bcb89bd92e726,6691931c2c63981b064e1f0c,6691b0dc720e8dcc562ed284,,,,,,,,,,,,,,,,,,,,,,,,,,,,,,,,,,,,,,,,,,,,,,,,,,,,,,,,,,,,1952.7175,1965.2415,-0.197073986,-0.073003755,1,0,0,6.5158,compass,0,7,7,5,1,SoundStimuli/JoyToTheWorld_ThreeDogNight_Original5S.wav,,,,,,,,,,,,,,,,,,,,,,,,,,,,,,,,,,,,,,,,,,,,,,,,,,,,
,,,,,959167,001,2024-07-12_15h41.26.186,experiment,2024.1.5,MacIntel,56.17977528,614c1267826bcb89bd92e726,6691931c2c63981b064e1f0c,6691b0dc720e8dcc562ed284,,,,,,,,,,,,,,,,,,,,,,,,,,,,,,,,,,,,,,,,,,,,,,,,,,,,,,,,,,,,1965.253,1980.3752,0.120285034,-0.032861215,1,0,0,9.1163,compass,0,8,8,18,1,SoundStimuli/Weak_SWV_Cover5S.wav,,,,,,,,,,,,,,,,,,,,,,,,,,,,,,,,,,,,,,,,,,,,,,,,,,,,
,,,,,959167,001,2024-07-12_15h41.26.186,experiment,2024.1.5,MacIntel,56.17977528,614c1267826bcb89bd92e726,6691931c2c63981b064e1f0c,6691b0dc720e8dcc562ed284,,,,,,,,,,,,,,,,,,,,,,,,,,,,,,,,,,,,,,,,,,,,,,,,,,,,,,,,,,,,1980.3855,1988.8757,0.093869697,-0.094525146,1,0,0,2.4831,compass,0,9,9,8,1,SoundStimuli/EndlessLove_DianaRossLionelRichie_Cover5S.wav,,,,,,,,,,,,,,,,,,,,,,,,,,,,,,,,,,,,,,,,,,,,,,,,,,,,
,,,,,959167,001,2024-07-12_15h41.26.186,experiment,2024.1.5,MacIntel,56.17977528,614c1267826bcb89bd92e726,6691931c2c63981b064e1f0c,6691b0dc720e8dcc562ed284,,,,,,,,,,,,,,,,,,,,,,,,,,,,,,,,,,,,,,,,,,,,,,,,,,,,,,,,,,,,1988.885,1997.1747,0.241723746,0.315365488,1,0,0,2.2832,compass,0,10,10,26,1,SoundStimuli/TheSign_AceOfBase_Cover5S.wav,,,,,,,,,,,,,,,,,,,,,,,,,,,,,,,,,,,,,,,,,,,,,,,,,,,,
,,,,,959167,001,2024-07-12_15h41.26.186,experiment,2024.1.5,MacIntel,56.17977528,614c1267826bcb89bd92e726,6691931c2c63981b064e1f0c,6691b0dc720e8dcc562ed284,,,,,,,,,,,,,,,,,,,,,,,,,,,,,,,,,,,,,,,,,,,,,,,,,,,,,,,,,,,,1997.1851,2008.2754,0.190816809,0.212079988,1,0,0,5.0839,compass,0,11,11,0,1,SoundStimuli/GimmeShelter_RollingStones_Original5S.wav,,,,,,,,,,,,,,,,,,,,,,,,,,,,,,,,,,,,,,,,,,,,,,,,,,,,
,,,,,959167,001,2024-07-12_15h41.26.186,experiment,2024.1.5,MacIntel,56.17977528,614c1267826bcb89bd92e726,6691931c2c63981b064e1f0c,6691b0dc720e8dcc562ed284,,,,,,,,,,,,,,,,,,,,,,,,,,,,,,,,,,,,,,,,,,,,,,,,,,,,,,,,,,,,2008.2853,2016.8089,0.143820416,0.119051248,1,0,0,2.5177,compass,0,12,12,1,1,SoundStimuli/Smooth_SantanaRobThomas_Original5S.wav,,,,,,,,,,,,,,,,,,,,,,,,,,,,,,,,,,,,,,,,,,,,,,,,,,,,
,,,,,959167,001,2024-07-12_15h41.26.186,experiment,2024.1.5,MacIntel,56.17977528,614c1267826bcb89bd92e726,6691931c2c63981b064e1f0c,6691b0dc720e8dcc562ed284,,,,,,,,,,,,,,,,,,,,,,,,,,,,,,,,,,,,,,,,,,,,,,,,,,,,,,,,,,,,2016.8174,2028.7593,-0.238548957,-0.18335317,1,0,0,5.9345,compass,0,13,13,34,1,SoundStimuli/Irreplaceable_Beyonce_Cover5S.wav,,,,,,,,,,,,,,,,,,,,,,,,,,,,,,,,,,,,,,,,,,,,,,,,,,,,
,,,,,959167,001,2024-07-12_15h41.26.186,experiment,2024.1.5,MacIntel,56.17977528,614c1267826bcb89bd92e726,6691931c2c63981b064e1f0c,6691b0dc720e8dcc562ed284,,,,,,,,,,,,,,,,,,,,,,,,,,,,,,,,,,,,,,,,,,,,,,,,,,,,,,,,,,,,2028.7689,2035.8414,0.327188562,0.118775968,1,0,0,1.0662,compass,0,14,14,22,1,SoundStimuli/Happy_PharellWilliams_Original5S.wav,,,,,,,,,,,,,,,,,,,,,,,,,,,,,,,,,,,,,,,,,,,,,,,,,,,,
,,,,,959167,001,2024-07-12_15h41.26.186,experiment,2024.1.5,MacIntel,56.17977528,614c1267826bcb89bd92e726,6691931c2c63981b064e1f0c,6691b0dc720e8dcc562ed284,,,,,,,,,,,,,,,,,,,,,,,,,,,,,,,,,,,,,,,,,,,,,,,,,,,,,,,,,,,,2035.8516,2044.976,-0.292620115,0.22165095,1,0,0,3.1183,compass,0,15,15,31,1,SoundStimuli/TossinAndTurnin_BobbyLewis_Original5S.wav,,,,,,,,,,,,,,,,,,,,,,,,,,,,,,,,,,,,,,,,,,,,,,,,,,,,
,,,,,959167,001,2024-07-12_15h41.26.186,experiment,2024.1.5,MacIntel,56.17977528,614c1267826bcb89bd92e726,6691931c2c63981b064e1f0c,6691b0dc720e8dcc562ed284,,,,,,,,,,,,,,,,,,,,,,,,,,,,,,,,,,,,,,,,,,,,,,,,,,,,,,,,,,,,2044.9872,2055.9417,0.070670121,0.023527866,1,0,0,4.95,compass,0,16,16,24,1,SoundStimuli/Kiss_Prince_Cover5S.wav,,,,,,,,,,,,,,,,,,,,,,,,,,,,,,,,,,,,,,,,,,,,,,,,,,,,
,,,,,959167,001,2024-07-12_15h41.26.186,experiment,2024.1.5,MacIntel,56.17977528,614c1267826bcb89bd92e726,6691931c2c63981b064e1f0c,6691b0dc720e8dcc562ed284,,,,,,,,,,,,,,,,,,,,,,,,,,,,,,,,,,,,,,,,,,,,,,,,,,,,,,,,,,,,2055.9511,2069.0921,0.062219125,0.192627688,1,0,0,7.1337,compass,0,17,17,11,1,SoundStimuli/BlurredLines_RobinThicke_Cover5S.wav,,,,,,,,,,,,,,,,,,,,,,,,,,,,,,,,,,,,,,,,,,,,,,,,,,,,
,,,,,959167,001,2024-07-12_15h41.26.186,experiment,2024.1.5,MacIntel,56.17977528,614c1267826bcb89bd92e726,6691931c2c63981b064e1f0c,6691b0dc720e8dcc562ed284,,,,,,,,,,,,,,,,,,,,,,,,,,,,,,,,,,,,,,,,,,,,,,,,,,,,,,,,,,,,2069.102,2079.908,0.316392913,0.218497976,1,0,0,4.799,compass,0,18,18,3,1,SoundStimuli/PartyRockAnthem_LMFAO_Original5S.wav,,,,,,,,,,,,,,,,,,,,,,,,,,,,,,,,,,,,,,,,,,,,,,,,,,,,
,,,,,959167,001,2024-07-12_15h41.26.186,experiment,2024.1.5,MacIntel,56.17977528,614c1267826bcb89bd92e726,6691931c2c63981b064e1f0c,6691b0dc720e8dcc562ed284,,,,,,,,,,,,,,,,,,,,,,,,,,,,,,,,,,,,,,,,,,,,,,,,,,,,,,,,,,,,2079.9186,2091.1096,0.242442378,0.340720057,1,0,0,5.184,compass,0,19,19,10,1,SoundStimuli/LeFreak_Chic_Cover5S.wav,,,,,,,,,,,,,,,,,,,,,,,,,,,,,,,,,,,,,,,,,,,,,,,,,,,,
,,,,,959167,001,2024-07-12_15h41.26.186,experiment,2024.1.5,MacIntel,56.17977528,614c1267826bcb89bd92e726,6691931c2c63981b064e1f0c,6691b0dc720e8dcc562ed284,,,,,,,,,,,,,,,,,,,,,,,,,,,,,,,,,,,,,,,,,,,,,,,,,,,,,,,,,,,,2091.1207,2102.6256,-0.067782197,-0.064048089,1,0,0,5.5005,compass,0,20,20,21,1,SoundStimuli/BridgeOverTroubledWater_SimonAndGarfunkel_Original5S.wav,,,,,,,,,,,,,,,,,,,,,,,,,,,,,,,,,,,,,,,,,,,,,,,,,,,,
,,,,,959167,001,2024-07-12_15h41.26.186,experiment,2024.1.5,MacIntel,56.17977528,614c1267826bcb89bd92e726,6691931c2c63981b064e1f0c,6691b0dc720e8dcc562ed284,,,,,,,,,,,,,,,,,,,,,,,,,,,,,,,,,,,,,,,,,,,,,,,,,,,,,,,,,,,,2102.6372,2115.408,-0.149599881,-0.045939354,1,0,0,6.7657,compass,0,21,21,6,1,SoundStimuli/SaveYourTears_TheWeekndArianaGrande_Cover5S.wav,,,,,,,,,,,,,,,,,,,,,,,,,,,,,,,,,,,,,,,,,,,,,,,,,,,,
,,,,,959167,001,2024-07-12_15h41.26.186,experiment,2024.1.5,MacIntel,56.17977528,614c1267826bcb89bd92e726,6691931c2c63981b064e1f0c,6691b0dc720e8dcc562ed284,,,,,,,,,,,,,,,,,,,,,,,,,,,,,,,,,,,,,,,,,,,,,,,,,,,,,,,,,,,,2115.4181,2129.5592,0.13175241,0.025227752,1,0,0,8.1344,compass,0,22,22,20,1,SoundStimuli/FlashdanceWhatAFeeling_IreneCara_Original5S.wav,,,,,,,,,,,,,,,,,,,,,,,,,,,,,,,,,,,,,,,,,,,,,,,,,,,,
,,,,,959167,001,2024-07-12_15h41.26.186,experiment,2024.1.5,MacIntel,56.17977528,614c1267826bcb89bd92e726,6691931c2c63981b064e1f0c,6691b0dc720e8dcc562ed284,,,,,,,,,,,,,,,,,,,,,,,,,,,,,,,,,,,,,,,,,,,,,,,,,,,,,,,,,,,,2129.5707,2137.0577,-0.311324113,-0.258657837,1,0,0,1.4832,compass,0,23,23,12,1,SoundStimuli/UnbreakMyHeart_ToniBraxton_Original5S.wav,,,,,,,,,,,,,,,,,,,,,,,,,,,,,,,,,,,,,,,,,,,,,,,,,,,,
,,,,,959167,001,2024-07-12_15h41.26.186,experiment,2024.1.5,MacIntel,56.17977528,614c1267826bcb89bd92e726,6691931c2c63981b064e1f0c,6691b0dc720e8dcc562ed284,,,,,,,,,,,,,,,,,,,,,,,,,,,,,,,,,,,,,,,,,,,,,,,,,,,,,,,,,,,,2137.0677,2148.3923,-0.077835422,-0.099346472,1,0,0,5.3174,compass,0,24,24,9,1,SoundStimuli/HowDoILive_LeAnnRimes_Cover5S.wav,,,,,,,,,,,,,,,,,,,,,,,,,,,,,,,,,,,,,,,,,,,,,,,,,,,,
,,,,,959167,001,2024-07-12_15h41.26.186,experiment,2024.1.5,MacIntel,56.17977528,614c1267826bcb89bd92e726,6691931c2c63981b064e1f0c,6691b0dc720e8dcc562ed284,,,,,,,,,,,,,,,,,,,,,,,,,,,,,,,,,,,,,,,,,,,,,,,,,,,,,,,,,,,,2148.4034,2158.9088,0.241419135,-0.266621229,1,0,0,4.5001,compass,0,25,25,19,1,SoundStimuli/YouLightUpMyLife_DebbyBoone_Original5S.wav,,,,,,,,,,,,,,,,,,,,,,,,,,,,,,,,,,,,,,,,,,,,,,,,,,,,
,,,,,959167,001,2024-07-12_15h41.26.186,experiment,2024.1.5,MacIntel,56.17977528,614c1267826bcb89bd92e726,6691931c2c63981b064e1f0c,6691b0dc720e8dcc562ed284,,,,,,,,,,,,,,,,,,,,,,,,,,,,,,,,,,,,,,,,,,,,,,,,,,,,,,,,,,,,2158.9197,2167.942,0.17262788,0.137582539,1,0,0,3.0168,compass,0,26,26,2,1,SoundStimuli/SmellsLikeTeenSpirit_Nirvana_Original5S.wav,,,,,,,,,,,,,,,,,,,,,,,,,,,,,,,,,,,,,,,,,,,,,,,,,,,,
,,,,,959167,001,2024-07-12_15h41.26.186,experiment,2024.1.5,MacIntel,56.17977528,614c1267826bcb89bd92e726,6691931c2c63981b064e1f0c,6691b0dc720e8dcc562ed284,,,,,,,,,,,,,,,,,,,,,,,,,,,,,,,,,,,,,,,,,,,,,,,,,,,,,,,,,,,,2167.952,2177.6581,0.14867938,-0.246727894,1,0,0,3.7001,compass,0,27,27,25,1,SoundStimuli/IllMakeLoveToYou_BoyzIIMen_Cover5S.wav,,,,,,,,,,,,,,,,,,,,,,,,,,,,,,,,,,,,,,,,,,,,,,,,,,,,
,,,,,959167,001,2024-07-12_15h41.26.186,experiment,2024.1.5,MacIntel,56.17977528,614c1267826bcb89bd92e726,6691931c2c63981b064e1f0c,6691b0dc720e8dcc562ed284,,,,,,,,,,,,,,,,,,,,,,,,,,,,,,,,,,,,,,,,,,,,,,,,,,,,,,,,,,,,2177.668,2185.7753,0.230305198,0.137305253,1,0,0,2.1,compass,0,28,28,28,1,SoundStimuli/IWantToHoldYourHand_TheBeatles_Original5S.wav,,,,,,,,,,,,,,,,,,,,,,,,,,,,,,,,,,,,,,,,,,,,,,,,,,,,
,,,,,959167,001,2024-07-12_15h41.26.186,experiment,2024.1.5,MacIntel,56.17977528,614c1267826bcb89bd92e726,6691931c2c63981b064e1f0c,6691b0dc720e8dcc562ed284,,,,,,,,,,,,,,,,,,,,,,,,,,,,,,,,,,,,,,,,,,,,,,,,,,,,,,,,,,,,2185.7842,2203.6924,0.113347711,-0.028356651,1,0,0,11.9011,compass,0,29,29,32,1,SoundStimuli/Dilemma_NellyKellyRowland_Cover5S.wav,,,,,,,,,,,,,,,,,,,,,,,,,,,,,,,,,,,,,,,,,,,,,,,,,,,,
,,,,,959167,001,2024-07-12_15h41.26.186,experiment,2024.1.5,MacIntel,56.17977528,614c1267826bcb89bd92e726,6691931c2c63981b064e1f0c,6691b0dc720e8dcc562ed284,,,,,,,,,,,,,,,,,,,,,,,,,,,,,,,,,,,,,,,,,,,,,,,,,,,,,,,,,,,,2203.7014,2224.9423,-0.013774787,0.089359905,1,0,0,15.2344,compass,0,30,30,14,1,SoundStimuli/LikeARollingStone_BobDylan_Original5S.wav,,,,,,,,,,,,,,,,,,,,,,,,,,,,,,,,,,,,,,,,,,,,,,,,,,,,
,,,,,959167,001,2024-07-12_15h41.26.186,experiment,2024.1.5,MacIntel,56.17977528,614c1267826bcb89bd92e726,6691931c2c63981b064e1f0c,6691b0dc720e8dcc562ed284,,,,,,,,,,,,,,,,,,,,,,,,,,,,,,,,,,,,,,,,,,,,,,,,,,,,,,,,,,,,2224.9523,2235.3089,0.103197112,-0.315258224,1,0,0,4.3499,compass,0,31,31,13,1,SoundStimuli/Perfect_EdSheeran_Cover5S.wav,,,,,,,,,,,,,,,,,,,,,,,,,,,,,,,,,,,,,,,,,,,,,,,,,,,,
,,,,,959167,001,2024-07-12_15h41.26.186,experiment,2024.1.5,MacIntel,56.17977528,614c1267826bcb89bd92e726,6691931c2c63981b064e1f0c,6691b0dc720e8dcc562ed284,,,,,,,,,,,,,,,,,,,,,,,,,,,,,,,,,,,,,,,,,,,,,,,,,,,,,,,,,,,,2235.3195,2245.9079,0.09008823,-0.288241916,1,0,0,4.5824,compass,0,32,32,16,1,SoundStimuli/ItsAllInTheGame_TommyEdwards_Cover5S.wav,,,,,,,,,,,,,,,,,,,,,,,,,,,,,,,,,,,,,,,,,,,,,,,,,,,,
,,,,,959167,001,2024-07-12_15h41.26.186,experiment,2024.1.5,MacIntel,56.17977528,614c1267826bcb89bd92e726,6691931c2c63981b064e1f0c,6691b0dc720e8dcc562ed284,,,,,,,,,,,,,,,,,,,,,,,,,,,,,,,,,,,,,,,,,,,,,,,,,,,,,,,,,,,,2245.9181,2257.8249,-0.279018374,-0.206814688,1,0,0,5.8988,compass,0,33,33,33,1,SoundStimuli/TheBoyIsMine_BrandyMonica_Original5S.wav,,,,,,,,,,,,,,,,,,,,,,,,,,,,,,,,,,,,,,,,,,,,,,,,,,,,
,,,,,959167,001,2024-07-12_15h41.26.186,experiment,2024.1.5,MacIntel,56.17977528,614c1267826bcb89bd92e726,6691931c2c63981b064e1f0c,6691b0dc720e8dcc562ed284,,,,,,,,,,,,,,,,,,,,,,,,,,,,,,,,,,,,,,,,,,,,,,,,,,,,,,,,,,,,2257.8342,2273.2082,0.061119362,-0.225047867,1,0,0,9.3658,compass,0,34,34,15,1,SoundStimuli/CrazyInLove_BeyonceFtJayZ_Cover5S.wav,,,,,,,,,,,,,,,,,,,,,,,,,,,,,,,,,,,,,,,,,,,,,,,,,,,,
,,,,,959167,001,2024-07-12_15h41.26.186,experiment,2024.1.5,MacIntel,56.17977528,614c1267826bcb89bd92e726,6691931c2c63981b064e1f0c,6691b0dc720e8dcc562ed284,,,,,,,,,,,,,,,,,,,,,,,,,,,,,,,,,,,,,,,,,,,,,,,,,,,,,,,,,,,,,,,,,,,,,,,,,,,2273.2082,2276.8917,space,3.6723,,2276.8918,2280.0418,right,3.1288,,0,2,2,2,1,block_order/blockD.xlsx,,,,,,,,,,,,,,,,,,,,,,,,,,,,,,,,,,,,
,,,,,959167,001,2024-07-12_15h41.26.186,experiment,2024.1.5,MacIntel,56.17977528,614c1267826bcb89bd92e726,6691931c2c63981b064e1f0c,6691b0dc720e8dcc562ed284,,,,,,,,,,,,,,,,,,,,,,,,,,,,,,,,,,,,,,,,,,,,,,,,,,,,,,,,,,,,2280.0578,2289.7582,0.158358086,-0.045732117,1,0,0,3.6832,compass,0,0,0,9,1,SoundStimuli/Despacito_LuisFonsiDaddyYankee_Cover5S.wav,,,,,,,,,,,,,,,,,,,,,,,,,,,,,,,,,,,,,,,,,,,,,,,,,,,,
,,,,,959167,001,2024-07-12_15h41.26.186,experiment,2024.1.5,MacIntel,56.17977528,614c1267826bcb89bd92e726,6691931c2c63981b064e1f0c,6691b0dc720e8dcc562ed284,,,,,,,,,,,,,,,,,,,,,,,,,,,,,,,,,,,,,,,,,,,,,,,,,,,,,,,,,,,,2289.7694,2301.0584,0.127718212,0.077049481,1,0,0,5.2829,compass,0,1,1,7,1,SoundStimuli/NoOne_AliciaKeys_Cover5S.wav,,,,,,,,,,,,,,,,,,,,,,,,,,,,,,,,,,,,,,,,,,,,,,,,,,,,
,,,,,959167,001,2024-07-12_15h41.26.186,experiment,2024.1.5,MacIntel,56.17977528,614c1267826bcb89bd92e726,6691931c2c63981b064e1f0c,6691b0dc720e8dcc562ed284,,,,,,,,,,,,,,,,,,,,,,,,,,,,,,,,,,,,,,,,,,,,,,,,,,,,,,,,,,,,2301.0682,2312.1079,0.168711797,-0.104283086,1,0,0,5.0325,compass,0,2,2,17,1,SoundStimuli/Fallin_AliciaKeys_Original5S.wav,,,,,,,,,,,,,,,,,,,,,,,,,,,,,,,,,,,,,,,,,,,,,,,,,,,,
,,,,,959167,001,2024-07-12_15h41.26.186,experiment,2024.1.5,MacIntel,56.17977528,614c1267826bcb89bd92e726,6691931c2c63981b064e1f0c,6691b0dc720e8dcc562ed284,,,,,,,,,,,,,,,,,,,,,,,,,,,,,,,,,,,,,,,,,,,,,,,,,,,,,,,,,,,,2312.1176,2322.9247,0.044403528,-0.103144045,1,0,0,4.7999,compass,0,3,3,32,1,SoundStimuli/HeatWaves_GlassAnimals_Original5S.wav,,,,,,,,,,,,,,,,,,,,,,,,,,,,,,,,,,,,,,,,,,,,,,,,,,,,
,,,,,959167,001,2024-07-12_15h41.26.186,experiment,2024.1.5,MacIntel,56.17977528,614c1267826bcb89bd92e726,6691931c2c63981b064e1f0c,6691b0dc720e8dcc562ed284,,,,,,,,,,,,,,,,,,,,,,,,,,,,,,,,,,,,,,,,,,,,,,,,,,,,,,,,,,,,2322.9341,2332.7411,-0.068656582,-0.036729262,1,0,0,3.8,compass,0,4,4,29,1,SoundStimuli/OldTownRoad_LilNasX_Original5S.wav,,,,,,,,,,,,,,,,,,,,,,,,,,,,,,,,,,,,,,,,,,,,,,,,,,,,
,,,,,959167,001,2024-07-12_15h41.26.186,experiment,2024.1.5,MacIntel,56.17977528,614c1267826bcb89bd92e726,6691931c2c63981b064e1f0c,6691b0dc720e8dcc562ed284,,,,,,,,,,,,,,,,,,,,,,,,,,,,,,,,,,,,,,,,,,,,,,,,,,,,,,,,,,,,2332.7512,2339.1257,0.143898067,0.043684331,1,0,0,0.3667,compass,0,5,5,4,1,SoundStimuli/GetUrFreakOn_MissyElliot_Original5S.wav,,,,,,,,,,,,,,,,,,,,,,,,,,,,,,,,,,,,,,,,,,,,,,,,,,,,
,,,,,959167,001,2024-07-12_15h41.26.186,experiment,2024.1.5,MacIntel,56.17977528,614c1267826bcb89bd92e726,6691931c2c63981b064e1f0c,6691b0dc720e8dcc562ed284,,,,,,,,,,,,,,,,,,,,,,,,,,,,,,,,,,,,,,,,,,,,,,,,,,,,,,,,,,,,2339.136,2345.7928,0.153108837,-0.039529136,1,0,0,0.6499,compass,0,6,6,33,1,SoundStimuli/StandByMe_BenEKing_Cover5S.wav,,,,,,,,,,,,,,,,,,,,,,,,,,,,,,,,,,,,,,,,,,,,,,,,,,,,
,,,,,959167,001,2024-07-12_15h41.26.186,experiment,2024.1.5,MacIntel,56.17977528,614c1267826bcb89bd92e726,6691931c2c63981b064e1f0c,6691b0dc720e8dcc562ed284,,,,,,,,,,,,,,,,,,,,,,,,,,,,,,,,,,,,,,,,,,,,,,,,,,,,,,,,,,,,2345.8026,2357.4087,0.035224349,-0.258504571,1,0,0,5.6005,compass,0,7,7,31,1,SoundStimuli/TheBattleOfNewOrleans_JohnnyHorton_Cover5S.wav,,,,,,,,,,,,,,,,,,,,,,,,,,,,,,,,,,,,,,,,,,,,,,,,,,,,
,,,,,959167,001,2024-07-12_15h41.26.186,experiment,2024.1.5,MacIntel,56.17977528,614c1267826bcb89bd92e726,6691931c2c63981b064e1f0c,6691b0dc720e8dcc562ed284,,,,,,,,,,,,,,,,,,,,,,,,,,,,,,,,,,,,,,,,,,,,,,,,,,,,,,,,,,,,2357.4185,2369.2585,-0.076846427,0.080033253,1,0,0,5.8328,compass,0,8,8,11,1,SoundStimuli/Superstition_StevieWonder_Cover5S.wav,,,,,,,,,,,,,,,,,,,,,,,,,,,,,,,,,,,,,,,,,,,,,,,,,,,,
,,,,,959167,001,2024-07-12_15h41.26.186,experiment,2024.1.5,MacIntel,56.17977528,614c1267826bcb89bd92e726,6691931c2c63981b064e1f0c,6691b0dc720e8dcc562ed284,,,,,,,,,,,,,,,,,,,,,,,,,,,,,,,,,,,,,,,,,,,,,,,,,,,,,,,,,,,,2369.2687,2385.0579,-0.014020906,0.231437514,1,0,0,9.7817,compass,0,9,9,30,1,SoundStimuli/PokerFace_LadyGaga_Original5S.wav,,,,,,,,,,,,,,,,,,,,,,,,,,,,,,,,,,,,,,,,,,,,,,,,,,,,
,,,,,959167,001,2024-07-12_15h41.26.186,experiment,2024.1.5,MacIntel,56.17977528,614c1267826bcb89bd92e726,6691931c2c63981b064e1f0c,6691b0dc720e8dcc562ed284,,,,,,,,,,,,,,,,,,,,,,,,,,,,,,,,,,,,,,,,,,,,,,,,,,,,,,,,,,,,2385.0681,2400.0424,-0.115911752,0.169140936,1,0,0,8.9677,compass,0,10,10,25,1,SoundStimuli/Respect_ArethaFranklin_Original5S.wav,,,,,,,,,,,,,,,,,,,,,,,,,,,,,,,,,,,,,,,,,,,,,,,,,,,,
,,,,,959167,001,2024-07-12_15h41.26.186,experiment,2024.1.5,MacIntel,56.17977528,614c1267826bcb89bd92e726,6691931c2c63981b064e1f0c,6691b0dc720e8dcc562ed284,,,,,,,,,,,,,,,,,,,,,,,,,,,,,,,,,,,,,,,,,,,,,,,,,,,,,,,,,,,,2400.054,2407.9255,-0.216663389,-0.282442672,1,0,0,1.8671,compass,0,11,11,13,1,SoundStimuli/GodOnlyKnows_TheBeachBoys_Cover5S.wav,,,,,,,,,,,,,,,,,,,,,,,,,,,,,,,,,,,,,,,,,,,,,,,,,,,,
,,,,,959167,001,2024-07-12_15h41.26.186,experiment,2024.1.5,MacIntel,56.17977528,614c1267826bcb89bd92e726,6691931c2c63981b064e1f0c,6691b0dc720e8dcc562ed284,,,,,,,,,,,,,,,,,,,,,,,,,,,,,,,,,,,,,,,,,,,,,,,,,,,,,,,,,,,,2407.9371,2417.6412,-0.273905945,-0.317935124,1,0,0,3.699,compass,0,12,12,10,1,SoundStimuli/BadDay_DanielPowter_Cover5S.wav,,,,,,,,,,,,,,,,,,,,,,,,,,,,,,,,,,,,,,,,,,,,,,,,,,,,
,,,,,959167,001,2024-07-12_15h41.26.186,experiment,2024.1.5,MacIntel,56.17977528,614c1267826bcb89bd92e726,6691931c2c63981b064e1f0c,6691b0dc720e8dcc562ed284,,,,,,,,,,,,,,,,,,,,,,,,,,,,,,,,,,,,,,,,,,,,,,,,,,,,,,,,,,,,2417.6501,2431.1922,-0.257759772,0.174004138,1,0,0,7.5343,compass,0,13,13,14,1,SoundStimuli/BlindingLights_TheWeeknd_Original5S.wav,,,,,,,,,,,,,,,,,,,,,,,,,,,,,,,,,,,,,,,,,,,,,,,,,,,,
,,,,,959167,001,2024-07-12_15h41.26.186,experiment,2024.1.5,MacIntel,56.17977528,614c1267826bcb89bd92e726,6691931c2c63981b064e1f0c,6691b0dc720e8dcc562ed284,,,,,,,,,,,,,,,,,,,,,,,,,,,,,,,,,,,,,,,,,,,,,,,,,,,,,,,,,,,,2431.2032,2438.7922,0.231413778,0.139695429,1,0,0,1.5837,compass,0,14,14,22,1,SoundStimuli/RockWithYou_MichaelJackson_Original5S.wav,,,,,,,,,,,,,,,,,,,,,,,,,,,,,,,,,,,,,,,,,,,,,,,,,,,,
,,,,,959167,001,2024-07-12_15h41.26.186,experiment,2024.1.5,MacIntel,56.17977528,614c1267826bcb89bd92e726,6691931c2c63981b064e1f0c,6691b0dc720e8dcc562ed284,,,,,,,,,,,,,,,,,,,,,,,,,,,,,,,,,,,,,,,,,,,,,,,,,,,,,,,,,,,,2438.8025,2447.926,0.142474139,0.125762346,1,0,0,3.1172,compass,0,15,15,28,1,SoundStimuli/ComeAndGetYourLove_Redbone_Original5S.wav,,,,,,,,,,,,,,,,,,,,,,,,,,,,,,,,,,,,,,,,,,,,,,,,,,,,
,,,,,959167,001,2024-07-12_15h41.26.186,experiment,2024.1.5,MacIntel,56.17977528,614c1267826bcb89bd92e726,6691931c2c63981b064e1f0c,6691b0dc720e8dcc562ed284,,,,,,,,,,,,,,,,,,,,,,,,,,,,,,,,,,,,,,,,,,,,,,,,,,,,,,,,,,,,2447.9347,2457.3424,0.13502898,0.02888339,1,0,0,3.4002,compass,0,16,16,27,1,SoundStimuli/ShapeofYou_EdSheeran_Original5S.wav,,,,,,,,,,,,,,,,,,,,,,,,,,,,,,,,,,,,,,,,,,,,,,,,,,,,
,,,,,959167,001,2024-07-12_15h41.26.186,experiment,2024.1.5,MacIntel,56.17977528,614c1267826bcb89bd92e726,6691931c2c63981b064e1f0c,6691b0dc720e8dcc562ed284,,,,,,,,,,,,,,,,,,,,,,,,,,,,,,,,,,,,,,,,,,,,,,,,,,,,,,,,,,,,2457.3518,2469.5587,-0.083087723,0.033119795,1,0,0,6.2009,compass,0,17,17,23,1,SoundStimuli/StrawberryFieldsForever_TheBeatles_Original5S.wav,,,,,,,,,,,,,,,,,,,,,,,,,,,,,,,,,,,,,,,,,,,,,,,,,,,,
,,,,,959167,001,2024-07-12_15h41.26.186,experiment,2024.1.5,MacIntel,56.17977528,614c1267826bcb89bd92e726,6691931c2c63981b064e1f0c,6691b0dc720e8dcc562ed284,,,,,,,,,,,,,,,,,,,,,,,,,,,,,,,,,,,,,,,,,,,,,,,,,,,,,,,,,,,,2469.5685,2481.9927,-0.259784501,-0.022859418,1,0,0,6.4175,compass,0,18,18,16,1,SoundStimuli/BohemianRhapsody_Queen_Original5S.wav,,,,,,,,,,,,,,,,,,,,,,,,,,,,,,,,,,,,,,,,,,,,,,,,,,,,
,,,,,959167,001,2024-07-12_15h41.26.186,experiment,2024.1.5,MacIntel,56.17977528,614c1267826bcb89bd92e726,6691931c2c63981b064e1f0c,6691b0dc720e8dcc562ed284,,,,,,,,,,,,,,,,,,,,,,,,,,,,,,,,,,,,,,,,,,,,,,,,,,,,,,,,,,,,2482.0034,2493.341,0.036319422,0.118027581,1,0,0,5.3331,compass,0,19,19,24,1,SoundStimuli/UptownFunk_MarkRonson_Original5S.wav,,,,,,,,,,,,,,,,,,,,,,,,,,,,,,,,,,,,,,,,,,,,,,,,,,,,
,,,,,959167,001,2024-07-12_15h41.26.186,experiment,2024.1.5,MacIntel,56.17977528,614c1267826bcb89bd92e726,6691931c2c63981b064e1f0c,6691b0dc720e8dcc562ed284,,,,,,,,,,,,,,,,,,,,,,,,,,,,,,,,,,,,,,,,,,,,,,,,,,,,,,,,,,,,2493.3516,2511.6743,0.053726366,0.022130896,1,0,0,12.3161,compass,0,20,20,1,1,SoundStimuli/Stronger_KanyeWest_Original5S.wav,,,,,,,,,,,,,,,,,,,,,,,,,,,,,,,,,,,,,,,,,,,,,,,,,,,,
,,,,,959167,001,2024-07-12_15h41.26.186,experiment,2024.1.5,MacIntel,56.17977528,614c1267826bcb89bd92e726,6691931c2c63981b064e1f0c,6691b0dc720e8dcc562ed284,,,,,,,,,,,,,,,,,,,,,,,,,,,,,,,,,,,,,,,,,,,,,,,,,,,,,,,,,,,,2511.6835,2523.2082,0.243131058,0.165096311,1,0,0,5.5161,compass,0,21,21,0,1,SoundStimuli/StayinAlive_BeeGees_Original5S.wav,,,,,,,,,,,,,,,,,,,,,,,,,,,,,,,,,,,,,,,,,,,,,,,,,,,,
,,,,,959167,001,2024-07-12_15h41.26.186,experiment,2024.1.5,MacIntel,56.17977528,614c1267826bcb89bd92e726,6691931c2c63981b064e1f0c,6691b0dc720e8dcc562ed284,,,,,,,,,,,,,,,,,,,,,,,,,,,,,,,,,,,,,,,,,,,,,,,,,,,,,,,,,,,,2523.218,2544.4411,0.114583785,-0.076410534,1,0,0,15.2163,compass,0,22,22,26,1,SoundStimuli/LivinOnAPrayer_BonJovi_Cover5S.wav,,,,,,,,,,,,,,,,,,,,,,,,,,,,,,,,,,,,,,,,,,,,,,,,,,,,
,,,,,959167,001,2024-07-12_15h41.26.186,experiment,2024.1.5,MacIntel,56.17977528,614c1267826bcb89bd92e726,6691931c2c63981b064e1f0c,6691b0dc720e8dcc562ed284,,,,,,,,,,,,,,,,,,,,,,,,,,,,,,,,,,,,,,,,,,,,,,,,,,,,,,,,,,,,2544.4521,2562.5589,-0.154115917,-0.300268724,1,0,0,12.1002,compass,0,23,23,2,1,SoundStimuli/Mood_24kGoldnianndior_Cover5S.wav,,,,,,,,,,,,,,,,,,,,,,,,,,,,,,,,,,,,,,,,,,,,,,,,,,,,
,,,,,959167,001,2024-07-12_15h41.26.186,experiment,2024.1.5,MacIntel,56.17977528,614c1267826bcb89bd92e726,6691931c2c63981b064e1f0c,6691b0dc720e8dcc562ed284,,,,,,,,,,,,,,,,,,,,,,,,,,,,,,,,,,,,,,,,,,,,,,,,,,,,,,,,,,,,2562.5695,2569.4245,0.227477688,-0.082190959,1,0,0,0.8497,compass,0,24,24,5,1,SoundStimuli/MyGirl_TheTemptations_Original5S.wav,,,,,,,,,,,,,,,,,,,,,,,,,,,,,,,,,,,,,,,,,,,,,,,,,,,,
,,,,,959167,001,2024-07-12_15h41.26.186,experiment,2024.1.5,MacIntel,56.17977528,614c1267826bcb89bd92e726,6691931c2c63981b064e1f0c,6691b0dc720e8dcc562ed284,,,,,,,,,,,,,,,,,,,,,,,,,,,,,,,,,,,,,,,,,,,,,,,,,,,,,,,,,,,,2569.4341,2576.8923,-0.23078489,0.078779602,1,0,0,1.45,compass,0,25,25,3,1,SoundStimuli/NoScrubs_TLC_Original5S.wav,,,,,,,,,,,,,,,,,,,,,,,,,,,,,,,,,,,,,,,,,,,,,,,,,,,,
,,,,,959167,001,2024-07-12_15h41.26.186,experiment,2024.1.5,MacIntel,56.17977528,614c1267826bcb89bd92e726,6691931c2c63981b064e1f0c,6691b0dc720e8dcc562ed284,,,,,,,,,,,,,,,,,,,,,,,,,,,,,,,,,,,,,,,,,,,,,,,,,,,,,,,,,,,,2576.9037,2586.4261,0.208140507,0.037032233,1,0,0,3.5176,compass,0,26,26,20,1,SoundStimuli/HeyYa_Outkast_Cover5S.wav,,,,,,,,,,,,,,,,,,,,,,,,,,,,,,,,,,,,,,,,,,,,,,,,,,,,
,,,,,959167,001,2024-07-12_15h41.26.186,experiment,2024.1.5,MacIntel,56.17977528,614c1267826bcb89bd92e726,6691931c2c63981b064e1f0c,6691b0dc720e8dcc562ed284,,,,,,,,,,,,,,,,,,,,,,,,,,,,,,,,,,,,,,,,,,,,,,,,,,,,,,,,,,,,2586.4365,2597.1922,-0.112365666,0.25295608,1,0,0,4.7498,compass,0,27,27,6,1,SoundStimuli/Levitating_DuaLipa_Cover5S.wav,,,,,,,,,,,,,,,,,,,,,,,,,,,,,,,,,,,,,,,,,,,,,,,,,,,,
,,,,,959167,001,2024-07-12_15h41.26.186,experiment,2024.1.5,MacIntel,56.17977528,614c1267826bcb89bd92e726,6691931c2c63981b064e1f0c,6691b0dc720e8dcc562ed284,,,,,,,,,,,,,,,,,,,,,,,,,,,,,,,,,,,,,,,,,,,,,,,,,,,,,,,,,,,,2597.2026,2621.3581,-0.152687299,-0.203467306,1,0,0,18.1503,compass,0,28,28,15,1,SoundStimuli/TikTok_Kesha_Cover5S.wav,,,,,,,,,,,,,,,,,,,,,,,,,,,,,,,,,,,,,,,,,,,,,,,,,,,,
,,,,,959167,001,2024-07-12_15h41.26.186,experiment,2024.1.5,MacIntel,56.17977528,614c1267826bcb89bd92e726,6691931c2c63981b064e1f0c,6691b0dc720e8dcc562ed284,,,,,,,,,,,,,,,,,,,,,,,,,,,,,,,,,,,,,,,,,,,,,,,,,,,,,,,,,,,,2621.3685,2630.126,0.13874037,0.102414393,1,0,0,2.7505,compass,0,29,29,21,1,SoundStimuli/GoodGollyMissMolly_LittleRichard_Cover5S.wav,,,,,,,,,,,,,,,,,,,,,,,,,,,,,,,,,,,,,,,,,,,,,,,,,,,,
,,,,,959167,001,2024-07-12_15h41.26.186,experiment,2024.1.5,MacIntel,56.17977528,614c1267826bcb89bd92e726,6691931c2c63981b064e1f0c,6691b0dc720e8dcc562ed284,,,,,,,,,,,,,,,,,,,,,,,,,,,,,,,,,,,,,,,,,,,,,,,,,,,,,,,,,,,,2630.135,2637.2754,0.250832,-0.064219722,1,0,0,1.1342,compass,0,30,30,12,1,SoundStimuli/IWillAlwaysLoveYou_WhitneyHouston_Cover5S.wav,,,,,,,,,,,,,,,,,,,,,,,,,,,,,,,,,,,,,,,,,,,,,,,,,,,,
,,,,,959167,001,2024-07-12_15h41.26.186,experiment,2024.1.5,MacIntel,56.17977528,614c1267826bcb89bd92e726,6691931c2c63981b064e1f0c,6691b0dc720e8dcc562ed284,,,,,,,,,,,,,,,,,,,,,,,,,,,,,,,,,,,,,,,,,,,,,,,,,,,,,,,,,,,,2637.2852,2645.9093,0.249696068,0.149130701,1,0,0,2.6182,compass,0,31,31,8,1,SoundStimuli/LikeAPrayer_Madonna_Original5S.wav,,,,,,,,,,,,,,,,,,,,,,,,,,,,,,,,,,,,,,,,,,,,,,,,,,,,
,,,,,959167,001,2024-07-12_15h41.26.186,experiment,2024.1.5,MacIntel,56.17977528,614c1267826bcb89bd92e726,6691931c2c63981b064e1f0c,6691b0dc720e8dcc562ed284,,,,,,,,,,,,,,,,,,,,,,,,,,,,,,,,,,,,,,,,,,,,,,,,,,,,,,,,,,,,2645.9192,2654.309,0.100168299,0.086310436,1,0,0,2.3839,compass,0,32,32,34,1,SoundStimuli/AChangeIsGonnaCome_SamCooke_Cover5S.wav,,,,,,,,,,,,,,,,,,,,,,,,,,,,,,,,,,,,,,,,,,,,,,,,,,,,
,,,,,959167,001,2024-07-12_15h41.26.186,experiment,2024.1.5,MacIntel,56.17977528,614c1267826bcb89bd92e726,6691931c2c63981b064e1f0c,6691b0dc720e8dcc562ed284,,,,,,,,,,,,,,,,,,,,,,,,,,,,,,,,,,,,,,,,,,,,,,,,,,,,,,,,,,,,2654.3187,2663.526,0.045774163,-0.202159797,1,0,0,3.2013,compass,0,33,33,19,1,SoundStimuli/LetsGetItOn_MarvinGaye_Cover5S.wav,,,,,,,,,,,,,,,,,,,,,,,,,,,,,,,,,,,,,,,,,,,,,,,,,,,,
,,,,,959167,001,2024-07-12_15h41.26.186,experiment,2024.1.5,MacIntel,56.17977528,614c1267826bcb89bd92e726,6691931c2c63981b064e1f0c,6691b0dc720e8dcc562ed284,,,,,,,,,,,,,,,,,,,,,,,,,,,,,,,,,,,,,,,,,,,,,,,,,,,,,,,,,,,,2663.5363,2670.4258,-0.282665281,0.092234576,1,0,0,0.8843,compass,0,34,34,18,1,SoundStimuli/AnotherOneBitesTheDust_Queen_Original5S.wav,,,,,,,,,,,,,,,,,,,,,,,,,,,,,,,,,,,,,,,,,,,,,,,,,,,,
,,,,,959167,001,2024-07-12_15h41.26.186,experiment,2024.1.5,MacIntel,56.17977528,614c1267826bcb89bd92e726,6691931c2c63981b064e1f0c,6691b0dc720e8dcc562ed284,,,,,,,,,,,,,,,,,,,,,,,,,,,,,,,,,,,,,,,,,,,,,,,,,,,,,,,,,,,,,,,,,,,,,,,,,,,2670.4336,2670.4338,,,,2670.4338,2670.434,,,,0,3,3,3,1,block_order/blockA.xlsx,,,,,,,,,,,,,,,,,,,,,,,,,,,,,,,,,,,,
,,,,,959167,001,2024-07-12_15h41.26.186,experiment,2024.1.5,MacIntel,56.17977528,614c1267826bcb89bd92e726,6691931c2c63981b064e1f0c,6691b0dc720e8dcc562ed284,,,,,,,,,,,,,,,,,,,,,,,,,,,,,,,,,,,,,,,,,,,,,,,,,,,,,,,,,,,,,,,,,,,,,,,,,,,,,,,,,,,,,,,,,,,38,Item 3,Self-taught bass played from age 15-38 and self-taught pianist age 20-38.,Item 3,Radio and Spotify.,5,6,"Driving, cleaning, and exercising.",Rarely,Sometimes,Rarely,Rarely,Often,Often,Often,Rarely,Often,Sometimes,Sometimes,Often,Sometimes,Often,Rarely,Funk,Electronic,Funk,Hip-hop,I listen to a much wider variety than I used to. ,I tend to go through periods where I listen to a specific genre exclusively for a periods of time before switching to a different genre.,0,0,0,0,1,,
,,,,,959167,001,2024-07-12_15h41.26.186,experiment,2024.1.5,MacIntel,56.17977528,614c1267826bcb89bd92e726,6691931c2c63981b064e1f0c,6691b0dc720e8dcc562ed284,,,,,,,,,,,,,,,,,,,,,,,,,,,,,,,,,,,,,,,,,,,,,,,,,,,,,,,,,,,,,,,,,,,,,,,,,,,,,,,,,,,,,,,,,,,,,,,,,,,,,,,,,,,,,,,,,,,,,,,,,,,,,3062.2419,3063.8416
