welcome.started,welcome.stopped,space_to_continue.keys,space_to_continue.rt,space_to_continue.duration,participant,session,date,expName,psychopyVersion,OS,frameRate,PROLIFIC_PID,STUDY_ID,SESSION_ID,consent.consent,consent.consent_recontact,consent_check.started,consent_check.stopped,calibration_ready.started,calibration_ready.stopped,cal_ready.keys,cal_ready.rt,cal_ready.duration,calibration.started,calibration.stopped,mouse.x,mouse.y,mouse.leftButton,mouse.midButton,mouse.rightButton,mouse.time,mouse.clicked_name,move_on.keys,move_on.rt,move_on.duration,run_cal.thisRepN,run_cal.thisTrialN,run_cal.thisN,run_cal.thisIndex,run_cal.ran,emotion_training_ready.started,emotion_training_ready.stopped,training_move_on.keys,training_move_on.rt,training_move_on.duration,examples.started,examples.stopped,emotion_scale.started,emotion_scale.stopped,scale_next.keys,scale_next.rt,scale_next.duration,instructions.started,instructions.stopped,next.keys,next.rt,next.duration,practice_task.started,practice_task.stopped,mouse_rating_2.x,mouse_rating_2.y,mouse_rating_2.leftButton,mouse_rating_2.midButton,mouse_rating_2.rightButton,mouse_rating_2.time,mouse_rating_2.clicked_name,ready.started,ready.stopped,key_resp.keys,key_resp.rt,key_resp.duration,set_group.started,set_group.stopped,task.started,task.stopped,mouse_rating.x,mouse_rating.y,mouse_rating.leftButton,mouse_rating.midButton,mouse_rating.rightButton,mouse_rating.time,mouse_rating.clicked_name,trials.thisRepN,trials.thisTrialN,trials.thisN,trials.thisIndex,trials.ran,clip,short_break.started,short_break.stopped,space_to_move_on.keys,space_to_move_on.rt,space_to_move_on.duration,instruction_reminder.started,instruction_reminder.stopped,reminder_move_on.keys,reminder_move_on.rt,reminder_move_on.duration,blocks.thisRepN,blocks.thisTrialN,blocks.thisN,blocks.thisIndex,blocks.ran,block,post_survey.age,post_survey.musician,post_survey.music_making,post_survey.listen_time,post_survey.medium,post_survey.music_seeking,post_survey.music_choice,post_survey.activities,post_survey.question1.Reggae,post_survey.question1.Metal,post_survey.question1.Latin,post_survey.question1.Ambient,post_survey.question1.Pop,post_survey.question1.Hip hop,post_survey.question1.Folk/indie,post_survey.question1.Classic rock,post_survey.question1.R&B,post_survey.question1.Electronic (EDM),post_survey.question1.Alternative rock,post_survey.question1.Country,post_survey.question1.A cappella,post_survey.question1.Disco,post_survey.question1.Classical,post_survey.question1.Jazz,post_survey.other_genres,post_survey.genres_ranked.text1,post_survey.genres_ranked.text2,post_survey.genres_ranked.text3,post_survey.habit_change,post_survey.habits,show_exp.thisRepN,show_exp.thisTrialN,show_exp.thisN,show_exp.thisIndex,show_exp.ran,goodbye.started,goodbye.stopped
0.0002,2.4936,space,2.4851,,964911,001,2024-07-12_16h06.38.750,experiment,2024.1.5,Win32,144.9275362,6100dfd366a4922c166c9a19,6691931c2c63981b064e1f0c,6691b66601f081bdb6eadfa2,,,,,,,,,,,,,,,,,,,,,,,,,,,,,,,,,,,,,,,,,,,,,,,,,,,,,,,,,,,,,,,,,,,,,,,,,,,,,,,,,,,,,,,,,,,,,,,,,,,,,,,,,,,,,,,,,,,,,,,,,,,,,,,
,,,,,964911,001,2024-07-12_16h06.38.750,experiment,2024.1.5,Win32,144.9275362,6100dfd366a4922c166c9a19,6691931c2c63981b064e1f0c,6691b66601f081bdb6eadfa2,yes,yes,,,,,,,,,,,,,,,,,,,,,,,,,,,,,,,,,,,,,,,,,,,,,,,,,,,,,,,,,,,,,,,,,,,,,,,,,,,,,,,,,,,,,,,,,,,,,,,,,,,,,,,,,,,,,,,,,,,,,,,,,,,,,
,,,,,964911,001,2024-07-12_16h06.38.750,experiment,2024.1.5,Win32,144.9275362,6100dfd366a4922c166c9a19,6691931c2c63981b064e1f0c,6691b66601f081bdb6eadfa2,,,18.5294,18.5295,,,,,,,,,,,,,,,,,,,,,,,,,,,,,,,,,,,,,,,,,,,,,,,,,,,,,,,,,,,,,,,,,,,,,,,,,,,,,,,,,,,,,,,,,,,,,,,,,,,,,,,,,,,,,,,,,,,,,,,,,,,
,,,,,964911,001,2024-07-12_16h06.38.750,experiment,2024.1.5,Win32,144.9275362,6100dfd366a4922c166c9a19,6691931c2c63981b064e1f0c,6691b66601f081bdb6eadfa2,,,,,18.5306,29.681,space,11.138,,29.682,53.3427,[-0.010185171056676793],[-0.4046296720151548],[1],[0],[0],[9.259799999997021],"[""play_button""]",y,22.6382,,0,0,0,0,1,,,,,,,,,,,,,,,,,,,,,,,,,,,,,,,,,,,,,,,,,,,,,,,,,,,,,,,,,,,,,,,,,,,,,,,,,,,,,,,,,,,,,,,,,,,,,,,,,,,,,
,,,,,964911,001,2024-07-12_16h06.38.750,experiment,2024.1.5,Win32,144.9275362,6100dfd366a4922c166c9a19,6691931c2c63981b064e1f0c,6691b66601f081bdb6eadfa2,,,,,,,,,,,,,,,,,,,,,,,,,,,53.3431,86.6772,space,33.3212,,86.6774,206.6782,206.6785,222.1013,right,11.9136,,222.1015,234.4408,space,12.3193,,234.441,241.1763,0.119444459,-0.116666653,1,0,0,0.7307,compass_2,241.1765,244.3773,space,3.1936,,244.3774,244.3831,244.3977,250.7438,-0.134259259,-0.127777806,1,0,0,0.3403,compass,0,0,0,32,1,SoundStimuli/HeatWaves_GlassAnimals_Original5S.wav,,,,,,,,,,,,,,,,,,,,,,,,,,,,,,,,,,,,,,,,,,,,,,,,,,,,,
,,,,,964911,001,2024-07-12_16h06.38.750,experiment,2024.1.5,Win32,144.9275362,6100dfd366a4922c166c9a19,6691931c2c63981b064e1f0c,6691b66601f081bdb6eadfa2,,,,,,,,,,,,,,,,,,,,,,,,,,,,,,,,,,,,,,,,,,,,,,,,,,,,,,,,,,,,250.749,257.1744,0.183333362,0.231481481,1,0,0,0.4235,compass,0,1,1,0,1,SoundStimuli/StayinAlive_BeeGees_Original5S.wav,,,,,,,,,,,,,,,,,,,,,,,,,,,,,,,,,,,,,,,,,,,,,,,,,,,,,
,,,,,964911,001,2024-07-12_16h06.38.750,experiment,2024.1.5,Win32,144.9275362,6100dfd366a4922c166c9a19,6691931c2c63981b064e1f0c,6691b66601f081bdb6eadfa2,,,,,,,,,,,,,,,,,,,,,,,,,,,,,,,,,,,,,,,,,,,,,,,,,,,,,,,,,,,,257.1797,265.5272,-0.087037051,-0.08425928,1,0,0,2.3454,compass,0,2,2,23,1,SoundStimuli/StrawberryFieldsForever_TheBeatles_Original5S.wav,,,,,,,,,,,,,,,,,,,,,,,,,,,,,,,,,,,,,,,,,,,,,,,,,,,,,
,,,,,964911,001,2024-07-12_16h06.38.750,experiment,2024.1.5,Win32,144.9275362,6100dfd366a4922c166c9a19,6691931c2c63981b064e1f0c,6691b66601f081bdb6eadfa2,,,,,,,,,,,,,,,,,,,,,,,,,,,,,,,,,,,,,,,,,,,,,,,,,,,,,,,,,,,,265.5331,271.992,-0.223148134,-0.233333376,1,0,0,0.4577,compass,0,3,3,10,1,SoundStimuli/BadDay_DanielPowter_Cover5S.wav,,,,,,,,,,,,,,,,,,,,,,,,,,,,,,,,,,,,,,,,,,,,,,,,,,,,,
,,,,,964911,001,2024-07-12_16h06.38.750,experiment,2024.1.5,Win32,144.9275362,6100dfd366a4922c166c9a19,6691931c2c63981b064e1f0c,6691b66601f081bdb6eadfa2,,,,,,,,,,,,,,,,,,,,,,,,,,,,,,,,,,,,,,,,,,,,,,,,,,,,,,,,,,,,271.9979,280.9827,0.082407422,-0.057407414,1,0,0,2.9832,compass,0,4,4,31,1,SoundStimuli/TheBattleOfNewOrleans_JohnnyHorton_Cover5S.wav,,,,,,,,,,,,,,,,,,,,,,,,,,,,,,,,,,,,,,,,,,,,,,,,,,,,,
,,,,,964911,001,2024-07-12_16h06.38.750,experiment,2024.1.5,Win32,144.9275362,6100dfd366a4922c166c9a19,6691931c2c63981b064e1f0c,6691b66601f081bdb6eadfa2,,,,,,,,,,,,,,,,,,,,,,,,,,,,,,,,,,,,,,,,,,,,,,,,,,,,,,,,,,,,280.9884,288.8911,-0.062962921,0.055555556,1,0,0,1.9008,compass,0,5,5,2,1,SoundStimuli/Mood_24kGoldnianndior_Cover5S.wav,,,,,,,,,,,,,,,,,,,,,,,,,,,,,,,,,,,,,,,,,,,,,,,,,,,,,
,,,,,964911,001,2024-07-12_16h06.38.750,experiment,2024.1.5,Win32,144.9275362,6100dfd366a4922c166c9a19,6691931c2c63981b064e1f0c,6691b66601f081bdb6eadfa2,,,,,,,,,,,,,,,,,,,,,,,,,,,,,,,,,,,,,,,,,,,,,,,,,,,,,,,,,,,,288.8966,296.3905,-0.058333291,-0.081481474,1,0,0,1.4917,compass,0,6,6,13,1,SoundStimuli/GodOnlyKnows_TheBeachBoys_Cover5S.wav,,,,,,,,,,,,,,,,,,,,,,,,,,,,,,,,,,,,,,,,,,,,,,,,,,,,,
,,,,,964911,001,2024-07-12_16h06.38.750,experiment,2024.1.5,Win32,144.9275362,6100dfd366a4922c166c9a19,6691931c2c63981b064e1f0c,6691b66601f081bdb6eadfa2,,,,,,,,,,,,,,,,,,,,,,,,,,,,,,,,,,,,,,,,,,,,,,,,,,,,,,,,,,,,296.3963,305.4023,0.174074102,0.167592578,1,0,0,3.0043,compass,0,7,7,6,1,SoundStimuli/Levitating_DuaLipa_Cover5S.wav,,,,,,,,,,,,,,,,,,,,,,,,,,,,,,,,,,,,,,,,,,,,,,,,,,,,,
,,,,,964911,001,2024-07-12_16h06.38.750,experiment,2024.1.5,Win32,144.9275362,6100dfd366a4922c166c9a19,6691931c2c63981b064e1f0c,6691b66601f081bdb6eadfa2,,,,,,,,,,,,,,,,,,,,,,,,,,,,,,,,,,,,,,,,,,,,,,,,,,,,,,,,,,,,305.408,311.8188,0.244444459,0.240740741,1,0,0,0.4092,compass,0,8,8,34,1,SoundStimuli/AChangeIsGonnaCome_SamCooke_Cover5S.wav,,,,,,,,,,,,,,,,,,,,,,,,,,,,,,,,,,,,,,,,,,,,,,,,,,,,,
,,,,,964911,001,2024-07-12_16h06.38.750,experiment,2024.1.5,Win32,144.9275362,6100dfd366a4922c166c9a19,6691931c2c63981b064e1f0c,6691b66601f081bdb6eadfa2,,,,,,,,,,,,,,,,,,,,,,,,,,,,,,,,,,,,,,,,,,,,,,,,,,,,,,,,,,,,311.8241,318.2709,0.244444459,0.243518511,1,0,0,0.4444,compass,0,9,9,7,1,SoundStimuli/NoOne_AliciaKeys_Cover5S.wav,,,,,,,,,,,,,,,,,,,,,,,,,,,,,,,,,,,,,,,,,,,,,,,,,,,,,
,,,,,964911,001,2024-07-12_16h06.38.750,experiment,2024.1.5,Win32,144.9275362,6100dfd366a4922c166c9a19,6691931c2c63981b064e1f0c,6691b66601f081bdb6eadfa2,,,,,,,,,,,,,,,,,,,,,,,,,,,,,,,,,,,,,,,,,,,,,,,,,,,,,,,,,,,,318.2767,324.6527,-0.282407407,0.272222219,1,0,0,0.3744,compass,0,10,10,16,1,SoundStimuli/BohemianRhapsody_Queen_Original5S.wav,,,,,,,,,,,,,,,,,,,,,,,,,,,,,,,,,,,,,,,,,,,,,,,,,,,,,
,,,,,964911,001,2024-07-12_16h06.38.750,experiment,2024.1.5,Win32,144.9275362,6100dfd366a4922c166c9a19,6691931c2c63981b064e1f0c,6691b66601f081bdb6eadfa2,,,,,,,,,,,,,,,,,,,,,,,,,,,,,,,,,,,,,,,,,,,,,,,,,,,,,,,,,,,,324.658,332.6031,0.174074102,0.199999986,1,0,0,1.9427,compass,0,11,11,12,1,SoundStimuli/IWillAlwaysLoveYou_WhitneyHouston_Cover5S.wav,,,,,,,,,,,,,,,,,,,,,,,,,,,,,,,,,,,,,,,,,,,,,,,,,,,,,
,,,,,964911,001,2024-07-12_16h06.38.750,experiment,2024.1.5,Win32,144.9275362,6100dfd366a4922c166c9a19,6691931c2c63981b064e1f0c,6691b66601f081bdb6eadfa2,,,,,,,,,,,,,,,,,,,,,,,,,,,,,,,,,,,,,,,,,,,,,,,,,,,,,,,,,,,,332.6087,344.7222,0.262037065,0.269444448,1,0,0,6.1118,compass,0,12,12,30,1,SoundStimuli/PokerFace_LadyGaga_Original5S.wav,,,,,,,,,,,,,,,,,,,,,,,,,,,,,,,,,,,,,,,,,,,,,,,,,,,,,
,,,,,964911,001,2024-07-12_16h06.38.750,experiment,2024.1.5,Win32,144.9275362,6100dfd366a4922c166c9a19,6691931c2c63981b064e1f0c,6691b66601f081bdb6eadfa2,,,,,,,,,,,,,,,,,,,,,,,,,,,,,,,,,,,,,,,,,,,,,,,,,,,,,,,,,,,,344.7279,351.5976,0.265740783,0.264814818,1,0,0,0.8675,compass,0,13,13,28,1,SoundStimuli/ComeAndGetYourLove_Redbone_Original5S.wav,,,,,,,,,,,,,,,,,,,,,,,,,,,,,,,,,,,,,,,,,,,,,,,,,,,,,
,,,,,964911,001,2024-07-12_16h06.38.750,experiment,2024.1.5,Win32,144.9275362,6100dfd366a4922c166c9a19,6691931c2c63981b064e1f0c,6691b66601f081bdb6eadfa2,,,,,,,,,,,,,,,,,,,,,,,,,,,,,,,,,,,,,,,,,,,,,,,,,,,,,,,,,,,,351.6029,358.611,-0.112962935,0.113888882,1,0,0,1.0063,compass,0,14,14,21,1,SoundStimuli/GoodGollyMissMolly_LittleRichard_Cover5S.wav,,,,,,,,,,,,,,,,,,,,,,,,,,,,,,,,,,,,,,,,,,,,,,,,,,,,,
,,,,,964911,001,2024-07-12_16h06.38.750,experiment,2024.1.5,Win32,144.9275362,6100dfd366a4922c166c9a19,6691931c2c63981b064e1f0c,6691b66601f081bdb6eadfa2,,,,,,,,,,,,,,,,,,,,,,,,,,,,,,,,,,,,,,,,,,,,,,,,,,,,,,,,,,,,358.6164,365.0275,-0.253703718,0.26203703,1,0,0,0.4093,compass,0,15,15,18,1,SoundStimuli/AnotherOneBitesTheDust_Queen_Original5S.wav,,,,,,,,,,,,,,,,,,,,,,,,,,,,,,,,,,,,,,,,,,,,,,,,,,,,,
,,,,,964911,001,2024-07-12_16h06.38.750,experiment,2024.1.5,Win32,144.9275362,6100dfd366a4922c166c9a19,6691931c2c63981b064e1f0c,6691b66601f081bdb6eadfa2,,,,,,,,,,,,,,,,,,,,,,,,,,,,,,,,,,,,,,,,,,,,,,,,,,,,,,,,,,,,365.0333,371.382,0.280555584,0.287962966,1,0,0,0.3468,compass,0,16,16,4,1,SoundStimuli/GetUrFreakOn_MissyElliot_Original5S.wav,,,,,,,,,,,,,,,,,,,,,,,,,,,,,,,,,,,,,,,,,,,,,,,,,,,,,
,,,,,964911,001,2024-07-12_16h06.38.750,experiment,2024.1.5,Win32,144.9275362,6100dfd366a4922c166c9a19,6691931c2c63981b064e1f0c,6691b66601f081bdb6eadfa2,,,,,,,,,,,,,,,,,,,,,,,,,,,,,,,,,,,,,,,,,,,,,,,,,,,,,,,,,,,,371.3873,378.8118,0.159259302,-0.180555556,1,0,0,1.422,compass,0,17,17,15,1,SoundStimuli/TikTok_Kesha_Cover5S.wav,,,,,,,,,,,,,,,,,,,,,,,,,,,,,,,,,,,,,,,,,,,,,,,,,,,,,
,,,,,964911,001,2024-07-12_16h06.38.750,experiment,2024.1.5,Win32,144.9275362,6100dfd366a4922c166c9a19,6691931c2c63981b064e1f0c,6691b66601f081bdb6eadfa2,,,,,,,,,,,,,,,,,,,,,,,,,,,,,,,,,,,,,,,,,,,,,,,,,,,,,,,,,,,,378.8171,387.338,-0.098148134,0.113888882,1,0,0,2.5186,compass,0,18,18,14,1,SoundStimuli/BlindingLights_TheWeeknd_Original5S.wav,,,,,,,,,,,,,,,,,,,,,,,,,,,,,,,,,,,,,,,,,,,,,,,,,,,,,
,,,,,964911,001,2024-07-12_16h06.38.750,experiment,2024.1.5,Win32,144.9275362,6100dfd366a4922c166c9a19,6691931c2c63981b064e1f0c,6691b66601f081bdb6eadfa2,,,,,,,,,,,,,,,,,,,,,,,,,,,,,,,,,,,,,,,,,,,,,,,,,,,,,,,,,,,,387.3437,393.6714,0.229629658,0.230555552,1,0,0,0.3259,compass,0,19,19,27,1,SoundStimuli/ShapeofYou_EdSheeran_Original5S.wav,,,,,,,,,,,,,,,,,,,,,,,,,,,,,,,,,,,,,,,,,,,,,,,,,,,,,
,,,,,964911,001,2024-07-12_16h06.38.750,experiment,2024.1.5,Win32,144.9275362,6100dfd366a4922c166c9a19,6691931c2c63981b064e1f0c,6691b66601f081bdb6eadfa2,,,,,,,,,,,,,,,,,,,,,,,,,,,,,,,,,,,,,,,,,,,,,,,,,,,,,,,,,,,,393.6768,401.6632,0.107407393,-0.107407393,1,0,0,1.984,compass,0,20,20,5,1,SoundStimuli/MyGirl_TheTemptations_Original5S.wav,,,,,,,,,,,,,,,,,,,,,,,,,,,,,,,,,,,,,,,,,,,,,,,,,,,,,
,,,,,964911,001,2024-07-12_16h06.38.750,experiment,2024.1.5,Win32,144.9275362,6100dfd366a4922c166c9a19,6691931c2c63981b064e1f0c,6691b66601f081bdb6eadfa2,,,,,,,,,,,,,,,,,,,,,,,,,,,,,,,,,,,,,,,,,,,,,,,,,,,,,,,,,,,,401.6689,410.4945,-0.137036995,0.137962942,1,0,0,2.8233,compass,0,21,21,25,1,SoundStimuli/Respect_ArethaFranklin_Original5S.wav,,,,,,,,,,,,,,,,,,,,,,,,,,,,,,,,,,,,,,,,,,,,,,,,,,,,,
,,,,,964911,001,2024-07-12_16h06.38.750,experiment,2024.1.5,Win32,144.9275362,6100dfd366a4922c166c9a19,6691931c2c63981b064e1f0c,6691b66601f081bdb6eadfa2,,,,,,,,,,,,,,,,,,,,,,,,,,,,,,,,,,,,,,,,,,,,,,,,,,,,,,,,,,,,410.5002,418.6872,-0.122222194,-0.098148134,1,0,0,2.1853,compass,0,22,22,17,1,SoundStimuli/Fallin_AliciaKeys_Original5S.wav,,,,,,,,,,,,,,,,,,,,,,,,,,,,,,,,,,,,,,,,,,,,,,,,,,,,,
,,,,,964911,001,2024-07-12_16h06.38.750,experiment,2024.1.5,Win32,144.9275362,6100dfd366a4922c166c9a19,6691931c2c63981b064e1f0c,6691b66601f081bdb6eadfa2,,,,,,,,,,,,,,,,,,,,,,,,,,,,,,,,,,,,,,,,,,,,,,,,,,,,,,,,,,,,418.6929,425.2568,0.183333362,0.189814815,1,0,0,0.5618,compass,0,23,23,29,1,SoundStimuli/OldTownRoad_LilNasX_Original5S.wav,,,,,,,,,,,,,,,,,,,,,,,,,,,,,,,,,,,,,,,,,,,,,,,,,,,,,
,,,,,964911,001,2024-07-12_16h06.38.750,experiment,2024.1.5,Win32,144.9275362,6100dfd366a4922c166c9a19,6691931c2c63981b064e1f0c,6691b66601f081bdb6eadfa2,,,,,,,,,,,,,,,,,,,,,,,,,,,,,,,,,,,,,,,,,,,,,,,,,,,,,,,,,,,,425.2621,433.4289,-0.094444416,-0.08425928,1,0,0,2.1643,compass,0,24,24,20,1,SoundStimuli/HeyYa_Outkast_Cover5S.wav,,,,,,,,,,,,,,,,,,,,,,,,,,,,,,,,,,,,,,,,,,,,,,,,,,,,,
,,,,,964911,001,2024-07-12_16h06.38.750,experiment,2024.1.5,Win32,144.9275362,6100dfd366a4922c166c9a19,6691931c2c63981b064e1f0c,6691b66601f081bdb6eadfa2,,,,,,,,,,,,,,,,,,,,,,,,,,,,,,,,,,,,,,,,,,,,,,,,,,,,,,,,,,,,433.4346,440.0818,0.10555557,0.142592571,1,0,0,0.6449,compass,0,25,25,22,1,SoundStimuli/RockWithYou_MichaelJackson_Original5S.wav,,,,,,,,,,,,,,,,,,,,,,,,,,,,,,,,,,,,,,,,,,,,,,,,,,,,,
,,,,,964911,001,2024-07-12_16h06.38.750,experiment,2024.1.5,Win32,144.9275362,6100dfd366a4922c166c9a19,6691931c2c63981b064e1f0c,6691b66601f081bdb6eadfa2,,,,,,,,,,,,,,,,,,,,,,,,,,,,,,,,,,,,,,,,,,,,,,,,,,,,,,,,,,,,440.0876,448.1775,0.242592635,0.244444441,1,0,0,2.088,compass,0,26,26,8,1,SoundStimuli/LikeAPrayer_Madonna_Original5S.wav,,,,,,,,,,,,,,,,,,,,,,,,,,,,,,,,,,,,,,,,,,,,,,,,,,,,,
,,,,,964911,001,2024-07-12_16h06.38.750,experiment,2024.1.5,Win32,144.9275362,6100dfd366a4922c166c9a19,6691931c2c63981b064e1f0c,6691b66601f081bdb6eadfa2,,,,,,,,,,,,,,,,,,,,,,,,,,,,,,,,,,,,,,,,,,,,,,,,,,,,,,,,,,,,448.1834,454.6778,-0.091666681,-0.064814815,1,0,0,0.4924,compass,0,27,27,11,1,SoundStimuli/Superstition_StevieWonder_Cover5S.wav,,,,,,,,,,,,,,,,,,,,,,,,,,,,,,,,,,,,,,,,,,,,,,,,,,,,,
,,,,,964911,001,2024-07-12_16h06.38.750,experiment,2024.1.5,Win32,144.9275362,6100dfd366a4922c166c9a19,6691931c2c63981b064e1f0c,6691b66601f081bdb6eadfa2,,,,,,,,,,,,,,,,,,,,,,,,,,,,,,,,,,,,,,,,,,,,,,,,,,,,,,,,,,,,454.683,461.4222,-0.164814772,0.152777778,1,0,0,0.7366,compass,0,28,28,3,1,SoundStimuli/NoScrubs_TLC_Original5S.wav,,,,,,,,,,,,,,,,,,,,,,,,,,,,,,,,,,,,,,,,,,,,,,,,,,,,,
,,,,,964911,001,2024-07-12_16h06.38.750,experiment,2024.1.5,Win32,144.9275362,6100dfd366a4922c166c9a19,6691931c2c63981b064e1f0c,6691b66601f081bdb6eadfa2,,,,,,,,,,,,,,,,,,,,,,,,,,,,,,,,,,,,,,,,,,,,,,,,,,,,,,,,,,,,461.4275,468.1499,0.279629672,0.26574073,1,0,0,0.7213,compass,0,29,29,24,1,SoundStimuli/UptownFunk_MarkRonson_Original5S.wav,,,,,,,,,,,,,,,,,,,,,,,,,,,,,,,,,,,,,,,,,,,,,,,,,,,,,
,,,,,964911,001,2024-07-12_16h06.38.750,experiment,2024.1.5,Win32,144.9275362,6100dfd366a4922c166c9a19,6691931c2c63981b064e1f0c,6691b66601f081bdb6eadfa2,,,,,,,,,,,,,,,,,,,,,,,,,,,,,,,,,,,,,,,,,,,,,,,,,,,,,,,,,,,,468.1557,474.8374,0.108333376,-0.119444459,1,0,0,0.6798,compass,0,30,30,19,1,SoundStimuli/LetsGetItOn_MarvinGaye_Cover5S.wav,,,,,,,,,,,,,,,,,,,,,,,,,,,,,,,,,,,,,,,,,,,,,,,,,,,,,
,,,,,964911,001,2024-07-12_16h06.38.750,experiment,2024.1.5,Win32,144.9275362,6100dfd366a4922c166c9a19,6691931c2c63981b064e1f0c,6691b66601f081bdb6eadfa2,,,,,,,,,,,,,,,,,,,,,,,,,,,,,,,,,,,,,,,,,,,,,,,,,,,,,,,,,,,,474.843,481.2127,0.102777764,0.100925905,1,0,0,0.3674,compass,0,31,31,9,1,SoundStimuli/Despacito_LuisFonsiDaddyYankee_Cover5S.wav,,,,,,,,,,,,,,,,,,,,,,,,,,,,,,,,,,,,,,,,,,,,,,,,,,,,,
,,,,,964911,001,2024-07-12_16h06.38.750,experiment,2024.1.5,Win32,144.9275362,6100dfd366a4922c166c9a19,6691931c2c63981b064e1f0c,6691b66601f081bdb6eadfa2,,,,,,,,,,,,,,,,,,,,,,,,,,,,,,,,,,,,,,,,,,,,,,,,,,,,,,,,,,,,481.2179,488.2193,-0.148148148,-0.162962949,1,0,0,0.9991,compass,0,32,32,26,1,SoundStimuli/LivinOnAPrayer_BonJovi_Cover5S.wav,,,,,,,,,,,,,,,,,,,,,,,,,,,,,,,,,,,,,,,,,,,,,,,,,,,,,
,,,,,964911,001,2024-07-12_16h06.38.750,experiment,2024.1.5,Win32,144.9275362,6100dfd366a4922c166c9a19,6691931c2c63981b064e1f0c,6691b66601f081bdb6eadfa2,,,,,,,,,,,,,,,,,,,,,,,,,,,,,,,,,,,,,,,,,,,,,,,,,,,,,,,,,,,,488.2251,494.6294,-0.140740712,0.122222229,1,0,0,0.4023,compass,0,33,33,1,1,SoundStimuli/Stronger_KanyeWest_Original5S.wav,,,,,,,,,,,,,,,,,,,,,,,,,,,,,,,,,,,,,,,,,,,,,,,,,,,,,
,,,,,964911,001,2024-07-12_16h06.38.750,experiment,2024.1.5,Win32,144.9275362,6100dfd366a4922c166c9a19,6691931c2c63981b064e1f0c,6691b66601f081bdb6eadfa2,,,,,,,,,,,,,,,,,,,,,,,,,,,,,,,,,,,,,,,,,,,,,,,,,,,,,,,,,,,,494.635,500.9817,0.140740783,-0.154629672,1,0,0,0.3404,compass,0,34,34,33,1,SoundStimuli/StandByMe_BenEKing_Cover5S.wav,,,,,,,,,,,,,,,,,,,,,,,,,,,,,,,,,,,,,,,,,,,,,,,,,,,,,
,,,,,964911,001,2024-07-12_16h06.38.750,experiment,2024.1.5,Win32,144.9275362,6100dfd366a4922c166c9a19,6691931c2c63981b064e1f0c,6691b66601f081bdb6eadfa2,,,,,,,,,,,,,,,,,,,,,,,,,,,,,,,,,,,,,,,,,,,,,,,,,,,,,,,,,,,,,,,,,,,,,,,,,,,500.9874,522.7576,space,21.7587,,522.7576,531.7308,right,8.9632,,0,0,0,0,1,block_order/blockA.xlsx,,,,,,,,,,,,,,,,,,,,,,,,,,,,,,,,,,,,,
,,,,,964911,001,2024-07-12_16h06.38.750,experiment,2024.1.5,Win32,144.9275362,6100dfd366a4922c166c9a19,6691931c2c63981b064e1f0c,6691b66601f081bdb6eadfa2,,,,,,,,,,,,,,,,,,,,,,,,,,,,,,,,,,,,,,,,,,,,,,,,,,,,,,,,,,,,531.7365,540.8113,-0.148148148,-0.133333347,1,0,0,3.0692,compass,0,0,0,25,1,SoundStimuli/IllMakeLoveToYou_BoyzIIMen_Original5S.wav,,,,,,,,,,,,,,,,,,,,,,,,,,,,,,,,,,,,,,,,,,,,,,,,,,,,,
,,,,,964911,001,2024-07-12_16h06.38.750,experiment,2024.1.5,Win32,144.9275362,6100dfd366a4922c166c9a19,6691931c2c63981b064e1f0c,6691b66601f081bdb6eadfa2,,,,,,,,,,,,,,,,,,,,,,,,,,,,,,,,,,,,,,,,,,,,,,,,,,,,,,,,,,,,540.8172,548.5796,-0.262962977,-0.250925912,1,0,0,1.761,compass,0,1,1,9,1,SoundStimuli/HowDoILive_LeAnnRimes_Original5S.wav,,,,,,,,,,,,,,,,,,,,,,,,,,,,,,,,,,,,,,,,,,,,,,,,,,,,,
,,,,,964911,001,2024-07-12_16h06.38.750,experiment,2024.1.5,Win32,144.9275362,6100dfd366a4922c166c9a19,6691931c2c63981b064e1f0c,6691b66601f081bdb6eadfa2,,,,,,,,,,,,,,,,,,,,,,,,,,,,,,,,,,,,,,,,,,,,,,,,,,,,,,,,,,,,548.5852,555.0465,0.225000028,-0.247222265,1,0,0,0.4607,compass,0,2,2,16,1,SoundStimuli/ItsAllInTheGame_TommyEdwards_Original5S.wav,,,,,,,,,,,,,,,,,,,,,,,,,,,,,,,,,,,,,,,,,,,,,,,,,,,,,
,,,,,964911,001,2024-07-12_16h06.38.750,experiment,2024.1.5,Win32,144.9275362,6100dfd366a4922c166c9a19,6691931c2c63981b064e1f0c,6691b66601f081bdb6eadfa2,,,,,,,,,,,,,,,,,,,,,,,,,,,,,,,,,,,,,,,,,,,,,,,,,,,,,,,,,,,,555.0523,561.6758,0.266666695,-0.286111125,1,0,0,0.6222,compass,0,3,3,13,1,SoundStimuli/Perfect_EdSheeran_Original5S.wav,,,,,,,,,,,,,,,,,,,,,,,,,,,,,,,,,,,,,,,,,,,,,,,,,,,,,
,,,,,964911,001,2024-07-12_16h06.38.750,experiment,2024.1.5,Win32,144.9275362,6100dfd366a4922c166c9a19,6691931c2c63981b064e1f0c,6691b66601f081bdb6eadfa2,,,,,,,,,,,,,,,,,,,,,,,,,,,,,,,,,,,,,,,,,,,,,,,,,,,,,,,,,,,,561.6813,569.1275,-0.206481439,0.199074074,1,0,0,1.4357,compass,0,4,4,27,1,SoundStimuli/EyeOfTheTiger_Survivor_Original5S.wav,,,,,,,,,,,,,,,,,,,,,,,,,,,,,,,,,,,,,,,,,,,,,,,,,,,,,
,,,,,964911,001,2024-07-12_16h06.38.750,experiment,2024.1.5,Win32,144.9275362,6100dfd366a4922c166c9a19,6691931c2c63981b064e1f0c,6691b66601f081bdb6eadfa2,,,,,,,,,,,,,,,,,,,,,,,,,,,,,,,,,,,,,,,,,,,,,,,,,,,,,,,,,,,,569.133,575.5042,-0.252777735,0.250925929,1,0,0,0.3704,compass,0,5,5,34,1,SoundStimuli/Irreplaceable_Beyonce_Original5S.wav,,,,,,,,,,,,,,,,,,,,,,,,,,,,,,,,,,,,,,,,,,,,,,,,,,,,,
,,,,,964911,001,2024-07-12_16h06.38.750,experiment,2024.1.5,Win32,144.9275362,6100dfd366a4922c166c9a19,6691931c2c63981b064e1f0c,6691b66601f081bdb6eadfa2,,,,,,,,,,,,,,,,,,,,,,,,,,,,,,,,,,,,,,,,,,,,,,,,,,,,,,,,,,,,575.5095,584.1133,-0.141666624,-0.092592593,1,0,0,2.602,compass,0,6,6,6,1,SoundStimuli/SaveYourTears_TheWeekndArianaGrande_Original5S.wav,,,,,,,,,,,,,,,,,,,,,,,,,,,,,,,,,,,,,,,,,,,,,,,,,,,,,
,,,,,964911,001,2024-07-12_16h06.38.750,experiment,2024.1.5,Win32,144.9275362,6100dfd366a4922c166c9a19,6691931c2c63981b064e1f0c,6691b66601f081bdb6eadfa2,,,,,,,,,,,,,,,,,,,,,,,,,,,,,,,,,,,,,,,,,,,,,,,,,,,,,,,,,,,,584.1192,590.8776,-0.095370328,0.101851852,1,0,0,0.7573,compass,0,7,7,5,1,SoundStimuli/JoyToTheWorld_ThreeDogNight_Cover5S.wav,,,,,,,,,,,,,,,,,,,,,,,,,,,,,,,,,,,,,,,,,,,,,,,,,,,,,
,,,,,964911,001,2024-07-12_16h06.38.750,experiment,2024.1.5,Win32,144.9275362,6100dfd366a4922c166c9a19,6691931c2c63981b064e1f0c,6691b66601f081bdb6eadfa2,,,,,,,,,,,,,,,,,,,,,,,,,,,,,,,,,,,,,,,,,,,,,,,,,,,,,,,,,,,,590.8828,597.3052,0.091666681,0.085185192,1,0,0,0.4204,compass,0,8,8,12,1,SoundStimuli/UnbreakMyHeart_ToniBraxton_Cover5S.wav,,,,,,,,,,,,,,,,,,,,,,,,,,,,,,,,,,,,,,,,,,,,,,,,,,,,,
,,,,,964911,001,2024-07-12_16h06.38.750,experiment,2024.1.5,Win32,144.9275362,6100dfd366a4922c166c9a19,6691931c2c63981b064e1f0c,6691b66601f081bdb6eadfa2,,,,,,,,,,,,,,,,,,,,,,,,,,,,,,,,,,,,,,,,,,,,,,,,,,,,,,,,,,,,597.3111,604.0375,-0.119444459,-0.103703746,1,0,0,0.7161,compass,0,9,9,8,1,SoundStimuli/EndlessLove_DianaRossLionelRichie_Original5S.wav,,,,,,,,,,,,,,,,,,,,,,,,,,,,,,,,,,,,,,,,,,,,,,,,,,,,,
,,,,,964911,001,2024-07-12_16h06.38.750,experiment,2024.1.5,Win32,144.9275362,6100dfd366a4922c166c9a19,6691931c2c63981b064e1f0c,6691b66601f081bdb6eadfa2,,,,,,,,,,,,,,,,,,,,,,,,,,,,,,,,,,,,,,,,,,,,,,,,,,,,,,,,,,,,604.0429,610.6209,0.180555556,0.171296296,1,0,0,0.5769,compass,0,10,10,24,1,SoundStimuli/Kiss_Prince_Original5S.wav,,,,,,,,,,,,,,,,,,,,,,,,,,,,,,,,,,,,,,,,,,,,,,,,,,,,,
,,,,,964911,001,2024-07-12_16h06.38.750,experiment,2024.1.5,Win32,144.9275362,6100dfd366a4922c166c9a19,6691931c2c63981b064e1f0c,6691b66601f081bdb6eadfa2,,,,,,,,,,,,,,,,,,,,,,,,,,,,,,,,,,,,,,,,,,,,,,,,,,,,,,,,,,,,610.6259,617.003,0.19722225,0.193518497,1,0,0,0.3702,compass,0,11,11,3,1,SoundStimuli/PartyRockAnthem_LMFAO_Cover5S.wav,,,,,,,,,,,,,,,,,,,,,,,,,,,,,,,,,,,,,,,,,,,,,,,,,,,,,
,,,,,964911,001,2024-07-12_16h06.38.750,experiment,2024.1.5,Win32,144.9275362,6100dfd366a4922c166c9a19,6691931c2c63981b064e1f0c,6691b66601f081bdb6eadfa2,,,,,,,,,,,,,,,,,,,,,,,,,,,,,,,,,,,,,,,,,,,,,,,,,,,,,,,,,,,,617.0083,625.1723,-0.121296282,-0.108333376,1,0,0,2.1576,compass,0,12,12,23,1,SoundStimuli/IWalkTheLine_JohnnyCash_Cover5S.wav,,,,,,,,,,,,,,,,,,,,,,,,,,,,,,,,,,,,,,,,,,,,,,,,,,,,,
,,,,,964911,001,2024-07-12_16h06.38.750,experiment,2024.1.5,Win32,144.9275362,6100dfd366a4922c166c9a19,6691931c2c63981b064e1f0c,6691b66601f081bdb6eadfa2,,,,,,,,,,,,,,,,,,,,,,,,,,,,,,,,,,,,,,,,,,,,,,,,,,,,,,,,,,,,625.1778,632.2716,0.09629631,0.095370363,1,0,0,1.0892,compass,0,13,13,1,1,SoundStimuli/Smooth_SantanaRobThomas_Cover5S.wav,,,,,,,,,,,,,,,,,,,,,,,,,,,,,,,,,,,,,,,,,,,,,,,,,,,,,
,,,,,964911,001,2024-07-12_16h06.38.750,experiment,2024.1.5,Win32,144.9275362,6100dfd366a4922c166c9a19,6691931c2c63981b064e1f0c,6691b66601f081bdb6eadfa2,,,,,,,,,,,,,,,,,,,,,,,,,,,,,,,,,,,,,,,,,,,,,,,,,,,,,,,,,,,,632.2773,639.2853,0.187962991,0.185185185,1,0,0,1.0059,compass,0,14,14,26,1,SoundStimuli/TheSign_AceOfBase_Original5S.wav,,,,,,,,,,,,,,,,,,,,,,,,,,,,,,,,,,,,,,,,,,,,,,,,,,,,,
,,,,,964911,001,2024-07-12_16h06.38.750,experiment,2024.1.5,Win32,144.9275362,6100dfd366a4922c166c9a19,6691931c2c63981b064e1f0c,6691b66601f081bdb6eadfa2,,,,,,,,,,,,,,,,,,,,,,,,,,,,,,,,,,,,,,,,,,,,,,,,,,,,,,,,,,,,639.2912,645.5288,-0.25,0.244444441,1,0,0,0.2359,compass,0,15,15,33,1,SoundStimuli/TheBoyIsMine_BrandyMonica_Cover5S.wav,,,,,,,,,,,,,,,,,,,,,,,,,,,,,,,,,,,,,,,,,,,,,,,,,,,,,
,,,,,964911,001,2024-07-12_16h06.38.750,experiment,2024.1.5,Win32,144.9275362,6100dfd366a4922c166c9a19,6691931c2c63981b064e1f0c,6691b66601f081bdb6eadfa2,,,,,,,,,,,,,,,,,,,,,,,,,,,,,,,,,,,,,,,,,,,,,,,,,,,,,,,,,,,,645.5345,652.6672,0.22592594,-0.235185199,1,0,0,1.1308,compass,0,16,16,19,1,SoundStimuli/YouLightUpMyLife_DebbyBoone_Cover5S.wav,,,,,,,,,,,,,,,,,,,,,,,,,,,,,,,,,,,,,,,,,,,,,,,,,,,,,
,,,,,964911,001,2024-07-12_16h06.38.750,experiment,2024.1.5,Win32,144.9275362,6100dfd366a4922c166c9a19,6691931c2c63981b064e1f0c,6691b66601f081bdb6eadfa2,,,,,,,,,,,,,,,,,,,,,,,,,,,,,,,,,,,,,,,,,,,,,,,,,,,,,,,,,,,,652.6724,659.889,0.229629658,-0.226851852,1,0,0,1.2141,compass,0,17,17,18,1,SoundStimuli/Weak_SWV_Original5S.wav,,,,,,,,,,,,,,,,,,,,,,,,,,,,,,,,,,,,,,,,,,,,,,,,,,,,,
,,,,,964911,001,2024-07-12_16h06.38.750,experiment,2024.1.5,Win32,144.9275362,6100dfd366a4922c166c9a19,6691931c2c63981b064e1f0c,6691b66601f081bdb6eadfa2,,,,,,,,,,,,,,,,,,,,,,,,,,,,,,,,,,,,,,,,,,,,,,,,,,,,,,,,,,,,659.8951,668.2864,0.098148134,-0.100000028,1,0,0,2.3837,compass,0,18,18,21,1,SoundStimuli/BridgeOverTroubledWater_SimonAndGarfunkel_Cover5S.wav,,,,,,,,,,,,,,,,,,,,,,,,,,,,,,,,,,,,,,,,,,,,,,,,,,,,,
,,,,,964911,001,2024-07-12_16h06.38.750,experiment,2024.1.5,Win32,144.9275362,6100dfd366a4922c166c9a19,6691931c2c63981b064e1f0c,6691b66601f081bdb6eadfa2,,,,,,,,,,,,,,,,,,,,,,,,,,,,,,,,,,,,,,,,,,,,,,,,,,,,,,,,,,,,668.2924,676.9547,0.059259273,-0.075000021,1,0,0,2.6527,compass,0,19,19,7,1,SoundStimuli/MackTheKnife_BobbyDarin_Original5S.wav,,,,,,,,,,,,,,,,,,,,,,,,,,,,,,,,,,,,,,,,,,,,,,,,,,,,,
,,,,,964911,001,2024-07-12_16h06.38.750,experiment,2024.1.5,Win32,144.9275362,6100dfd366a4922c166c9a19,6691931c2c63981b064e1f0c,6691b66601f081bdb6eadfa2,,,,,,,,,,,,,,,,,,,,,,,,,,,,,,,,,,,,,,,,,,,,,,,,,,,,,,,,,,,,676.9604,683.3301,0.097222222,0.113888882,1,0,0,0.3636,compass,0,20,20,32,1,SoundStimuli/Dilemma_NellyKellyRowland_Original5S.wav,,,,,,,,,,,,,,,,,,,,,,,,,,,,,,,,,,,,,,,,,,,,,,,,,,,,,
,,,,,964911,001,2024-07-12_16h06.38.750,experiment,2024.1.5,Win32,144.9275362,6100dfd366a4922c166c9a19,6691931c2c63981b064e1f0c,6691b66601f081bdb6eadfa2,,,,,,,,,,,,,,,,,,,,,,,,,,,,,,,,,,,,,,,,,,,,,,,,,,,,,,,,,,,,683.3353,689.8027,0.17777782,0.170370349,1,0,0,0.4636,compass,0,21,21,20,1,SoundStimuli/FlashdanceWhatAFeeling_IreneCara_Cover5S.wav,,,,,,,,,,,,,,,,,,,,,,,,,,,,,,,,,,,,,,,,,,,,,,,,,,,,,
,,,,,964911,001,2024-07-12_16h06.38.750,experiment,2024.1.5,Win32,144.9275362,6100dfd366a4922c166c9a19,6691931c2c63981b064e1f0c,6691b66601f081bdb6eadfa2,,,,,,,,,,,,,,,,,,,,,,,,,,,,,,,,,,,,,,,,,,,,,,,,,,,,,,,,,,,,689.8083,697.1627,-0.001851824,-0.000925947,1,0,0,1.3528,compass,0,22,22,4,1,SoundStimuli/Dreams_FleetwoodMac_Cover5S.wav,,,,,,,,,,,,,,,,,,,,,,,,,,,,,,,,,,,,,,,,,,,,,,,,,,,,,
,,,,,964911,001,2024-07-12_16h06.38.750,experiment,2024.1.5,Win32,144.9275362,6100dfd366a4922c166c9a19,6691931c2c63981b064e1f0c,6691b66601f081bdb6eadfa2,,,,,,,,,,,,,,,,,,,,,,,,,,,,,,,,,,,,,,,,,,,,,,,,,,,,,,,,,,,,697.1682,703.5243,-0.154629601,0.151851831,1,0,0,0.3539,compass,0,23,23,0,1,SoundStimuli/GimmeShelter_RollingStones_Cover5S.wav,,,,,,,,,,,,,,,,,,,,,,,,,,,,,,,,,,,,,,,,,,,,,,,,,,,,,
,,,,,964911,001,2024-07-12_16h06.38.750,experiment,2024.1.5,Win32,144.9275362,6100dfd366a4922c166c9a19,6691931c2c63981b064e1f0c,6691b66601f081bdb6eadfa2,,,,,,,,,,,,,,,,,,,,,,,,,,,,,,,,,,,,,,,,,,,,,,,,,,,,,,,,,,,,703.5301,713.7151,0.033333319,0.04074072,1,0,0,4.1833,compass,0,24,24,28,1,SoundStimuli/IWantToHoldYourHand_TheBeatles_Cover5S.wav,,,,,,,,,,,,,,,,,,,,,,,,,,,,,,,,,,,,,,,,,,,,,,,,,,,,,
,,,,,964911,001,2024-07-12_16h06.38.750,experiment,2024.1.5,Win32,144.9275362,6100dfd366a4922c166c9a19,6691931c2c63981b064e1f0c,6691b66601f081bdb6eadfa2,,,,,,,,,,,,,,,,,,,,,,,,,,,,,,,,,,,,,,,,,,,,,,,,,,,,,,,,,,,,713.721,720.0487,0.270370413,0.279629619,1,0,0,0.3256,compass,0,25,25,10,1,SoundStimuli/LeFreak_Chic_Original5S.wav,,,,,,,,,,,,,,,,,,,,,,,,,,,,,,,,,,,,,,,,,,,,,,,,,,,,,
,,,,,964911,001,2024-07-12_16h06.38.750,experiment,2024.1.5,Win32,144.9275362,6100dfd366a4922c166c9a19,6691931c2c63981b064e1f0c,6691b66601f081bdb6eadfa2,,,,,,,,,,,,,,,,,,,,,,,,,,,,,,,,,,,,,,,,,,,,,,,,,,,,,,,,,,,,720.054,726.3893,-0.244444459,0.263888889,1,0,0,0.3329,compass,0,26,26,15,1,SoundStimuli/CrazyInLove_BeyonceFtJayZ_Original5S.wav,,,,,,,,,,,,,,,,,,,,,,,,,,,,,,,,,,,,,,,,,,,,,,,,,,,,,
,,,,,964911,001,2024-07-12_16h06.38.750,experiment,2024.1.5,Win32,144.9275362,6100dfd366a4922c166c9a19,6691931c2c63981b064e1f0c,6691b66601f081bdb6eadfa2,,,,,,,,,,,,,,,,,,,,,,,,,,,,,,,,,,,,,,,,,,,,,,,,,,,,,,,,,,,,726.3947,734.3118,0.074999986,0.055555556,1,0,0,1.9147,compass,0,27,27,29,1,SoundStimuli/BetteDavisEyes_KimCarnes_Cover5S.wav,,,,,,,,,,,,,,,,,,,,,,,,,,,,,,,,,,,,,,,,,,,,,,,,,,,,,
,,,,,964911,001,2024-07-12_16h06.38.750,experiment,2024.1.5,Win32,144.9275362,6100dfd366a4922c166c9a19,6691931c2c63981b064e1f0c,6691b66601f081bdb6eadfa2,,,,,,,,,,,,,,,,,,,,,,,,,,,,,,,,,,,,,,,,,,,,,,,,,,,,,,,,,,,,734.3177,743.3996,0.050000014,0.051851838,1,0,0,3.0801,compass,0,28,28,14,1,SoundStimuli/LikeARollingStone_BobDylan_Cover5S.wav,,,,,,,,,,,,,,,,,,,,,,,,,,,,,,,,,,,,,,,,,,,,,,,,,,,,,
,,,,,964911,001,2024-07-12_16h06.38.750,experiment,2024.1.5,Win32,144.9275362,6100dfd366a4922c166c9a19,6691931c2c63981b064e1f0c,6691b66601f081bdb6eadfa2,,,,,,,,,,,,,,,,,,,,,,,,,,,,,,,,,,,,,,,,,,,,,,,,,,,,,,,,,,,,743.4052,749.6153,-0.199074074,0.186111097,1,0,0,0.2081,compass,0,29,29,31,1,SoundStimuli/TossinAndTurnin_BobbyLewis_Cover5S.wav,,,,,,,,,,,,,,,,,,,,,,,,,,,,,,,,,,,,,,,,,,,,,,,,,,,,,
,,,,,964911,001,2024-07-12_16h06.38.750,experiment,2024.1.5,Win32,144.9275362,6100dfd366a4922c166c9a19,6691931c2c63981b064e1f0c,6691b66601f081bdb6eadfa2,,,,,,,,,,,,,,,,,,,,,,,,,,,,,,,,,,,,,,,,,,,,,,,,,,,,,,,,,,,,749.6206,756.0185,0.243518547,0.250925929,1,0,0,0.3956,compass,0,30,30,11,1,SoundStimuli/BlurredLines_RobinThicke_Original5S.wav,,,,,,,,,,,,,,,,,,,,,,,,,,,,,,,,,,,,,,,,,,,,,,,,,,,,,
,,,,,964911,001,2024-07-12_16h06.38.750,experiment,2024.1.5,Win32,144.9275362,6100dfd366a4922c166c9a19,6691931c2c63981b064e1f0c,6691b66601f081bdb6eadfa2,,,,,,,,,,,,,,,,,,,,,,,,,,,,,,,,,,,,,,,,,,,,,,,,,,,,,,,,,,,,756.0241,762.2898,-0.234259217,0.2462963,1,0,0,0.2638,compass,0,31,31,2,1,SoundStimuli/SmellsLikeTeenSpirit_Nirvana_Cover5S.wav,,,,,,,,,,,,,,,,,,,,,,,,,,,,,,,,,,,,,,,,,,,,,,,,,,,,,
,,,,,964911,001,2024-07-12_16h06.38.750,experiment,2024.1.5,Win32,144.9275362,6100dfd366a4922c166c9a19,6691931c2c63981b064e1f0c,6691b66601f081bdb6eadfa2,,,,,,,,,,,,,,,,,,,,,,,,,,,,,,,,,,,,,,,,,,,,,,,,,,,,,,,,,,,,762.2951,771.4682,0.174074102,-0.205555598,1,0,0,3.1708,compass,0,32,32,17,1,SoundStimuli/IWannaDanceWithSomebody_WhitneyHouston_Cover5S.wav,,,,,,,,,,,,,,,,,,,,,,,,,,,,,,,,,,,,,,,,,,,,,,,,,,,,,
,,,,,964911,001,2024-07-12_16h06.38.750,experiment,2024.1.5,Win32,144.9275362,6100dfd366a4922c166c9a19,6691931c2c63981b064e1f0c,6691b66601f081bdb6eadfa2,,,,,,,,,,,,,,,,,,,,,,,,,,,,,,,,,,,,,,,,,,,,,,,,,,,,,,,,,,,,771.4742,777.8291,-0.128703718,0.125925912,1,0,0,0.3536,compass,0,33,33,30,1,SoundStimuli/SomebodyThatIUsedtoKnow_Gotye_Cover5S.wav,,,,,,,,,,,,,,,,,,,,,,,,,,,,,,,,,,,,,,,,,,,,,,,,,,,,,
,,,,,964911,001,2024-07-12_16h06.38.750,experiment,2024.1.5,Win32,144.9275362,6100dfd366a4922c166c9a19,6691931c2c63981b064e1f0c,6691b66601f081bdb6eadfa2,,,,,,,,,,,,,,,,,,,,,,,,,,,,,,,,,,,,,,,,,,,,,,,,,,,,,,,,,,,,777.8343,784.3919,0.210185228,0.222222222,1,0,0,0.5547,compass,0,34,34,22,1,SoundStimuli/Happy_PharellWilliams_Cover5S.wav,,,,,,,,,,,,,,,,,,,,,,,,,,,,,,,,,,,,,,,,,,,,,,,,,,,,,
,,,,,964911,001,2024-07-12_16h06.38.750,experiment,2024.1.5,Win32,144.9275362,6100dfd366a4922c166c9a19,6691931c2c63981b064e1f0c,6691b66601f081bdb6eadfa2,,,,,,,,,,,,,,,,,,,,,,,,,,,,,,,,,,,,,,,,,,,,,,,,,,,,,,,,,,,,,,,,,,,,,,,,,,,784.3973,799.4999,space,15.0908,,799.5,802.1789,right,2.6723,,0,1,1,1,1,block_order/blockB.xlsx,,,,,,,,,,,,,,,,,,,,,,,,,,,,,,,,,,,,,
,,,,,964911,001,2024-07-12_16h06.38.750,experiment,2024.1.5,Win32,144.9275362,6100dfd366a4922c166c9a19,6691931c2c63981b064e1f0c,6691b66601f081bdb6eadfa2,,,,,,,,,,,,,,,,,,,,,,,,,,,,,,,,,,,,,,,,,,,,,,,,,,,,,,,,,,,,802.1852,808.6098,-0.204629616,0.206481474,1,0,0,0.4228,compass,0,0,0,12,1,SoundStimuli/IWillAlwaysLoveYou_WhitneyHouston_Original5S.wav,,,,,,,,,,,,,,,,,,,,,,,,,,,,,,,,,,,,,,,,,,,,,,,,,,,,,
,,,,,964911,001,2024-07-12_16h06.38.750,experiment,2024.1.5,Win32,144.9275362,6100dfd366a4922c166c9a19,6691931c2c63981b064e1f0c,6691b66601f081bdb6eadfa2,,,,,,,,,,,,,,,,,,,,,,,,,,,,,,,,,,,,,,,,,,,,,,,,,,,,,,,,,,,,808.6152,820.417,0.015740783,0.077777757,1,0,0,5.7996,compass,0,1,1,1,1,SoundStimuli/Stronger_KanyeWest_Cover5S.wav,,,,,,,,,,,,,,,,,,,,,,,,,,,,,,,,,,,,,,,,,,,,,,,,,,,,,
,,,,,964911,001,2024-07-12_16h06.38.750,experiment,2024.1.5,Win32,144.9275362,6100dfd366a4922c166c9a19,6691931c2c63981b064e1f0c,6691b66601f081bdb6eadfa2,,,,,,,,,,,,,,,,,,,,,,,,,,,,,,,,,,,,,,,,,,,,,,,,,,,,,,,,,,,,820.4228,826.734,-0.285185143,0.298148138,1,0,0,0.3051,compass,0,2,2,25,1,SoundStimuli/Respect_ArethaFranklin_Cover5S.wav,,,,,,,,,,,,,,,,,,,,,,,,,,,,,,,,,,,,,,,,,,,,,,,,,,,,,
,,,,,964911,001,2024-07-12_16h06.38.750,experiment,2024.1.5,Win32,144.9275362,6100dfd366a4922c166c9a19,6691931c2c63981b064e1f0c,6691b66601f081bdb6eadfa2,,,,,,,,,,,,,,,,,,,,,,,,,,,,,,,,,,,,,,,,,,,,,,,,,,,,,,,,,,,,826.7394,833.4305,0.248148176,0.239814811,1,0,0,0.6816,compass,0,3,3,29,1,SoundStimuli/OldTownRoad_LilNasX_Cover5S.wav,,,,,,,,,,,,,,,,,,,,,,,,,,,,,,,,,,,,,,,,,,,,,,,,,,,,,
,,,,,964911,001,2024-07-12_16h06.38.750,experiment,2024.1.5,Win32,144.9275362,6100dfd366a4922c166c9a19,6691931c2c63981b064e1f0c,6691b66601f081bdb6eadfa2,,,,,,,,,,,,,,,,,,,,,,,,,,,,,,,,,,,,,,,,,,,,,,,,,,,,,,,,,,,,833.4359,840.7963,0.265740783,0.25462963,1,0,0,1.3599,compass,0,4,4,26,1,SoundStimuli/LivinOnAPrayer_BonJovi_Original5S.wav,,,,,,,,,,,,,,,,,,,,,,,,,,,,,,,,,,,,,,,,,,,,,,,,,,,,,
,,,,,964911,001,2024-07-12_16h06.38.750,experiment,2024.1.5,Win32,144.9275362,6100dfd366a4922c166c9a19,6691931c2c63981b064e1f0c,6691b66601f081bdb6eadfa2,,,,,,,,,,,,,,,,,,,,,,,,,,,,,,,,,,,,,,,,,,,,,,,,,,,,,,,,,,,,840.8018,847.126,-0.213888875,0.207407404,1,0,0,0.3155,compass,0,5,5,2,1,SoundStimuli/Mood_24kGoldnianndior_Original5S.wav,,,,,,,,,,,,,,,,,,,,,,,,,,,,,,,,,,,,,,,,,,,,,,,,,,,,,
,,,,,964911,001,2024-07-12_16h06.38.750,experiment,2024.1.5,Win32,144.9275362,6100dfd366a4922c166c9a19,6691931c2c63981b064e1f0c,6691b66601f081bdb6eadfa2,,,,,,,,,,,,,,,,,,,,,,,,,,,,,,,,,,,,,,,,,,,,,,,,,,,,,,,,,,,,847.1319,853.5841,0.087962963,0.097222222,1,0,0,0.4507,compass,0,6,6,4,1,SoundStimuli/GetUrFreakOn_MissyElliot_Cover5S.wav,,,,,,,,,,,,,,,,,,,,,,,,,,,,,,,,,,,,,,,,,,,,,,,,,,,,,
,,,,,964911,001,2024-07-12_16h06.38.750,experiment,2024.1.5,Win32,144.9275362,6100dfd366a4922c166c9a19,6691931c2c63981b064e1f0c,6691b66601f081bdb6eadfa2,,,,,,,,,,,,,,,,,,,,,,,,,,,,,,,,,,,,,,,,,,,,,,,,,,,,,,,,,,,,853.5893,859.9111,0.267592607,0.268518519,1,0,0,0.3193,compass,0,7,7,24,1,SoundStimuli/UptownFunk_MarkRonson_Cover5S.wav,,,,,,,,,,,,,,,,,,,,,,,,,,,,,,,,,,,,,,,,,,,,,,,,,,,,,
,,,,,964911,001,2024-07-12_16h06.38.750,experiment,2024.1.5,Win32,144.9275362,6100dfd366a4922c166c9a19,6691931c2c63981b064e1f0c,6691b66601f081bdb6eadfa2,,,,,,,,,,,,,,,,,,,,,,,,,,,,,,,,,,,,,,,,,,,,,,,,,,,,,,,,,,,,859.9165,866.2309,0.175925926,0.181481467,1,0,0,0.3121,compass,0,8,8,9,1,SoundStimuli/Despacito_LuisFonsiDaddyYankee_Original5S.wav,,,,,,,,,,,,,,,,,,,,,,,,,,,,,,,,,,,,,,,,,,,,,,,,,,,,,
,,,,,964911,001,2024-07-12_16h06.38.750,experiment,2024.1.5,Win32,144.9275362,6100dfd366a4922c166c9a19,6691931c2c63981b064e1f0c,6691b66601f081bdb6eadfa2,,,,,,,,,,,,,,,,,,,,,,,,,,,,,,,,,,,,,,,,,,,,,,,,,,,,,,,,,,,,866.2362,873.1334,-0.116666653,-0.127777806,1,0,0,0.8951,compass,0,9,9,32,1,SoundStimuli/HeatWaves_GlassAnimals_Cover5S.wav,,,,,,,,,,,,,,,,,,,,,,,,,,,,,,,,,,,,,,,,,,,,,,,,,,,,,
,,,,,964911,001,2024-07-12_16h06.38.750,experiment,2024.1.5,Win32,144.9275362,6100dfd366a4922c166c9a19,6691931c2c63981b064e1f0c,6691b66601f081bdb6eadfa2,,,,,,,,,,,,,,,,,,,,,,,,,,,,,,,,,,,,,,,,,,,,,,,,,,,,,,,,,,,,873.1391,879.7931,-0.078703704,-0.066666674,1,0,0,0.6519,compass,0,10,10,14,1,SoundStimuli/BlindingLights_TheWeeknd_Cover5S.wav,,,,,,,,,,,,,,,,,,,,,,,,,,,,,,,,,,,,,,,,,,,,,,,,,,,,,
,,,,,964911,001,2024-07-12_16h06.38.750,experiment,2024.1.5,Win32,144.9275362,6100dfd366a4922c166c9a19,6691931c2c63981b064e1f0c,6691b66601f081bdb6eadfa2,,,,,,,,,,,,,,,,,,,,,,,,,,,,,,,,,,,,,,,,,,,,,,,,,,,,,,,,,,,,879.7983,886.0576,-0.095370328,0.102777764,1,0,0,0.2565,compass,0,11,11,16,1,SoundStimuli/BohemianRhapsody_Queen_Cover5S.wav,,,,,,,,,,,,,,,,,,,,,,,,,,,,,,,,,,,,,,,,,,,,,,,,,,,,,
,,,,,964911,001,2024-07-12_16h06.38.750,experiment,2024.1.5,Win32,144.9275362,6100dfd366a4922c166c9a19,6691931c2c63981b064e1f0c,6691b66601f081bdb6eadfa2,,,,,,,,,,,,,,,,,,,,,,,,,,,,,,,,,,,,,,,,,,,,,,,,,,,,,,,,,,,,886.063,892.4257,-0.191666638,0.166666667,1,0,0,0.3607,compass,0,12,12,23,1,SoundStimuli/StrawberryFieldsForever_TheBeatles_Cover5S.wav,,,,,,,,,,,,,,,,,,,,,,,,,,,,,,,,,,,,,,,,,,,,,,,,,,,,,
,,,,,964911,001,2024-07-12_16h06.38.750,experiment,2024.1.5,Win32,144.9275362,6100dfd366a4922c166c9a19,6691931c2c63981b064e1f0c,6691b66601f081bdb6eadfa2,,,,,,,,,,,,,,,,,,,,,,,,,,,,,,,,,,,,,,,,,,,,,,,,,,,,,,,,,,,,892.4312,899.6752,-0.050000014,0.064814815,1,0,0,1.2416,compass,0,13,13,11,1,SoundStimuli/Superstition_StevieWonder_Original5S.wav,,,,,,,,,,,,,,,,,,,,,,,,,,,,,,,,,,,,,,,,,,,,,,,,,,,,,
,,,,,964911,001,2024-07-12_16h06.38.750,experiment,2024.1.5,Win32,144.9275362,6100dfd366a4922c166c9a19,6691931c2c63981b064e1f0c,6691b66601f081bdb6eadfa2,,,,,,,,,,,,,,,,,,,,,,,,,,,,,,,,,,,,,,,,,,,,,,,,,,,,,,,,,,,,899.6809,906.0782,0.09629631,0.097222222,1,0,0,0.3954,compass,0,14,14,21,1,SoundStimuli/GoodGollyMissMolly_LittleRichard_Original5S.wav,,,,,,,,,,,,,,,,,,,,,,,,,,,,,,,,,,,,,,,,,,,,,,,,,,,,,
,,,,,964911,001,2024-07-12_16h06.38.750,experiment,2024.1.5,Win32,144.9275362,6100dfd366a4922c166c9a19,6691931c2c63981b064e1f0c,6691b66601f081bdb6eadfa2,,,,,,,,,,,,,,,,,,,,,,,,,,,,,,,,,,,,,,,,,,,,,,,,,,,,,,,,,,,,906.0835,913.7857,-0.130555541,-0.122222265,1,0,0,1.6995,compass,0,15,15,10,1,SoundStimuli/BadDay_DanielPowter_Original5S.wav,,,,,,,,,,,,,,,,,,,,,,,,,,,,,,,,,,,,,,,,,,,,,,,,,,,,,
,,,,,964911,001,2024-07-12_16h06.38.750,experiment,2024.1.5,Win32,144.9275362,6100dfd366a4922c166c9a19,6691931c2c63981b064e1f0c,6691b66601f081bdb6eadfa2,,,,,,,,,,,,,,,,,,,,,,,,,,,,,,,,,,,,,,,,,,,,,,,,,,,,,,,,,,,,913.7914,920.2581,0.220370399,0.234259252,1,0,0,0.4647,compass,0,16,16,20,1,SoundStimuli/HeyYa_Outkast_Original5S.wav,,,,,,,,,,,,,,,,,,,,,,,,,,,,,,,,,,,,,,,,,,,,,,,,,,,,,
,,,,,964911,001,2024-07-12_16h06.38.750,experiment,2024.1.5,Win32,144.9275362,6100dfd366a4922c166c9a19,6691931c2c63981b064e1f0c,6691b66601f081bdb6eadfa2,,,,,,,,,,,,,,,,,,,,,,,,,,,,,,,,,,,,,,,,,,,,,,,,,,,,,,,,,,,,920.2636,926.8346,-0.202777792,-0.15370369,1,0,0,0.569,compass,0,17,17,18,1,SoundStimuli/AnotherOneBitesTheDust_Queen_Cover5S.wav,,,,,,,,,,,,,,,,,,,,,,,,,,,,,,,,,,,,,,,,,,,,,,,,,,,,,
,,,,,964911,001,2024-07-12_16h06.38.750,experiment,2024.1.5,Win32,144.9275362,6100dfd366a4922c166c9a19,6691931c2c63981b064e1f0c,6691b66601f081bdb6eadfa2,,,,,,,,,,,,,,,,,,,,,,,,,,,,,,,,,,,,,,,,,,,,,,,,,,,,,,,,,,,,926.8402,934.577,-0.050000014,0.060185185,1,0,0,1.7344,compass,0,18,18,31,1,SoundStimuli/TheBattleOfNewOrleans_JohnnyHorton_Original5S.wav,,,,,,,,,,,,,,,,,,,,,,,,,,,,,,,,,,,,,,,,,,,,,,,,,,,,,
,,,,,964911,001,2024-07-12_16h06.38.750,experiment,2024.1.5,Win32,144.9275362,6100dfd366a4922c166c9a19,6691931c2c63981b064e1f0c,6691b66601f081bdb6eadfa2,,,,,,,,,,,,,,,,,,,,,,,,,,,,,,,,,,,,,,,,,,,,,,,,,,,,,,,,,,,,934.5824,941.1392,-0.122222194,-0.124074088,1,0,0,0.5549,compass,0,19,19,34,1,SoundStimuli/AChangeIsGonnaCome_SamCooke_Original5S.wav,,,,,,,,,,,,,,,,,,,,,,,,,,,,,,,,,,,,,,,,,,,,,,,,,,,,,
,,,,,964911,001,2024-07-12_16h06.38.750,experiment,2024.1.5,Win32,144.9275362,6100dfd366a4922c166c9a19,6691931c2c63981b064e1f0c,6691b66601f081bdb6eadfa2,,,,,,,,,,,,,,,,,,,,,,,,,,,,,,,,,,,,,,,,,,,,,,,,,,,,,,,,,,,,941.1449,948.8674,0.114814829,0.10833334,1,0,0,1.7207,compass,0,20,20,30,1,SoundStimuli/PokerFace_LadyGaga_Cover5S.wav,,,,,,,,,,,,,,,,,,,,,,,,,,,,,,,,,,,,,,,,,,,,,,,,,,,,,
,,,,,964911,001,2024-07-12_16h06.38.750,experiment,2024.1.5,Win32,144.9275362,6100dfd366a4922c166c9a19,6691931c2c63981b064e1f0c,6691b66601f081bdb6eadfa2,,,,,,,,,,,,,,,,,,,,,,,,,,,,,,,,,,,,,,,,,,,,,,,,,,,,,,,,,,,,948.8731,955.985,-0.17777775,0.15648146,1,0,0,1.1101,compass,0,21,21,7,1,SoundStimuli/NoOne_AliciaKeys_Original5S.wav,,,,,,,,,,,,,,,,,,,,,,,,,,,,,,,,,,,,,,,,,,,,,,,,,,,,,
,,,,,964911,001,2024-07-12_16h06.38.750,experiment,2024.1.5,Win32,144.9275362,6100dfd366a4922c166c9a19,6691931c2c63981b064e1f0c,6691b66601f081bdb6eadfa2,,,,,,,,,,,,,,,,,,,,,,,,,,,,,,,,,,,,,,,,,,,,,,,,,,,,,,,,,,,,955.9902,963.6298,-0.089814787,-0.058333326,1,0,0,1.6371,compass,0,22,22,5,1,SoundStimuli/MyGirl_TheTemptations_Cover5S.wav,,,,,,,,,,,,,,,,,,,,,,,,,,,,,,,,,,,,,,,,,,,,,,,,,,,,,
,,,,,964911,001,2024-07-12_16h06.38.750,experiment,2024.1.5,Win32,144.9275362,6100dfd366a4922c166c9a19,6691931c2c63981b064e1f0c,6691b66601f081bdb6eadfa2,,,,,,,,,,,,,,,,,,,,,,,,,,,,,,,,,,,,,,,,,,,,,,,,,,,,,,,,,,,,963.6355,970.0815,0.134259259,-0.130555541,1,0,0,0.444,compass,0,23,23,19,1,SoundStimuli/LetsGetItOn_MarvinGaye_Original5S.wav,,,,,,,,,,,,,,,,,,,,,,,,,,,,,,,,,,,,,,,,,,,,,,,,,,,,,
,,,,,964911,001,2024-07-12_16h06.38.750,experiment,2024.1.5,Win32,144.9275362,6100dfd366a4922c166c9a19,6691931c2c63981b064e1f0c,6691b66601f081bdb6eadfa2,,,,,,,,,,,,,,,,,,,,,,,,,,,,,,,,,,,,,,,,,,,,,,,,,,,,,,,,,,,,970.0869,976.5333,0.068518533,0.070370356,1,0,0,0.4442,compass,0,24,24,33,1,SoundStimuli/StandByMe_BenEKing_Original5S.wav,,,,,,,,,,,,,,,,,,,,,,,,,,,,,,,,,,,,,,,,,,,,,,,,,,,,,
,,,,,964911,001,2024-07-12_16h06.38.750,experiment,2024.1.5,Win32,144.9275362,6100dfd366a4922c166c9a19,6691931c2c63981b064e1f0c,6691b66601f081bdb6eadfa2,,,,,,,,,,,,,,,,,,,,,,,,,,,,,,,,,,,,,,,,,,,,,,,,,,,,,,,,,,,,976.5384,989.2908,0.079629616,0.060185185,1,0,0,6.7501,compass,0,25,25,27,1,SoundStimuli/ShapeofYou_EdSheeran_Cover5S.wav,,,,,,,,,,,,,,,,,,,,,,,,,,,,,,,,,,,,,,,,,,,,,,,,,,,,,
,,,,,964911,001,2024-07-12_16h06.38.750,experiment,2024.1.5,Win32,144.9275362,6100dfd366a4922c166c9a19,6691931c2c63981b064e1f0c,6691b66601f081bdb6eadfa2,,,,,,,,,,,,,,,,,,,,,,,,,,,,,,,,,,,,,,,,,,,,,,,,,,,,,,,,,,,,989.2969,995.7355,0.23055557,0.229629623,1,0,0,0.4369,compass,0,26,26,15,1,SoundStimuli/TikTok_Kesha_Original5S.wav,,,,,,,,,,,,,,,,,,,,,,,,,,,,,,,,,,,,,,,,,,,,,,,,,,,,,
,,,,,964911,001,2024-07-12_16h06.38.750,experiment,2024.1.5,Win32,144.9275362,6100dfd366a4922c166c9a19,6691931c2c63981b064e1f0c,6691b66601f081bdb6eadfa2,,,,,,,,,,,,,,,,,,,,,,,,,,,,,,,,,,,,,,,,,,,,,,,,,,,,,,,,,,,,995.7408,1003.5468,0.175000014,0.166666667,1,0,0,1.8036,compass,0,27,27,8,1,SoundStimuli/LikeAPrayer_Madonna_Cover5S.wav,,,,,,,,,,,,,,,,,,,,,,,,,,,,,,,,,,,,,,,,,,,,,,,,,,,,,
,,,,,964911,001,2024-07-12_16h06.38.750,experiment,2024.1.5,Win32,144.9275362,6100dfd366a4922c166c9a19,6691931c2c63981b064e1f0c,6691b66601f081bdb6eadfa2,,,,,,,,,,,,,,,,,,,,,,,,,,,,,,,,,,,,,,,,,,,,,,,,,,,,,,,,,,,,1003.5528,1010.3938,-0.183333291,-0.176851838,1,0,0,0.8394,compass,0,28,28,13,1,SoundStimuli/GodOnlyKnows_TheBeachBoys_Original5S.wav,,,,,,,,,,,,,,,,,,,,,,,,,,,,,,,,,,,,,,,,,,,,,,,,,,,,,
,,,,,964911,001,2024-07-12_16h06.38.750,experiment,2024.1.5,Win32,144.9275362,6100dfd366a4922c166c9a19,6691931c2c63981b064e1f0c,6691b66601f081bdb6eadfa2,,,,,,,,,,,,,,,,,,,,,,,,,,,,,,,,,,,,,,,,,,,,,,,,,,,,,,,,,,,,1010.399,1017.3589,-0.081481439,0.081481474,1,0,0,0.9574,compass,0,29,29,28,1,SoundStimuli/ComeAndGetYourLove_Redbone_Cover5S.wav,,,,,,,,,,,,,,,,,,,,,,,,,,,,,,,,,,,,,,,,,,,,,,,,,,,,,
,,,,,964911,001,2024-07-12_16h06.38.750,experiment,2024.1.5,Win32,144.9275362,6100dfd366a4922c166c9a19,6691931c2c63981b064e1f0c,6691b66601f081bdb6eadfa2,,,,,,,,,,,,,,,,,,,,,,,,,,,,,,,,,,,,,,,,,,,,,,,,,,,,,,,,,,,,1017.3642,1023.8594,0.194444444,0.203703704,1,0,0,0.4884,compass,0,30,30,6,1,SoundStimuli/Levitating_DuaLipa_Original5S.wav,,,,,,,,,,,,,,,,,,,,,,,,,,,,,,,,,,,,,,,,,,,,,,,,,,,,,
,,,,,964911,001,2024-07-12_16h06.38.750,experiment,2024.1.5,Win32,144.9275362,6100dfd366a4922c166c9a19,6691931c2c63981b064e1f0c,6691b66601f081bdb6eadfa2,,,,,,,,,,,,,,,,,,,,,,,,,,,,,,,,,,,,,,,,,,,,,,,,,,,,,,,,,,,,1023.8651,1030.4648,-0.150925884,-0.146296325,1,0,0,0.5981,compass,0,31,31,3,1,SoundStimuli/NoScrubs_TLC_Cover5S.wav,,,,,,,,,,,,,,,,,,,,,,,,,,,,,,,,,,,,,,,,,,,,,,,,,,,,,
,,,,,964911,001,2024-07-12_16h06.38.750,experiment,2024.1.5,Win32,144.9275362,6100dfd366a4922c166c9a19,6691931c2c63981b064e1f0c,6691b66601f081bdb6eadfa2,,,,,,,,,,,,,,,,,,,,,,,,,,,,,,,,,,,,,,,,,,,,,,,,,,,,,,,,,,,,1030.4699,1039.9261,0.132407436,-0.139814801,1,0,0,3.4557,compass,0,32,32,17,1,SoundStimuli/Fallin_AliciaKeys_Cover5S.wav,,,,,,,,,,,,,,,,,,,,,,,,,,,,,,,,,,,,,,,,,,,,,,,,,,,,,
,,,,,964911,001,2024-07-12_16h06.38.750,experiment,2024.1.5,Win32,144.9275362,6100dfd366a4922c166c9a19,6691931c2c63981b064e1f0c,6691b66601f081bdb6eadfa2,,,,,,,,,,,,,,,,,,,,,,,,,,,,,,,,,,,,,,,,,,,,,,,,,,,,,,,,,,,,1039.9319,1046.9744,0.074074074,0.068518497,1,0,0,1.0347,compass,0,33,33,0,1,SoundStimuli/StayinAlive_BeeGees_Cover5S.wav,,,,,,,,,,,,,,,,,,,,,,,,,,,,,,,,,,,,,,,,,,,,,,,,,,,,,
,,,,,964911,001,2024-07-12_16h06.38.750,experiment,2024.1.5,Win32,144.9275362,6100dfd366a4922c166c9a19,6691931c2c63981b064e1f0c,6691b66601f081bdb6eadfa2,,,,,,,,,,,,,,,,,,,,,,,,,,,,,,,,,,,,,,,,,,,,,,,,,,,,,,,,,,,,1046.9798,1055.5489,0.066666709,-0.059259273,1,0,0,2.5667,compass,0,34,34,22,1,SoundStimuli/RockWithYou_MichaelJackson_Cover5S.wav,,,,,,,,,,,,,,,,,,,,,,,,,,,,,,,,,,,,,,,,,,,,,,,,,,,,,
,,,,,964911,001,2024-07-12_16h06.38.750,experiment,2024.1.5,Win32,144.9275362,6100dfd366a4922c166c9a19,6691931c2c63981b064e1f0c,6691b66601f081bdb6eadfa2,,,,,,,,,,,,,,,,,,,,,,,,,,,,,,,,,,,,,,,,,,,,,,,,,,,,,,,,,,,,,,,,,,,,,,,,,,,1055.5546,1064.4594,space,8.8937,,1064.4594,1065.359,right,0.895,,0,2,2,2,1,block_order/blockC.xlsx,,,,,,,,,,,,,,,,,,,,,,,,,,,,,,,,,,,,,
,,,,,964911,001,2024-07-12_16h06.38.750,experiment,2024.1.5,Win32,144.9275362,6100dfd366a4922c166c9a19,6691931c2c63981b064e1f0c,6691b66601f081bdb6eadfa2,,,,,,,,,,,,,,,,,,,,,,,,,,,,,,,,,,,,,,,,,,,,,,,,,,,,,,,,,,,,1065.3652,1072.4941,0.082407422,0.078703704,1,0,0,1.1284,compass,0,0,0,10,1,SoundStimuli/LeFreak_Chic_Cover5S.wav,,,,,,,,,,,,,,,,,,,,,,,,,,,,,,,,,,,,,,,,,,,,,,,,,,,,,
,,,,,964911,001,2024-07-12_16h06.38.750,experiment,2024.1.5,Win32,144.9275362,6100dfd366a4922c166c9a19,6691931c2c63981b064e1f0c,6691b66601f081bdb6eadfa2,,,,,,,,,,,,,,,,,,,,,,,,,,,,,,,,,,,,,,,,,,,,,,,,,,,,,,,,,,,,1072.4997,1078.8343,-0.147222236,-0.132407436,1,0,0,0.3332,compass,0,1,1,34,1,SoundStimuli/Irreplaceable_Beyonce_Cover5S.wav,,,,,,,,,,,,,,,,,,,,,,,,,,,,,,,,,,,,,,,,,,,,,,,,,,,,,
,,,,,964911,001,2024-07-12_16h06.38.750,experiment,2024.1.5,Win32,144.9275362,6100dfd366a4922c166c9a19,6691931c2c63981b064e1f0c,6691b66601f081bdb6eadfa2,,,,,,,,,,,,,,,,,,,,,,,,,,,,,,,,,,,,,,,,,,,,,,,,,,,,,,,,,,,,1078.8396,1085.7466,0.121296282,-0.130555541,1,0,0,0.9047,compass,0,2,2,16,1,SoundStimuli/ItsAllInTheGame_TommyEdwards_Cover5S.wav,,,,,,,,,,,,,,,,,,,,,,,,,,,,,,,,,,,,,,,,,,,,,,,,,,,,,
,,,,,964911,001,2024-07-12_16h06.38.750,experiment,2024.1.5,Win32,144.9275362,6100dfd366a4922c166c9a19,6691931c2c63981b064e1f0c,6691b66601f081bdb6eadfa2,,,,,,,,,,,,,,,,,,,,,,,,,,,,,,,,,,,,,,,,,,,,,,,,,,,,,,,,,,,,1085.7519,1092.5524,-0.118518476,0.110185164,1,0,0,0.7991,compass,0,3,3,14,1,SoundStimuli/LikeARollingStone_BobDylan_Original5S.wav,,,,,,,,,,,,,,,,,,,,,,,,,,,,,,,,,,,,,,,,,,,,,,,,,,,,,
,,,,,964911,001,2024-07-12_16h06.38.750,experiment,2024.1.5,Win32,144.9275362,6100dfd366a4922c166c9a19,6691931c2c63981b064e1f0c,6691b66601f081bdb6eadfa2,,,,,,,,,,,,,,,,,,,,,,,,,,,,,,,,,,,,,,,,,,,,,,,,,,,,,,,,,,,,1092.5576,1099.0375,-0.187962921,0.181481467,1,0,0,0.4778,compass,0,4,4,27,1,SoundStimuli/EyeOfTheTiger_Survivor_Cover5S.wav,,,,,,,,,,,,,,,,,,,,,,,,,,,,,,,,,,,,,,,,,,,,,,,,,,,,,
,,,,,964911,001,2024-07-12_16h06.38.750,experiment,2024.1.5,Win32,144.9275362,6100dfd366a4922c166c9a19,6691931c2c63981b064e1f0c,6691b66601f081bdb6eadfa2,,,,,,,,,,,,,,,,,,,,,,,,,,,,,,,,,,,,,,,,,,,,,,,,,,,,,,,,,,,,1099.043,1105.4405,0.158333319,0.176851838,1,0,0,0.3943,compass,0,5,5,1,1,SoundStimuli/Smooth_SantanaRobThomas_Original5S.wav,,,,,,,,,,,,,,,,,,,,,,,,,,,,,,,,,,,,,,,,,,,,,,,,,,,,,
,,,,,964911,001,2024-07-12_16h06.38.750,experiment,2024.1.5,Win32,144.9275362,6100dfd366a4922c166c9a19,6691931c2c63981b064e1f0c,6691b66601f081bdb6eadfa2,,,,,,,,,,,,,,,,,,,,,,,,,,,,,,,,,,,,,,,,,,,,,,,,,,,,,,,,,,,,1105.4456,1113.0251,0.189814815,0.202777757,1,0,0,1.5762,compass,0,6,6,26,1,SoundStimuli/TheSign_AceOfBase_Cover5S.wav,,,,,,,,,,,,,,,,,,,,,,,,,,,,,,,,,,,,,,,,,,,,,,,,,,,,,
,,,,,964911,001,2024-07-12_16h06.38.750,experiment,2024.1.5,Win32,144.9275362,6100dfd366a4922c166c9a19,6691931c2c63981b064e1f0c,6691b66601f081bdb6eadfa2,,,,,,,,,,,,,,,,,,,,,,,,,,,,,,,,,,,,,,,,,,,,,,,,,,,,,,,,,,,,1113.0309,1119.427,0.214814857,0.222222222,1,0,0,0.3954,compass,0,7,7,20,1,SoundStimuli/FlashdanceWhatAFeeling_IreneCara_Original5S.wav,,,,,,,,,,,,,,,,,,,,,,,,,,,,,,,,,,,,,,,,,,,,,,,,,,,,,
,,,,,964911,001,2024-07-12_16h06.38.750,experiment,2024.1.5,Win32,144.9275362,6100dfd366a4922c166c9a19,6691931c2c63981b064e1f0c,6691b66601f081bdb6eadfa2,,,,,,,,,,,,,,,,,,,,,,,,,,,,,,,,,,,,,,,,,,,,,,,,,,,,,,,,,,,,1119.4325,1126.8982,-0.169444402,-0.162962949,1,0,0,1.4639,compass,0,8,8,13,1,SoundStimuli/Perfect_EdSheeran_Cover5S.wav,,,,,,,,,,,,,,,,,,,,,,,,,,,,,,,,,,,,,,,,,,,,,,,,,,,,,
,,,,,964911,001,2024-07-12_16h06.38.750,experiment,2024.1.5,Win32,144.9275362,6100dfd366a4922c166c9a19,6691931c2c63981b064e1f0c,6691b66601f081bdb6eadfa2,,,,,,,,,,,,,,,,,,,,,,,,,,,,,,,,,,,,,,,,,,,,,,,,,,,,,,,,,,,,1126.9045,1133.4821,0.062962991,-0.056481503,1,0,0,0.5759,compass,0,9,9,24,1,SoundStimuli/Kiss_Prince_Cover5S.wav,,,,,,,,,,,,,,,,,,,,,,,,,,,,,,,,,,,,,,,,,,,,,,,,,,,,,
,,,,,964911,001,2024-07-12_16h06.38.750,experiment,2024.1.5,Win32,144.9275362,6100dfd366a4922c166c9a19,6691931c2c63981b064e1f0c,6691b66601f081bdb6eadfa2,,,,,,,,,,,,,,,,,,,,,,,,,,,,,,,,,,,,,,,,,,,,,,,,,,,,,,,,,,,,1133.4876,1140.5999,-0.132407365,-0.118518547,1,0,0,1.1103,compass,0,10,10,8,1,SoundStimuli/EndlessLove_DianaRossLionelRichie_Cover5S.wav,,,,,,,,,,,,,,,,,,,,,,,,,,,,,,,,,,,,,,,,,,,,,,,,,,,,,
,,,,,964911,001,2024-07-12_16h06.38.750,experiment,2024.1.5,Win32,144.9275362,6100dfd366a4922c166c9a19,6691931c2c63981b064e1f0c,6691b66601f081bdb6eadfa2,,,,,,,,,,,,,,,,,,,,,,,,,,,,,,,,,,,,,,,,,,,,,,,,,,,,,,,,,,,,1140.6054,1146.9607,-0.194444444,-0.187037079,1,0,0,0.3536,compass,0,11,11,21,1,SoundStimuli/BridgeOverTroubledWater_SimonAndGarfunkel_Original5S.wav,,,,,,,,,,,,,,,,,,,,,,,,,,,,,,,,,,,,,,,,,,,,,,,,,,,,,
,,,,,964911,001,2024-07-12_16h06.38.750,experiment,2024.1.5,Win32,144.9275362,6100dfd366a4922c166c9a19,6691931c2c63981b064e1f0c,6691b66601f081bdb6eadfa2,,,,,,,,,,,,,,,,,,,,,,,,,,,,,,,,,,,,,,,,,,,,,,,,,,,,,,,,,,,,1146.9665,1153.5651,0.162962949,-0.175000014,1,0,0,0.5966,compass,0,12,12,19,1,SoundStimuli/YouLightUpMyLife_DebbyBoone_Original5S.wav,,,,,,,,,,,,,,,,,,,,,,,,,,,,,,,,,,,,,,,,,,,,,,,,,,,,,
,,,,,964911,001,2024-07-12_16h06.38.750,experiment,2024.1.5,Win32,144.9275362,6100dfd366a4922c166c9a19,6691931c2c63981b064e1f0c,6691b66601f081bdb6eadfa2,,,,,,,,,,,,,,,,,,,,,,,,,,,,,,,,,,,,,,,,,,,,,,,,,,,,,,,,,,,,1153.5705,1160.4053,-0.162962949,0.150000007,1,0,0,0.8326,compass,0,13,13,2,1,SoundStimuli/SmellsLikeTeenSpirit_Nirvana_Original5S.wav,,,,,,,,,,,,,,,,,,,,,,,,,,,,,,,,,,,,,,,,,,,,,,,,,,,,,
,,,,,964911,001,2024-07-12_16h06.38.750,experiment,2024.1.5,Win32,144.9275362,6100dfd366a4922c166c9a19,6691931c2c63981b064e1f0c,6691b66601f081bdb6eadfa2,,,,,,,,,,,,,,,,,,,,,,,,,,,,,,,,,,,,,,,,,,,,,,,,,,,,,,,,,,,,1160.4107,1168.0571,0.042592578,-0.039814808,1,0,0,1.6443,compass,0,14,14,32,1,SoundStimuli/Dilemma_NellyKellyRowland_Cover5S.wav,,,,,,,,,,,,,,,,,,,,,,,,,,,,,,,,,,,,,,,,,,,,,,,,,,,,,
,,,,,964911,001,2024-07-12_16h06.38.750,experiment,2024.1.5,Win32,144.9275362,6100dfd366a4922c166c9a19,6691931c2c63981b064e1f0c,6691b66601f081bdb6eadfa2,,,,,,,,,,,,,,,,,,,,,,,,,,,,,,,,,,,,,,,,,,,,,,,,,,,,,,,,,,,,1168.063,1174.5295,0.070370356,0.070370356,1,0,0,0.4649,compass,0,15,15,31,1,SoundStimuli/TossinAndTurnin_BobbyLewis_Original5S.wav,,,,,,,,,,,,,,,,,,,,,,,,,,,,,,,,,,,,,,,,,,,,,,,,,,,,,
,,,,,964911,001,2024-07-12_16h06.38.750,experiment,2024.1.5,Win32,144.9275362,6100dfd366a4922c166c9a19,6691931c2c63981b064e1f0c,6691b66601f081bdb6eadfa2,,,,,,,,,,,,,,,,,,,,,,,,,,,,,,,,,,,,,,,,,,,,,,,,,,,,,,,,,,,,1174.535,1183.8949,-0.081481439,0.044444437,1,0,0,3.3576,compass,0,16,16,33,1,SoundStimuli/TheBoyIsMine_BrandyMonica_Original5S.wav,,,,,,,,,,,,,,,,,,,,,,,,,,,,,,,,,,,,,,,,,,,,,,,,,,,,,
,,,,,964911,001,2024-07-12_16h06.38.750,experiment,2024.1.5,Win32,144.9275362,6100dfd366a4922c166c9a19,6691931c2c63981b064e1f0c,6691b66601f081bdb6eadfa2,,,,,,,,,,,,,,,,,,,,,,,,,,,,,,,,,,,,,,,,,,,,,,,,,,,,,,,,,,,,1183.9005,1191.1235,-0.081481439,0.107407393,1,0,0,1.2211,compass,0,17,17,15,1,SoundStimuli/CrazyInLove_BeyonceFtJayZ_Cover5S.wav,,,,,,,,,,,,,,,,,,,,,,,,,,,,,,,,,,,,,,,,,,,,,,,,,,,,,
,,,,,964911,001,2024-07-12_16h06.38.750,experiment,2024.1.5,Win32,144.9275362,6100dfd366a4922c166c9a19,6691931c2c63981b064e1f0c,6691b66601f081bdb6eadfa2,,,,,,,,,,,,,,,,,,,,,,,,,,,,,,,,,,,,,,,,,,,,,,,,,,,,,,,,,,,,1191.1288,1197.7142,0.083333333,-0.080555563,1,0,0,0.583,compass,0,18,18,4,1,SoundStimuli/Dreams_FleetwoodMac_Original5S.wav,,,,,,,,,,,,,,,,,,,,,,,,,,,,,,,,,,,,,,,,,,,,,,,,,,,,,
,,,,,964911,001,2024-07-12_16h06.38.750,experiment,2024.1.5,Win32,144.9275362,6100dfd366a4922c166c9a19,6691931c2c63981b064e1f0c,6691b66601f081bdb6eadfa2,,,,,,,,,,,,,,,,,,,,,,,,,,,,,,,,,,,,,,,,,,,,,,,,,,,,,,,,,,,,1197.7195,1204.7415,-0.134259259,0.12037037,1,0,0,1.02,compass,0,19,19,5,1,SoundStimuli/JoyToTheWorld_ThreeDogNight_Original5S.wav,,,,,,,,,,,,,,,,,,,,,,,,,,,,,,,,,,,,,,,,,,,,,,,,,,,,,
,,,,,964911,001,2024-07-12_16h06.38.750,experiment,2024.1.5,Win32,144.9275362,6100dfd366a4922c166c9a19,6691931c2c63981b064e1f0c,6691b66601f081bdb6eadfa2,,,,,,,,,,,,,,,,,,,,,,,,,,,,,,,,,,,,,,,,,,,,,,,,,,,,,,,,,,,,1204.7471,1210.9986,-0.198148162,-0.220370399,1,0,0,0.2497,compass,0,20,20,25,1,SoundStimuli/IllMakeLoveToYou_BoyzIIMen_Cover5S.wav,,,,,,,,,,,,,,,,,,,,,,,,,,,,,,,,,,,,,,,,,,,,,,,,,,,,,
,,,,,964911,001,2024-07-12_16h06.38.750,experiment,2024.1.5,Win32,144.9275362,6100dfd366a4922c166c9a19,6691931c2c63981b064e1f0c,6691b66601f081bdb6eadfa2,,,,,,,,,,,,,,,,,,,,,,,,,,,,,,,,,,,,,,,,,,,,,,,,,,,,,,,,,,,,1211.0039,1217.4851,-0.258333347,-0.281481496,1,0,0,0.4787,compass,0,21,21,12,1,SoundStimuli/UnbreakMyHeart_ToniBraxton_Original5S.wav,,,,,,,,,,,,,,,,,,,,,,,,,,,,,,,,,,,,,,,,,,,,,,,,,,,,,
,,,,,964911,001,2024-07-12_16h06.38.750,experiment,2024.1.5,Win32,144.9275362,6100dfd366a4922c166c9a19,6691931c2c63981b064e1f0c,6691b66601f081bdb6eadfa2,,,,,,,,,,,,,,,,,,,,,,,,,,,,,,,,,,,,,,,,,,,,,,,,,,,,,,,,,,,,1217.4903,1224.8245,-0.082407422,-0.062037044,1,0,0,1.3319,compass,0,22,22,29,1,SoundStimuli/BetteDavisEyes_KimCarnes_Original5S.wav,,,,,,,,,,,,,,,,,,,,,,,,,,,,,,,,,,,,,,,,,,,,,,,,,,,,,
,,,,,964911,001,2024-07-12_16h06.38.750,experiment,2024.1.5,Win32,144.9275362,6100dfd366a4922c166c9a19,6691931c2c63981b064e1f0c,6691b66601f081bdb6eadfa2,,,,,,,,,,,,,,,,,,,,,,,,,,,,,,,,,,,,,,,,,,,,,,,,,,,,,,,,,,,,1224.8303,1231.1446,-0.139814801,0.137962942,1,0,0,0.3119,compass,0,23,23,7,1,SoundStimuli/MackTheKnife_BobbyDarin_Cover5S.wav,,,,,,,,,,,,,,,,,,,,,,,,,,,,,,,,,,,,,,,,,,,,,,,,,,,,,
,,,,,964911,001,2024-07-12_16h06.38.750,experiment,2024.1.5,Win32,144.9275362,6100dfd366a4922c166c9a19,6691931c2c63981b064e1f0c,6691b66601f081bdb6eadfa2,,,,,,,,,,,,,,,,,,,,,,,,,,,,,,,,,,,,,,,,,,,,,,,,,,,,,,,,,,,,1231.1501,1237.1868,0.17777782,0.162037037,1,0,0,0.0348,compass,0,24,24,28,1,SoundStimuli/IWantToHoldYourHand_TheBeatles_Original5S.wav,,,,,,,,,,,,,,,,,,,,,,,,,,,,,,,,,,,,,,,,,,,,,,,,,,,,,
,,,,,964911,001,2024-07-12_16h06.38.750,experiment,2024.1.5,Win32,144.9275362,6100dfd366a4922c166c9a19,6691931c2c63981b064e1f0c,6691b66601f081bdb6eadfa2,,,,,,,,,,,,,,,,,,,,,,,,,,,,,,,,,,,,,,,,,,,,,,,,,,,,,,,,,,,,1237.1922,1243.6108,0.321296268,0.327777774,1,0,0,0.4162,compass,0,25,25,3,1,SoundStimuli/PartyRockAnthem_LMFAO_Original5S.wav,,,,,,,,,,,,,,,,,,,,,,,,,,,,,,,,,,,,,,,,,,,,,,,,,,,,,
,,,,,964911,001,2024-07-12_16h06.38.750,experiment,2024.1.5,Win32,144.9275362,6100dfd366a4922c166c9a19,6691931c2c63981b064e1f0c,6691b66601f081bdb6eadfa2,,,,,,,,,,,,,,,,,,,,,,,,,,,,,,,,,,,,,,,,,,,,,,,,,,,,,,,,,,,,1243.616,1250.4248,0.110185199,0.113888882,1,0,0,0.8062,compass,0,26,26,0,1,SoundStimuli/GimmeShelter_RollingStones_Original5S.wav,,,,,,,,,,,,,,,,,,,,,,,,,,,,,,,,,,,,,,,,,,,,,,,,,,,,,
,,,,,964911,001,2024-07-12_16h06.38.750,experiment,2024.1.5,Win32,144.9275362,6100dfd366a4922c166c9a19,6691931c2c63981b064e1f0c,6691b66601f081bdb6eadfa2,,,,,,,,,,,,,,,,,,,,,,,,,,,,,,,,,,,,,,,,,,,,,,,,,,,,,,,,,,,,1250.4309,1257.3257,0.169444473,-0.193518533,1,0,0,0.888,compass,0,27,27,9,1,SoundStimuli/HowDoILive_LeAnnRimes_Cover5S.wav,,,,,,,,,,,,,,,,,,,,,,,,,,,,,,,,,,,,,,,,,,,,,,,,,,,,,
,,,,,964911,001,2024-07-12_16h06.38.750,experiment,2024.1.5,Win32,144.9275362,6100dfd366a4922c166c9a19,6691931c2c63981b064e1f0c,6691b66601f081bdb6eadfa2,,,,,,,,,,,,,,,,,,,,,,,,,,,,,,,,,,,,,,,,,,,,,,,,,,,,,,,,,,,,1257.331,1263.5277,-0.287037037,-0.294444473,1,0,0,0.1943,compass,0,28,28,6,1,SoundStimuli/SaveYourTears_TheWeekndArianaGrande_Cover5S.wav,,,,,,,,,,,,,,,,,,,,,,,,,,,,,,,,,,,,,,,,,,,,,,,,,,,,,
,,,,,964911,001,2024-07-12_16h06.38.750,experiment,2024.1.5,Win32,144.9275362,6100dfd366a4922c166c9a19,6691931c2c63981b064e1f0c,6691b66601f081bdb6eadfa2,,,,,,,,,,,,,,,,,,,,,,,,,,,,,,,,,,,,,,,,,,,,,,,,,,,,,,,,,,,,1263.533,1270.1736,0.172222208,-0.179629644,1,0,0,0.6383,compass,0,29,29,18,1,SoundStimuli/Weak_SWV_Cover5S.wav,,,,,,,,,,,,,,,,,,,,,,,,,,,,,,,,,,,,,,,,,,,,,,,,,,,,,
,,,,,964911,001,2024-07-12_16h06.38.750,experiment,2024.1.5,Win32,144.9275362,6100dfd366a4922c166c9a19,6691931c2c63981b064e1f0c,6691b66601f081bdb6eadfa2,,,,,,,,,,,,,,,,,,,,,,,,,,,,,,,,,,,,,,,,,,,,,,,,,,,,,,,,,,,,1270.1793,1276.5488,0.309259344,0.312037026,1,0,0,0.3674,compass,0,30,30,22,1,SoundStimuli/Happy_PharellWilliams_Original5S.wav,,,,,,,,,,,,,,,,,,,,,,,,,,,,,,,,,,,,,,,,,,,,,,,,,,,,,
,,,,,964911,001,2024-07-12_16h06.38.750,experiment,2024.1.5,Win32,144.9275362,6100dfd366a4922c166c9a19,6691931c2c63981b064e1f0c,6691b66601f081bdb6eadfa2,,,,,,,,,,,,,,,,,,,,,,,,,,,,,,,,,,,,,,,,,,,,,,,,,,,,,,,,,,,,1276.5541,1282.938,0.279629672,0.289814808,1,0,0,0.3815,compass,0,31,31,17,1,SoundStimuli/IWannaDanceWithSomebody_WhitneyHouston_Original5S.wav,,,,,,,,,,,,,,,,,,,,,,,,,,,,,,,,,,,,,,,,,,,,,,,,,,,,,
,,,,,964911,001,2024-07-12_16h06.38.750,experiment,2024.1.5,Win32,144.9275362,6100dfd366a4922c166c9a19,6691931c2c63981b064e1f0c,6691b66601f081bdb6eadfa2,,,,,,,,,,,,,,,,,,,,,,,,,,,,,,,,,,,,,,,,,,,,,,,,,,,,,,,,,,,,1282.9431,1289.2856,-0.299074067,0.287037037,1,0,0,0.34,compass,0,32,32,30,1,SoundStimuli/SomebodyThatIUsedtoKnow_Gotye_Original5S.wav,,,,,,,,,,,,,,,,,,,,,,,,,,,,,,,,,,,,,,,,,,,,,,,,,,,,,
,,,,,964911,001,2024-07-12_16h06.38.750,experiment,2024.1.5,Win32,144.9275362,6100dfd366a4922c166c9a19,6691931c2c63981b064e1f0c,6691b66601f081bdb6eadfa2,,,,,,,,,,,,,,,,,,,,,,,,,,,,,,,,,,,,,,,,,,,,,,,,,,,,,,,,,,,,1289.2908,1302.8828,0.044444473,0.147222201,1,0,0,7.5894,compass,0,33,33,11,1,SoundStimuli/BlurredLines_RobinThicke_Cover5S.wav,,,,,,,,,,,,,,,,,,,,,,,,,,,,,,,,,,,,,,,,,,,,,,,,,,,,,
,,,,,964911,001,2024-07-12_16h06.38.750,experiment,2024.1.5,Win32,144.9275362,6100dfd366a4922c166c9a19,6691931c2c63981b064e1f0c,6691b66601f081bdb6eadfa2,,,,,,,,,,,,,,,,,,,,,,,,,,,,,,,,,,,,,,,,,,,,,,,,,,,,,,,,,,,,1302.8887,1309.1749,-0.123148106,-0.112963005,1,0,0,0.2844,compass,0,34,34,23,1,SoundStimuli/IWalkTheLine_JohnnyCash_Original5S.wav,,,,,,,,,,,,,,,,,,,,,,,,,,,,,,,,,,,,,,,,,,,,,,,,,,,,,
,,,,,964911,001,2024-07-12_16h06.38.750,experiment,2024.1.5,Win32,144.9275362,6100dfd366a4922c166c9a19,6691931c2c63981b064e1f0c,6691b66601f081bdb6eadfa2,,,,,,,,,,,,,,,,,,,,,,,,,,,,,,,,,,,,,,,,,,,,,,,,,,,,,,,,,,,,,,,,,,,,,,,,,,,1309.18,1309.1801,,,,1309.1801,1309.1801,,,,0,3,3,3,1,block_order/blockD.xlsx,,,,,,,,,,,,,,,,,,,,,,,,,,,,,,,,,,,,,
,,,,,964911,001,2024-07-12_16h06.38.750,experiment,2024.1.5,Win32,144.9275362,6100dfd366a4922c166c9a19,6691931c2c63981b064e1f0c,6691b66601f081bdb6eadfa2,,,,,,,,,,,,,,,,,,,,,,,,,,,,,,,,,,,,,,,,,,,,,,,,,,,,,,,,,,,,,,,,,,,,,,,,,,,,,,,,,,,,,,,,,,,31,Item 2,not a musician but have always loved music especially during my teen years all I did was seek out new artist and songs,Item 4,"youtube, apple music",4,6,"driving, playing games, relaxing",Rarely,Never,Never,Rarely,Often,Always,Rarely,Rarely,Often,Rarely,Rarely,Never,Never,Never,Never,Never,n/a,rap,hip hip ,alternative rock,I use to listen to music constantly and as I got older it became less and less. Now I only listen during certain activities and tend to enjoy the silence more now. ,If there is a song that I like I will listen to it over and over again. ,0,0,0,0,1,,
,,,,,964911,001,2024-07-12_16h06.38.750,experiment,2024.1.5,Win32,144.9275362,6100dfd366a4922c166c9a19,6691931c2c63981b064e1f0c,6691b66601f081bdb6eadfa2,,,,,,,,,,,,,,,,,,,,,,,,,,,,,,,,,,,,,,,,,,,,,,,,,,,,,,,,,,,,,,,,,,,,,,,,,,,,,,,,,,,,,,,,,,,,,,,,,,,,,,,,,,,,,,,,,,,,,,,,,,,,,,1537.2143,1539.344
