participant,welcome.started,welcome.stopped,space_to_continue.rt,consent_check.started,consent_check.stopped,calibration_ready.started,calibration_ready.stopped,cal_ready.rt,calibration.started,calibration.stopped,move_on.rt,instructions.started,instructions.stopped,next.rt,practice_trial.started,practice_trial.stopped,practice_slider.rt,ready.started,ready.stopped,key_resp.rt,play_sound.started,play_sound.stopped,rating.started,rating.stopped,slider.rt,short_break.started,short_break.stopped,space_to_move_on.rt,goodbye.started,goodbye.stopped
910590,0.0131,2.3541,2.3045,NA,NA,NA,NA,NA,NA,NA,NA,NA,NA,NA,NA,NA,NA,NA,NA,NA,NA,NA,NA,NA,NA,NA,NA,NA,NA,NA
910590,NA,NA,NA,NA,NA,NA,NA,NA,NA,NA,NA,NA,NA,NA,NA,NA,NA,NA,NA,NA,NA,NA,NA,NA,NA,NA,NA,NA,NA,NA
910590,NA,NA,NA,28.6912,28.6918,NA,NA,NA,NA,NA,NA,NA,NA,NA,NA,NA,NA,NA,NA,NA,NA,NA,NA,NA,NA,NA,NA,NA,NA,NA
910590,NA,NA,NA,NA,NA,28.6994,34.6583,5.9237,34.6586,81.0539,36.3369,81.0546,93.6574,12.5503,93.6582,117.4062,23.7241,117.4067,121.0594,3.6238,121.1355,127.3068,NA,NA,NA,NA,NA,NA,NA,NA
910590,NA,NA,NA,NA,NA,NA,NA,NA,NA,NA,NA,NA,NA,NA,NA,NA,NA,NA,NA,NA,127.3238,133.6249,NA,NA,NA,NA,NA,NA,NA,NA
910590,NA,NA,NA,NA,NA,NA,NA,NA,NA,NA,NA,NA,NA,NA,NA,NA,NA,NA,NA,NA,NA,NA,133.6433,135.3707,1.7212,NA,NA,NA,NA,NA
910590,NA,NA,NA,NA,NA,NA,NA,NA,NA,NA,NA,NA,NA,NA,NA,NA,NA,NA,NA,NA,135.3748,142.2309,NA,NA,NA,NA,NA,NA,NA,NA
910590,NA,NA,NA,NA,NA,NA,NA,NA,NA,NA,NA,NA,NA,NA,NA,NA,NA,NA,NA,NA,142.2469,147.8767,NA,NA,NA,NA,NA,NA,NA,NA
910590,NA,NA,NA,NA,NA,NA,NA,NA,NA,NA,NA,NA,NA,NA,NA,NA,NA,NA,NA,NA,NA,NA,147.877,149.3262,1.4273,NA,NA,NA,NA,NA
910590,NA,NA,NA,NA,NA,NA,NA,NA,NA,NA,NA,NA,NA,NA,NA,NA,NA,NA,NA,NA,149.3282,155.4545,NA,NA,NA,NA,NA,NA,NA,NA
910590,NA,NA,NA,NA,NA,NA,NA,NA,NA,NA,NA,NA,NA,NA,NA,NA,NA,NA,NA,NA,155.4723,161.3536,NA,NA,NA,NA,NA,NA,NA,NA
910590,NA,NA,NA,NA,NA,NA,NA,NA,NA,NA,NA,NA,NA,NA,NA,NA,NA,NA,NA,NA,NA,NA,161.3538,164.8031,3.4285,NA,NA,NA,NA,NA
910590,NA,NA,NA,NA,NA,NA,NA,NA,NA,NA,NA,NA,NA,NA,NA,NA,NA,NA,NA,NA,164.8088,170.7814,NA,NA,NA,NA,NA,NA,NA,NA
910590,NA,NA,NA,NA,NA,NA,NA,NA,NA,NA,NA,NA,NA,NA,NA,NA,NA,NA,NA,NA,170.8014,176.8984,NA,NA,NA,NA,NA,NA,NA,NA
910590,NA,NA,NA,NA,NA,NA,NA,NA,NA,NA,NA,NA,NA,NA,NA,NA,NA,NA,NA,NA,NA,NA,176.8987,185.3962,8.4775,NA,NA,NA,NA,NA
910590,NA,NA,NA,NA,NA,NA,NA,NA,NA,NA,NA,NA,NA,NA,NA,NA,NA,NA,NA,NA,185.3988,193.7153,NA,NA,NA,NA,NA,NA,NA,NA
910590,NA,NA,NA,NA,NA,NA,NA,NA,NA,NA,NA,NA,NA,NA,NA,NA,NA,NA,NA,NA,193.7318,202.6198,NA,NA,NA,NA,NA,NA,NA,NA
910590,NA,NA,NA,NA,NA,NA,NA,NA,NA,NA,NA,NA,NA,NA,NA,NA,NA,NA,NA,NA,NA,NA,202.6201,203.6809,1.0383,NA,NA,NA,NA,NA
910590,NA,NA,NA,NA,NA,NA,NA,NA,NA,NA,NA,NA,NA,NA,NA,NA,NA,NA,NA,NA,203.6831,210.2218,NA,NA,NA,NA,NA,NA,NA,NA
910590,NA,NA,NA,NA,NA,NA,NA,NA,NA,NA,NA,NA,NA,NA,NA,NA,NA,NA,NA,NA,210.2402,217.6233,NA,NA,NA,NA,NA,NA,NA,NA
910590,NA,NA,NA,NA,NA,NA,NA,NA,NA,NA,NA,NA,NA,NA,NA,NA,NA,NA,NA,NA,NA,NA,217.6237,226.1175,8.4749,NA,NA,NA,NA,NA
910590,NA,NA,NA,NA,NA,NA,NA,NA,NA,NA,NA,NA,NA,NA,NA,NA,NA,NA,NA,NA,226.1208,232.1623,NA,NA,NA,NA,NA,NA,NA,NA
910590,NA,NA,NA,NA,NA,NA,NA,NA,NA,NA,NA,NA,NA,NA,NA,NA,NA,NA,NA,NA,232.1779,238.0134,NA,NA,NA,NA,NA,NA,NA,NA
910590,NA,NA,NA,NA,NA,NA,NA,NA,NA,NA,NA,NA,NA,NA,NA,NA,NA,NA,NA,NA,NA,NA,238.0137,239.2633,1.2294,NA,NA,NA,NA,NA
910590,NA,NA,NA,NA,NA,NA,NA,NA,NA,NA,NA,NA,NA,NA,NA,NA,NA,NA,NA,NA,239.2671,245.5367,NA,NA,NA,NA,NA,NA,NA,NA
910590,NA,NA,NA,NA,NA,NA,NA,NA,NA,NA,NA,NA,NA,NA,NA,NA,NA,NA,NA,NA,245.5568,251.699,NA,NA,NA,NA,NA,NA,NA,NA
910590,NA,NA,NA,NA,NA,NA,NA,NA,NA,NA,NA,NA,NA,NA,NA,NA,NA,NA,NA,NA,NA,NA,251.6992,253.0908,1.3707,NA,NA,NA,NA,NA
910590,NA,NA,NA,NA,NA,NA,NA,NA,NA,NA,NA,NA,NA,NA,NA,NA,NA,NA,NA,NA,253.0931,259.734,NA,NA,NA,NA,NA,NA,NA,NA
910590,NA,NA,NA,NA,NA,NA,NA,NA,NA,NA,NA,NA,NA,NA,NA,NA,NA,NA,NA,NA,259.7505,266.3295,NA,NA,NA,NA,NA,NA,NA,NA
910590,NA,NA,NA,NA,NA,NA,NA,NA,NA,NA,NA,NA,NA,NA,NA,NA,NA,NA,NA,NA,NA,NA,266.3298,267.5732,1.2219,NA,NA,NA,NA,NA
910590,NA,NA,NA,NA,NA,NA,NA,NA,NA,NA,NA,NA,NA,NA,NA,NA,NA,NA,NA,NA,267.5748,274.0551,NA,NA,NA,NA,NA,NA,NA,NA
910590,NA,NA,NA,NA,NA,NA,NA,NA,NA,NA,NA,NA,NA,NA,NA,NA,NA,NA,NA,NA,274.0724,281.6268,NA,NA,NA,NA,NA,NA,NA,NA
910590,NA,NA,NA,NA,NA,NA,NA,NA,NA,NA,NA,NA,NA,NA,NA,NA,NA,NA,NA,NA,NA,NA,281.6273,284.4509,2.7863,NA,NA,NA,NA,NA
910590,NA,NA,NA,NA,NA,NA,NA,NA,NA,NA,NA,NA,NA,NA,NA,NA,NA,NA,NA,NA,284.4533,290.8565,NA,NA,NA,NA,NA,NA,NA,NA
910590,NA,NA,NA,NA,NA,NA,NA,NA,NA,NA,NA,NA,NA,NA,NA,NA,NA,NA,NA,NA,290.8748,298.5734,NA,NA,NA,NA,NA,NA,NA,NA
910590,NA,NA,NA,NA,NA,NA,NA,NA,NA,NA,NA,NA,NA,NA,NA,NA,NA,NA,NA,NA,NA,NA,298.5735,304.7559,6.15,NA,NA,NA,NA,NA
910590,NA,NA,NA,NA,NA,NA,NA,NA,NA,NA,NA,NA,NA,NA,NA,NA,NA,NA,NA,NA,304.7574,310.9149,NA,NA,NA,NA,NA,NA,NA,NA
910590,NA,NA,NA,NA,NA,NA,NA,NA,NA,NA,NA,NA,NA,NA,NA,NA,NA,NA,NA,NA,310.9315,315.3132,NA,NA,NA,NA,NA,NA,NA,NA
910590,NA,NA,NA,NA,NA,NA,NA,NA,NA,NA,NA,NA,NA,NA,NA,NA,NA,NA,NA,NA,NA,NA,315.3135,319.0423,3.7075,NA,NA,NA,NA,NA
910590,NA,NA,NA,NA,NA,NA,NA,NA,NA,NA,NA,NA,NA,NA,NA,NA,NA,NA,NA,NA,319.0448,325.7704,NA,NA,NA,NA,NA,NA,NA,NA
910590,NA,NA,NA,NA,NA,NA,NA,NA,NA,NA,NA,NA,NA,NA,NA,NA,NA,NA,NA,NA,325.7871,332.1221,NA,NA,NA,NA,NA,NA,NA,NA
910590,NA,NA,NA,NA,NA,NA,NA,NA,NA,NA,NA,NA,NA,NA,NA,NA,NA,NA,NA,NA,NA,NA,332.1224,333.1764,1.036,NA,NA,NA,NA,NA
910590,NA,NA,NA,NA,NA,NA,NA,NA,NA,NA,NA,NA,NA,NA,NA,NA,NA,NA,NA,NA,333.1812,337.9168,NA,NA,NA,NA,NA,NA,NA,NA
910590,NA,NA,NA,NA,NA,NA,NA,NA,NA,NA,NA,NA,NA,NA,NA,NA,NA,NA,NA,NA,337.9331,343.9617,NA,NA,NA,NA,NA,NA,NA,NA
910590,NA,NA,NA,NA,NA,NA,NA,NA,NA,NA,NA,NA,NA,NA,NA,NA,NA,NA,NA,NA,NA,NA,343.962,346.4351,2.4504,NA,NA,NA,NA,NA
910590,NA,NA,NA,NA,NA,NA,NA,NA,NA,NA,NA,NA,NA,NA,NA,NA,NA,NA,NA,NA,346.4366,352.4178,NA,NA,NA,NA,NA,NA,NA,NA
910590,NA,NA,NA,NA,NA,NA,NA,NA,NA,NA,NA,NA,NA,NA,NA,NA,NA,NA,NA,NA,352.4341,356.5131,NA,NA,NA,NA,NA,NA,NA,NA
910590,NA,NA,NA,NA,NA,NA,NA,NA,NA,NA,NA,NA,NA,NA,NA,NA,NA,NA,NA,NA,NA,NA,356.5133,358.5923,2.0613,NA,NA,NA,NA,NA
910590,NA,NA,NA,NA,NA,NA,NA,NA,NA,NA,NA,NA,NA,NA,NA,NA,NA,NA,NA,NA,358.5941,364.9167,NA,NA,NA,NA,NA,NA,NA,NA
910590,NA,NA,NA,NA,NA,NA,NA,NA,NA,NA,NA,NA,NA,NA,NA,NA,NA,NA,NA,NA,364.9326,373.2481,NA,NA,NA,NA,NA,NA,NA,NA
910590,NA,NA,NA,NA,NA,NA,NA,NA,NA,NA,NA,NA,NA,NA,NA,NA,NA,NA,NA,NA,NA,NA,373.2483,374.2913,1.0208,NA,NA,NA,NA,NA
910590,NA,NA,NA,NA,NA,NA,NA,NA,NA,NA,NA,NA,NA,NA,NA,NA,NA,NA,NA,NA,374.2934,380.5757,NA,NA,NA,NA,NA,NA,NA,NA
910590,NA,NA,NA,NA,NA,NA,NA,NA,NA,NA,NA,NA,NA,NA,NA,NA,NA,NA,NA,NA,380.597,386.8092,NA,NA,NA,NA,NA,NA,NA,NA
910590,NA,NA,NA,NA,NA,NA,NA,NA,NA,NA,NA,NA,NA,NA,NA,NA,NA,NA,NA,NA,NA,NA,386.8096,388.88,2.0491,NA,NA,NA,NA,NA
910590,NA,NA,NA,NA,NA,NA,NA,NA,NA,NA,NA,NA,NA,NA,NA,NA,NA,NA,NA,NA,388.8836,394.9883,NA,NA,NA,NA,NA,NA,NA,NA
910590,NA,NA,NA,NA,NA,NA,NA,NA,NA,NA,NA,NA,NA,NA,NA,NA,NA,NA,NA,NA,395.0138,403.1859,NA,NA,NA,NA,NA,NA,NA,NA
910590,NA,NA,NA,NA,NA,NA,NA,NA,NA,NA,NA,NA,NA,NA,NA,NA,NA,NA,NA,NA,NA,NA,403.1862,406.1408,2.9356,NA,NA,NA,NA,NA
910590,NA,NA,NA,NA,NA,NA,NA,NA,NA,NA,NA,NA,NA,NA,NA,NA,NA,NA,NA,NA,406.1432,412.4071,NA,NA,NA,NA,NA,NA,NA,NA
910590,NA,NA,NA,NA,NA,NA,NA,NA,NA,NA,NA,NA,NA,NA,NA,NA,NA,NA,NA,NA,412.4239,420.1804,NA,NA,NA,NA,NA,NA,NA,NA
910590,NA,NA,NA,NA,NA,NA,NA,NA,NA,NA,NA,NA,NA,NA,NA,NA,NA,NA,NA,NA,NA,NA,420.1806,422.7557,2.5469,NA,NA,NA,NA,NA
910590,NA,NA,NA,NA,NA,NA,NA,NA,NA,NA,NA,NA,NA,NA,NA,NA,NA,NA,NA,NA,422.7573,431.4175,NA,NA,NA,NA,NA,NA,NA,NA
910590,NA,NA,NA,NA,NA,NA,NA,NA,NA,NA,NA,NA,NA,NA,NA,NA,NA,NA,NA,NA,431.4399,437.5788,NA,NA,NA,NA,NA,NA,NA,NA
910590,NA,NA,NA,NA,NA,NA,NA,NA,NA,NA,NA,NA,NA,NA,NA,NA,NA,NA,NA,NA,NA,NA,437.5794,440.3339,2.7336,NA,NA,NA,NA,NA
910590,NA,NA,NA,NA,NA,NA,NA,NA,NA,NA,NA,NA,NA,NA,NA,NA,NA,NA,NA,NA,440.3382,447.8903,NA,NA,NA,NA,NA,NA,NA,NA
910590,NA,NA,NA,NA,NA,NA,NA,NA,NA,NA,NA,NA,NA,NA,NA,NA,NA,NA,NA,NA,447.9075,454.2775,NA,NA,NA,NA,NA,NA,NA,NA
910590,NA,NA,NA,NA,NA,NA,NA,NA,NA,NA,NA,NA,NA,NA,NA,NA,NA,NA,NA,NA,NA,NA,454.2777,456.5153,2.215,NA,NA,NA,NA,NA
910590,NA,NA,NA,NA,NA,NA,NA,NA,NA,NA,NA,NA,NA,NA,NA,NA,NA,NA,NA,NA,456.5186,463.5663,NA,NA,NA,NA,NA,NA,NA,NA
910590,NA,NA,NA,NA,NA,NA,NA,NA,NA,NA,NA,NA,NA,NA,NA,NA,NA,NA,NA,NA,463.5822,469.7292,NA,NA,NA,NA,NA,NA,NA,NA
910590,NA,NA,NA,NA,NA,NA,NA,NA,NA,NA,NA,NA,NA,NA,NA,NA,NA,NA,NA,NA,NA,NA,469.7294,471.3961,1.6454,NA,NA,NA,NA,NA
910590,NA,NA,NA,NA,NA,NA,NA,NA,NA,NA,NA,NA,NA,NA,NA,NA,NA,NA,NA,NA,471.3982,478.3137,NA,NA,NA,NA,NA,NA,NA,NA
910590,NA,NA,NA,NA,NA,NA,NA,NA,NA,NA,NA,NA,NA,NA,NA,NA,NA,NA,NA,NA,478.3299,484.6066,NA,NA,NA,NA,NA,NA,NA,NA
910590,NA,NA,NA,NA,NA,NA,NA,NA,NA,NA,NA,NA,NA,NA,NA,NA,NA,NA,NA,NA,NA,NA,484.6068,487.2999,2.6733,NA,NA,NA,NA,NA
910590,NA,NA,NA,NA,NA,NA,NA,NA,NA,NA,NA,NA,NA,NA,NA,NA,NA,NA,NA,NA,NA,NA,NA,NA,NA,487.3013,700.7137,213.3586,NA,NA
910590,NA,NA,NA,NA,NA,NA,NA,NA,NA,NA,NA,NA,NA,NA,NA,NA,NA,NA,NA,NA,700.7202,705.9197,NA,NA,NA,NA,NA,NA,NA,NA
910590,NA,NA,NA,NA,NA,NA,NA,NA,NA,NA,NA,NA,NA,NA,NA,NA,NA,NA,NA,NA,705.965,712.1167,NA,NA,NA,NA,NA,NA,NA,NA
910590,NA,NA,NA,NA,NA,NA,NA,NA,NA,NA,NA,NA,NA,NA,NA,NA,NA,NA,NA,NA,NA,NA,712.1169,714.5213,2.3872,NA,NA,NA,NA,NA
910590,NA,NA,NA,NA,NA,NA,NA,NA,NA,NA,NA,NA,NA,NA,NA,NA,NA,NA,NA,NA,714.5247,721.074,NA,NA,NA,NA,NA,NA,NA,NA
910590,NA,NA,NA,NA,NA,NA,NA,NA,NA,NA,NA,NA,NA,NA,NA,NA,NA,NA,NA,NA,721.0977,727.2258,NA,NA,NA,NA,NA,NA,NA,NA
910590,NA,NA,NA,NA,NA,NA,NA,NA,NA,NA,NA,NA,NA,NA,NA,NA,NA,NA,NA,NA,NA,NA,727.2261,728.6891,1.4343,NA,NA,NA,NA,NA
910590,NA,NA,NA,NA,NA,NA,NA,NA,NA,NA,NA,NA,NA,NA,NA,NA,NA,NA,NA,NA,728.6906,734.8817,NA,NA,NA,NA,NA,NA,NA,NA
910590,NA,NA,NA,NA,NA,NA,NA,NA,NA,NA,NA,NA,NA,NA,NA,NA,NA,NA,NA,NA,734.8993,740.9481,NA,NA,NA,NA,NA,NA,NA,NA
910590,NA,NA,NA,NA,NA,NA,NA,NA,NA,NA,NA,NA,NA,NA,NA,NA,NA,NA,NA,NA,NA,NA,740.9484,743.3217,2.3544,NA,NA,NA,NA,NA
910590,NA,NA,NA,NA,NA,NA,NA,NA,NA,NA,NA,NA,NA,NA,NA,NA,NA,NA,NA,NA,743.3243,749.4472,NA,NA,NA,NA,NA,NA,NA,NA
910590,NA,NA,NA,NA,NA,NA,NA,NA,NA,NA,NA,NA,NA,NA,NA,NA,NA,NA,NA,NA,749.4622,756.5291,NA,NA,NA,NA,NA,NA,NA,NA
910590,NA,NA,NA,NA,NA,NA,NA,NA,NA,NA,NA,NA,NA,NA,NA,NA,NA,NA,NA,NA,NA,NA,756.5294,758.7724,2.224,NA,NA,NA,NA,NA
910590,NA,NA,NA,NA,NA,NA,NA,NA,NA,NA,NA,NA,NA,NA,NA,NA,NA,NA,NA,NA,758.7741,764.8844,NA,NA,NA,NA,NA,NA,NA,NA
910590,NA,NA,NA,NA,NA,NA,NA,NA,NA,NA,NA,NA,NA,NA,NA,NA,NA,NA,NA,NA,764.9006,768.8889,NA,NA,NA,NA,NA,NA,NA,NA
910590,NA,NA,NA,NA,NA,NA,NA,NA,NA,NA,NA,NA,NA,NA,NA,NA,NA,NA,NA,NA,NA,NA,768.8891,771.7649,2.8547,NA,NA,NA,NA,NA
910590,NA,NA,NA,NA,NA,NA,NA,NA,NA,NA,NA,NA,NA,NA,NA,NA,NA,NA,NA,NA,771.7681,777.5635,NA,NA,NA,NA,NA,NA,NA,NA
910590,NA,NA,NA,NA,NA,NA,NA,NA,NA,NA,NA,NA,NA,NA,NA,NA,NA,NA,NA,NA,777.5819,783.6397,NA,NA,NA,NA,NA,NA,NA,NA
910590,NA,NA,NA,NA,NA,NA,NA,NA,NA,NA,NA,NA,NA,NA,NA,NA,NA,NA,NA,NA,NA,NA,783.64,785.991,2.3302,NA,NA,NA,NA,NA
910590,NA,NA,NA,NA,NA,NA,NA,NA,NA,NA,NA,NA,NA,NA,NA,NA,NA,NA,NA,NA,785.9929,793.6041,NA,NA,NA,NA,NA,NA,NA,NA
910590,NA,NA,NA,NA,NA,NA,NA,NA,NA,NA,NA,NA,NA,NA,NA,NA,NA,NA,NA,NA,793.6205,799.8541,NA,NA,NA,NA,NA,NA,NA,NA
910590,NA,NA,NA,NA,NA,NA,NA,NA,NA,NA,NA,NA,NA,NA,NA,NA,NA,NA,NA,NA,NA,NA,799.8543,801.2539,1.3801,NA,NA,NA,NA,NA
910590,NA,NA,NA,NA,NA,NA,NA,NA,NA,NA,NA,NA,NA,NA,NA,NA,NA,NA,NA,NA,801.2575,807.9125,NA,NA,NA,NA,NA,NA,NA,NA
910590,NA,NA,NA,NA,NA,NA,NA,NA,NA,NA,NA,NA,NA,NA,NA,NA,NA,NA,NA,NA,807.9291,814.3116,NA,NA,NA,NA,NA,NA,NA,NA
910590,NA,NA,NA,NA,NA,NA,NA,NA,NA,NA,NA,NA,NA,NA,NA,NA,NA,NA,NA,NA,NA,NA,814.3118,816.3653,2.0351,NA,NA,NA,NA,NA
910590,NA,NA,NA,NA,NA,NA,NA,NA,NA,NA,NA,NA,NA,NA,NA,NA,NA,NA,NA,NA,816.3669,823.4026,NA,NA,NA,NA,NA,NA,NA,NA
910590,NA,NA,NA,NA,NA,NA,NA,NA,NA,NA,NA,NA,NA,NA,NA,NA,NA,NA,NA,NA,823.4186,829.6889,NA,NA,NA,NA,NA,NA,NA,NA
910590,NA,NA,NA,NA,NA,NA,NA,NA,NA,NA,NA,NA,NA,NA,NA,NA,NA,NA,NA,NA,NA,NA,829.6892,831.9892,2.2797,NA,NA,NA,NA,NA
910590,NA,NA,NA,NA,NA,NA,NA,NA,NA,NA,NA,NA,NA,NA,NA,NA,NA,NA,NA,NA,831.9912,838.0783,NA,NA,NA,NA,NA,NA,NA,NA
910590,NA,NA,NA,NA,NA,NA,NA,NA,NA,NA,NA,NA,NA,NA,NA,NA,NA,NA,NA,NA,838.0957,844.5842,NA,NA,NA,NA,NA,NA,NA,NA
910590,NA,NA,NA,NA,NA,NA,NA,NA,NA,NA,NA,NA,NA,NA,NA,NA,NA,NA,NA,NA,NA,NA,844.5845,846.9828,2.3771,NA,NA,NA,NA,NA
910590,NA,NA,NA,NA,NA,NA,NA,NA,NA,NA,NA,NA,NA,NA,NA,NA,NA,NA,NA,NA,846.9848,853.1144,NA,NA,NA,NA,NA,NA,NA,NA
910590,NA,NA,NA,NA,NA,NA,NA,NA,NA,NA,NA,NA,NA,NA,NA,NA,NA,NA,NA,NA,853.1312,859.2275,NA,NA,NA,NA,NA,NA,NA,NA
910590,NA,NA,NA,NA,NA,NA,NA,NA,NA,NA,NA,NA,NA,NA,NA,NA,NA,NA,NA,NA,NA,NA,859.2278,861.0066,1.7562,NA,NA,NA,NA,NA
910590,NA,NA,NA,NA,NA,NA,NA,NA,NA,NA,NA,NA,NA,NA,NA,NA,NA,NA,NA,NA,861.0095,867.5266,NA,NA,NA,NA,NA,NA,NA,NA
910590,NA,NA,NA,NA,NA,NA,NA,NA,NA,NA,NA,NA,NA,NA,NA,NA,NA,NA,NA,NA,867.545,875.3909,NA,NA,NA,NA,NA,NA,NA,NA
910590,NA,NA,NA,NA,NA,NA,NA,NA,NA,NA,NA,NA,NA,NA,NA,NA,NA,NA,NA,NA,NA,NA,875.3911,876.7187,1.3036,NA,NA,NA,NA,NA
910590,NA,NA,NA,NA,NA,NA,NA,NA,NA,NA,NA,NA,NA,NA,NA,NA,NA,NA,NA,NA,876.7204,882.2727,NA,NA,NA,NA,NA,NA,NA,NA
910590,NA,NA,NA,NA,NA,NA,NA,NA,NA,NA,NA,NA,NA,NA,NA,NA,NA,NA,NA,NA,882.2902,888.3465,NA,NA,NA,NA,NA,NA,NA,NA
910590,NA,NA,NA,NA,NA,NA,NA,NA,NA,NA,NA,NA,NA,NA,NA,NA,NA,NA,NA,NA,NA,NA,888.3468,889.5992,1.2297,NA,NA,NA,NA,NA
910590,NA,NA,NA,NA,NA,NA,NA,NA,NA,NA,NA,NA,NA,NA,NA,NA,NA,NA,NA,NA,889.6012,896.4607,NA,NA,NA,NA,NA,NA,NA,NA
910590,NA,NA,NA,NA,NA,NA,NA,NA,NA,NA,NA,NA,NA,NA,NA,NA,NA,NA,NA,NA,896.483,903.0255,NA,NA,NA,NA,NA,NA,NA,NA
910590,NA,NA,NA,NA,NA,NA,NA,NA,NA,NA,NA,NA,NA,NA,NA,NA,NA,NA,NA,NA,NA,NA,903.026,904.9515,1.9066,NA,NA,NA,NA,NA
910590,NA,NA,NA,NA,NA,NA,NA,NA,NA,NA,NA,NA,NA,NA,NA,NA,NA,NA,NA,NA,904.9544,911.8092,NA,NA,NA,NA,NA,NA,NA,NA
910590,NA,NA,NA,NA,NA,NA,NA,NA,NA,NA,NA,NA,NA,NA,NA,NA,NA,NA,NA,NA,911.8245,918.8879,NA,NA,NA,NA,NA,NA,NA,NA
910590,NA,NA,NA,NA,NA,NA,NA,NA,NA,NA,NA,NA,NA,NA,NA,NA,NA,NA,NA,NA,NA,NA,918.8883,921.6089,2.7,NA,NA,NA,NA,NA
910590,NA,NA,NA,NA,NA,NA,NA,NA,NA,NA,NA,NA,NA,NA,NA,NA,NA,NA,NA,NA,921.6106,927.683,NA,NA,NA,NA,NA,NA,NA,NA
910590,NA,NA,NA,NA,NA,NA,NA,NA,NA,NA,NA,NA,NA,NA,NA,NA,NA,NA,NA,NA,927.6989,933.6819,NA,NA,NA,NA,NA,NA,NA,NA
910590,NA,NA,NA,NA,NA,NA,NA,NA,NA,NA,NA,NA,NA,NA,NA,NA,NA,NA,NA,NA,NA,NA,933.6821,937.8087,4.1077,NA,NA,NA,NA,NA
910590,NA,NA,NA,NA,NA,NA,NA,NA,NA,NA,NA,NA,NA,NA,NA,NA,NA,NA,NA,NA,937.8107,944.6376,NA,NA,NA,NA,NA,NA,NA,NA
910590,NA,NA,NA,NA,NA,NA,NA,NA,NA,NA,NA,NA,NA,NA,NA,NA,NA,NA,NA,NA,944.655,951.932,NA,NA,NA,NA,NA,NA,NA,NA
910590,NA,NA,NA,NA,NA,NA,NA,NA,NA,NA,NA,NA,NA,NA,NA,NA,NA,NA,NA,NA,NA,NA,951.9324,952.832,0.8798,NA,NA,NA,NA,NA
910590,NA,NA,NA,NA,NA,NA,NA,NA,NA,NA,NA,NA,NA,NA,NA,NA,NA,NA,NA,NA,952.8344,958.7293,NA,NA,NA,NA,NA,NA,NA,NA
910590,NA,NA,NA,NA,NA,NA,NA,NA,NA,NA,NA,NA,NA,NA,NA,NA,NA,NA,NA,NA,958.7446,964.7678,NA,NA,NA,NA,NA,NA,NA,NA
910590,NA,NA,NA,NA,NA,NA,NA,NA,NA,NA,NA,NA,NA,NA,NA,NA,NA,NA,NA,NA,NA,NA,964.7681,969.3012,4.5091,NA,NA,NA,NA,NA
910590,NA,NA,NA,NA,NA,NA,NA,NA,NA,NA,NA,NA,NA,NA,NA,NA,NA,NA,NA,NA,969.3057,975.6593,NA,NA,NA,NA,NA,NA,NA,NA
910590,NA,NA,NA,NA,NA,NA,NA,NA,NA,NA,NA,NA,NA,NA,NA,NA,NA,NA,NA,NA,975.6785,983.1467,NA,NA,NA,NA,NA,NA,NA,NA
910590,NA,NA,NA,NA,NA,NA,NA,NA,NA,NA,NA,NA,NA,NA,NA,NA,NA,NA,NA,NA,NA,NA,983.1475,984.2476,1.081,NA,NA,NA,NA,NA
910590,NA,NA,NA,NA,NA,NA,NA,NA,NA,NA,NA,NA,NA,NA,NA,NA,NA,NA,NA,NA,984.2512,989.7593,NA,NA,NA,NA,NA,NA,NA,NA
910590,NA,NA,NA,NA,NA,NA,NA,NA,NA,NA,NA,NA,NA,NA,NA,NA,NA,NA,NA,NA,989.7801,995.8108,NA,NA,NA,NA,NA,NA,NA,NA
910590,NA,NA,NA,NA,NA,NA,NA,NA,NA,NA,NA,NA,NA,NA,NA,NA,NA,NA,NA,NA,NA,NA,995.811,998.7643,2.9322,NA,NA,NA,NA,NA
910590,NA,NA,NA,NA,NA,NA,NA,NA,NA,NA,NA,NA,NA,NA,NA,NA,NA,NA,NA,NA,998.7674,1005.2021,NA,NA,NA,NA,NA,NA,NA,NA
910590,NA,NA,NA,NA,NA,NA,NA,NA,NA,NA,NA,NA,NA,NA,NA,NA,NA,NA,NA,NA,1005.2266,1012.4982,NA,NA,NA,NA,NA,NA,NA,NA
910590,NA,NA,NA,NA,NA,NA,NA,NA,NA,NA,NA,NA,NA,NA,NA,NA,NA,NA,NA,NA,NA,NA,1012.4985,1013.7619,1.2416,NA,NA,NA,NA,NA
910590,NA,NA,NA,NA,NA,NA,NA,NA,NA,NA,NA,NA,NA,NA,NA,NA,NA,NA,NA,NA,1013.7641,1020.543,NA,NA,NA,NA,NA,NA,NA,NA
910590,NA,NA,NA,NA,NA,NA,NA,NA,NA,NA,NA,NA,NA,NA,NA,NA,NA,NA,NA,NA,1020.5599,1027.7005,NA,NA,NA,NA,NA,NA,NA,NA
910590,NA,NA,NA,NA,NA,NA,NA,NA,NA,NA,NA,NA,NA,NA,NA,NA,NA,NA,NA,NA,NA,NA,1027.7009,1030.8714,3.1506,NA,NA,NA,NA,NA
910590,NA,NA,NA,NA,NA,NA,NA,NA,NA,NA,NA,NA,NA,NA,NA,NA,NA,NA,NA,NA,1030.8728,1037.0905,NA,NA,NA,NA,NA,NA,NA,NA
910590,NA,NA,NA,NA,NA,NA,NA,NA,NA,NA,NA,NA,NA,NA,NA,NA,NA,NA,NA,NA,1037.1072,1042.9963,NA,NA,NA,NA,NA,NA,NA,NA
910590,NA,NA,NA,NA,NA,NA,NA,NA,NA,NA,NA,NA,NA,NA,NA,NA,NA,NA,NA,NA,NA,NA,1042.9975,1046.1297,3.1132,NA,NA,NA,NA,NA
910590,NA,NA,NA,NA,NA,NA,NA,NA,NA,NA,NA,NA,NA,NA,NA,NA,NA,NA,NA,NA,1046.1342,1051.4892,NA,NA,NA,NA,NA,NA,NA,NA
910590,NA,NA,NA,NA,NA,NA,NA,NA,NA,NA,NA,NA,NA,NA,NA,NA,NA,NA,NA,NA,1051.5044,1057.6791,NA,NA,NA,NA,NA,NA,NA,NA
910590,NA,NA,NA,NA,NA,NA,NA,NA,NA,NA,NA,NA,NA,NA,NA,NA,NA,NA,NA,NA,NA,NA,1057.6796,1060.3094,2.6098,NA,NA,NA,NA,NA
910590,NA,NA,NA,NA,NA,NA,NA,NA,NA,NA,NA,NA,NA,NA,NA,NA,NA,NA,NA,NA,NA,NA,NA,NA,NA,1060.3095,1063.6945,3.3502,NA,NA
910590,NA,NA,NA,NA,NA,NA,NA,NA,NA,NA,NA,NA,NA,NA,NA,NA,NA,NA,NA,NA,1063.7156,1070.1655,NA,NA,NA,NA,NA,NA,NA,NA
910590,NA,NA,NA,NA,NA,NA,NA,NA,NA,NA,NA,NA,NA,NA,NA,NA,NA,NA,NA,NA,1070.1852,1076.2745,NA,NA,NA,NA,NA,NA,NA,NA
910590,NA,NA,NA,NA,NA,NA,NA,NA,NA,NA,NA,NA,NA,NA,NA,NA,NA,NA,NA,NA,NA,NA,1076.2748,1078.3828,2.0845,NA,NA,NA,NA,NA
910590,NA,NA,NA,NA,NA,NA,NA,NA,NA,NA,NA,NA,NA,NA,NA,NA,NA,NA,NA,NA,1078.3843,1084.93,NA,NA,NA,NA,NA,NA,NA,NA
910590,NA,NA,NA,NA,NA,NA,NA,NA,NA,NA,NA,NA,NA,NA,NA,NA,NA,NA,NA,NA,1084.9506,1091.2929,NA,NA,NA,NA,NA,NA,NA,NA
910590,NA,NA,NA,NA,NA,NA,NA,NA,NA,NA,NA,NA,NA,NA,NA,NA,NA,NA,NA,NA,NA,NA,1091.2933,1093.9348,2.6251,NA,NA,NA,NA,NA
910590,NA,NA,NA,NA,NA,NA,NA,NA,NA,NA,NA,NA,NA,NA,NA,NA,NA,NA,NA,NA,1093.9378,1099.9216,NA,NA,NA,NA,NA,NA,NA,NA
910590,NA,NA,NA,NA,NA,NA,NA,NA,NA,NA,NA,NA,NA,NA,NA,NA,NA,NA,NA,NA,1099.9428,1106.0172,NA,NA,NA,NA,NA,NA,NA,NA
910590,NA,NA,NA,NA,NA,NA,NA,NA,NA,NA,NA,NA,NA,NA,NA,NA,NA,NA,NA,NA,NA,NA,1106.0175,1108.2983,2.2551,NA,NA,NA,NA,NA
910590,NA,NA,NA,NA,NA,NA,NA,NA,NA,NA,NA,NA,NA,NA,NA,NA,NA,NA,NA,NA,1108.3036,1114.8983,NA,NA,NA,NA,NA,NA,NA,NA
910590,NA,NA,NA,NA,NA,NA,NA,NA,NA,NA,NA,NA,NA,NA,NA,NA,NA,NA,NA,NA,1114.9156,1121.0646,NA,NA,NA,NA,NA,NA,NA,NA
910590,NA,NA,NA,NA,NA,NA,NA,NA,NA,NA,NA,NA,NA,NA,NA,NA,NA,NA,NA,NA,NA,NA,1121.0648,1123.9055,2.8204,NA,NA,NA,NA,NA
910590,NA,NA,NA,NA,NA,NA,NA,NA,NA,NA,NA,NA,NA,NA,NA,NA,NA,NA,NA,NA,1123.9083,1129.9479,NA,NA,NA,NA,NA,NA,NA,NA
910590,NA,NA,NA,NA,NA,NA,NA,NA,NA,NA,NA,NA,NA,NA,NA,NA,NA,NA,NA,NA,1129.9638,1137.1411,NA,NA,NA,NA,NA,NA,NA,NA
910590,NA,NA,NA,NA,NA,NA,NA,NA,NA,NA,NA,NA,NA,NA,NA,NA,NA,NA,NA,NA,NA,NA,1137.1414,1139.4657,2.3053,NA,NA,NA,NA,NA
910590,NA,NA,NA,NA,NA,NA,NA,NA,NA,NA,NA,NA,NA,NA,NA,NA,NA,NA,NA,NA,1139.4673,1145.833,NA,NA,NA,NA,NA,NA,NA,NA
910590,NA,NA,NA,NA,NA,NA,NA,NA,NA,NA,NA,NA,NA,NA,NA,NA,NA,NA,NA,NA,1145.8516,1152.0841,NA,NA,NA,NA,NA,NA,NA,NA
910590,NA,NA,NA,NA,NA,NA,NA,NA,NA,NA,NA,NA,NA,NA,NA,NA,NA,NA,NA,NA,NA,NA,1152.0843,1153.7914,1.6854,NA,NA,NA,NA,NA
910590,NA,NA,NA,NA,NA,NA,NA,NA,NA,NA,NA,NA,NA,NA,NA,NA,NA,NA,NA,NA,1153.7932,1161.1783,NA,NA,NA,NA,NA,NA,NA,NA
910590,NA,NA,NA,NA,NA,NA,NA,NA,NA,NA,NA,NA,NA,NA,NA,NA,NA,NA,NA,NA,1161.1947,1168.5599,NA,NA,NA,NA,NA,NA,NA,NA
910590,NA,NA,NA,NA,NA,NA,NA,NA,NA,NA,NA,NA,NA,NA,NA,NA,NA,NA,NA,NA,NA,NA,1168.5603,1171.0633,2.4833,NA,NA,NA,NA,NA
910590,NA,NA,NA,NA,NA,NA,NA,NA,NA,NA,NA,NA,NA,NA,NA,NA,NA,NA,NA,NA,1171.0646,1177.8564,NA,NA,NA,NA,NA,NA,NA,NA
910590,NA,NA,NA,NA,NA,NA,NA,NA,NA,NA,NA,NA,NA,NA,NA,NA,NA,NA,NA,NA,1177.8719,1184.6315,NA,NA,NA,NA,NA,NA,NA,NA
910590,NA,NA,NA,NA,NA,NA,NA,NA,NA,NA,NA,NA,NA,NA,NA,NA,NA,NA,NA,NA,NA,NA,1184.6318,1186.9407,2.2807,NA,NA,NA,NA,NA
910590,NA,NA,NA,NA,NA,NA,NA,NA,NA,NA,NA,NA,NA,NA,NA,NA,NA,NA,NA,NA,1186.943,1193.365,NA,NA,NA,NA,NA,NA,NA,NA
910590,NA,NA,NA,NA,NA,NA,NA,NA,NA,NA,NA,NA,NA,NA,NA,NA,NA,NA,NA,NA,1193.3806,1199.2696,NA,NA,NA,NA,NA,NA,NA,NA
910590,NA,NA,NA,NA,NA,NA,NA,NA,NA,NA,NA,NA,NA,NA,NA,NA,NA,NA,NA,NA,NA,NA,1199.2699,1201.9307,2.6374,NA,NA,NA,NA,NA
910590,NA,NA,NA,NA,NA,NA,NA,NA,NA,NA,NA,NA,NA,NA,NA,NA,NA,NA,NA,NA,1201.9324,1208.0459,NA,NA,NA,NA,NA,NA,NA,NA
910590,NA,NA,NA,NA,NA,NA,NA,NA,NA,NA,NA,NA,NA,NA,NA,NA,NA,NA,NA,NA,1208.0623,1214.4106,NA,NA,NA,NA,NA,NA,NA,NA
910590,NA,NA,NA,NA,NA,NA,NA,NA,NA,NA,NA,NA,NA,NA,NA,NA,NA,NA,NA,NA,NA,NA,1214.4113,1215.4329,1.0013,NA,NA,NA,NA,NA
910590,NA,NA,NA,NA,NA,NA,NA,NA,NA,NA,NA,NA,NA,NA,NA,NA,NA,NA,NA,NA,1215.4374,1221.6037,NA,NA,NA,NA,NA,NA,NA,NA
910590,NA,NA,NA,NA,NA,NA,NA,NA,NA,NA,NA,NA,NA,NA,NA,NA,NA,NA,NA,NA,1221.6194,1227.8205,NA,NA,NA,NA,NA,NA,NA,NA
910590,NA,NA,NA,NA,NA,NA,NA,NA,NA,NA,NA,NA,NA,NA,NA,NA,NA,NA,NA,NA,NA,NA,1227.8207,1231.2944,3.4541,NA,NA,NA,NA,NA
910590,NA,NA,NA,NA,NA,NA,NA,NA,NA,NA,NA,NA,NA,NA,NA,NA,NA,NA,NA,NA,1231.2984,1239.0573,NA,NA,NA,NA,NA,NA,NA,NA
910590,NA,NA,NA,NA,NA,NA,NA,NA,NA,NA,NA,NA,NA,NA,NA,NA,NA,NA,NA,NA,1239.0738,1245.3035,NA,NA,NA,NA,NA,NA,NA,NA
910590,NA,NA,NA,NA,NA,NA,NA,NA,NA,NA,NA,NA,NA,NA,NA,NA,NA,NA,NA,NA,NA,NA,1245.3039,1248.0789,2.7559,NA,NA,NA,NA,NA
910590,NA,NA,NA,NA,NA,NA,NA,NA,NA,NA,NA,NA,NA,NA,NA,NA,NA,NA,NA,NA,1248.0834,1255.3412,NA,NA,NA,NA,NA,NA,NA,NA
910590,NA,NA,NA,NA,NA,NA,NA,NA,NA,NA,NA,NA,NA,NA,NA,NA,NA,NA,NA,NA,1255.3584,1262.4107,NA,NA,NA,NA,NA,NA,NA,NA
910590,NA,NA,NA,NA,NA,NA,NA,NA,NA,NA,NA,NA,NA,NA,NA,NA,NA,NA,NA,NA,NA,NA,1262.411,1264.7392,2.3106,NA,NA,NA,NA,NA
910590,NA,NA,NA,NA,NA,NA,NA,NA,NA,NA,NA,NA,NA,NA,NA,NA,NA,NA,NA,NA,1264.7415,1271.1415,NA,NA,NA,NA,NA,NA,NA,NA
910590,NA,NA,NA,NA,NA,NA,NA,NA,NA,NA,NA,NA,NA,NA,NA,NA,NA,NA,NA,NA,1271.1587,1277.3116,NA,NA,NA,NA,NA,NA,NA,NA
910590,NA,NA,NA,NA,NA,NA,NA,NA,NA,NA,NA,NA,NA,NA,NA,NA,NA,NA,NA,NA,NA,NA,1277.3122,1279.7006,2.3648,NA,NA,NA,NA,NA
910590,NA,NA,NA,NA,NA,NA,NA,NA,NA,NA,NA,NA,NA,NA,NA,NA,NA,NA,NA,NA,1279.7021,1285.3974,NA,NA,NA,NA,NA,NA,NA,NA
910590,NA,NA,NA,NA,NA,NA,NA,NA,NA,NA,NA,NA,NA,NA,NA,NA,NA,NA,NA,NA,1285.4132,1291.6399,NA,NA,NA,NA,NA,NA,NA,NA
910590,NA,NA,NA,NA,NA,NA,NA,NA,NA,NA,NA,NA,NA,NA,NA,NA,NA,NA,NA,NA,NA,NA,1291.6402,1294.0017,2.3405,NA,NA,NA,NA,NA
910590,NA,NA,NA,NA,NA,NA,NA,NA,NA,NA,NA,NA,NA,NA,NA,NA,NA,NA,NA,NA,1294.0052,1300.4469,NA,NA,NA,NA,NA,NA,NA,NA
910590,NA,NA,NA,NA,NA,NA,NA,NA,NA,NA,NA,NA,NA,NA,NA,NA,NA,NA,NA,NA,1300.4638,1306.6857,NA,NA,NA,NA,NA,NA,NA,NA
910590,NA,NA,NA,NA,NA,NA,NA,NA,NA,NA,NA,NA,NA,NA,NA,NA,NA,NA,NA,NA,NA,NA,1306.6862,1308.9403,2.235,NA,NA,NA,NA,NA
910590,NA,NA,NA,NA,NA,NA,NA,NA,NA,NA,NA,NA,NA,NA,NA,NA,NA,NA,NA,NA,1308.9426,1314.9217,NA,NA,NA,NA,NA,NA,NA,NA
910590,NA,NA,NA,NA,NA,NA,NA,NA,NA,NA,NA,NA,NA,NA,NA,NA,NA,NA,NA,NA,1314.9405,1321.1965,NA,NA,NA,NA,NA,NA,NA,NA
910590,NA,NA,NA,NA,NA,NA,NA,NA,NA,NA,NA,NA,NA,NA,NA,NA,NA,NA,NA,NA,NA,NA,1321.1969,1323.0807,1.8648,NA,NA,NA,NA,NA
910590,NA,NA,NA,NA,NA,NA,NA,NA,NA,NA,NA,NA,NA,NA,NA,NA,NA,NA,NA,NA,1323.0823,1332.0644,NA,NA,NA,NA,NA,NA,NA,NA
910590,NA,NA,NA,NA,NA,NA,NA,NA,NA,NA,NA,NA,NA,NA,NA,NA,NA,NA,NA,NA,1332.08,1338.4278,NA,NA,NA,NA,NA,NA,NA,NA
910590,NA,NA,NA,NA,NA,NA,NA,NA,NA,NA,NA,NA,NA,NA,NA,NA,NA,NA,NA,NA,NA,NA,1338.428,1340.1125,1.6645,NA,NA,NA,NA,NA
910590,NA,NA,NA,NA,NA,NA,NA,NA,NA,NA,NA,NA,NA,NA,NA,NA,NA,NA,NA,NA,1340.1154,1346.355,NA,NA,NA,NA,NA,NA,NA,NA
910590,NA,NA,NA,NA,NA,NA,NA,NA,NA,NA,NA,NA,NA,NA,NA,NA,NA,NA,NA,NA,1346.371,1354.4287,NA,NA,NA,NA,NA,NA,NA,NA
910590,NA,NA,NA,NA,NA,NA,NA,NA,NA,NA,NA,NA,NA,NA,NA,NA,NA,NA,NA,NA,NA,NA,1354.4289,1356.8785,2.4289,NA,NA,NA,NA,NA
910590,NA,NA,NA,NA,NA,NA,NA,NA,NA,NA,NA,NA,NA,NA,NA,NA,NA,NA,NA,NA,1356.8817,1362.6544,NA,NA,NA,NA,NA,NA,NA,NA
910590,NA,NA,NA,NA,NA,NA,NA,NA,NA,NA,NA,NA,NA,NA,NA,NA,NA,NA,NA,NA,1362.6555,1368.8995,NA,NA,NA,NA,NA,NA,NA,NA
910590,NA,NA,NA,NA,NA,NA,NA,NA,NA,NA,NA,NA,NA,NA,NA,NA,NA,NA,NA,NA,NA,NA,1368.8997,1369.9098,0.98740000000000006,NA,NA,NA,NA,NA
910590,NA,NA,NA,NA,NA,NA,NA,NA,NA,NA,NA,NA,NA,NA,NA,NA,NA,NA,NA,NA,1369.9141,1376.1562,NA,NA,NA,NA,NA,NA,NA,NA
910590,NA,NA,NA,NA,NA,NA,NA,NA,NA,NA,NA,NA,NA,NA,NA,NA,NA,NA,NA,NA,1376.1732,1382.269,NA,NA,NA,NA,NA,NA,NA,NA
910590,NA,NA,NA,NA,NA,NA,NA,NA,NA,NA,NA,NA,NA,NA,NA,NA,NA,NA,NA,NA,NA,NA,1382.2696,1383.1304,0.8396,NA,NA,NA,NA,NA
910590,NA,NA,NA,NA,NA,NA,NA,NA,NA,NA,NA,NA,NA,NA,NA,NA,NA,NA,NA,NA,1383.133,1389.0703,NA,NA,NA,NA,NA,NA,NA,NA
910590,NA,NA,NA,NA,NA,NA,NA,NA,NA,NA,NA,NA,NA,NA,NA,NA,NA,NA,NA,NA,1389.0861,1395.237,NA,NA,NA,NA,NA,NA,NA,NA
910590,NA,NA,NA,NA,NA,NA,NA,NA,NA,NA,NA,NA,NA,NA,NA,NA,NA,NA,NA,NA,NA,NA,1395.2406,1396.7312,1.4743,NA,NA,NA,NA,NA
910590,NA,NA,NA,NA,NA,NA,NA,NA,NA,NA,NA,NA,NA,NA,NA,NA,NA,NA,NA,NA,1396.7332,1406.9893,NA,NA,NA,NA,NA,NA,NA,NA
910590,NA,NA,NA,NA,NA,NA,NA,NA,NA,NA,NA,NA,NA,NA,NA,NA,NA,NA,NA,NA,1407.0068,1413.6017,NA,NA,NA,NA,NA,NA,NA,NA
910590,NA,NA,NA,NA,NA,NA,NA,NA,NA,NA,NA,NA,NA,NA,NA,NA,NA,NA,NA,NA,NA,NA,1413.6019,1416.5514,2.9269,NA,NA,NA,NA,NA
910590,NA,NA,NA,NA,NA,NA,NA,NA,NA,NA,NA,NA,NA,NA,NA,NA,NA,NA,NA,NA,NA,NA,NA,NA,NA,1416.5521,1416.5524,NA,NA,NA
910590,NA,NA,NA,NA,NA,NA,NA,NA,NA,NA,NA,NA,NA,NA,NA,NA,NA,NA,NA,NA,NA,NA,NA,NA,NA,NA,NA,NA,NA,NA
910590,NA,NA,NA,NA,NA,NA,NA,NA,NA,NA,NA,NA,NA,NA,NA,NA,NA,NA,NA,NA,NA,NA,NA,NA,NA,NA,NA,NA,1768.7396,1770.9908
714122,0.005,1.8442,1.8224,NA,NA,NA,NA,NA,NA,NA,NA,NA,NA,NA,NA,NA,NA,NA,NA,NA,NA,NA,NA,NA,NA,NA,NA,NA,NA,NA
714122,NA,NA,NA,NA,NA,NA,NA,NA,NA,NA,NA,NA,NA,NA,NA,NA,NA,NA,NA,NA,NA,NA,NA,NA,NA,NA,NA,NA,NA,NA
714122,NA,NA,NA,13.3632,13.3634,NA,NA,NA,NA,NA,NA,NA,NA,NA,NA,NA,NA,NA,NA,NA,NA,NA,NA,NA,NA,NA,NA,NA,NA,NA
714122,NA,NA,NA,NA,NA,13.3657,15.462,2.0603,15.4626,40.1013,14.6201,40.1021,49.5705,9.4224,49.5713,76.7778,27.1405,76.778,78.1634,1.3753,78.255,84.7783,NA,NA,NA,NA,NA,NA,NA,NA
714122,NA,NA,NA,NA,NA,NA,NA,NA,NA,NA,NA,NA,NA,NA,NA,NA,NA,NA,NA,NA,84.8187,92.2496,NA,NA,NA,NA,NA,NA,NA,NA
714122,NA,NA,NA,NA,NA,NA,NA,NA,NA,NA,NA,NA,NA,NA,NA,NA,NA,NA,NA,NA,NA,NA,92.296,95.1794,2.8769,NA,NA,NA,NA,NA
714122,NA,NA,NA,NA,NA,NA,NA,NA,NA,NA,NA,NA,NA,NA,NA,NA,NA,NA,NA,NA,95.1806,102.9235,NA,NA,NA,NA,NA,NA,NA,NA
714122,NA,NA,NA,NA,NA,NA,NA,NA,NA,NA,NA,NA,NA,NA,NA,NA,NA,NA,NA,NA,102.984,109.4072,NA,NA,NA,NA,NA,NA,NA,NA
714122,NA,NA,NA,NA,NA,NA,NA,NA,NA,NA,NA,NA,NA,NA,NA,NA,NA,NA,NA,NA,NA,NA,109.4081,111.9315,2.4814,NA,NA,NA,NA,NA
714122,NA,NA,NA,NA,NA,NA,NA,NA,NA,NA,NA,NA,NA,NA,NA,NA,NA,NA,NA,NA,111.9328,120.0594,NA,NA,NA,NA,NA,NA,NA,NA
714122,NA,NA,NA,NA,NA,NA,NA,NA,NA,NA,NA,NA,NA,NA,NA,NA,NA,NA,NA,NA,120.0984,126.143,NA,NA,NA,NA,NA,NA,NA,NA
714122,NA,NA,NA,NA,NA,NA,NA,NA,NA,NA,NA,NA,NA,NA,NA,NA,NA,NA,NA,NA,NA,NA,126.1435,127.9684,1.7818,NA,NA,NA,NA,NA
714122,NA,NA,NA,NA,NA,NA,NA,NA,NA,NA,NA,NA,NA,NA,NA,NA,NA,NA,NA,NA,127.9709,134.1636,NA,NA,NA,NA,NA,NA,NA,NA
714122,NA,NA,NA,NA,NA,NA,NA,NA,NA,NA,NA,NA,NA,NA,NA,NA,NA,NA,NA,NA,134.1992,140.4096,NA,NA,NA,NA,NA,NA,NA,NA
714122,NA,NA,NA,NA,NA,NA,NA,NA,NA,NA,NA,NA,NA,NA,NA,NA,NA,NA,NA,NA,NA,NA,140.4123,142.3898,1.9323,NA,NA,NA,NA,NA
714122,NA,NA,NA,NA,NA,NA,NA,NA,NA,NA,NA,NA,NA,NA,NA,NA,NA,NA,NA,NA,142.3913,148.2348,NA,NA,NA,NA,NA,NA,NA,NA
714122,NA,NA,NA,NA,NA,NA,NA,NA,NA,NA,NA,NA,NA,NA,NA,NA,NA,NA,NA,NA,148.2498,154.2816,NA,NA,NA,NA,NA,NA,NA,NA
714122,NA,NA,NA,NA,NA,NA,NA,NA,NA,NA,NA,NA,NA,NA,NA,NA,NA,NA,NA,NA,NA,NA,154.2821,155.2459,0.927,NA,NA,NA,NA,NA
714122,NA,NA,NA,NA,NA,NA,NA,NA,NA,NA,NA,NA,NA,NA,NA,NA,NA,NA,NA,NA,155.2478,162.292,NA,NA,NA,NA,NA,NA,NA,NA
714122,NA,NA,NA,NA,NA,NA,NA,NA,NA,NA,NA,NA,NA,NA,NA,NA,NA,NA,NA,NA,162.3382,168.47,NA,NA,NA,NA,NA,NA,NA,NA
714122,NA,NA,NA,NA,NA,NA,NA,NA,NA,NA,NA,NA,NA,NA,NA,NA,NA,NA,NA,NA,NA,NA,168.4707,169.8837,1.3675,NA,NA,NA,NA,NA
714122,NA,NA,NA,NA,NA,NA,NA,NA,NA,NA,NA,NA,NA,NA,NA,NA,NA,NA,NA,NA,169.8851,178.7442,NA,NA,NA,NA,NA,NA,NA,NA
714122,NA,NA,NA,NA,NA,NA,NA,NA,NA,NA,NA,NA,NA,NA,NA,NA,NA,NA,NA,NA,178.7823,187.0431,NA,NA,NA,NA,NA,NA,NA,NA
714122,NA,NA,NA,NA,NA,NA,NA,NA,NA,NA,NA,NA,NA,NA,NA,NA,NA,NA,NA,NA,NA,NA,187.0435,188.3695,1.2793,NA,NA,NA,NA,NA
714122,NA,NA,NA,NA,NA,NA,NA,NA,NA,NA,NA,NA,NA,NA,NA,NA,NA,NA,NA,NA,188.371,194.4152,NA,NA,NA,NA,NA,NA,NA,NA
714122,NA,NA,NA,NA,NA,NA,NA,NA,NA,NA,NA,NA,NA,NA,NA,NA,NA,NA,NA,NA,194.4548,198.5285,NA,NA,NA,NA,NA,NA,NA,NA
714122,NA,NA,NA,NA,NA,NA,NA,NA,NA,NA,NA,NA,NA,NA,NA,NA,NA,NA,NA,NA,NA,NA,198.5292,210.0176,11.4227,NA,NA,NA,NA,NA
714122,NA,NA,NA,NA,NA,NA,NA,NA,NA,NA,NA,NA,NA,NA,NA,NA,NA,NA,NA,NA,210.0193,216.2465,NA,NA,NA,NA,NA,NA,NA,NA
714122,NA,NA,NA,NA,NA,NA,NA,NA,NA,NA,NA,NA,NA,NA,NA,NA,NA,NA,NA,NA,216.2913,223.1574,NA,NA,NA,NA,NA,NA,NA,NA
714122,NA,NA,NA,NA,NA,NA,NA,NA,NA,NA,NA,NA,NA,NA,NA,NA,NA,NA,NA,NA,NA,NA,223.1577,226.155,2.9509,NA,NA,NA,NA,NA
714122,NA,NA,NA,NA,NA,NA,NA,NA,NA,NA,NA,NA,NA,NA,NA,NA,NA,NA,NA,NA,226.1557,232.4993,NA,NA,NA,NA,NA,NA,NA,NA
714122,NA,NA,NA,NA,NA,NA,NA,NA,NA,NA,NA,NA,NA,NA,NA,NA,NA,NA,NA,NA,232.5336,240.0434,NA,NA,NA,NA,NA,NA,NA,NA
714122,NA,NA,NA,NA,NA,NA,NA,NA,NA,NA,NA,NA,NA,NA,NA,NA,NA,NA,NA,NA,NA,NA,240.0438,242.1642,2.0863,NA,NA,NA,NA,NA
714122,NA,NA,NA,NA,NA,NA,NA,NA,NA,NA,NA,NA,NA,NA,NA,NA,NA,NA,NA,NA,242.165,250.4513,NA,NA,NA,NA,NA,NA,NA,NA
714122,NA,NA,NA,NA,NA,NA,NA,NA,NA,NA,NA,NA,NA,NA,NA,NA,NA,NA,NA,NA,250.4855,256.7794,NA,NA,NA,NA,NA,NA,NA,NA
714122,NA,NA,NA,NA,NA,NA,NA,NA,NA,NA,NA,NA,NA,NA,NA,NA,NA,NA,NA,NA,NA,NA,256.78,259.1102,2.2889,NA,NA,NA,NA,NA
714122,NA,NA,NA,NA,NA,NA,NA,NA,NA,NA,NA,NA,NA,NA,NA,NA,NA,NA,NA,NA,259.1115,265.7561,NA,NA,NA,NA,NA,NA,NA,NA
714122,NA,NA,NA,NA,NA,NA,NA,NA,NA,NA,NA,NA,NA,NA,NA,NA,NA,NA,NA,NA,265.7908,272.3831,NA,NA,NA,NA,NA,NA,NA,NA
714122,NA,NA,NA,NA,NA,NA,NA,NA,NA,NA,NA,NA,NA,NA,NA,NA,NA,NA,NA,NA,NA,NA,272.3836,275.0645,2.6458,NA,NA,NA,NA,NA
714122,NA,NA,NA,NA,NA,NA,NA,NA,NA,NA,NA,NA,NA,NA,NA,NA,NA,NA,NA,NA,275.0656,281.3106,NA,NA,NA,NA,NA,NA,NA,NA
714122,NA,NA,NA,NA,NA,NA,NA,NA,NA,NA,NA,NA,NA,NA,NA,NA,NA,NA,NA,NA,281.359,287.6207,NA,NA,NA,NA,NA,NA,NA,NA
714122,NA,NA,NA,NA,NA,NA,NA,NA,NA,NA,NA,NA,NA,NA,NA,NA,NA,NA,NA,NA,NA,NA,287.6213,307.6869,20.0262,NA,NA,NA,NA,NA
714122,NA,NA,NA,NA,NA,NA,NA,NA,NA,NA,NA,NA,NA,NA,NA,NA,NA,NA,NA,NA,307.6889,313.7166,NA,NA,NA,NA,NA,NA,NA,NA
714122,NA,NA,NA,NA,NA,NA,NA,NA,NA,NA,NA,NA,NA,NA,NA,NA,NA,NA,NA,NA,313.7558,318.5035,NA,NA,NA,NA,NA,NA,NA,NA
714122,NA,NA,NA,NA,NA,NA,NA,NA,NA,NA,NA,NA,NA,NA,NA,NA,NA,NA,NA,NA,NA,NA,318.5042,325.7392,7.1881,NA,NA,NA,NA,NA
714122,NA,NA,NA,NA,NA,NA,NA,NA,NA,NA,NA,NA,NA,NA,NA,NA,NA,NA,NA,NA,325.7406,332.0546,NA,NA,NA,NA,NA,NA,NA,NA
714122,NA,NA,NA,NA,NA,NA,NA,NA,NA,NA,NA,NA,NA,NA,NA,NA,NA,NA,NA,NA,332.0903,338.7788,NA,NA,NA,NA,NA,NA,NA,NA
714122,NA,NA,NA,NA,NA,NA,NA,NA,NA,NA,NA,NA,NA,NA,NA,NA,NA,NA,NA,NA,NA,NA,338.7794,342.9295,4.1047,NA,NA,NA,NA,NA
714122,NA,NA,NA,NA,NA,NA,NA,NA,NA,NA,NA,NA,NA,NA,NA,NA,NA,NA,NA,NA,342.9302,348.8702,NA,NA,NA,NA,NA,NA,NA,NA
714122,NA,NA,NA,NA,NA,NA,NA,NA,NA,NA,NA,NA,NA,NA,NA,NA,NA,NA,NA,NA,348.9044,354.9821,NA,NA,NA,NA,NA,NA,NA,NA
714122,NA,NA,NA,NA,NA,NA,NA,NA,NA,NA,NA,NA,NA,NA,NA,NA,NA,NA,NA,NA,NA,NA,354.9827,358.9407,3.9238,NA,NA,NA,NA,NA
714122,NA,NA,NA,NA,NA,NA,NA,NA,NA,NA,NA,NA,NA,NA,NA,NA,NA,NA,NA,NA,358.9423,365.174,NA,NA,NA,NA,NA,NA,NA,NA
714122,NA,NA,NA,NA,NA,NA,NA,NA,NA,NA,NA,NA,NA,NA,NA,NA,NA,NA,NA,NA,365.2095,369.654,NA,NA,NA,NA,NA,NA,NA,NA
714122,NA,NA,NA,NA,NA,NA,NA,NA,NA,NA,NA,NA,NA,NA,NA,NA,NA,NA,NA,NA,NA,NA,369.6548,371.5844,1.8929,NA,NA,NA,NA,NA
714122,NA,NA,NA,NA,NA,NA,NA,NA,NA,NA,NA,NA,NA,NA,NA,NA,NA,NA,NA,NA,371.586,377.6968,NA,NA,NA,NA,NA,NA,NA,NA
714122,NA,NA,NA,NA,NA,NA,NA,NA,NA,NA,NA,NA,NA,NA,NA,NA,NA,NA,NA,NA,377.7328,386.3229,NA,NA,NA,NA,NA,NA,NA,NA
714122,NA,NA,NA,NA,NA,NA,NA,NA,NA,NA,NA,NA,NA,NA,NA,NA,NA,NA,NA,NA,NA,NA,386.3236,390.5535,4.1819,NA,NA,NA,NA,NA
714122,NA,NA,NA,NA,NA,NA,NA,NA,NA,NA,NA,NA,NA,NA,NA,NA,NA,NA,NA,NA,390.5548,396.1989,NA,NA,NA,NA,NA,NA,NA,NA
714122,NA,NA,NA,NA,NA,NA,NA,NA,NA,NA,NA,NA,NA,NA,NA,NA,NA,NA,NA,NA,396.2317,403.0766,NA,NA,NA,NA,NA,NA,NA,NA
714122,NA,NA,NA,NA,NA,NA,NA,NA,NA,NA,NA,NA,NA,NA,NA,NA,NA,NA,NA,NA,NA,NA,403.0775,407.3975,4.272,NA,NA,NA,NA,NA
714122,NA,NA,NA,NA,NA,NA,NA,NA,NA,NA,NA,NA,NA,NA,NA,NA,NA,NA,NA,NA,407.3982,413.5171,NA,NA,NA,NA,NA,NA,NA,NA
714122,NA,NA,NA,NA,NA,NA,NA,NA,NA,NA,NA,NA,NA,NA,NA,NA,NA,NA,NA,NA,413.5509,419.7787,NA,NA,NA,NA,NA,NA,NA,NA
714122,NA,NA,NA,NA,NA,NA,NA,NA,NA,NA,NA,NA,NA,NA,NA,NA,NA,NA,NA,NA,NA,NA,419.7793,426.0899,6.2622,NA,NA,NA,NA,NA
714122,NA,NA,NA,NA,NA,NA,NA,NA,NA,NA,NA,NA,NA,NA,NA,NA,NA,NA,NA,NA,426.091,432.5588,NA,NA,NA,NA,NA,NA,NA,NA
714122,NA,NA,NA,NA,NA,NA,NA,NA,NA,NA,NA,NA,NA,NA,NA,NA,NA,NA,NA,NA,432.598,440.0954,NA,NA,NA,NA,NA,NA,NA,NA
714122,NA,NA,NA,NA,NA,NA,NA,NA,NA,NA,NA,NA,NA,NA,NA,NA,NA,NA,NA,NA,NA,NA,440.0962,442.0098,1.8703,NA,NA,NA,NA,NA
714122,NA,NA,NA,NA,NA,NA,NA,NA,NA,NA,NA,NA,NA,NA,NA,NA,NA,NA,NA,NA,442.0115,449.7591,NA,NA,NA,NA,NA,NA,NA,NA
714122,NA,NA,NA,NA,NA,NA,NA,NA,NA,NA,NA,NA,NA,NA,NA,NA,NA,NA,NA,NA,449.7956,456.1377,NA,NA,NA,NA,NA,NA,NA,NA
714122,NA,NA,NA,NA,NA,NA,NA,NA,NA,NA,NA,NA,NA,NA,NA,NA,NA,NA,NA,NA,NA,NA,456.1398,457.3023,1.1195,NA,NA,NA,NA,NA
714122,NA,NA,NA,NA,NA,NA,NA,NA,NA,NA,NA,NA,NA,NA,NA,NA,NA,NA,NA,NA,457.3034,463.3266,NA,NA,NA,NA,NA,NA,NA,NA
714122,NA,NA,NA,NA,NA,NA,NA,NA,NA,NA,NA,NA,NA,NA,NA,NA,NA,NA,NA,NA,463.3784,469.2216,NA,NA,NA,NA,NA,NA,NA,NA
714122,NA,NA,NA,NA,NA,NA,NA,NA,NA,NA,NA,NA,NA,NA,NA,NA,NA,NA,NA,NA,NA,NA,469.2221,470.4198,1.1507,NA,NA,NA,NA,NA
714122,NA,NA,NA,NA,NA,NA,NA,NA,NA,NA,NA,NA,NA,NA,NA,NA,NA,NA,NA,NA,NA,NA,NA,NA,NA,470.4206,675.8304,205.3616,NA,NA
714122,NA,NA,NA,NA,NA,NA,NA,NA,NA,NA,NA,NA,NA,NA,NA,NA,NA,NA,NA,NA,675.8368,682.8613,NA,NA,NA,NA,NA,NA,NA,NA
714122,NA,NA,NA,NA,NA,NA,NA,NA,NA,NA,NA,NA,NA,NA,NA,NA,NA,NA,NA,NA,682.8733,689.7067,NA,NA,NA,NA,NA,NA,NA,NA
714122,NA,NA,NA,NA,NA,NA,NA,NA,NA,NA,NA,NA,NA,NA,NA,NA,NA,NA,NA,NA,NA,NA,689.7074,691.6937,1.9444,NA,NA,NA,NA,NA
714122,NA,NA,NA,NA,NA,NA,NA,NA,NA,NA,NA,NA,NA,NA,NA,NA,NA,NA,NA,NA,691.6946,698.2342,NA,NA,NA,NA,NA,NA,NA,NA
714122,NA,NA,NA,NA,NA,NA,NA,NA,NA,NA,NA,NA,NA,NA,NA,NA,NA,NA,NA,NA,698.2786,704.4114,NA,NA,NA,NA,NA,NA,NA,NA
714122,NA,NA,NA,NA,NA,NA,NA,NA,NA,NA,NA,NA,NA,NA,NA,NA,NA,NA,NA,NA,NA,NA,704.4127,707.1749,2.7231,NA,NA,NA,NA,NA
714122,NA,NA,NA,NA,NA,NA,NA,NA,NA,NA,NA,NA,NA,NA,NA,NA,NA,NA,NA,NA,707.1765,713.2209,NA,NA,NA,NA,NA,NA,NA,NA
714122,NA,NA,NA,NA,NA,NA,NA,NA,NA,NA,NA,NA,NA,NA,NA,NA,NA,NA,NA,NA,713.266,718.7991,NA,NA,NA,NA,NA,NA,NA,NA
714122,NA,NA,NA,NA,NA,NA,NA,NA,NA,NA,NA,NA,NA,NA,NA,NA,NA,NA,NA,NA,NA,NA,718.7999,725.399,6.5636,NA,NA,NA,NA,NA
714122,NA,NA,NA,NA,NA,NA,NA,NA,NA,NA,NA,NA,NA,NA,NA,NA,NA,NA,NA,NA,725.4008,732.1388,NA,NA,NA,NA,NA,NA,NA,NA
714122,NA,NA,NA,NA,NA,NA,NA,NA,NA,NA,NA,NA,NA,NA,NA,NA,NA,NA,NA,NA,732.1732,738.4661,NA,NA,NA,NA,NA,NA,NA,NA
714122,NA,NA,NA,NA,NA,NA,NA,NA,NA,NA,NA,NA,NA,NA,NA,NA,NA,NA,NA,NA,NA,NA,738.4666,742.6446,4.1344,NA,NA,NA,NA,NA
714122,NA,NA,NA,NA,NA,NA,NA,NA,NA,NA,NA,NA,NA,NA,NA,NA,NA,NA,NA,NA,742.6456,747.9801,NA,NA,NA,NA,NA,NA,NA,NA
714122,NA,NA,NA,NA,NA,NA,NA,NA,NA,NA,NA,NA,NA,NA,NA,NA,NA,NA,NA,NA,748.0188,754.2579,NA,NA,NA,NA,NA,NA,NA,NA
714122,NA,NA,NA,NA,NA,NA,NA,NA,NA,NA,NA,NA,NA,NA,NA,NA,NA,NA,NA,NA,NA,NA,754.2586,757.0839,2.8195,NA,NA,NA,NA,NA
714122,NA,NA,NA,NA,NA,NA,NA,NA,NA,NA,NA,NA,NA,NA,NA,NA,NA,NA,NA,NA,757.0852,763.1293,NA,NA,NA,NA,NA,NA,NA,NA
714122,NA,NA,NA,NA,NA,NA,NA,NA,NA,NA,NA,NA,NA,NA,NA,NA,NA,NA,NA,NA,763.1644,769.4084,NA,NA,NA,NA,NA,NA,NA,NA
714122,NA,NA,NA,NA,NA,NA,NA,NA,NA,NA,NA,NA,NA,NA,NA,NA,NA,NA,NA,NA,NA,NA,769.4099,772.7302,3.2821,NA,NA,NA,NA,NA
714122,NA,NA,NA,NA,NA,NA,NA,NA,NA,NA,NA,NA,NA,NA,NA,NA,NA,NA,NA,NA,772.731,778.8667,NA,NA,NA,NA,NA,NA,NA,NA
714122,NA,NA,NA,NA,NA,NA,NA,NA,NA,NA,NA,NA,NA,NA,NA,NA,NA,NA,NA,NA,778.9009,782.9471,NA,NA,NA,NA,NA,NA,NA,NA
714122,NA,NA,NA,NA,NA,NA,NA,NA,NA,NA,NA,NA,NA,NA,NA,NA,NA,NA,NA,NA,NA,NA,782.9477,785.2271,2.2371,NA,NA,NA,NA,NA
714122,NA,NA,NA,NA,NA,NA,NA,NA,NA,NA,NA,NA,NA,NA,NA,NA,NA,NA,NA,NA,785.2295,791.3732,NA,NA,NA,NA,NA,NA,NA,NA
714122,NA,NA,NA,NA,NA,NA,NA,NA,NA,NA,NA,NA,NA,NA,NA,NA,NA,NA,NA,NA,791.4077,796.5519,NA,NA,NA,NA,NA,NA,NA,NA
714122,NA,NA,NA,NA,NA,NA,NA,NA,NA,NA,NA,NA,NA,NA,NA,NA,NA,NA,NA,NA,NA,NA,796.5526,797.9667,1.3714,NA,NA,NA,NA,NA
714122,NA,NA,NA,NA,NA,NA,NA,NA,NA,NA,NA,NA,NA,NA,NA,NA,NA,NA,NA,NA,797.9683,803.7128,NA,NA,NA,NA,NA,NA,NA,NA
714122,NA,NA,NA,NA,NA,NA,NA,NA,NA,NA,NA,NA,NA,NA,NA,NA,NA,NA,NA,NA,803.7471,809.7918,NA,NA,NA,NA,NA,NA,NA,NA
714122,NA,NA,NA,NA,NA,NA,NA,NA,NA,NA,NA,NA,NA,NA,NA,NA,NA,NA,NA,NA,NA,NA,809.7927,811.7733,1.9444,NA,NA,NA,NA,NA
714122,NA,NA,NA,NA,NA,NA,NA,NA,NA,NA,NA,NA,NA,NA,NA,NA,NA,NA,NA,NA,811.7744,817.7015,NA,NA,NA,NA,NA,NA,NA,NA
714122,NA,NA,NA,NA,NA,NA,NA,NA,NA,NA,NA,NA,NA,NA,NA,NA,NA,NA,NA,NA,817.742,823.6132,NA,NA,NA,NA,NA,NA,NA,NA
714122,NA,NA,NA,NA,NA,NA,NA,NA,NA,NA,NA,NA,NA,NA,NA,NA,NA,NA,NA,NA,NA,NA,823.614,826.3103,2.6431,NA,NA,NA,NA,NA
714122,NA,NA,NA,NA,NA,NA,NA,NA,NA,NA,NA,NA,NA,NA,NA,NA,NA,NA,NA,NA,826.312,832.3558,NA,NA,NA,NA,NA,NA,NA,NA
714122,NA,NA,NA,NA,NA,NA,NA,NA,NA,NA,NA,NA,NA,NA,NA,NA,NA,NA,NA,NA,832.3928,837.9345,NA,NA,NA,NA,NA,NA,NA,NA
714122,NA,NA,NA,NA,NA,NA,NA,NA,NA,NA,NA,NA,NA,NA,NA,NA,NA,NA,NA,NA,NA,NA,837.9353,839.6157,1.6395,NA,NA,NA,NA,NA
714122,NA,NA,NA,NA,NA,NA,NA,NA,NA,NA,NA,NA,NA,NA,NA,NA,NA,NA,NA,NA,839.6175,846.8943,NA,NA,NA,NA,NA,NA,NA,NA
714122,NA,NA,NA,NA,NA,NA,NA,NA,NA,NA,NA,NA,NA,NA,NA,NA,NA,NA,NA,NA,846.9384,853.3296,NA,NA,NA,NA,NA,NA,NA,NA
714122,NA,NA,NA,NA,NA,NA,NA,NA,NA,NA,NA,NA,NA,NA,NA,NA,NA,NA,NA,NA,NA,NA,853.3301,854.3208,0.9363,NA,NA,NA,NA,NA
714122,NA,NA,NA,NA,NA,NA,NA,NA,NA,NA,NA,NA,NA,NA,NA,NA,NA,NA,NA,NA,854.3224,860.8661,NA,NA,NA,NA,NA,NA,NA,NA
714122,NA,NA,NA,NA,NA,NA,NA,NA,NA,NA,NA,NA,NA,NA,NA,NA,NA,NA,NA,NA,860.9051,867.0433,NA,NA,NA,NA,NA,NA,NA,NA
714122,NA,NA,NA,NA,NA,NA,NA,NA,NA,NA,NA,NA,NA,NA,NA,NA,NA,NA,NA,NA,NA,NA,867.0437,868.4639,1.4073,NA,NA,NA,NA,NA
714122,NA,NA,NA,NA,NA,NA,NA,NA,NA,NA,NA,NA,NA,NA,NA,NA,NA,NA,NA,NA,868.465,874.4111,NA,NA,NA,NA,NA,NA,NA,NA
714122,NA,NA,NA,NA,NA,NA,NA,NA,NA,NA,NA,NA,NA,NA,NA,NA,NA,NA,NA,NA,874.4554,880.6999,NA,NA,NA,NA,NA,NA,NA,NA
714122,NA,NA,NA,NA,NA,NA,NA,NA,NA,NA,NA,NA,NA,NA,NA,NA,NA,NA,NA,NA,NA,NA,880.7007,882.7469,2.0093,NA,NA,NA,NA,NA
714122,NA,NA,NA,NA,NA,NA,NA,NA,NA,NA,NA,NA,NA,NA,NA,NA,NA,NA,NA,NA,882.7486,889.0927,NA,NA,NA,NA,NA,NA,NA,NA
714122,NA,NA,NA,NA,NA,NA,NA,NA,NA,NA,NA,NA,NA,NA,NA,NA,NA,NA,NA,NA,889.1268,896.5703,NA,NA,NA,NA,NA,NA,NA,NA
714122,NA,NA,NA,NA,NA,NA,NA,NA,NA,NA,NA,NA,NA,NA,NA,NA,NA,NA,NA,NA,NA,NA,896.571,900.4324,3.8252,NA,NA,NA,NA,NA
714122,NA,NA,NA,NA,NA,NA,NA,NA,NA,NA,NA,NA,NA,NA,NA,NA,NA,NA,NA,NA,900.4343,907.9771,NA,NA,NA,NA,NA,NA,NA,NA
714122,NA,NA,NA,NA,NA,NA,NA,NA,NA,NA,NA,NA,NA,NA,NA,NA,NA,NA,NA,NA,908.0103,914.2555,NA,NA,NA,NA,NA,NA,NA,NA
714122,NA,NA,NA,NA,NA,NA,NA,NA,NA,NA,NA,NA,NA,NA,NA,NA,NA,NA,NA,NA,NA,NA,914.2562,916.4193,2.1205,NA,NA,NA,NA,NA
714122,NA,NA,NA,NA,NA,NA,NA,NA,NA,NA,NA,NA,NA,NA,NA,NA,NA,NA,NA,NA,916.4205,922.5652,NA,NA,NA,NA,NA,NA,NA,NA
714122,NA,NA,NA,NA,NA,NA,NA,NA,NA,NA,NA,NA,NA,NA,NA,NA,NA,NA,NA,NA,922.6026,928.7442,NA,NA,NA,NA,NA,NA,NA,NA
714122,NA,NA,NA,NA,NA,NA,NA,NA,NA,NA,NA,NA,NA,NA,NA,NA,NA,NA,NA,NA,NA,NA,928.7454,931.6125,2.825,NA,NA,NA,NA,NA
714122,NA,NA,NA,NA,NA,NA,NA,NA,NA,NA,NA,NA,NA,NA,NA,NA,NA,NA,NA,NA,931.6139,937.7028,NA,NA,NA,NA,NA,NA,NA,NA
714122,NA,NA,NA,NA,NA,NA,NA,NA,NA,NA,NA,NA,NA,NA,NA,NA,NA,NA,NA,NA,937.7445,944.7972,NA,NA,NA,NA,NA,NA,NA,NA
714122,NA,NA,NA,NA,NA,NA,NA,NA,NA,NA,NA,NA,NA,NA,NA,NA,NA,NA,NA,NA,NA,NA,944.7981,946.9612,2.1053,NA,NA,NA,NA,NA
714122,NA,NA,NA,NA,NA,NA,NA,NA,NA,NA,NA,NA,NA,NA,NA,NA,NA,NA,NA,NA,946.9627,954.0059,NA,NA,NA,NA,NA,NA,NA,NA
714122,NA,NA,NA,NA,NA,NA,NA,NA,NA,NA,NA,NA,NA,NA,NA,NA,NA,NA,NA,NA,954.0405,960.2842,NA,NA,NA,NA,NA,NA,NA,NA
714122,NA,NA,NA,NA,NA,NA,NA,NA,NA,NA,NA,NA,NA,NA,NA,NA,NA,NA,NA,NA,NA,NA,960.285,962.3708,2.0536,NA,NA,NA,NA,NA
714122,NA,NA,NA,NA,NA,NA,NA,NA,NA,NA,NA,NA,NA,NA,NA,NA,NA,NA,NA,NA,962.3719,969.5101,NA,NA,NA,NA,NA,NA,NA,NA
714122,NA,NA,NA,NA,NA,NA,NA,NA,NA,NA,NA,NA,NA,NA,NA,NA,NA,NA,NA,NA,969.5641,976.3879,NA,NA,NA,NA,NA,NA,NA,NA
714122,NA,NA,NA,NA,NA,NA,NA,NA,NA,NA,NA,NA,NA,NA,NA,NA,NA,NA,NA,NA,NA,NA,976.389,979.0682,2.6336,NA,NA,NA,NA,NA
714122,NA,NA,NA,NA,NA,NA,NA,NA,NA,NA,NA,NA,NA,NA,NA,NA,NA,NA,NA,NA,979.0694,984.997,NA,NA,NA,NA,NA,NA,NA,NA
714122,NA,NA,NA,NA,NA,NA,NA,NA,NA,NA,NA,NA,NA,NA,NA,NA,NA,NA,NA,NA,985.0432,991.1746,NA,NA,NA,NA,NA,NA,NA,NA
714122,NA,NA,NA,NA,NA,NA,NA,NA,NA,NA,NA,NA,NA,NA,NA,NA,NA,NA,NA,NA,NA,NA,991.1753,994.7051,3.4964,NA,NA,NA,NA,NA
714122,NA,NA,NA,NA,NA,NA,NA,NA,NA,NA,NA,NA,NA,NA,NA,NA,NA,NA,NA,NA,994.7068,1001.2504,NA,NA,NA,NA,NA,NA,NA,NA
714122,NA,NA,NA,NA,NA,NA,NA,NA,NA,NA,NA,NA,NA,NA,NA,NA,NA,NA,NA,NA,1001.2891,1009.1279,NA,NA,NA,NA,NA,NA,NA,NA
714122,NA,NA,NA,NA,NA,NA,NA,NA,NA,NA,NA,NA,NA,NA,NA,NA,NA,NA,NA,NA,NA,NA,1009.1292,1015.2424,6.0761,NA,NA,NA,NA,NA
714122,NA,NA,NA,NA,NA,NA,NA,NA,NA,NA,NA,NA,NA,NA,NA,NA,NA,NA,NA,NA,1015.2433,1022.0832,NA,NA,NA,NA,NA,NA,NA,NA
714122,NA,NA,NA,NA,NA,NA,NA,NA,NA,NA,NA,NA,NA,NA,NA,NA,NA,NA,NA,NA,1022.1161,1028.6109,NA,NA,NA,NA,NA,NA,NA,NA
714122,NA,NA,NA,NA,NA,NA,NA,NA,NA,NA,NA,NA,NA,NA,NA,NA,NA,NA,NA,NA,NA,NA,1028.6112,1073.5962,44.9358,NA,NA,NA,NA,NA
714122,NA,NA,NA,NA,NA,NA,NA,NA,NA,NA,NA,NA,NA,NA,NA,NA,NA,NA,NA,NA,1073.5971,1080.4384,NA,NA,NA,NA,NA,NA,NA,NA
714122,NA,NA,NA,NA,NA,NA,NA,NA,NA,NA,NA,NA,NA,NA,NA,NA,NA,NA,NA,NA,1080.4508,1087.684,NA,NA,NA,NA,NA,NA,NA,NA
714122,NA,NA,NA,NA,NA,NA,NA,NA,NA,NA,NA,NA,NA,NA,NA,NA,NA,NA,NA,NA,NA,NA,1087.6849,1092.3743,4.6618,NA,NA,NA,NA,NA
714122,NA,NA,NA,NA,NA,NA,NA,NA,NA,NA,NA,NA,NA,NA,NA,NA,NA,NA,NA,NA,NA,NA,NA,NA,NA,1092.3745,1170.6751,78.2555,NA,NA
714122,NA,NA,NA,NA,NA,NA,NA,NA,NA,NA,NA,NA,NA,NA,NA,NA,NA,NA,NA,NA,1170.6786,1176.8259,NA,NA,NA,NA,NA,NA,NA,NA
714122,NA,NA,NA,NA,NA,NA,NA,NA,NA,NA,NA,NA,NA,NA,NA,NA,NA,NA,NA,NA,1176.8385,1183.0685,NA,NA,NA,NA,NA,NA,NA,NA
714122,NA,NA,NA,NA,NA,NA,NA,NA,NA,NA,NA,NA,NA,NA,NA,NA,NA,NA,NA,NA,NA,NA,1183.0699,1184.7825,1.6606,NA,NA,NA,NA,NA
714122,NA,NA,NA,NA,NA,NA,NA,NA,NA,NA,NA,NA,NA,NA,NA,NA,NA,NA,NA,NA,1184.7837,1192.7755,NA,NA,NA,NA,NA,NA,NA,NA
714122,NA,NA,NA,NA,NA,NA,NA,NA,NA,NA,NA,NA,NA,NA,NA,NA,NA,NA,NA,NA,1192.8111,1199.0207,NA,NA,NA,NA,NA,NA,NA,NA
714122,NA,NA,NA,NA,NA,NA,NA,NA,NA,NA,NA,NA,NA,NA,NA,NA,NA,NA,NA,NA,NA,NA,1199.0211,1201.1849,2.1181,NA,NA,NA,NA,NA
714122,NA,NA,NA,NA,NA,NA,NA,NA,NA,NA,NA,NA,NA,NA,NA,NA,NA,NA,NA,NA,1201.1863,1207.4303,NA,NA,NA,NA,NA,NA,NA,NA
714122,NA,NA,NA,NA,NA,NA,NA,NA,NA,NA,NA,NA,NA,NA,NA,NA,NA,NA,NA,NA,1207.4646,1215.2085,NA,NA,NA,NA,NA,NA,NA,NA
714122,NA,NA,NA,NA,NA,NA,NA,NA,NA,NA,NA,NA,NA,NA,NA,NA,NA,NA,NA,NA,NA,NA,1215.2101,1217.3051,2.0416,NA,NA,NA,NA,NA
714122,NA,NA,NA,NA,NA,NA,NA,NA,NA,NA,NA,NA,NA,NA,NA,NA,NA,NA,NA,NA,1217.3063,1223.3504,NA,NA,NA,NA,NA,NA,NA,NA
714122,NA,NA,NA,NA,NA,NA,NA,NA,NA,NA,NA,NA,NA,NA,NA,NA,NA,NA,NA,NA,1223.3764,1230.6134,NA,NA,NA,NA,NA,NA,NA,NA
714122,NA,NA,NA,NA,NA,NA,NA,NA,NA,NA,NA,NA,NA,NA,NA,NA,NA,NA,NA,NA,NA,NA,1230.6141,1233.3095,2.671,NA,NA,NA,NA,NA
714122,NA,NA,NA,NA,NA,NA,NA,NA,NA,NA,NA,NA,NA,NA,NA,NA,NA,NA,NA,NA,1233.311,1239.3708,NA,NA,NA,NA,NA,NA,NA,NA
714122,NA,NA,NA,NA,NA,NA,NA,NA,NA,NA,NA,NA,NA,NA,NA,NA,NA,NA,NA,NA,1239.4086,1245.7326,NA,NA,NA,NA,NA,NA,NA,NA
714122,NA,NA,NA,NA,NA,NA,NA,NA,NA,NA,NA,NA,NA,NA,NA,NA,NA,NA,NA,NA,NA,NA,1245.7336,1250.2783,4.4932,NA,NA,NA,NA,NA
714122,NA,NA,NA,NA,NA,NA,NA,NA,NA,NA,NA,NA,NA,NA,NA,NA,NA,NA,NA,NA,1250.2793,1256.3401,NA,NA,NA,NA,NA,NA,NA,NA
714122,NA,NA,NA,NA,NA,NA,NA,NA,NA,NA,NA,NA,NA,NA,NA,NA,NA,NA,NA,NA,1256.3722,1262.7179,NA,NA,NA,NA,NA,NA,NA,NA
714122,NA,NA,NA,NA,NA,NA,NA,NA,NA,NA,NA,NA,NA,NA,NA,NA,NA,NA,NA,NA,NA,NA,1262.7181,1266.6149,3.8703,NA,NA,NA,NA,NA
714122,NA,NA,NA,NA,NA,NA,NA,NA,NA,NA,NA,NA,NA,NA,NA,NA,NA,NA,NA,NA,1266.6157,1273.2597,NA,NA,NA,NA,NA,NA,NA,NA
714122,NA,NA,NA,NA,NA,NA,NA,NA,NA,NA,NA,NA,NA,NA,NA,NA,NA,NA,NA,NA,1273.2967,1279.4379,NA,NA,NA,NA,NA,NA,NA,NA
714122,NA,NA,NA,NA,NA,NA,NA,NA,NA,NA,NA,NA,NA,NA,NA,NA,NA,NA,NA,NA,NA,NA,1279.4389,1284.205,4.7312,NA,NA,NA,NA,NA
714122,NA,NA,NA,NA,NA,NA,NA,NA,NA,NA,NA,NA,NA,NA,NA,NA,NA,NA,NA,NA,1284.2061,1290.4519,NA,NA,NA,NA,NA,NA,NA,NA
714122,NA,NA,NA,NA,NA,NA,NA,NA,NA,NA,NA,NA,NA,NA,NA,NA,NA,NA,NA,NA,1290.4949,1296.6402,NA,NA,NA,NA,NA,NA,NA,NA
714122,NA,NA,NA,NA,NA,NA,NA,NA,NA,NA,NA,NA,NA,NA,NA,NA,NA,NA,NA,NA,NA,NA,1296.641,1301.4527,4.7662,NA,NA,NA,NA,NA
714122,NA,NA,NA,NA,NA,NA,NA,NA,NA,NA,NA,NA,NA,NA,NA,NA,NA,NA,NA,NA,1301.4543,1307.6649,NA,NA,NA,NA,NA,NA,NA,NA
714122,NA,NA,NA,NA,NA,NA,NA,NA,NA,NA,NA,NA,NA,NA,NA,NA,NA,NA,NA,NA,1307.7003,1313.4763,NA,NA,NA,NA,NA,NA,NA,NA
714122,NA,NA,NA,NA,NA,NA,NA,NA,NA,NA,NA,NA,NA,NA,NA,NA,NA,NA,NA,NA,NA,NA,1313.477,1333.3097,19.7865,NA,NA,NA,NA,NA
714122,NA,NA,NA,NA,NA,NA,NA,NA,NA,NA,NA,NA,NA,NA,NA,NA,NA,NA,NA,NA,1333.311,1339.655,NA,NA,NA,NA,NA,NA,NA,NA
714122,NA,NA,NA,NA,NA,NA,NA,NA,NA,NA,NA,NA,NA,NA,NA,NA,NA,NA,NA,NA,1339.6893,1345.9334,NA,NA,NA,NA,NA,NA,NA,NA
714122,NA,NA,NA,NA,NA,NA,NA,NA,NA,NA,NA,NA,NA,NA,NA,NA,NA,NA,NA,NA,NA,NA,1345.9342,1444.5906,98.622,NA,NA,NA,NA,NA
714122,NA,NA,NA,NA,NA,NA,NA,NA,NA,NA,NA,NA,NA,NA,NA,NA,NA,NA,NA,NA,1444.5914,1450.5173,NA,NA,NA,NA,NA,NA,NA,NA
714122,NA,NA,NA,NA,NA,NA,NA,NA,NA,NA,NA,NA,NA,NA,NA,NA,NA,NA,NA,NA,1450.5285,1456.548,NA,NA,NA,NA,NA,NA,NA,NA
714122,NA,NA,NA,NA,NA,NA,NA,NA,NA,NA,NA,NA,NA,NA,NA,NA,NA,NA,NA,NA,NA,NA,1456.5485,1463.328,6.7329,NA,NA,NA,NA,NA
714122,NA,NA,NA,NA,NA,NA,NA,NA,NA,NA,NA,NA,NA,NA,NA,NA,NA,NA,NA,NA,1463.3294,1469.031,NA,NA,NA,NA,NA,NA,NA,NA
714122,NA,NA,NA,NA,NA,NA,NA,NA,NA,NA,NA,NA,NA,NA,NA,NA,NA,NA,NA,NA,1469.0464,1475.2434,NA,NA,NA,NA,NA,NA,NA,NA
714122,NA,NA,NA,NA,NA,NA,NA,NA,NA,NA,NA,NA,NA,NA,NA,NA,NA,NA,NA,NA,NA,NA,1475.2441,1476.1086,0.8237,NA,NA,NA,NA,NA
714122,NA,NA,NA,NA,NA,NA,NA,NA,NA,NA,NA,NA,NA,NA,NA,NA,NA,NA,NA,NA,1476.1102,1482.3546,NA,NA,NA,NA,NA,NA,NA,NA
714122,NA,NA,NA,NA,NA,NA,NA,NA,NA,NA,NA,NA,NA,NA,NA,NA,NA,NA,NA,NA,1482.3901,1488.8324,NA,NA,NA,NA,NA,NA,NA,NA
714122,NA,NA,NA,NA,NA,NA,NA,NA,NA,NA,NA,NA,NA,NA,NA,NA,NA,NA,NA,NA,NA,NA,1488.8335,1489.7309,0.8515,NA,NA,NA,NA,NA
714122,NA,NA,NA,NA,NA,NA,NA,NA,NA,NA,NA,NA,NA,NA,NA,NA,NA,NA,NA,NA,1489.732,1495.6765,NA,NA,NA,NA,NA,NA,NA,NA
714122,NA,NA,NA,NA,NA,NA,NA,NA,NA,NA,NA,NA,NA,NA,NA,NA,NA,NA,NA,NA,1495.7096,1501.8563,NA,NA,NA,NA,NA,NA,NA,NA
714122,NA,NA,NA,NA,NA,NA,NA,NA,NA,NA,NA,NA,NA,NA,NA,NA,NA,NA,NA,NA,NA,NA,1501.8568,1513.4132,11.5152,NA,NA,NA,NA,NA
714122,NA,NA,NA,NA,NA,NA,NA,NA,NA,NA,NA,NA,NA,NA,NA,NA,NA,NA,NA,NA,1513.4141,1519.7579,NA,NA,NA,NA,NA,NA,NA,NA
714122,NA,NA,NA,NA,NA,NA,NA,NA,NA,NA,NA,NA,NA,NA,NA,NA,NA,NA,NA,NA,1519.7949,1526.3352,NA,NA,NA,NA,NA,NA,NA,NA
714122,NA,NA,NA,NA,NA,NA,NA,NA,NA,NA,NA,NA,NA,NA,NA,NA,NA,NA,NA,NA,NA,NA,1526.3363,1540.14,13.7604,NA,NA,NA,NA,NA
714122,NA,NA,NA,NA,NA,NA,NA,NA,NA,NA,NA,NA,NA,NA,NA,NA,NA,NA,NA,NA,1540.1409,1546.9019,NA,NA,NA,NA,NA,NA,NA,NA
714122,NA,NA,NA,NA,NA,NA,NA,NA,NA,NA,NA,NA,NA,NA,NA,NA,NA,NA,NA,NA,1546.9428,1553.7175,NA,NA,NA,NA,NA,NA,NA,NA
714122,NA,NA,NA,NA,NA,NA,NA,NA,NA,NA,NA,NA,NA,NA,NA,NA,NA,NA,NA,NA,NA,NA,1553.7181,1568.4163,14.6611,NA,NA,NA,NA,NA
714122,NA,NA,NA,NA,NA,NA,NA,NA,NA,NA,NA,NA,NA,NA,NA,NA,NA,NA,NA,NA,1568.4173,1577.3593,NA,NA,NA,NA,NA,NA,NA,NA
714122,NA,NA,NA,NA,NA,NA,NA,NA,NA,NA,NA,NA,NA,NA,NA,NA,NA,NA,NA,NA,1577.3952,1583.7378,NA,NA,NA,NA,NA,NA,NA,NA
714122,NA,NA,NA,NA,NA,NA,NA,NA,NA,NA,NA,NA,NA,NA,NA,NA,NA,NA,NA,NA,NA,NA,1583.7389,1591.3804,7.5958,NA,NA,NA,NA,NA
714122,NA,NA,NA,NA,NA,NA,NA,NA,NA,NA,NA,NA,NA,NA,NA,NA,NA,NA,NA,NA,1591.3817,1597.3509,NA,NA,NA,NA,NA,NA,NA,NA
714122,NA,NA,NA,NA,NA,NA,NA,NA,NA,NA,NA,NA,NA,NA,NA,NA,NA,NA,NA,NA,1597.352,1603.7373,NA,NA,NA,NA,NA,NA,NA,NA
714122,NA,NA,NA,NA,NA,NA,NA,NA,NA,NA,NA,NA,NA,NA,NA,NA,NA,NA,NA,NA,NA,NA,1603.7382,1605.0525,1.2729,NA,NA,NA,NA,NA
714122,NA,NA,NA,NA,NA,NA,NA,NA,NA,NA,NA,NA,NA,NA,NA,NA,NA,NA,NA,NA,1605.0541,1612.4138,NA,NA,NA,NA,NA,NA,NA,NA
714122,NA,NA,NA,NA,NA,NA,NA,NA,NA,NA,NA,NA,NA,NA,NA,NA,NA,NA,NA,NA,1612.4517,1619.7966,NA,NA,NA,NA,NA,NA,NA,NA
714122,NA,NA,NA,NA,NA,NA,NA,NA,NA,NA,NA,NA,NA,NA,NA,NA,NA,NA,NA,NA,NA,NA,1619.7972,1620.9076,1.0703,NA,NA,NA,NA,NA
714122,NA,NA,NA,NA,NA,NA,NA,NA,NA,NA,NA,NA,NA,NA,NA,NA,NA,NA,NA,NA,1620.9089,1626.853,NA,NA,NA,NA,NA,NA,NA,NA
714122,NA,NA,NA,NA,NA,NA,NA,NA,NA,NA,NA,NA,NA,NA,NA,NA,NA,NA,NA,NA,1626.9184,1633.1468,NA,NA,NA,NA,NA,NA,NA,NA
714122,NA,NA,NA,NA,NA,NA,NA,NA,NA,NA,NA,NA,NA,NA,NA,NA,NA,NA,NA,NA,NA,NA,1633.1474,1639.2931,6.1115,NA,NA,NA,NA,NA
714122,NA,NA,NA,NA,NA,NA,NA,NA,NA,NA,NA,NA,NA,NA,NA,NA,NA,NA,NA,NA,1639.2941,1646.3365,NA,NA,NA,NA,NA,NA,NA,NA
714122,NA,NA,NA,NA,NA,NA,NA,NA,NA,NA,NA,NA,NA,NA,NA,NA,NA,NA,NA,NA,1646.3737,1653.6139,NA,NA,NA,NA,NA,NA,NA,NA
714122,NA,NA,NA,NA,NA,NA,NA,NA,NA,NA,NA,NA,NA,NA,NA,NA,NA,NA,NA,NA,NA,NA,1653.6145,1655.0448,1.3834,NA,NA,NA,NA,NA
714122,NA,NA,NA,NA,NA,NA,NA,NA,NA,NA,NA,NA,NA,NA,NA,NA,NA,NA,NA,NA,1655.0462,1661.1907,NA,NA,NA,NA,NA,NA,NA,NA
714122,NA,NA,NA,NA,NA,NA,NA,NA,NA,NA,NA,NA,NA,NA,NA,NA,NA,NA,NA,NA,1661.2299,1667.5697,NA,NA,NA,NA,NA,NA,NA,NA
714122,NA,NA,NA,NA,NA,NA,NA,NA,NA,NA,NA,NA,NA,NA,NA,NA,NA,NA,NA,NA,NA,NA,1667.5707,1668.2337,0.6239,NA,NA,NA,NA,NA
714122,NA,NA,NA,NA,NA,NA,NA,NA,NA,NA,NA,NA,NA,NA,NA,NA,NA,NA,NA,NA,1668.2351,1674.7793,NA,NA,NA,NA,NA,NA,NA,NA
714122,NA,NA,NA,NA,NA,NA,NA,NA,NA,NA,NA,NA,NA,NA,NA,NA,NA,NA,NA,NA,1674.8151,1685.0706,NA,NA,NA,NA,NA,NA,NA,NA
714122,NA,NA,NA,NA,NA,NA,NA,NA,NA,NA,NA,NA,NA,NA,NA,NA,NA,NA,NA,NA,NA,NA,1685.071,1692.6481,7.5426,NA,NA,NA,NA,NA
714122,NA,NA,NA,NA,NA,NA,NA,NA,NA,NA,NA,NA,NA,NA,NA,NA,NA,NA,NA,NA,NA,NA,NA,NA,NA,1692.6481,1692.6481,NA,NA,NA
714122,NA,NA,NA,NA,NA,NA,NA,NA,NA,NA,NA,NA,NA,NA,NA,NA,NA,NA,NA,NA,NA,NA,NA,NA,NA,NA,NA,NA,NA,NA
714122,NA,NA,NA,NA,NA,NA,NA,NA,NA,NA,NA,NA,NA,NA,NA,NA,NA,NA,NA,NA,NA,NA,NA,NA,NA,NA,NA,NA,1882.9418,1884.7748
464455,0,1.683,1.66,NA,NA,NA,NA,NA,NA,NA,NA,NA,NA,NA,NA,NA,NA,NA,NA,NA,NA,NA,NA,NA,NA,NA,NA,NA,NA,NA
464455,NA,NA,NA,NA,NA,NA,NA,NA,NA,NA,NA,NA,NA,NA,NA,NA,NA,NA,NA,NA,NA,NA,NA,NA,NA,NA,NA,NA,NA,NA
464455,NA,NA,NA,373.68,373.68,NA,NA,NA,NA,NA,NA,NA,NA,NA,NA,NA,NA,NA,NA,NA,NA,NA,NA,NA,NA,NA,NA,NA,NA,NA
464455,NA,NA,NA,NA,NA,373.681,378.11,4.405,378.11,393.966,5.836,393.966,403.944,9.945,403.945,421.148,17.191,421.148,423.747,2.576,423.763,429.977,NA,NA,NA,NA,NA,NA,NA,NA
464455,NA,NA,NA,NA,NA,NA,NA,NA,NA,NA,NA,NA,NA,NA,NA,NA,NA,NA,NA,NA,429.98,435.673,NA,NA,NA,NA,NA,NA,NA,NA
464455,NA,NA,NA,NA,NA,NA,NA,NA,NA,NA,NA,NA,NA,NA,NA,NA,NA,NA,NA,NA,NA,NA,435.674,438.22,2.536,NA,NA,NA,NA,NA
464455,NA,NA,NA,NA,NA,NA,NA,NA,NA,NA,NA,NA,NA,NA,NA,NA,NA,NA,NA,NA,438.225,445.583,NA,NA,NA,NA,NA,NA,NA,NA
464455,NA,NA,NA,NA,NA,NA,NA,NA,NA,NA,NA,NA,NA,NA,NA,NA,NA,NA,NA,NA,445.585,452.945,NA,NA,NA,NA,NA,NA,NA,NA
464455,NA,NA,NA,NA,NA,NA,NA,NA,NA,NA,NA,NA,NA,NA,NA,NA,NA,NA,NA,NA,NA,NA,452.946,454.676,1.721,NA,NA,NA,NA,NA
464455,NA,NA,NA,NA,NA,NA,NA,NA,NA,NA,NA,NA,NA,NA,NA,NA,NA,NA,NA,NA,454.681,460.623,NA,NA,NA,NA,NA,NA,NA,NA
464455,NA,NA,NA,NA,NA,NA,NA,NA,NA,NA,NA,NA,NA,NA,NA,NA,NA,NA,NA,NA,460.624,466.837,NA,NA,NA,NA,NA,NA,NA,NA
464455,NA,NA,NA,NA,NA,NA,NA,NA,NA,NA,NA,NA,NA,NA,NA,NA,NA,NA,NA,NA,NA,NA,466.838,469.868,3.018,NA,NA,NA,NA,NA
464455,NA,NA,NA,NA,NA,NA,NA,NA,NA,NA,NA,NA,NA,NA,NA,NA,NA,NA,NA,NA,469.873,476.097,NA,NA,NA,NA,NA,NA,NA,NA
464455,NA,NA,NA,NA,NA,NA,NA,NA,NA,NA,NA,NA,NA,NA,NA,NA,NA,NA,NA,NA,476.098,483.825,NA,NA,NA,NA,NA,NA,NA,NA
464455,NA,NA,NA,NA,NA,NA,NA,NA,NA,NA,NA,NA,NA,NA,NA,NA,NA,NA,NA,NA,NA,NA,483.826,486.523,2.695,NA,NA,NA,NA,NA
464455,NA,NA,NA,NA,NA,NA,NA,NA,NA,NA,NA,NA,NA,NA,NA,NA,NA,NA,NA,NA,486.527,492.42,NA,NA,NA,NA,NA,NA,NA,NA
464455,NA,NA,NA,NA,NA,NA,NA,NA,NA,NA,NA,NA,NA,NA,NA,NA,NA,NA,NA,NA,492.421,498.549,NA,NA,NA,NA,NA,NA,NA,NA
464455,NA,NA,NA,NA,NA,NA,NA,NA,NA,NA,NA,NA,NA,NA,NA,NA,NA,NA,NA,NA,NA,NA,498.551,500.247,1.689,NA,NA,NA,NA,NA
464455,NA,NA,NA,NA,NA,NA,NA,NA,NA,NA,NA,NA,NA,NA,NA,NA,NA,NA,NA,NA,500.253,506.711,NA,NA,NA,NA,NA,NA,NA,NA
464455,NA,NA,NA,NA,NA,NA,NA,NA,NA,NA,NA,NA,NA,NA,NA,NA,NA,NA,NA,NA,506.715,513.023,NA,NA,NA,NA,NA,NA,NA,NA
464455,NA,NA,NA,NA,NA,NA,NA,NA,NA,NA,NA,NA,NA,NA,NA,NA,NA,NA,NA,NA,NA,NA,513.024,515.387,2.36,NA,NA,NA,NA,NA
464455,NA,NA,NA,NA,NA,NA,NA,NA,NA,NA,NA,NA,NA,NA,NA,NA,NA,NA,NA,NA,515.391,521.452,NA,NA,NA,NA,NA,NA,NA,NA
464455,NA,NA,NA,NA,NA,NA,NA,NA,NA,NA,NA,NA,NA,NA,NA,NA,NA,NA,NA,NA,521.452,527.781,NA,NA,NA,NA,NA,NA,NA,NA
464455,NA,NA,NA,NA,NA,NA,NA,NA,NA,NA,NA,NA,NA,NA,NA,NA,NA,NA,NA,NA,NA,NA,527.781,529.679,1.895,NA,NA,NA,NA,NA
464455,NA,NA,NA,NA,NA,NA,NA,NA,NA,NA,NA,NA,NA,NA,NA,NA,NA,NA,NA,NA,529.682,536.459,NA,NA,NA,NA,NA,NA,NA,NA
464455,NA,NA,NA,NA,NA,NA,NA,NA,NA,NA,NA,NA,NA,NA,NA,NA,NA,NA,NA,NA,536.464,543.22,NA,NA,NA,NA,NA,NA,NA,NA
464455,NA,NA,NA,NA,NA,NA,NA,NA,NA,NA,NA,NA,NA,NA,NA,NA,NA,NA,NA,NA,NA,NA,543.221,546.851,3.622,NA,NA,NA,NA,NA
464455,NA,NA,NA,NA,NA,NA,NA,NA,NA,NA,NA,NA,NA,NA,NA,NA,NA,NA,NA,NA,546.856,553.048,NA,NA,NA,NA,NA,NA,NA,NA
464455,NA,NA,NA,NA,NA,NA,NA,NA,NA,NA,NA,NA,NA,NA,NA,NA,NA,NA,NA,NA,553.05,559.178,NA,NA,NA,NA,NA,NA,NA,NA
464455,NA,NA,NA,NA,NA,NA,NA,NA,NA,NA,NA,NA,NA,NA,NA,NA,NA,NA,NA,NA,NA,NA,559.178,560.81,1.628,NA,NA,NA,NA,NA
464455,NA,NA,NA,NA,NA,NA,NA,NA,NA,NA,NA,NA,NA,NA,NA,NA,NA,NA,NA,NA,560.814,567.024,NA,NA,NA,NA,NA,NA,NA,NA
464455,NA,NA,NA,NA,NA,NA,NA,NA,NA,NA,NA,NA,NA,NA,NA,NA,NA,NA,NA,NA,567.027,575.017,NA,NA,NA,NA,NA,NA,NA,NA
464455,NA,NA,NA,NA,NA,NA,NA,NA,NA,NA,NA,NA,NA,NA,NA,NA,NA,NA,NA,NA,NA,NA,575.017,578.881,3.855,NA,NA,NA,NA,NA
464455,NA,NA,NA,NA,NA,NA,NA,NA,NA,NA,NA,NA,NA,NA,NA,NA,NA,NA,NA,NA,578.888,585.461,NA,NA,NA,NA,NA,NA,NA,NA
464455,NA,NA,NA,NA,NA,NA,NA,NA,NA,NA,NA,NA,NA,NA,NA,NA,NA,NA,NA,NA,585.463,591.54,NA,NA,NA,NA,NA,NA,NA,NA
464455,NA,NA,NA,NA,NA,NA,NA,NA,NA,NA,NA,NA,NA,NA,NA,NA,NA,NA,NA,NA,NA,NA,591.54,593.139,1.59,NA,NA,NA,NA,NA
464455,NA,NA,NA,NA,NA,NA,NA,NA,NA,NA,NA,NA,NA,NA,NA,NA,NA,NA,NA,NA,593.142,599.385,NA,NA,NA,NA,NA,NA,NA,NA
464455,NA,NA,NA,NA,NA,NA,NA,NA,NA,NA,NA,NA,NA,NA,NA,NA,NA,NA,NA,NA,599.388,605.647,NA,NA,NA,NA,NA,NA,NA,NA
464455,NA,NA,NA,NA,NA,NA,NA,NA,NA,NA,NA,NA,NA,NA,NA,NA,NA,NA,NA,NA,NA,NA,605.648,607.246,1.592,NA,NA,NA,NA,NA
464455,NA,NA,NA,NA,NA,NA,NA,NA,NA,NA,NA,NA,NA,NA,NA,NA,NA,NA,NA,NA,607.252,613.46,NA,NA,NA,NA,NA,NA,NA,NA
464455,NA,NA,NA,NA,NA,NA,NA,NA,NA,NA,NA,NA,NA,NA,NA,NA,NA,NA,NA,NA,613.46,619.238,NA,NA,NA,NA,NA,NA,NA,NA
464455,NA,NA,NA,NA,NA,NA,NA,NA,NA,NA,NA,NA,NA,NA,NA,NA,NA,NA,NA,NA,NA,NA,619.239,621.337,2.089,NA,NA,NA,NA,NA
464455,NA,NA,NA,NA,NA,NA,NA,NA,NA,NA,NA,NA,NA,NA,NA,NA,NA,NA,NA,NA,621.341,627.633,NA,NA,NA,NA,NA,NA,NA,NA
464455,NA,NA,NA,NA,NA,NA,NA,NA,NA,NA,NA,NA,NA,NA,NA,NA,NA,NA,NA,NA,627.634,636.562,NA,NA,NA,NA,NA,NA,NA,NA
464455,NA,NA,NA,NA,NA,NA,NA,NA,NA,NA,NA,NA,NA,NA,NA,NA,NA,NA,NA,NA,NA,NA,636.564,640.042,3.473,NA,NA,NA,NA,NA
464455,NA,NA,NA,NA,NA,NA,NA,NA,NA,NA,NA,NA,NA,NA,NA,NA,NA,NA,NA,NA,640.048,647.072,NA,NA,NA,NA,NA,NA,NA,NA
464455,NA,NA,NA,NA,NA,NA,NA,NA,NA,NA,NA,NA,NA,NA,NA,NA,NA,NA,NA,NA,647.072,654.3,NA,NA,NA,NA,NA,NA,NA,NA
464455,NA,NA,NA,NA,NA,NA,NA,NA,NA,NA,NA,NA,NA,NA,NA,NA,NA,NA,NA,NA,NA,NA,654.301,656.165,1.855,NA,NA,NA,NA,NA
464455,NA,NA,NA,NA,NA,NA,NA,NA,NA,NA,NA,NA,NA,NA,NA,NA,NA,NA,NA,NA,656.169,662.095,NA,NA,NA,NA,NA,NA,NA,NA
464455,NA,NA,NA,NA,NA,NA,NA,NA,NA,NA,NA,NA,NA,NA,NA,NA,NA,NA,NA,NA,662.095,668.126,NA,NA,NA,NA,NA,NA,NA,NA
464455,NA,NA,NA,NA,NA,NA,NA,NA,NA,NA,NA,NA,NA,NA,NA,NA,NA,NA,NA,NA,NA,NA,668.128,670.156,2.026,NA,NA,NA,NA,NA
464455,NA,NA,NA,NA,NA,NA,NA,NA,NA,NA,NA,NA,NA,NA,NA,NA,NA,NA,NA,NA,670.161,676.519,NA,NA,NA,NA,NA,NA,NA,NA
464455,NA,NA,NA,NA,NA,NA,NA,NA,NA,NA,NA,NA,NA,NA,NA,NA,NA,NA,NA,NA,676.52,682.582,NA,NA,NA,NA,NA,NA,NA,NA
464455,NA,NA,NA,NA,NA,NA,NA,NA,NA,NA,NA,NA,NA,NA,NA,NA,NA,NA,NA,NA,NA,NA,682.583,684.73,2.139,NA,NA,NA,NA,NA
464455,NA,NA,NA,NA,NA,NA,NA,NA,NA,NA,NA,NA,NA,NA,NA,NA,NA,NA,NA,NA,684.734,690.593,NA,NA,NA,NA,NA,NA,NA,NA
464455,NA,NA,NA,NA,NA,NA,NA,NA,NA,NA,NA,NA,NA,NA,NA,NA,NA,NA,NA,NA,690.594,696.989,NA,NA,NA,NA,NA,NA,NA,NA
464455,NA,NA,NA,NA,NA,NA,NA,NA,NA,NA,NA,NA,NA,NA,NA,NA,NA,NA,NA,NA,NA,NA,696.99,698.872,1.873,NA,NA,NA,NA,NA
464455,NA,NA,NA,NA,NA,NA,NA,NA,NA,NA,NA,NA,NA,NA,NA,NA,NA,NA,NA,NA,698.878,704.967,NA,NA,NA,NA,NA,NA,NA,NA
464455,NA,NA,NA,NA,NA,NA,NA,NA,NA,NA,NA,NA,NA,NA,NA,NA,NA,NA,NA,NA,704.969,711.181,NA,NA,NA,NA,NA,NA,NA,NA
464455,NA,NA,NA,NA,NA,NA,NA,NA,NA,NA,NA,NA,NA,NA,NA,NA,NA,NA,NA,NA,NA,NA,711.182,713.778,2.594,NA,NA,NA,NA,NA
464455,NA,NA,NA,NA,NA,NA,NA,NA,NA,NA,NA,NA,NA,NA,NA,NA,NA,NA,NA,NA,713.782,719.758,NA,NA,NA,NA,NA,NA,NA,NA
464455,NA,NA,NA,NA,NA,NA,NA,NA,NA,NA,NA,NA,NA,NA,NA,NA,NA,NA,NA,NA,719.76,726.903,NA,NA,NA,NA,NA,NA,NA,NA
464455,NA,NA,NA,NA,NA,NA,NA,NA,NA,NA,NA,NA,NA,NA,NA,NA,NA,NA,NA,NA,NA,NA,726.904,728.635,1.729,NA,NA,NA,NA,NA
464455,NA,NA,NA,NA,NA,NA,NA,NA,NA,NA,NA,NA,NA,NA,NA,NA,NA,NA,NA,NA,728.639,735.083,NA,NA,NA,NA,NA,NA,NA,NA
464455,NA,NA,NA,NA,NA,NA,NA,NA,NA,NA,NA,NA,NA,NA,NA,NA,NA,NA,NA,NA,735.087,741.261,NA,NA,NA,NA,NA,NA,NA,NA
464455,NA,NA,NA,NA,NA,NA,NA,NA,NA,NA,NA,NA,NA,NA,NA,NA,NA,NA,NA,NA,NA,NA,741.262,744.725,3.452,NA,NA,NA,NA,NA
464455,NA,NA,NA,NA,NA,NA,NA,NA,NA,NA,NA,NA,NA,NA,NA,NA,NA,NA,NA,NA,744.731,751.054,NA,NA,NA,NA,NA,NA,NA,NA
464455,NA,NA,NA,NA,NA,NA,NA,NA,NA,NA,NA,NA,NA,NA,NA,NA,NA,NA,NA,NA,751.055,757.117,NA,NA,NA,NA,NA,NA,NA,NA
464455,NA,NA,NA,NA,NA,NA,NA,NA,NA,NA,NA,NA,NA,NA,NA,NA,NA,NA,NA,NA,NA,NA,757.117,760.065,2.939,NA,NA,NA,NA,NA
464455,NA,NA,NA,NA,NA,NA,NA,NA,NA,NA,NA,NA,NA,NA,NA,NA,NA,NA,NA,NA,760.068,770.31,NA,NA,NA,NA,NA,NA,NA,NA
464455,NA,NA,NA,NA,NA,NA,NA,NA,NA,NA,NA,NA,NA,NA,NA,NA,NA,NA,NA,NA,770.315,776.855,NA,NA,NA,NA,NA,NA,NA,NA
464455,NA,NA,NA,NA,NA,NA,NA,NA,NA,NA,NA,NA,NA,NA,NA,NA,NA,NA,NA,NA,NA,NA,776.857,780.919,4.06,NA,NA,NA,NA,NA
464455,NA,NA,NA,NA,NA,NA,NA,NA,NA,NA,NA,NA,NA,NA,NA,NA,NA,NA,NA,NA,NA,NA,NA,NA,NA,780.919,800.09,19.15,NA,NA
464455,NA,NA,NA,NA,NA,NA,NA,NA,NA,NA,NA,NA,NA,NA,NA,NA,NA,NA,NA,NA,800.099,807.635,NA,NA,NA,NA,NA,NA,NA,NA
464455,NA,NA,NA,NA,NA,NA,NA,NA,NA,NA,NA,NA,NA,NA,NA,NA,NA,NA,NA,NA,807.638,813.848,NA,NA,NA,NA,NA,NA,NA,NA
464455,NA,NA,NA,NA,NA,NA,NA,NA,NA,NA,NA,NA,NA,NA,NA,NA,NA,NA,NA,NA,NA,NA,813.849,817.614,3.762,NA,NA,NA,NA,NA
464455,NA,NA,NA,NA,NA,NA,NA,NA,NA,NA,NA,NA,NA,NA,NA,NA,NA,NA,NA,NA,817.616,824.891,NA,NA,NA,NA,NA,NA,NA,NA
464455,NA,NA,NA,NA,NA,NA,NA,NA,NA,NA,NA,NA,NA,NA,NA,NA,NA,NA,NA,NA,824.892,831.287,NA,NA,NA,NA,NA,NA,NA,NA
464455,NA,NA,NA,NA,NA,NA,NA,NA,NA,NA,NA,NA,NA,NA,NA,NA,NA,NA,NA,NA,NA,NA,831.289,834.119,2.822,NA,NA,NA,NA,NA
464455,NA,NA,NA,NA,NA,NA,NA,NA,NA,NA,NA,NA,NA,NA,NA,NA,NA,NA,NA,NA,834.124,841.181,NA,NA,NA,NA,NA,NA,NA,NA
464455,NA,NA,NA,NA,NA,NA,NA,NA,NA,NA,NA,NA,NA,NA,NA,NA,NA,NA,NA,NA,841.182,847.294,NA,NA,NA,NA,NA,NA,NA,NA
464455,NA,NA,NA,NA,NA,NA,NA,NA,NA,NA,NA,NA,NA,NA,NA,NA,NA,NA,NA,NA,NA,NA,847.295,848.593,1.287,NA,NA,NA,NA,NA
464455,NA,NA,NA,NA,NA,NA,NA,NA,NA,NA,NA,NA,NA,NA,NA,NA,NA,NA,NA,NA,848.597,854.705,NA,NA,NA,NA,NA,NA,NA,NA
464455,NA,NA,NA,NA,NA,NA,NA,NA,NA,NA,NA,NA,NA,NA,NA,NA,NA,NA,NA,NA,854.708,860.768,NA,NA,NA,NA,NA,NA,NA,NA
464455,NA,NA,NA,NA,NA,NA,NA,NA,NA,NA,NA,NA,NA,NA,NA,NA,NA,NA,NA,NA,NA,NA,860.768,862.551,1.775,NA,NA,NA,NA,NA
464455,NA,NA,NA,NA,NA,NA,NA,NA,NA,NA,NA,NA,NA,NA,NA,NA,NA,NA,NA,NA,862.554,870.395,NA,NA,NA,NA,NA,NA,NA,NA
464455,NA,NA,NA,NA,NA,NA,NA,NA,NA,NA,NA,NA,NA,NA,NA,NA,NA,NA,NA,NA,870.4,876.908,NA,NA,NA,NA,NA,NA,NA,NA
464455,NA,NA,NA,NA,NA,NA,NA,NA,NA,NA,NA,NA,NA,NA,NA,NA,NA,NA,NA,NA,NA,NA,876.908,879.258,2.348,NA,NA,NA,NA,NA
464455,NA,NA,NA,NA,NA,NA,NA,NA,NA,NA,NA,NA,NA,NA,NA,NA,NA,NA,NA,NA,879.263,886.052,NA,NA,NA,NA,NA,NA,NA,NA
464455,NA,NA,NA,NA,NA,NA,NA,NA,NA,NA,NA,NA,NA,NA,NA,NA,NA,NA,NA,NA,886.054,892.548,NA,NA,NA,NA,NA,NA,NA,NA
464455,NA,NA,NA,NA,NA,NA,NA,NA,NA,NA,NA,NA,NA,NA,NA,NA,NA,NA,NA,NA,NA,NA,892.548,893.914,1.362,NA,NA,NA,NA,NA
464455,NA,NA,NA,NA,NA,NA,NA,NA,NA,NA,NA,NA,NA,NA,NA,NA,NA,NA,NA,NA,893.917,899.443,NA,NA,NA,NA,NA,NA,NA,NA
464455,NA,NA,NA,NA,NA,NA,NA,NA,NA,NA,NA,NA,NA,NA,NA,NA,NA,NA,NA,NA,899.444,905.474,NA,NA,NA,NA,NA,NA,NA,NA
464455,NA,NA,NA,NA,NA,NA,NA,NA,NA,NA,NA,NA,NA,NA,NA,NA,NA,NA,NA,NA,NA,NA,905.476,907.057,1.576,NA,NA,NA,NA,NA
464455,NA,NA,NA,NA,NA,NA,NA,NA,NA,NA,NA,NA,NA,NA,NA,NA,NA,NA,NA,NA,907.062,913.718,NA,NA,NA,NA,NA,NA,NA,NA
464455,NA,NA,NA,NA,NA,NA,NA,NA,NA,NA,NA,NA,NA,NA,NA,NA,NA,NA,NA,NA,913.719,920.013,NA,NA,NA,NA,NA,NA,NA,NA
464455,NA,NA,NA,NA,NA,NA,NA,NA,NA,NA,NA,NA,NA,NA,NA,NA,NA,NA,NA,NA,NA,NA,920.013,921.629,1.61,NA,NA,NA,NA,NA
464455,NA,NA,NA,NA,NA,NA,NA,NA,NA,NA,NA,NA,NA,NA,NA,NA,NA,NA,NA,NA,921.633,927.742,NA,NA,NA,NA,NA,NA,NA,NA
464455,NA,NA,NA,NA,NA,NA,NA,NA,NA,NA,NA,NA,NA,NA,NA,NA,NA,NA,NA,NA,927.744,932.872,NA,NA,NA,NA,NA,NA,NA,NA
464455,NA,NA,NA,NA,NA,NA,NA,NA,NA,NA,NA,NA,NA,NA,NA,NA,NA,NA,NA,NA,NA,NA,932.873,934.355,1.479,NA,NA,NA,NA,NA
464455,NA,NA,NA,NA,NA,NA,NA,NA,NA,NA,NA,NA,NA,NA,NA,NA,NA,NA,NA,NA,934.359,941.168,NA,NA,NA,NA,NA,NA,NA,NA
464455,NA,NA,NA,NA,NA,NA,NA,NA,NA,NA,NA,NA,NA,NA,NA,NA,NA,NA,NA,NA,941.169,948.412,NA,NA,NA,NA,NA,NA,NA,NA
464455,NA,NA,NA,NA,NA,NA,NA,NA,NA,NA,NA,NA,NA,NA,NA,NA,NA,NA,NA,NA,NA,NA,948.412,949.661,1.239,NA,NA,NA,NA,NA
464455,NA,NA,NA,NA,NA,NA,NA,NA,NA,NA,NA,NA,NA,NA,NA,NA,NA,NA,NA,NA,949.666,956.124,NA,NA,NA,NA,NA,NA,NA,NA
464455,NA,NA,NA,NA,NA,NA,NA,NA,NA,NA,NA,NA,NA,NA,NA,NA,NA,NA,NA,NA,956.125,962.204,NA,NA,NA,NA,NA,NA,NA,NA
464455,NA,NA,NA,NA,NA,NA,NA,NA,NA,NA,NA,NA,NA,NA,NA,NA,NA,NA,NA,NA,NA,NA,962.205,964.203,1.989,NA,NA,NA,NA,NA
464455,NA,NA,NA,NA,NA,NA,NA,NA,NA,NA,NA,NA,NA,NA,NA,NA,NA,NA,NA,NA,964.206,970.366,NA,NA,NA,NA,NA,NA,NA,NA
464455,NA,NA,NA,NA,NA,NA,NA,NA,NA,NA,NA,NA,NA,NA,NA,NA,NA,NA,NA,NA,970.37,976.378,NA,NA,NA,NA,NA,NA,NA,NA
464455,NA,NA,NA,NA,NA,NA,NA,NA,NA,NA,NA,NA,NA,NA,NA,NA,NA,NA,NA,NA,NA,NA,976.378,977.595,1.209,NA,NA,NA,NA,NA
464455,NA,NA,NA,NA,NA,NA,NA,NA,NA,NA,NA,NA,NA,NA,NA,NA,NA,NA,NA,NA,977.598,983.475,NA,NA,NA,NA,NA,NA,NA,NA
464455,NA,NA,NA,NA,NA,NA,NA,NA,NA,NA,NA,NA,NA,NA,NA,NA,NA,NA,NA,NA,983.476,989.386,NA,NA,NA,NA,NA,NA,NA,NA
464455,NA,NA,NA,NA,NA,NA,NA,NA,NA,NA,NA,NA,NA,NA,NA,NA,NA,NA,NA,NA,NA,NA,989.387,990.669,1.271,NA,NA,NA,NA,NA
464455,NA,NA,NA,NA,NA,NA,NA,NA,NA,NA,NA,NA,NA,NA,NA,NA,NA,NA,NA,NA,990.672,996.948,NA,NA,NA,NA,NA,NA,NA,NA
464455,NA,NA,NA,NA,NA,NA,NA,NA,NA,NA,NA,NA,NA,NA,NA,NA,NA,NA,NA,NA,996.949,1004.378,NA,NA,NA,NA,NA,NA,NA,NA
464455,NA,NA,NA,NA,NA,NA,NA,NA,NA,NA,NA,NA,NA,NA,NA,NA,NA,NA,NA,NA,NA,NA,1004.379,1005.993,1.603,NA,NA,NA,NA,NA
464455,NA,NA,NA,NA,NA,NA,NA,NA,NA,NA,NA,NA,NA,NA,NA,NA,NA,NA,NA,NA,1005.999,1011.705,NA,NA,NA,NA,NA,NA,NA,NA
464455,NA,NA,NA,NA,NA,NA,NA,NA,NA,NA,NA,NA,NA,NA,NA,NA,NA,NA,NA,NA,1011.706,1017.719,NA,NA,NA,NA,NA,NA,NA,NA
464455,NA,NA,NA,NA,NA,NA,NA,NA,NA,NA,NA,NA,NA,NA,NA,NA,NA,NA,NA,NA,NA,NA,1017.719,1019.051,1.326,NA,NA,NA,NA,NA
464455,NA,NA,NA,NA,NA,NA,NA,NA,NA,NA,NA,NA,NA,NA,NA,NA,NA,NA,NA,NA,1019.054,1025.114,NA,NA,NA,NA,NA,NA,NA,NA
464455,NA,NA,NA,NA,NA,NA,NA,NA,NA,NA,NA,NA,NA,NA,NA,NA,NA,NA,NA,NA,1025.115,1031.043,NA,NA,NA,NA,NA,NA,NA,NA
464455,NA,NA,NA,NA,NA,NA,NA,NA,NA,NA,NA,NA,NA,NA,NA,NA,NA,NA,NA,NA,NA,NA,1031.044,1033.492,2.437,NA,NA,NA,NA,NA
464455,NA,NA,NA,NA,NA,NA,NA,NA,NA,NA,NA,NA,NA,NA,NA,NA,NA,NA,NA,NA,1033.496,1040.339,NA,NA,NA,NA,NA,NA,NA,NA
464455,NA,NA,NA,NA,NA,NA,NA,NA,NA,NA,NA,NA,NA,NA,NA,NA,NA,NA,NA,NA,1040.343,1047.366,NA,NA,NA,NA,NA,NA,NA,NA
464455,NA,NA,NA,NA,NA,NA,NA,NA,NA,NA,NA,NA,NA,NA,NA,NA,NA,NA,NA,NA,NA,NA,1047.367,1048.931,1.561,NA,NA,NA,NA,NA
464455,NA,NA,NA,NA,NA,NA,NA,NA,NA,NA,NA,NA,NA,NA,NA,NA,NA,NA,NA,NA,1048.935,1055.044,NA,NA,NA,NA,NA,NA,NA,NA
464455,NA,NA,NA,NA,NA,NA,NA,NA,NA,NA,NA,NA,NA,NA,NA,NA,NA,NA,NA,NA,1055.047,1059.025,NA,NA,NA,NA,NA,NA,NA,NA
464455,NA,NA,NA,NA,NA,NA,NA,NA,NA,NA,NA,NA,NA,NA,NA,NA,NA,NA,NA,NA,NA,NA,1059.025,1061.192,2.154,NA,NA,NA,NA,NA
464455,NA,NA,NA,NA,NA,NA,NA,NA,NA,NA,NA,NA,NA,NA,NA,NA,NA,NA,NA,NA,1061.196,1066.67,NA,NA,NA,NA,NA,NA,NA,NA
464455,NA,NA,NA,NA,NA,NA,NA,NA,NA,NA,NA,NA,NA,NA,NA,NA,NA,NA,NA,NA,1066.671,1072.7,NA,NA,NA,NA,NA,NA,NA,NA
464455,NA,NA,NA,NA,NA,NA,NA,NA,NA,NA,NA,NA,NA,NA,NA,NA,NA,NA,NA,NA,NA,NA,1072.701,1073.916,1.208,NA,NA,NA,NA,NA
464455,NA,NA,NA,NA,NA,NA,NA,NA,NA,NA,NA,NA,NA,NA,NA,NA,NA,NA,NA,NA,1073.921,1080.112,NA,NA,NA,NA,NA,NA,NA,NA
464455,NA,NA,NA,NA,NA,NA,NA,NA,NA,NA,NA,NA,NA,NA,NA,NA,NA,NA,NA,NA,1080.112,1086.008,NA,NA,NA,NA,NA,NA,NA,NA
464455,NA,NA,NA,NA,NA,NA,NA,NA,NA,NA,NA,NA,NA,NA,NA,NA,NA,NA,NA,NA,NA,NA,1086.009,1088.24,2.222,NA,NA,NA,NA,NA
464455,NA,NA,NA,NA,NA,NA,NA,NA,NA,NA,NA,NA,NA,NA,NA,NA,NA,NA,NA,NA,1088.244,1095.335,NA,NA,NA,NA,NA,NA,NA,NA
464455,NA,NA,NA,NA,NA,NA,NA,NA,NA,NA,NA,NA,NA,NA,NA,NA,NA,NA,NA,NA,1095.336,1102.1,NA,NA,NA,NA,NA,NA,NA,NA
464455,NA,NA,NA,NA,NA,NA,NA,NA,NA,NA,NA,NA,NA,NA,NA,NA,NA,NA,NA,NA,NA,NA,1102.1,1103.83,1.722,NA,NA,NA,NA,NA
464455,NA,NA,NA,NA,NA,NA,NA,NA,NA,NA,NA,NA,NA,NA,NA,NA,NA,NA,NA,NA,1103.835,1110.027,NA,NA,NA,NA,NA,NA,NA,NA
464455,NA,NA,NA,NA,NA,NA,NA,NA,NA,NA,NA,NA,NA,NA,NA,NA,NA,NA,NA,NA,1110.028,1117.022,NA,NA,NA,NA,NA,NA,NA,NA
464455,NA,NA,NA,NA,NA,NA,NA,NA,NA,NA,NA,NA,NA,NA,NA,NA,NA,NA,NA,NA,NA,NA,1117.023,1118.587,1.557,NA,NA,NA,NA,NA
464455,NA,NA,NA,NA,NA,NA,NA,NA,NA,NA,NA,NA,NA,NA,NA,NA,NA,NA,NA,NA,1118.59,1123.9,NA,NA,NA,NA,NA,NA,NA,NA
464455,NA,NA,NA,NA,NA,NA,NA,NA,NA,NA,NA,NA,NA,NA,NA,NA,NA,NA,NA,NA,1123.902,1130.047,NA,NA,NA,NA,NA,NA,NA,NA
464455,NA,NA,NA,NA,NA,NA,NA,NA,NA,NA,NA,NA,NA,NA,NA,NA,NA,NA,NA,NA,NA,NA,1130.047,1132.063,2.011,NA,NA,NA,NA,NA
464455,NA,NA,NA,NA,NA,NA,NA,NA,NA,NA,NA,NA,NA,NA,NA,NA,NA,NA,NA,NA,1132.066,1138.544,NA,NA,NA,NA,NA,NA,NA,NA
464455,NA,NA,NA,NA,NA,NA,NA,NA,NA,NA,NA,NA,NA,NA,NA,NA,NA,NA,NA,NA,1138.546,1144.62,NA,NA,NA,NA,NA,NA,NA,NA
464455,NA,NA,NA,NA,NA,NA,NA,NA,NA,NA,NA,NA,NA,NA,NA,NA,NA,NA,NA,NA,NA,NA,1144.622,1146.669,2.038,NA,NA,NA,NA,NA
464455,NA,NA,NA,NA,NA,NA,NA,NA,NA,NA,NA,NA,NA,NA,NA,NA,NA,NA,NA,NA,NA,NA,NA,NA,NA,1146.669,1182.947,36.256,NA,NA
464455,NA,NA,NA,NA,NA,NA,NA,NA,NA,NA,NA,NA,NA,NA,NA,NA,NA,NA,NA,NA,1182.956,1191.808,NA,NA,NA,NA,NA,NA,NA,NA
464455,NA,NA,NA,NA,NA,NA,NA,NA,NA,NA,NA,NA,NA,NA,NA,NA,NA,NA,NA,NA,1191.81,1200.069,NA,NA,NA,NA,NA,NA,NA,NA
464455,NA,NA,NA,NA,NA,NA,NA,NA,NA,NA,NA,NA,NA,NA,NA,NA,NA,NA,NA,NA,NA,NA,1200.069,1201.352,1.275,NA,NA,NA,NA,NA
464455,NA,NA,NA,NA,NA,NA,NA,NA,NA,NA,NA,NA,NA,NA,NA,NA,NA,NA,NA,NA,1201.355,1207.615,NA,NA,NA,NA,NA,NA,NA,NA
464455,NA,NA,NA,NA,NA,NA,NA,NA,NA,NA,NA,NA,NA,NA,NA,NA,NA,NA,NA,NA,1207.619,1213.76,NA,NA,NA,NA,NA,NA,NA,NA
464455,NA,NA,NA,NA,NA,NA,NA,NA,NA,NA,NA,NA,NA,NA,NA,NA,NA,NA,NA,NA,NA,NA,1213.76,1215.842,2.077,NA,NA,NA,NA,NA
464455,NA,NA,NA,NA,NA,NA,NA,NA,NA,NA,NA,NA,NA,NA,NA,NA,NA,NA,NA,NA,1215.846,1222.705,NA,NA,NA,NA,NA,NA,NA,NA
464455,NA,NA,NA,NA,NA,NA,NA,NA,NA,NA,NA,NA,NA,NA,NA,NA,NA,NA,NA,NA,1222.706,1228.95,NA,NA,NA,NA,NA,NA,NA,NA
464455,NA,NA,NA,NA,NA,NA,NA,NA,NA,NA,NA,NA,NA,NA,NA,NA,NA,NA,NA,NA,NA,NA,1228.951,1230.899,1.943,NA,NA,NA,NA,NA
464455,NA,NA,NA,NA,NA,NA,NA,NA,NA,NA,NA,NA,NA,NA,NA,NA,NA,NA,NA,NA,1230.901,1238.412,NA,NA,NA,NA,NA,NA,NA,NA
464455,NA,NA,NA,NA,NA,NA,NA,NA,NA,NA,NA,NA,NA,NA,NA,NA,NA,NA,NA,NA,1238.416,1244.757,NA,NA,NA,NA,NA,NA,NA,NA
464455,NA,NA,NA,NA,NA,NA,NA,NA,NA,NA,NA,NA,NA,NA,NA,NA,NA,NA,NA,NA,NA,NA,1244.758,1246.023,1.257,NA,NA,NA,NA,NA
464455,NA,NA,NA,NA,NA,NA,NA,NA,NA,NA,NA,NA,NA,NA,NA,NA,NA,NA,NA,NA,1246.027,1252.252,NA,NA,NA,NA,NA,NA,NA,NA
464455,NA,NA,NA,NA,NA,NA,NA,NA,NA,NA,NA,NA,NA,NA,NA,NA,NA,NA,NA,NA,1252.253,1258.381,NA,NA,NA,NA,NA,NA,NA,NA
464455,NA,NA,NA,NA,NA,NA,NA,NA,NA,NA,NA,NA,NA,NA,NA,NA,NA,NA,NA,NA,NA,NA,1258.382,1259.58,1.191,NA,NA,NA,NA,NA
464455,NA,NA,NA,NA,NA,NA,NA,NA,NA,NA,NA,NA,NA,NA,NA,NA,NA,NA,NA,NA,1259.586,1267.243,NA,NA,NA,NA,NA,NA,NA,NA
464455,NA,NA,NA,NA,NA,NA,NA,NA,NA,NA,NA,NA,NA,NA,NA,NA,NA,NA,NA,NA,1267.246,1273.64,NA,NA,NA,NA,NA,NA,NA,NA
464455,NA,NA,NA,NA,NA,NA,NA,NA,NA,NA,NA,NA,NA,NA,NA,NA,NA,NA,NA,NA,NA,NA,1273.641,1275.087,1.44,NA,NA,NA,NA,NA
464455,NA,NA,NA,NA,NA,NA,NA,NA,NA,NA,NA,NA,NA,NA,NA,NA,NA,NA,NA,NA,1275.094,1279.802,NA,NA,NA,NA,NA,NA,NA,NA
464455,NA,NA,NA,NA,NA,NA,NA,NA,NA,NA,NA,NA,NA,NA,NA,NA,NA,NA,NA,NA,1279.803,1285.847,NA,NA,NA,NA,NA,NA,NA,NA
464455,NA,NA,NA,NA,NA,NA,NA,NA,NA,NA,NA,NA,NA,NA,NA,NA,NA,NA,NA,NA,NA,NA,1285.848,1287.313,1.457,NA,NA,NA,NA,NA
464455,NA,NA,NA,NA,NA,NA,NA,NA,NA,NA,NA,NA,NA,NA,NA,NA,NA,NA,NA,NA,1287.316,1293.775,NA,NA,NA,NA,NA,NA,NA,NA
464455,NA,NA,NA,NA,NA,NA,NA,NA,NA,NA,NA,NA,NA,NA,NA,NA,NA,NA,NA,NA,1293.776,1301.287,NA,NA,NA,NA,NA,NA,NA,NA
464455,NA,NA,NA,NA,NA,NA,NA,NA,NA,NA,NA,NA,NA,NA,NA,NA,NA,NA,NA,NA,NA,NA,1301.288,1302.537,1.243,NA,NA,NA,NA,NA
464455,NA,NA,NA,NA,NA,NA,NA,NA,NA,NA,NA,NA,NA,NA,NA,NA,NA,NA,NA,NA,1302.54,1308.385,NA,NA,NA,NA,NA,NA,NA,NA
464455,NA,NA,NA,NA,NA,NA,NA,NA,NA,NA,NA,NA,NA,NA,NA,NA,NA,NA,NA,NA,1308.388,1314.412,NA,NA,NA,NA,NA,NA,NA,NA
464455,NA,NA,NA,NA,NA,NA,NA,NA,NA,NA,NA,NA,NA,NA,NA,NA,NA,NA,NA,NA,NA,NA,1314.413,1315.795,1.378,NA,NA,NA,NA,NA
464455,NA,NA,NA,NA,NA,NA,NA,NA,NA,NA,NA,NA,NA,NA,NA,NA,NA,NA,NA,NA,1315.8,1322.307,NA,NA,NA,NA,NA,NA,NA,NA
464455,NA,NA,NA,NA,NA,NA,NA,NA,NA,NA,NA,NA,NA,NA,NA,NA,NA,NA,NA,NA,1322.31,1329.686,NA,NA,NA,NA,NA,NA,NA,NA
464455,NA,NA,NA,NA,NA,NA,NA,NA,NA,NA,NA,NA,NA,NA,NA,NA,NA,NA,NA,NA,NA,NA,1329.687,1331.602,1.906,NA,NA,NA,NA,NA
464455,NA,NA,NA,NA,NA,NA,NA,NA,NA,NA,NA,NA,NA,NA,NA,NA,NA,NA,NA,NA,1331.606,1337.849,NA,NA,NA,NA,NA,NA,NA,NA
464455,NA,NA,NA,NA,NA,NA,NA,NA,NA,NA,NA,NA,NA,NA,NA,NA,NA,NA,NA,NA,1337.852,1345.526,NA,NA,NA,NA,NA,NA,NA,NA
464455,NA,NA,NA,NA,NA,NA,NA,NA,NA,NA,NA,NA,NA,NA,NA,NA,NA,NA,NA,NA,NA,NA,1345.527,1348.008,2.473,NA,NA,NA,NA,NA
464455,NA,NA,NA,NA,NA,NA,NA,NA,NA,NA,NA,NA,NA,NA,NA,NA,NA,NA,NA,NA,1348.014,1354.171,NA,NA,NA,NA,NA,NA,NA,NA
464455,NA,NA,NA,NA,NA,NA,NA,NA,NA,NA,NA,NA,NA,NA,NA,NA,NA,NA,NA,NA,1354.171,1358.568,NA,NA,NA,NA,NA,NA,NA,NA
464455,NA,NA,NA,NA,NA,NA,NA,NA,NA,NA,NA,NA,NA,NA,NA,NA,NA,NA,NA,NA,NA,NA,1358.568,1360.185,1.615,NA,NA,NA,NA,NA
464455,NA,NA,NA,NA,NA,NA,NA,NA,NA,NA,NA,NA,NA,NA,NA,NA,NA,NA,NA,NA,1360.188,1367.029,NA,NA,NA,NA,NA,NA,NA,NA
464455,NA,NA,NA,NA,NA,NA,NA,NA,NA,NA,NA,NA,NA,NA,NA,NA,NA,NA,NA,NA,1367.03,1372.627,NA,NA,NA,NA,NA,NA,NA,NA
464455,NA,NA,NA,NA,NA,NA,NA,NA,NA,NA,NA,NA,NA,NA,NA,NA,NA,NA,NA,NA,NA,NA,1372.628,1373.724,1.085,NA,NA,NA,NA,NA
464455,NA,NA,NA,NA,NA,NA,NA,NA,NA,NA,NA,NA,NA,NA,NA,NA,NA,NA,NA,NA,1373.729,1380.321,NA,NA,NA,NA,NA,NA,NA,NA
464455,NA,NA,NA,NA,NA,NA,NA,NA,NA,NA,NA,NA,NA,NA,NA,NA,NA,NA,NA,NA,1380.323,1386.884,NA,NA,NA,NA,NA,NA,NA,NA
464455,NA,NA,NA,NA,NA,NA,NA,NA,NA,NA,NA,NA,NA,NA,NA,NA,NA,NA,NA,NA,NA,NA,1386.885,1388.415,1.521,NA,NA,NA,NA,NA
464455,NA,NA,NA,NA,NA,NA,NA,NA,NA,NA,NA,NA,NA,NA,NA,NA,NA,NA,NA,NA,1388.418,1396.71,NA,NA,NA,NA,NA,NA,NA,NA
464455,NA,NA,NA,NA,NA,NA,NA,NA,NA,NA,NA,NA,NA,NA,NA,NA,NA,NA,NA,NA,1396.712,1403.006,NA,NA,NA,NA,NA,NA,NA,NA
464455,NA,NA,NA,NA,NA,NA,NA,NA,NA,NA,NA,NA,NA,NA,NA,NA,NA,NA,NA,NA,NA,NA,1403.007,1404.258,1.24,NA,NA,NA,NA,NA
464455,NA,NA,NA,NA,NA,NA,NA,NA,NA,NA,NA,NA,NA,NA,NA,NA,NA,NA,NA,NA,1404.26,1410.469,NA,NA,NA,NA,NA,NA,NA,NA
464455,NA,NA,NA,NA,NA,NA,NA,NA,NA,NA,NA,NA,NA,NA,NA,NA,NA,NA,NA,NA,1410.47,1416.665,NA,NA,NA,NA,NA,NA,NA,NA
464455,NA,NA,NA,NA,NA,NA,NA,NA,NA,NA,NA,NA,NA,NA,NA,NA,NA,NA,NA,NA,NA,NA,1416.667,1418.88,2.203,NA,NA,NA,NA,NA
464455,NA,NA,NA,NA,NA,NA,NA,NA,NA,NA,NA,NA,NA,NA,NA,NA,NA,NA,NA,NA,1418.883,1424.926,NA,NA,NA,NA,NA,NA,NA,NA
464455,NA,NA,NA,NA,NA,NA,NA,NA,NA,NA,NA,NA,NA,NA,NA,NA,NA,NA,NA,NA,1424.927,1433.054,NA,NA,NA,NA,NA,NA,NA,NA
464455,NA,NA,NA,NA,NA,NA,NA,NA,NA,NA,NA,NA,NA,NA,NA,NA,NA,NA,NA,NA,NA,NA,1433.055,1434.386,1.322,NA,NA,NA,NA,NA
464455,NA,NA,NA,NA,NA,NA,NA,NA,NA,NA,NA,NA,NA,NA,NA,NA,NA,NA,NA,NA,1434.389,1440.7,NA,NA,NA,NA,NA,NA,NA,NA
464455,NA,NA,NA,NA,NA,NA,NA,NA,NA,NA,NA,NA,NA,NA,NA,NA,NA,NA,NA,NA,1440.705,1447.394,NA,NA,NA,NA,NA,NA,NA,NA
464455,NA,NA,NA,NA,NA,NA,NA,NA,NA,NA,NA,NA,NA,NA,NA,NA,NA,NA,NA,NA,NA,NA,1447.396,1448.795,1.396,NA,NA,NA,NA,NA
464455,NA,NA,NA,NA,NA,NA,NA,NA,NA,NA,NA,NA,NA,NA,NA,NA,NA,NA,NA,NA,1448.8,1454.873,NA,NA,NA,NA,NA,NA,NA,NA
464455,NA,NA,NA,NA,NA,NA,NA,NA,NA,NA,NA,NA,NA,NA,NA,NA,NA,NA,NA,NA,1454.873,1460.82,NA,NA,NA,NA,NA,NA,NA,NA
464455,NA,NA,NA,NA,NA,NA,NA,NA,NA,NA,NA,NA,NA,NA,NA,NA,NA,NA,NA,NA,NA,NA,1460.82,1462.085,1.255,NA,NA,NA,NA,NA
464455,NA,NA,NA,NA,NA,NA,NA,NA,NA,NA,NA,NA,NA,NA,NA,NA,NA,NA,NA,NA,1462.089,1468.131,NA,NA,NA,NA,NA,NA,NA,NA
464455,NA,NA,NA,NA,NA,NA,NA,NA,NA,NA,NA,NA,NA,NA,NA,NA,NA,NA,NA,NA,1468.132,1473.929,NA,NA,NA,NA,NA,NA,NA,NA
464455,NA,NA,NA,NA,NA,NA,NA,NA,NA,NA,NA,NA,NA,NA,NA,NA,NA,NA,NA,NA,NA,NA,1473.93,1476.276,2.343,NA,NA,NA,NA,NA
464455,NA,NA,NA,NA,NA,NA,NA,NA,NA,NA,NA,NA,NA,NA,NA,NA,NA,NA,NA,NA,1476.281,1482.239,NA,NA,NA,NA,NA,NA,NA,NA
464455,NA,NA,NA,NA,NA,NA,NA,NA,NA,NA,NA,NA,NA,NA,NA,NA,NA,NA,NA,NA,1482.24,1486.32,NA,NA,NA,NA,NA,NA,NA,NA
464455,NA,NA,NA,NA,NA,NA,NA,NA,NA,NA,NA,NA,NA,NA,NA,NA,NA,NA,NA,NA,NA,NA,1486.321,1487.918,1.589,NA,NA,NA,NA,NA
464455,NA,NA,NA,NA,NA,NA,NA,NA,NA,NA,NA,NA,NA,NA,NA,NA,NA,NA,NA,NA,1487.923,1494.031,NA,NA,NA,NA,NA,NA,NA,NA
464455,NA,NA,NA,NA,NA,NA,NA,NA,NA,NA,NA,NA,NA,NA,NA,NA,NA,NA,NA,NA,1494.032,1502.627,NA,NA,NA,NA,NA,NA,NA,NA
464455,NA,NA,NA,NA,NA,NA,NA,NA,NA,NA,NA,NA,NA,NA,NA,NA,NA,NA,NA,NA,NA,NA,1502.627,1504.891,2.256,NA,NA,NA,NA,NA
464455,NA,NA,NA,NA,NA,NA,NA,NA,NA,NA,NA,NA,NA,NA,NA,NA,NA,NA,NA,NA,1504.895,1511.92,NA,NA,NA,NA,NA,NA,NA,NA
464455,NA,NA,NA,NA,NA,NA,NA,NA,NA,NA,NA,NA,NA,NA,NA,NA,NA,NA,NA,NA,1511.925,1518.05,NA,NA,NA,NA,NA,NA,NA,NA
464455,NA,NA,NA,NA,NA,NA,NA,NA,NA,NA,NA,NA,NA,NA,NA,NA,NA,NA,NA,NA,NA,NA,1518.05,1520.998,2.944,NA,NA,NA,NA,NA
464455,NA,NA,NA,NA,NA,NA,NA,NA,NA,NA,NA,NA,NA,NA,NA,NA,NA,NA,NA,NA,NA,NA,NA,NA,NA,1520.998,1520.999,NA,NA,NA
464455,NA,NA,NA,NA,NA,NA,NA,NA,NA,NA,NA,NA,NA,NA,NA,NA,NA,NA,NA,NA,NA,NA,NA,NA,NA,NA,NA,NA,NA,NA
464455,NA,NA,NA,NA,NA,NA,NA,NA,NA,NA,NA,NA,NA,NA,NA,NA,NA,NA,NA,NA,NA,NA,NA,NA,NA,NA,NA,NA,1732.859,1735.228
1709,5e-4,1.9834,1.966,NA,NA,NA,NA,NA,NA,NA,NA,NA,NA,NA,NA,NA,NA,NA,NA,NA,NA,NA,NA,NA,NA,NA,NA,NA,NA,NA
1709,NA,NA,NA,NA,NA,NA,NA,NA,NA,NA,NA,NA,NA,NA,NA,NA,NA,NA,NA,NA,NA,NA,NA,NA,NA,NA,NA,NA,NA,NA
1709,NA,NA,NA,70.3728,70.3729,NA,NA,NA,NA,NA,NA,NA,NA,NA,NA,NA,NA,NA,NA,NA,NA,NA,NA,NA,NA,NA,NA,NA,NA,NA
1709,NA,NA,NA,NA,NA,70.3744,170.2622,99.8573,170.2626,704.1292,523.847,704.1306,757.7711,53.6014,757.7713,775.3193,17.5317,775.3195,1044.7943,269.464,1044.8176,1051.1586,NA,NA,NA,NA,NA,NA,NA,NA
1709,NA,NA,NA,NA,NA,NA,NA,NA,NA,NA,NA,NA,NA,NA,NA,NA,NA,NA,NA,NA,1051.16,1058.674,NA,NA,NA,NA,NA,NA,NA,NA
1709,NA,NA,NA,NA,NA,NA,NA,NA,NA,NA,NA,NA,NA,NA,NA,NA,NA,NA,NA,NA,NA,NA,1058.6838,1060.5575,1.8657,NA,NA,NA,NA,NA
1709,NA,NA,NA,NA,NA,NA,NA,NA,NA,NA,NA,NA,NA,NA,NA,NA,NA,NA,NA,NA,1060.5583,1069.4239,NA,NA,NA,NA,NA,NA,NA,NA
1709,NA,NA,NA,NA,NA,NA,NA,NA,NA,NA,NA,NA,NA,NA,NA,NA,NA,NA,NA,NA,1069.4329,1077.6902,NA,NA,NA,NA,NA,NA,NA,NA
1709,NA,NA,NA,NA,NA,NA,NA,NA,NA,NA,NA,NA,NA,NA,NA,NA,NA,NA,NA,NA,NA,NA,1077.6903,1086.6232,8.9191,NA,NA,NA,NA,NA
1709,NA,NA,NA,NA,NA,NA,NA,NA,NA,NA,NA,NA,NA,NA,NA,NA,NA,NA,NA,NA,1086.624,1092.6734,NA,NA,NA,NA,NA,NA,NA,NA
1709,NA,NA,NA,NA,NA,NA,NA,NA,NA,NA,NA,NA,NA,NA,NA,NA,NA,NA,NA,NA,1092.6859,1100.8054,NA,NA,NA,NA,NA,NA,NA,NA
1709,NA,NA,NA,NA,NA,NA,NA,NA,NA,NA,NA,NA,NA,NA,NA,NA,NA,NA,NA,NA,NA,NA,1100.8057,1114.9554,14.1353,NA,NA,NA,NA,NA
1709,NA,NA,NA,NA,NA,NA,NA,NA,NA,NA,NA,NA,NA,NA,NA,NA,NA,NA,NA,NA,1114.9563,1121.2555,NA,NA,NA,NA,NA,NA,NA,NA
1709,NA,NA,NA,NA,NA,NA,NA,NA,NA,NA,NA,NA,NA,NA,NA,NA,NA,NA,NA,NA,1121.266,1129.5548,NA,NA,NA,NA,NA,NA,NA,NA
1709,NA,NA,NA,NA,NA,NA,NA,NA,NA,NA,NA,NA,NA,NA,NA,NA,NA,NA,NA,NA,NA,NA,1129.5549,1130.3381,0.7631,NA,NA,NA,NA,NA
1709,NA,NA,NA,NA,NA,NA,NA,NA,NA,NA,NA,NA,NA,NA,NA,NA,NA,NA,NA,NA,1130.3388,1136.6041,NA,NA,NA,NA,NA,NA,NA,NA
1709,NA,NA,NA,NA,NA,NA,NA,NA,NA,NA,NA,NA,NA,NA,NA,NA,NA,NA,NA,NA,1136.6135,1142.7548,NA,NA,NA,NA,NA,NA,NA,NA
1709,NA,NA,NA,NA,NA,NA,NA,NA,NA,NA,NA,NA,NA,NA,NA,NA,NA,NA,NA,NA,NA,NA,1142.755,1144.0378,1.2766,NA,NA,NA,NA,NA
1709,NA,NA,NA,NA,NA,NA,NA,NA,NA,NA,NA,NA,NA,NA,NA,NA,NA,NA,NA,NA,1144.0389,1150.2922,NA,NA,NA,NA,NA,NA,NA,NA
1709,NA,NA,NA,NA,NA,NA,NA,NA,NA,NA,NA,NA,NA,NA,NA,NA,NA,NA,NA,NA,1150.3062,1157.1706,NA,NA,NA,NA,NA,NA,NA,NA
1709,NA,NA,NA,NA,NA,NA,NA,NA,NA,NA,NA,NA,NA,NA,NA,NA,NA,NA,NA,NA,NA,NA,1157.1708,1158.6703,1.476,NA,NA,NA,NA,NA
1709,NA,NA,NA,NA,NA,NA,NA,NA,NA,NA,NA,NA,NA,NA,NA,NA,NA,NA,NA,NA,1158.6709,1164.9867,NA,NA,NA,NA,NA,NA,NA,NA
1709,NA,NA,NA,NA,NA,NA,NA,NA,NA,NA,NA,NA,NA,NA,NA,NA,NA,NA,NA,NA,1164.9984,1171.6864,NA,NA,NA,NA,NA,NA,NA,NA
1709,NA,NA,NA,NA,NA,NA,NA,NA,NA,NA,NA,NA,NA,NA,NA,NA,NA,NA,NA,NA,NA,NA,1171.6865,1173.2696,1.5725,NA,NA,NA,NA,NA
1709,NA,NA,NA,NA,NA,NA,NA,NA,NA,NA,NA,NA,NA,NA,NA,NA,NA,NA,NA,NA,1173.2704,1180.6533,NA,NA,NA,NA,NA,NA,NA,NA
1709,NA,NA,NA,NA,NA,NA,NA,NA,NA,NA,NA,NA,NA,NA,NA,NA,NA,NA,NA,NA,1180.6643,1187.1688,NA,NA,NA,NA,NA,NA,NA,NA
1709,NA,NA,NA,NA,NA,NA,NA,NA,NA,NA,NA,NA,NA,NA,NA,NA,NA,NA,NA,NA,NA,NA,1187.1689,1188.2191,1.0288,NA,NA,NA,NA,NA
1709,NA,NA,NA,NA,NA,NA,NA,NA,NA,NA,NA,NA,NA,NA,NA,NA,NA,NA,NA,NA,1188.22,1192.9352,NA,NA,NA,NA,NA,NA,NA,NA
1709,NA,NA,NA,NA,NA,NA,NA,NA,NA,NA,NA,NA,NA,NA,NA,NA,NA,NA,NA,NA,1192.9457,1198.9854,NA,NA,NA,NA,NA,NA,NA,NA
1709,NA,NA,NA,NA,NA,NA,NA,NA,NA,NA,NA,NA,NA,NA,NA,NA,NA,NA,NA,NA,NA,NA,1198.9862,1210.4683,11.466,NA,NA,NA,NA,NA
1709,NA,NA,NA,NA,NA,NA,NA,NA,NA,NA,NA,NA,NA,NA,NA,NA,NA,NA,NA,NA,1210.4694,1214.5516,NA,NA,NA,NA,NA,NA,NA,NA
1709,NA,NA,NA,NA,NA,NA,NA,NA,NA,NA,NA,NA,NA,NA,NA,NA,NA,NA,NA,NA,1214.5595,1220.5213,NA,NA,NA,NA,NA,NA,NA,NA
1709,NA,NA,NA,NA,NA,NA,NA,NA,NA,NA,NA,NA,NA,NA,NA,NA,NA,NA,NA,NA,NA,NA,1220.5222,1251.6677,31.1209,NA,NA,NA,NA,NA
1709,NA,NA,NA,NA,NA,NA,NA,NA,NA,NA,NA,NA,NA,NA,NA,NA,NA,NA,NA,NA,1251.6708,1257.5166,NA,NA,NA,NA,NA,NA,NA,NA
1709,NA,NA,NA,NA,NA,NA,NA,NA,NA,NA,NA,NA,NA,NA,NA,NA,NA,NA,NA,NA,1257.5258,1263.5494,NA,NA,NA,NA,NA,NA,NA,NA
1709,NA,NA,NA,NA,NA,NA,NA,NA,NA,NA,NA,NA,NA,NA,NA,NA,NA,NA,NA,NA,NA,NA,1263.5496,1350.496,86.925,NA,NA,NA,NA,NA
1709,NA,NA,NA,NA,NA,NA,NA,NA,NA,NA,NA,NA,NA,NA,NA,NA,NA,NA,NA,NA,1350.4971,1356.4465,NA,NA,NA,NA,NA,NA,NA,NA
1709,NA,NA,NA,NA,NA,NA,NA,NA,NA,NA,NA,NA,NA,NA,NA,NA,NA,NA,NA,NA,1356.4568,1362.5279,NA,NA,NA,NA,NA,NA,NA,NA
1709,NA,NA,NA,NA,NA,NA,NA,NA,NA,NA,NA,NA,NA,NA,NA,NA,NA,NA,NA,NA,NA,NA,1362.5281,1384.1448,21.5962,NA,NA,NA,NA,NA
1709,NA,NA,NA,NA,NA,NA,NA,NA,NA,NA,NA,NA,NA,NA,NA,NA,NA,NA,NA,NA,1384.1459,1390.9784,NA,NA,NA,NA,NA,NA,NA,NA
1709,NA,NA,NA,NA,NA,NA,NA,NA,NA,NA,NA,NA,NA,NA,NA,NA,NA,NA,NA,NA,1390.9887,1396.5766,NA,NA,NA,NA,NA,NA,NA,NA
1709,NA,NA,NA,NA,NA,NA,NA,NA,NA,NA,NA,NA,NA,NA,NA,NA,NA,NA,NA,NA,NA,NA,1396.5769,1416.7766,20.1786,NA,NA,NA,NA,NA
1709,NA,NA,NA,NA,NA,NA,NA,NA,NA,NA,NA,NA,NA,NA,NA,NA,NA,NA,NA,NA,1416.7779,1423.2267,NA,NA,NA,NA,NA,NA,NA,NA
1709,NA,NA,NA,NA,NA,NA,NA,NA,NA,NA,NA,NA,NA,NA,NA,NA,NA,NA,NA,NA,1423.2365,1430.7263,NA,NA,NA,NA,NA,NA,NA,NA
1709,NA,NA,NA,NA,NA,NA,NA,NA,NA,NA,NA,NA,NA,NA,NA,NA,NA,NA,NA,NA,NA,NA,1430.7266,1432.126,1.3842,NA,NA,NA,NA,NA
1709,NA,NA,NA,NA,NA,NA,NA,NA,NA,NA,NA,NA,NA,NA,NA,NA,NA,NA,NA,NA,1432.1268,1438.1761,NA,NA,NA,NA,NA,NA,NA,NA
1709,NA,NA,NA,NA,NA,NA,NA,NA,NA,NA,NA,NA,NA,NA,NA,NA,NA,NA,NA,NA,1438.1874,1443.9754,NA,NA,NA,NA,NA,NA,NA,NA
1709,NA,NA,NA,NA,NA,NA,NA,NA,NA,NA,NA,NA,NA,NA,NA,NA,NA,NA,NA,NA,NA,NA,1443.9755,1447.793,3.7919,NA,NA,NA,NA,NA
1709,NA,NA,NA,NA,NA,NA,NA,NA,NA,NA,NA,NA,NA,NA,NA,NA,NA,NA,NA,NA,1447.7938,1453.9422,NA,NA,NA,NA,NA,NA,NA,NA
1709,NA,NA,NA,NA,NA,NA,NA,NA,NA,NA,NA,NA,NA,NA,NA,NA,NA,NA,NA,NA,1453.9521,1458.3416,NA,NA,NA,NA,NA,NA,NA,NA
1709,NA,NA,NA,NA,NA,NA,NA,NA,NA,NA,NA,NA,NA,NA,NA,NA,NA,NA,NA,NA,NA,NA,1458.3417,1471.5077000000001,13.1551,NA,NA,NA,NA,NA
1709,NA,NA,NA,NA,NA,NA,NA,NA,NA,NA,NA,NA,NA,NA,NA,NA,NA,NA,NA,NA,1471.5087,1477.7242,NA,NA,NA,NA,NA,NA,NA,NA
1709,NA,NA,NA,NA,NA,NA,NA,NA,NA,NA,NA,NA,NA,NA,NA,NA,NA,NA,NA,NA,1477.7336,1483.8572,NA,NA,NA,NA,NA,NA,NA,NA
1709,NA,NA,NA,NA,NA,NA,NA,NA,NA,NA,NA,NA,NA,NA,NA,NA,NA,NA,NA,NA,NA,NA,1483.8574,1501.8066,17.9396,NA,NA,NA,NA,NA
1709,NA,NA,NA,NA,NA,NA,NA,NA,NA,NA,NA,NA,NA,NA,NA,NA,NA,NA,NA,NA,1501.8076,1507.9399,NA,NA,NA,NA,NA,NA,NA,NA
1709,NA,NA,NA,NA,NA,NA,NA,NA,NA,NA,NA,NA,NA,NA,NA,NA,NA,NA,NA,NA,1507.9488,1514.9727,NA,NA,NA,NA,NA,NA,NA,NA
1709,NA,NA,NA,NA,NA,NA,NA,NA,NA,NA,NA,NA,NA,NA,NA,NA,NA,NA,NA,NA,NA,NA,1514.9728,1554.5377,39.5455,NA,NA,NA,NA,NA
1709,NA,NA,NA,NA,NA,NA,NA,NA,NA,NA,NA,NA,NA,NA,NA,NA,NA,NA,NA,NA,1554.5384,1560.9378,NA,NA,NA,NA,NA,NA,NA,NA
1709,NA,NA,NA,NA,NA,NA,NA,NA,NA,NA,NA,NA,NA,NA,NA,NA,NA,NA,NA,NA,1560.9454,1568.604,NA,NA,NA,NA,NA,NA,NA,NA
1709,NA,NA,NA,NA,NA,NA,NA,NA,NA,NA,NA,NA,NA,NA,NA,NA,NA,NA,NA,NA,NA,NA,1568.6043,1571.637,3.0138,NA,NA,NA,NA,NA
1709,NA,NA,NA,NA,NA,NA,NA,NA,NA,NA,NA,NA,NA,NA,NA,NA,NA,NA,NA,NA,1571.6383,1577.8554,NA,NA,NA,NA,NA,NA,NA,NA
1709,NA,NA,NA,NA,NA,NA,NA,NA,NA,NA,NA,NA,NA,NA,NA,NA,NA,NA,NA,NA,1577.8692,1584.0533,NA,NA,NA,NA,NA,NA,NA,NA
1709,NA,NA,NA,NA,NA,NA,NA,NA,NA,NA,NA,NA,NA,NA,NA,NA,NA,NA,NA,NA,NA,NA,1584.0535,1591.4362,7.3612,NA,NA,NA,NA,NA
1709,NA,NA,NA,NA,NA,NA,NA,NA,NA,NA,NA,NA,NA,NA,NA,NA,NA,NA,NA,NA,1591.4371,1598.0028,NA,NA,NA,NA,NA,NA,NA,NA
1709,NA,NA,NA,NA,NA,NA,NA,NA,NA,NA,NA,NA,NA,NA,NA,NA,NA,NA,NA,NA,1598.0083,1604.5857,NA,NA,NA,NA,NA,NA,NA,NA
1709,NA,NA,NA,NA,NA,NA,NA,NA,NA,NA,NA,NA,NA,NA,NA,NA,NA,NA,NA,NA,NA,NA,1604.5859,1606.2857,1.6877,NA,NA,NA,NA,NA
1709,NA,NA,NA,NA,NA,NA,NA,NA,NA,NA,NA,NA,NA,NA,NA,NA,NA,NA,NA,NA,1606.2865,1612.5355,NA,NA,NA,NA,NA,NA,NA,NA
1709,NA,NA,NA,NA,NA,NA,NA,NA,NA,NA,NA,NA,NA,NA,NA,NA,NA,NA,NA,NA,1612.5421,1620.2184,NA,NA,NA,NA,NA,NA,NA,NA
1709,NA,NA,NA,NA,NA,NA,NA,NA,NA,NA,NA,NA,NA,NA,NA,NA,NA,NA,NA,NA,NA,NA,1620.2186,1640.601,20.3621,NA,NA,NA,NA,NA
1709,NA,NA,NA,NA,NA,NA,NA,NA,NA,NA,NA,NA,NA,NA,NA,NA,NA,NA,NA,NA,1640.6017,1646.7008,NA,NA,NA,NA,NA,NA,NA,NA
1709,NA,NA,NA,NA,NA,NA,NA,NA,NA,NA,NA,NA,NA,NA,NA,NA,NA,NA,NA,NA,1646.7065,1655.3007,NA,NA,NA,NA,NA,NA,NA,NA
1709,NA,NA,NA,NA,NA,NA,NA,NA,NA,NA,NA,NA,NA,NA,NA,NA,NA,NA,NA,NA,NA,NA,1655.3008,1657.9178,2.5983,NA,NA,NA,NA,NA
1709,NA,NA,NA,NA,NA,NA,NA,NA,NA,NA,NA,NA,NA,NA,NA,NA,NA,NA,NA,NA,NA,NA,NA,NA,NA,1657.9185,1757.1651,99.2274,NA,NA
1709,NA,NA,NA,NA,NA,NA,NA,NA,NA,NA,NA,NA,NA,NA,NA,NA,NA,NA,NA,NA,1757.1721,1763.6485,NA,NA,NA,NA,NA,NA,NA,NA
1709,NA,NA,NA,NA,NA,NA,NA,NA,NA,NA,NA,NA,NA,NA,NA,NA,NA,NA,NA,NA,1763.6599,1770.4459,NA,NA,NA,NA,NA,NA,NA,NA
1709,NA,NA,NA,NA,NA,NA,NA,NA,NA,NA,NA,NA,NA,NA,NA,NA,NA,NA,NA,NA,NA,NA,1770.4459,1772.5789,2.1173,NA,NA,NA,NA,NA
1709,NA,NA,NA,NA,NA,NA,NA,NA,NA,NA,NA,NA,NA,NA,NA,NA,NA,NA,NA,NA,1772.5796,1778.6958,NA,NA,NA,NA,NA,NA,NA,NA
1709,NA,NA,NA,NA,NA,NA,NA,NA,NA,NA,NA,NA,NA,NA,NA,NA,NA,NA,NA,NA,1778.7056,1784.7619,NA,NA,NA,NA,NA,NA,NA,NA
1709,NA,NA,NA,NA,NA,NA,NA,NA,NA,NA,NA,NA,NA,NA,NA,NA,NA,NA,NA,NA,NA,NA,1784.7622,1786.4118,1.6337,NA,NA,NA,NA,NA
1709,NA,NA,NA,NA,NA,NA,NA,NA,NA,NA,NA,NA,NA,NA,NA,NA,NA,NA,NA,NA,1786.413,1791.9281,NA,NA,NA,NA,NA,NA,NA,NA
1709,NA,NA,NA,NA,NA,NA,NA,NA,NA,NA,NA,NA,NA,NA,NA,NA,NA,NA,NA,NA,1791.9386,1797.9616,NA,NA,NA,NA,NA,NA,NA,NA
1709,NA,NA,NA,NA,NA,NA,NA,NA,NA,NA,NA,NA,NA,NA,NA,NA,NA,NA,NA,NA,NA,NA,1797.9619,1813.3108,15.3256,NA,NA,NA,NA,NA
1709,NA,NA,NA,NA,NA,NA,NA,NA,NA,NA,NA,NA,NA,NA,NA,NA,NA,NA,NA,NA,1813.3117,1819.244,NA,NA,NA,NA,NA,NA,NA,NA
1709,NA,NA,NA,NA,NA,NA,NA,NA,NA,NA,NA,NA,NA,NA,NA,NA,NA,NA,NA,NA,1819.2535,1825.3105,NA,NA,NA,NA,NA,NA,NA,NA
1709,NA,NA,NA,NA,NA,NA,NA,NA,NA,NA,NA,NA,NA,NA,NA,NA,NA,NA,NA,NA,NA,NA,1825.3106,1826.9268,1.5967,NA,NA,NA,NA,NA
1709,NA,NA,NA,NA,NA,NA,NA,NA,NA,NA,NA,NA,NA,NA,NA,NA,NA,NA,NA,NA,1826.9275,1833.9265,NA,NA,NA,NA,NA,NA,NA,NA
1709,NA,NA,NA,NA,NA,NA,NA,NA,NA,NA,NA,NA,NA,NA,NA,NA,NA,NA,NA,NA,1833.9369,1840.1263,NA,NA,NA,NA,NA,NA,NA,NA
1709,NA,NA,NA,NA,NA,NA,NA,NA,NA,NA,NA,NA,NA,NA,NA,NA,NA,NA,NA,NA,NA,NA,1840.1266,1840.9263,0.7837,NA,NA,NA,NA,NA
1709,NA,NA,NA,NA,NA,NA,NA,NA,NA,NA,NA,NA,NA,NA,NA,NA,NA,NA,NA,NA,1840.9275,1847.0429,NA,NA,NA,NA,NA,NA,NA,NA
1709,NA,NA,NA,NA,NA,NA,NA,NA,NA,NA,NA,NA,NA,NA,NA,NA,NA,NA,NA,NA,1847.0508,1852.1758,NA,NA,NA,NA,NA,NA,NA,NA
1709,NA,NA,NA,NA,NA,NA,NA,NA,NA,NA,NA,NA,NA,NA,NA,NA,NA,NA,NA,NA,NA,NA,1852.1759,1866.2253,14.0392,NA,NA,NA,NA,NA
1709,NA,NA,NA,NA,NA,NA,NA,NA,NA,NA,NA,NA,NA,NA,NA,NA,NA,NA,NA,NA,1866.2261,1872.5257,NA,NA,NA,NA,NA,NA,NA,NA
1709,NA,NA,NA,NA,NA,NA,NA,NA,NA,NA,NA,NA,NA,NA,NA,NA,NA,NA,NA,NA,1872.5359,1879.1748,NA,NA,NA,NA,NA,NA,NA,NA
1709,NA,NA,NA,NA,NA,NA,NA,NA,NA,NA,NA,NA,NA,NA,NA,NA,NA,NA,NA,NA,NA,NA,1879.1748,1907.7237,28.5421,NA,NA,NA,NA,NA
1709,NA,NA,NA,NA,NA,NA,NA,NA,NA,NA,NA,NA,NA,NA,NA,NA,NA,NA,NA,NA,1907.7247,1915.0067,NA,NA,NA,NA,NA,NA,NA,NA
1709,NA,NA,NA,NA,NA,NA,NA,NA,NA,NA,NA,NA,NA,NA,NA,NA,NA,NA,NA,NA,1915.0118,1921.4061,NA,NA,NA,NA,NA,NA,NA,NA
1709,NA,NA,NA,NA,NA,NA,NA,NA,NA,NA,NA,NA,NA,NA,NA,NA,NA,NA,NA,NA,NA,NA,1921.4063,1990.913,69.495,NA,NA,NA,NA,NA
1709,NA,NA,NA,NA,NA,NA,NA,NA,NA,NA,NA,NA,NA,NA,NA,NA,NA,NA,NA,NA,1990.9141,1997.4297,NA,NA,NA,NA,NA,NA,NA,NA
1709,NA,NA,NA,NA,NA,NA,NA,NA,NA,NA,NA,NA,NA,NA,NA,NA,NA,NA,NA,NA,1997.44,2005.2632,NA,NA,NA,NA,NA,NA,NA,NA
1709,NA,NA,NA,NA,NA,NA,NA,NA,NA,NA,NA,NA,NA,NA,NA,NA,NA,NA,NA,NA,NA,NA,2005.2633,2008.7456,3.463,NA,NA,NA,NA,NA
1709,NA,NA,NA,NA,NA,NA,NA,NA,NA,NA,NA,NA,NA,NA,NA,NA,NA,NA,NA,NA,2008.7463,2014.7789,NA,NA,NA,NA,NA,NA,NA,NA
1709,NA,NA,NA,NA,NA,NA,NA,NA,NA,NA,NA,NA,NA,NA,NA,NA,NA,NA,NA,NA,2014.7882,2020.2617,NA,NA,NA,NA,NA,NA,NA,NA
1709,NA,NA,NA,NA,NA,NA,NA,NA,NA,NA,NA,NA,NA,NA,NA,NA,NA,NA,NA,NA,NA,NA,2020.2619,2050.0273,29.7495,NA,NA,NA,NA,NA
1709,NA,NA,NA,NA,NA,NA,NA,NA,NA,NA,NA,NA,NA,NA,NA,NA,NA,NA,NA,NA,2050.0281,2056.4781,NA,NA,NA,NA,NA,NA,NA,NA
1709,NA,NA,NA,NA,NA,NA,NA,NA,NA,NA,NA,NA,NA,NA,NA,NA,NA,NA,NA,NA,2056.4844,2064.0384,NA,NA,NA,NA,NA,NA,NA,NA
1709,NA,NA,NA,NA,NA,NA,NA,NA,NA,NA,NA,NA,NA,NA,NA,NA,NA,NA,NA,NA,NA,NA,2064.0387,2065.0047,0.9462,NA,NA,NA,NA,NA
1709,NA,NA,NA,NA,NA,NA,NA,NA,NA,NA,NA,NA,NA,NA,NA,NA,NA,NA,NA,NA,2065.0057,2068.9879,NA,NA,NA,NA,NA,NA,NA,NA
1709,NA,NA,NA,NA,NA,NA,NA,NA,NA,NA,NA,NA,NA,NA,NA,NA,NA,NA,NA,NA,2068.9977,2075.0876,NA,NA,NA,NA,NA,NA,NA,NA
1709,NA,NA,NA,NA,NA,NA,NA,NA,NA,NA,NA,NA,NA,NA,NA,NA,NA,NA,NA,NA,NA,NA,2075.0877,2076.2209,1.1202,NA,NA,NA,NA,NA
1709,NA,NA,NA,NA,NA,NA,NA,NA,NA,NA,NA,NA,NA,NA,NA,NA,NA,NA,NA,NA,2076.2214,2082.3207,NA,NA,NA,NA,NA,NA,NA,NA
1709,NA,NA,NA,NA,NA,NA,NA,NA,NA,NA,NA,NA,NA,NA,NA,NA,NA,NA,NA,NA,2082.3273,2089.3864,NA,NA,NA,NA,NA,NA,NA,NA
1709,NA,NA,NA,NA,NA,NA,NA,NA,NA,NA,NA,NA,NA,NA,NA,NA,NA,NA,NA,NA,NA,NA,2089.3865,2090.4867,1.0907,NA,NA,NA,NA,NA
1709,NA,NA,NA,NA,NA,NA,NA,NA,NA,NA,NA,NA,NA,NA,NA,NA,NA,NA,NA,NA,2090.4874,2096.3869,NA,NA,NA,NA,NA,NA,NA,NA
1709,NA,NA,NA,NA,NA,NA,NA,NA,NA,NA,NA,NA,NA,NA,NA,NA,NA,NA,NA,NA,2096.3926,2102.5876,NA,NA,NA,NA,NA,NA,NA,NA
1709,NA,NA,NA,NA,NA,NA,NA,NA,NA,NA,NA,NA,NA,NA,NA,NA,NA,NA,NA,NA,NA,NA,2102.5883,2110.0191,7.4073,NA,NA,NA,NA,NA
1709,NA,NA,NA,NA,NA,NA,NA,NA,NA,NA,NA,NA,NA,NA,NA,NA,NA,NA,NA,NA,2110.0202,2116.2364,NA,NA,NA,NA,NA,NA,NA,NA
1709,NA,NA,NA,NA,NA,NA,NA,NA,NA,NA,NA,NA,NA,NA,NA,NA,NA,NA,NA,NA,2116.2452,2123.769,NA,NA,NA,NA,NA,NA,NA,NA
1709,NA,NA,NA,NA,NA,NA,NA,NA,NA,NA,NA,NA,NA,NA,NA,NA,NA,NA,NA,NA,NA,NA,2123.7691,2128.2689,4.4936,NA,NA,NA,NA,NA
1709,NA,NA,NA,NA,NA,NA,NA,NA,NA,NA,NA,NA,NA,NA,NA,NA,NA,NA,NA,NA,2128.2699,2135.702,NA,NA,NA,NA,NA,NA,NA,NA
1709,NA,NA,NA,NA,NA,NA,NA,NA,NA,NA,NA,NA,NA,NA,NA,NA,NA,NA,NA,NA,2135.7091,2141.9849,NA,NA,NA,NA,NA,NA,NA,NA
1709,NA,NA,NA,NA,NA,NA,NA,NA,NA,NA,NA,NA,NA,NA,NA,NA,NA,NA,NA,NA,NA,NA,2141.9852,2170.3667,28.3659,NA,NA,NA,NA,NA
1709,NA,NA,NA,NA,NA,NA,NA,NA,NA,NA,NA,NA,NA,NA,NA,NA,NA,NA,NA,NA,2170.3675,2177.1337,NA,NA,NA,NA,NA,NA,NA,NA
1709,NA,NA,NA,NA,NA,NA,NA,NA,NA,NA,NA,NA,NA,NA,NA,NA,NA,NA,NA,NA,2177.1418,2184.2333,NA,NA,NA,NA,NA,NA,NA,NA
1709,NA,NA,NA,NA,NA,NA,NA,NA,NA,NA,NA,NA,NA,NA,NA,NA,NA,NA,NA,NA,NA,NA,2184.2336,2185.5335,1.289,NA,NA,NA,NA,NA
1709,NA,NA,NA,NA,NA,NA,NA,NA,NA,NA,NA,NA,NA,NA,NA,NA,NA,NA,NA,NA,2185.5342,2190.8334,NA,NA,NA,NA,NA,NA,NA,NA
1709,NA,NA,NA,NA,NA,NA,NA,NA,NA,NA,NA,NA,NA,NA,NA,NA,NA,NA,NA,NA,2190.8432,2196.9822,NA,NA,NA,NA,NA,NA,NA,NA
1709,NA,NA,NA,NA,NA,NA,NA,NA,NA,NA,NA,NA,NA,NA,NA,NA,NA,NA,NA,NA,NA,NA,2196.9827,2275.113,78.1103,NA,NA,NA,NA,NA
1709,NA,NA,NA,NA,NA,NA,NA,NA,NA,NA,NA,NA,NA,NA,NA,NA,NA,NA,NA,NA,2275.1139,2280.8297,NA,NA,NA,NA,NA,NA,NA,NA
1709,NA,NA,NA,NA,NA,NA,NA,NA,NA,NA,NA,NA,NA,NA,NA,NA,NA,NA,NA,NA,2280.84,2286.846,NA,NA,NA,NA,NA,NA,NA,NA
1709,NA,NA,NA,NA,NA,NA,NA,NA,NA,NA,NA,NA,NA,NA,NA,NA,NA,NA,NA,NA,NA,NA,2286.8466,2289.3792,2.5069,NA,NA,NA,NA,NA
1709,NA,NA,NA,NA,NA,NA,NA,NA,NA,NA,NA,NA,NA,NA,NA,NA,NA,NA,NA,NA,2289.3807,2296.3956,NA,NA,NA,NA,NA,NA,NA,NA
1709,NA,NA,NA,NA,NA,NA,NA,NA,NA,NA,NA,NA,NA,NA,NA,NA,NA,NA,NA,NA,2296.4056,2303.2453,NA,NA,NA,NA,NA,NA,NA,NA
1709,NA,NA,NA,NA,NA,NA,NA,NA,NA,NA,NA,NA,NA,NA,NA,NA,NA,NA,NA,NA,NA,NA,2303.2462,2316.3614,13.102,NA,NA,NA,NA,NA
1709,NA,NA,NA,NA,NA,NA,NA,NA,NA,NA,NA,NA,NA,NA,NA,NA,NA,NA,NA,NA,2316.3637,2323.5946,NA,NA,NA,NA,NA,NA,NA,NA
1709,NA,NA,NA,NA,NA,NA,NA,NA,NA,NA,NA,NA,NA,NA,NA,NA,NA,NA,NA,NA,2323.6038,2330.3942,NA,NA,NA,NA,NA,NA,NA,NA
1709,NA,NA,NA,NA,NA,NA,NA,NA,NA,NA,NA,NA,NA,NA,NA,NA,NA,NA,NA,NA,NA,NA,2330.3944,2335.4605,5.0544,NA,NA,NA,NA,NA
1709,NA,NA,NA,NA,NA,NA,NA,NA,NA,NA,NA,NA,NA,NA,NA,NA,NA,NA,NA,NA,2335.4612,2341.3851,NA,NA,NA,NA,NA,NA,NA,NA
1709,NA,NA,NA,NA,NA,NA,NA,NA,NA,NA,NA,NA,NA,NA,NA,NA,NA,NA,NA,NA,2341.3943,2347.2773,NA,NA,NA,NA,NA,NA,NA,NA
1709,NA,NA,NA,NA,NA,NA,NA,NA,NA,NA,NA,NA,NA,NA,NA,NA,NA,NA,NA,NA,NA,NA,2347.278,2362.7269,15.4375,NA,NA,NA,NA,NA
1709,NA,NA,NA,NA,NA,NA,NA,NA,NA,NA,NA,NA,NA,NA,NA,NA,NA,NA,NA,NA,2362.7278,2368.7429,NA,NA,NA,NA,NA,NA,NA,NA
1709,NA,NA,NA,NA,NA,NA,NA,NA,NA,NA,NA,NA,NA,NA,NA,NA,NA,NA,NA,NA,2368.7536,2374.909,NA,NA,NA,NA,NA,NA,NA,NA
1709,NA,NA,NA,NA,NA,NA,NA,NA,NA,NA,NA,NA,NA,NA,NA,NA,NA,NA,NA,NA,NA,NA,2374.9093,2418.9906,44.0578,NA,NA,NA,NA,NA
1709,NA,NA,NA,NA,NA,NA,NA,NA,NA,NA,NA,NA,NA,NA,NA,NA,NA,NA,NA,NA,2418.9919,2425.0743,NA,NA,NA,NA,NA,NA,NA,NA
1709,NA,NA,NA,NA,NA,NA,NA,NA,NA,NA,NA,NA,NA,NA,NA,NA,NA,NA,NA,NA,2425.0855,2431.5559,NA,NA,NA,NA,NA,NA,NA,NA
1709,NA,NA,NA,NA,NA,NA,NA,NA,NA,NA,NA,NA,NA,NA,NA,NA,NA,NA,NA,NA,NA,NA,2431.5562,2441.2063,9.6314,NA,NA,NA,NA,NA
1709,NA,NA,NA,NA,NA,NA,NA,NA,NA,NA,NA,NA,NA,NA,NA,NA,NA,NA,NA,NA,NA,NA,NA,NA,NA,2441.2065,2478.5425,37.3285,NA,NA
1709,NA,NA,NA,NA,NA,NA,NA,NA,NA,NA,NA,NA,NA,NA,NA,NA,NA,NA,NA,NA,2478.5445,2484.9382,NA,NA,NA,NA,NA,NA,NA,NA
1709,NA,NA,NA,NA,NA,NA,NA,NA,NA,NA,NA,NA,NA,NA,NA,NA,NA,NA,NA,NA,2484.9485,2490.7878,NA,NA,NA,NA,NA,NA,NA,NA
1709,NA,NA,NA,NA,NA,NA,NA,NA,NA,NA,NA,NA,NA,NA,NA,NA,NA,NA,NA,NA,NA,NA,2490.7881,2493.7049,2.8969,NA,NA,NA,NA,NA
1709,NA,NA,NA,NA,NA,NA,NA,NA,NA,NA,NA,NA,NA,NA,NA,NA,NA,NA,NA,NA,2493.7057,2500.1373,NA,NA,NA,NA,NA,NA,NA,NA
1709,NA,NA,NA,NA,NA,NA,NA,NA,NA,NA,NA,NA,NA,NA,NA,NA,NA,NA,NA,NA,2500.1487,2506.3206,NA,NA,NA,NA,NA,NA,NA,NA
1709,NA,NA,NA,NA,NA,NA,NA,NA,NA,NA,NA,NA,NA,NA,NA,NA,NA,NA,NA,NA,NA,NA,2506.3209,2507.7864,1.4558,NA,NA,NA,NA,NA
1709,NA,NA,NA,NA,NA,NA,NA,NA,NA,NA,NA,NA,NA,NA,NA,NA,NA,NA,NA,NA,2507.7871,2513.5703,NA,NA,NA,NA,NA,NA,NA,NA
1709,NA,NA,NA,NA,NA,NA,NA,NA,NA,NA,NA,NA,NA,NA,NA,NA,NA,NA,NA,NA,2513.5785,2519.7866,NA,NA,NA,NA,NA,NA,NA,NA
1709,NA,NA,NA,NA,NA,NA,NA,NA,NA,NA,NA,NA,NA,NA,NA,NA,NA,NA,NA,NA,NA,NA,2519.7868,2522.1698,2.3696,NA,NA,NA,NA,NA
1709,NA,NA,NA,NA,NA,NA,NA,NA,NA,NA,NA,NA,NA,NA,NA,NA,NA,NA,NA,NA,2522.1706,2528.1032,NA,NA,NA,NA,NA,NA,NA,NA
1709,NA,NA,NA,NA,NA,NA,NA,NA,NA,NA,NA,NA,NA,NA,NA,NA,NA,NA,NA,NA,2528.1105,2534.1361,NA,NA,NA,NA,NA,NA,NA,NA
1709,NA,NA,NA,NA,NA,NA,NA,NA,NA,NA,NA,NA,NA,NA,NA,NA,NA,NA,NA,NA,NA,NA,2534.1362,2641.2484,107.0924,NA,NA,NA,NA,NA
1709,NA,NA,NA,NA,NA,NA,NA,NA,NA,NA,NA,NA,NA,NA,NA,NA,NA,NA,NA,NA,2641.2493,2647.7984,NA,NA,NA,NA,NA,NA,NA,NA
1709,NA,NA,NA,NA,NA,NA,NA,NA,NA,NA,NA,NA,NA,NA,NA,NA,NA,NA,NA,NA,2647.8085,2658.0469,NA,NA,NA,NA,NA,NA,NA,NA
1709,NA,NA,NA,NA,NA,NA,NA,NA,NA,NA,NA,NA,NA,NA,NA,NA,NA,NA,NA,NA,NA,NA,2658.0471,2730.8281,72.7572,NA,NA,NA,NA,NA
1709,NA,NA,NA,NA,NA,NA,NA,NA,NA,NA,NA,NA,NA,NA,NA,NA,NA,NA,NA,NA,2730.8292,2736.9105,NA,NA,NA,NA,NA,NA,NA,NA
1709,NA,NA,NA,NA,NA,NA,NA,NA,NA,NA,NA,NA,NA,NA,NA,NA,NA,NA,NA,NA,2736.9214,2743.4945,NA,NA,NA,NA,NA,NA,NA,NA
1709,NA,NA,NA,NA,NA,NA,NA,NA,NA,NA,NA,NA,NA,NA,NA,NA,NA,NA,NA,NA,NA,NA,2743.4946,2746.2275,2.7203,NA,NA,NA,NA,NA
1709,NA,NA,NA,NA,NA,NA,NA,NA,NA,NA,NA,NA,NA,NA,NA,NA,NA,NA,NA,NA,2746.228,2752.2107,NA,NA,NA,NA,NA,NA,NA,NA
1709,NA,NA,NA,NA,NA,NA,NA,NA,NA,NA,NA,NA,NA,NA,NA,NA,NA,NA,NA,NA,2752.2205,2759.3599,NA,NA,NA,NA,NA,NA,NA,NA
1709,NA,NA,NA,NA,NA,NA,NA,NA,NA,NA,NA,NA,NA,NA,NA,NA,NA,NA,NA,NA,NA,NA,2759.3601,2782.1093,22.7352,NA,NA,NA,NA,NA
1709,NA,NA,NA,NA,NA,NA,NA,NA,NA,NA,NA,NA,NA,NA,NA,NA,NA,NA,NA,NA,2782.11,2788.2084,NA,NA,NA,NA,NA,NA,NA,NA
1709,NA,NA,NA,NA,NA,NA,NA,NA,NA,NA,NA,NA,NA,NA,NA,NA,NA,NA,NA,NA,2788.2184,2794.4255,NA,NA,NA,NA,NA,NA,NA,NA
1709,NA,NA,NA,NA,NA,NA,NA,NA,NA,NA,NA,NA,NA,NA,NA,NA,NA,NA,NA,NA,NA,NA,2794.4256,2797.3256,2.8777,NA,NA,NA,NA,NA
1709,NA,NA,NA,NA,NA,NA,NA,NA,NA,NA,NA,NA,NA,NA,NA,NA,NA,NA,NA,NA,2797.3266,2803.2247,NA,NA,NA,NA,NA,NA,NA,NA
1709,NA,NA,NA,NA,NA,NA,NA,NA,NA,NA,NA,NA,NA,NA,NA,NA,NA,NA,NA,NA,2803.2338,2809.3583,NA,NA,NA,NA,NA,NA,NA,NA
1709,NA,NA,NA,NA,NA,NA,NA,NA,NA,NA,NA,NA,NA,NA,NA,NA,NA,NA,NA,NA,NA,NA,2809.3584,2875.4557,66.0796,NA,NA,NA,NA,NA
1709,NA,NA,NA,NA,NA,NA,NA,NA,NA,NA,NA,NA,NA,NA,NA,NA,NA,NA,NA,NA,2875.4565,2882.8218,NA,NA,NA,NA,NA,NA,NA,NA
1709,NA,NA,NA,NA,NA,NA,NA,NA,NA,NA,NA,NA,NA,NA,NA,NA,NA,NA,NA,NA,2882.8324,2890.1889,NA,NA,NA,NA,NA,NA,NA,NA
1709,NA,NA,NA,NA,NA,NA,NA,NA,NA,NA,NA,NA,NA,NA,NA,NA,NA,NA,NA,NA,NA,NA,2890.1894,2930.87,40.6566,NA,NA,NA,NA,NA
1709,NA,NA,NA,NA,NA,NA,NA,NA,NA,NA,NA,NA,NA,NA,NA,NA,NA,NA,NA,NA,2930.8721,2936.936,NA,NA,NA,NA,NA,NA,NA,NA
1709,NA,NA,NA,NA,NA,NA,NA,NA,NA,NA,NA,NA,NA,NA,NA,NA,NA,NA,NA,NA,2936.9474,2943.2687,NA,NA,NA,NA,NA,NA,NA,NA
1709,NA,NA,NA,NA,NA,NA,NA,NA,NA,NA,NA,NA,NA,NA,NA,NA,NA,NA,NA,NA,NA,NA,2943.2691,2946.5515,3.2717,NA,NA,NA,NA,NA
1709,NA,NA,NA,NA,NA,NA,NA,NA,NA,NA,NA,NA,NA,NA,NA,NA,NA,NA,NA,NA,2946.5529,2952.8853,NA,NA,NA,NA,NA,NA,NA,NA
1709,NA,NA,NA,NA,NA,NA,NA,NA,NA,NA,NA,NA,NA,NA,NA,NA,NA,NA,NA,NA,2952.8959,2958.9513,NA,NA,NA,NA,NA,NA,NA,NA
1709,NA,NA,NA,NA,NA,NA,NA,NA,NA,NA,NA,NA,NA,NA,NA,NA,NA,NA,NA,NA,NA,NA,2958.9519,2965.5674,6.5922,NA,NA,NA,NA,NA
1709,NA,NA,NA,NA,NA,NA,NA,NA,NA,NA,NA,NA,NA,NA,NA,NA,NA,NA,NA,NA,2965.569,2971.8669,NA,NA,NA,NA,NA,NA,NA,NA
1709,NA,NA,NA,NA,NA,NA,NA,NA,NA,NA,NA,NA,NA,NA,NA,NA,NA,NA,NA,NA,2971.8728,2980.7834,NA,NA,NA,NA,NA,NA,NA,NA
1709,NA,NA,NA,NA,NA,NA,NA,NA,NA,NA,NA,NA,NA,NA,NA,NA,NA,NA,NA,NA,NA,NA,2980.7836,2985.0666,4.259,NA,NA,NA,NA,NA
1709,NA,NA,NA,NA,NA,NA,NA,NA,NA,NA,NA,NA,NA,NA,NA,NA,NA,NA,NA,NA,2985.0678,2991.2837,NA,NA,NA,NA,NA,NA,NA,NA
1709,NA,NA,NA,NA,NA,NA,NA,NA,NA,NA,NA,NA,NA,NA,NA,NA,NA,NA,NA,NA,2991.2945,2999.2667,NA,NA,NA,NA,NA,NA,NA,NA
1709,NA,NA,NA,NA,NA,NA,NA,NA,NA,NA,NA,NA,NA,NA,NA,NA,NA,NA,NA,NA,NA,NA,2999.2674,3005.6815,6.3979,NA,NA,NA,NA,NA
1709,NA,NA,NA,NA,NA,NA,NA,NA,NA,NA,NA,NA,NA,NA,NA,NA,NA,NA,NA,NA,3005.6833,3013.416,NA,NA,NA,NA,NA,NA,NA,NA
1709,NA,NA,NA,NA,NA,NA,NA,NA,NA,NA,NA,NA,NA,NA,NA,NA,NA,NA,NA,NA,3013.4276,3019.6323,NA,NA,NA,NA,NA,NA,NA,NA
1709,NA,NA,NA,NA,NA,NA,NA,NA,NA,NA,NA,NA,NA,NA,NA,NA,NA,NA,NA,NA,NA,NA,3019.6326,3032.5145,12.8593,NA,NA,NA,NA,NA
1709,NA,NA,NA,NA,NA,NA,NA,NA,NA,NA,NA,NA,NA,NA,NA,NA,NA,NA,NA,NA,3032.5152,3038.9813,NA,NA,NA,NA,NA,NA,NA,NA
1709,NA,NA,NA,NA,NA,NA,NA,NA,NA,NA,NA,NA,NA,NA,NA,NA,NA,NA,NA,NA,3038.9899,3045.2974,NA,NA,NA,NA,NA,NA,NA,NA
1709,NA,NA,NA,NA,NA,NA,NA,NA,NA,NA,NA,NA,NA,NA,NA,NA,NA,NA,NA,NA,NA,NA,3045.2979,3094.8957,49.5865,NA,NA,NA,NA,NA
1709,NA,NA,NA,NA,NA,NA,NA,NA,NA,NA,NA,NA,NA,NA,NA,NA,NA,NA,NA,NA,3094.8968,3101.0953,NA,NA,NA,NA,NA,NA,NA,NA
1709,NA,NA,NA,NA,NA,NA,NA,NA,NA,NA,NA,NA,NA,NA,NA,NA,NA,NA,NA,NA,3101.1019,3107.2289,NA,NA,NA,NA,NA,NA,NA,NA
1709,NA,NA,NA,NA,NA,NA,NA,NA,NA,NA,NA,NA,NA,NA,NA,NA,NA,NA,NA,NA,NA,NA,3107.2293,3112.6614,5.42,NA,NA,NA,NA,NA
1709,NA,NA,NA,NA,NA,NA,NA,NA,NA,NA,NA,NA,NA,NA,NA,NA,NA,NA,NA,NA,3112.6629,3119.4109,NA,NA,NA,NA,NA,NA,NA,NA
1709,NA,NA,NA,NA,NA,NA,NA,NA,NA,NA,NA,NA,NA,NA,NA,NA,NA,NA,NA,NA,3119.4218,3126.1941,NA,NA,NA,NA,NA,NA,NA,NA
1709,NA,NA,NA,NA,NA,NA,NA,NA,NA,NA,NA,NA,NA,NA,NA,NA,NA,NA,NA,NA,NA,NA,3126.1952,3132.1111,5.9103,NA,NA,NA,NA,NA
1709,NA,NA,NA,NA,NA,NA,NA,NA,NA,NA,NA,NA,NA,NA,NA,NA,NA,NA,NA,NA,3132.1117,3138.4774,NA,NA,NA,NA,NA,NA,NA,NA
1709,NA,NA,NA,NA,NA,NA,NA,NA,NA,NA,NA,NA,NA,NA,NA,NA,NA,NA,NA,NA,3138.4884,3144.5441,NA,NA,NA,NA,NA,NA,NA,NA
1709,NA,NA,NA,NA,NA,NA,NA,NA,NA,NA,NA,NA,NA,NA,NA,NA,NA,NA,NA,NA,NA,NA,3144.5447,3182.0753,37.5117,NA,NA,NA,NA,NA
1709,NA,NA,NA,NA,NA,NA,NA,NA,NA,NA,NA,NA,NA,NA,NA,NA,NA,NA,NA,NA,3182.0764,3188.3428,NA,NA,NA,NA,NA,NA,NA,NA
1709,NA,NA,NA,NA,NA,NA,NA,NA,NA,NA,NA,NA,NA,NA,NA,NA,NA,NA,NA,NA,3188.354,3194.5752,NA,NA,NA,NA,NA,NA,NA,NA
1709,NA,NA,NA,NA,NA,NA,NA,NA,NA,NA,NA,NA,NA,NA,NA,NA,NA,NA,NA,NA,NA,NA,3194.5756,3211.2742,16.6778,NA,NA,NA,NA,NA
1709,NA,NA,NA,NA,NA,NA,NA,NA,NA,NA,NA,NA,NA,NA,NA,NA,NA,NA,NA,NA,3211.2752,3217.4911,NA,NA,NA,NA,NA,NA,NA,NA
1709,NA,NA,NA,NA,NA,NA,NA,NA,NA,NA,NA,NA,NA,NA,NA,NA,NA,NA,NA,NA,3217.5013,3223.1898,NA,NA,NA,NA,NA,NA,NA,NA
1709,NA,NA,NA,NA,NA,NA,NA,NA,NA,NA,NA,NA,NA,NA,NA,NA,NA,NA,NA,NA,NA,NA,3223.1902,3228.2396,5.0296,NA,NA,NA,NA,NA
1709,NA,NA,NA,NA,NA,NA,NA,NA,NA,NA,NA,NA,NA,NA,NA,NA,NA,NA,NA,NA,3228.2411,3235.4738,NA,NA,NA,NA,NA,NA,NA,NA
1709,NA,NA,NA,NA,NA,NA,NA,NA,NA,NA,NA,NA,NA,NA,NA,NA,NA,NA,NA,NA,3235.4847,3242.5063,NA,NA,NA,NA,NA,NA,NA,NA
1709,NA,NA,NA,NA,NA,NA,NA,NA,NA,NA,NA,NA,NA,NA,NA,NA,NA,NA,NA,NA,NA,NA,3242.5063,3244.1886,1.6687,NA,NA,NA,NA,NA
1709,NA,NA,NA,NA,NA,NA,NA,NA,NA,NA,NA,NA,NA,NA,NA,NA,NA,NA,NA,NA,3244.1949,3250.1403,NA,NA,NA,NA,NA,NA,NA,NA
1709,NA,NA,NA,NA,NA,NA,NA,NA,NA,NA,NA,NA,NA,NA,NA,NA,NA,NA,NA,NA,3250.151,3256.3559,NA,NA,NA,NA,NA,NA,NA,NA
1709,NA,NA,NA,NA,NA,NA,NA,NA,NA,NA,NA,NA,NA,NA,NA,NA,NA,NA,NA,NA,NA,NA,3256.3562,3316.9199,60.5428,NA,NA,NA,NA,NA
1709,NA,NA,NA,NA,NA,NA,NA,NA,NA,NA,NA,NA,NA,NA,NA,NA,NA,NA,NA,NA,NA,NA,NA,NA,NA,3316.9202,3316.9203,NA,NA,NA
1709,NA,NA,NA,NA,NA,NA,NA,NA,NA,NA,NA,NA,NA,NA,NA,NA,NA,NA,NA,NA,NA,NA,NA,NA,NA,NA,NA,NA,NA,NA
1709,NA,NA,NA,NA,NA,NA,NA,NA,NA,NA,NA,NA,NA,NA,NA,NA,NA,NA,NA,NA,NA,NA,NA,NA,NA,NA,NA,NA,3626.5715,3628.8604
885953,5e-4,56.7059,56.6567,NA,NA,NA,NA,NA,NA,NA,NA,NA,NA,NA,NA,NA,NA,NA,NA,NA,NA,NA,NA,NA,NA,NA,NA,NA,NA,NA
885953,NA,NA,NA,NA,NA,NA,NA,NA,NA,NA,NA,NA,NA,NA,NA,NA,NA,NA,NA,NA,NA,NA,NA,NA,NA,NA,NA,NA,NA,NA
885953,NA,NA,NA,96.9977,96.998,NA,NA,NA,NA,NA,NA,NA,NA,NA,NA,NA,NA,NA,NA,NA,NA,NA,NA,NA,NA,NA,NA,NA,NA,NA
885953,NA,NA,NA,NA,NA,97.0006,100.6652,3.6283,100.6656,149.1823,38.4688,149.1833,234.0626,84.8359,234.0628,250.2675,16.2024,250.2678,251.6022,1.3163,251.6289,257.5537,NA,NA,NA,NA,NA,NA,NA,NA
885953,NA,NA,NA,NA,NA,NA,NA,NA,NA,NA,NA,NA,NA,NA,NA,NA,NA,NA,NA,NA,257.555,263.576,NA,NA,NA,NA,NA,NA,NA,NA
885953,NA,NA,NA,NA,NA,NA,NA,NA,NA,NA,NA,NA,NA,NA,NA,NA,NA,NA,NA,NA,NA,NA,263.599,279.1724,15.5695,NA,NA,NA,NA,NA
885953,NA,NA,NA,NA,NA,NA,NA,NA,NA,NA,NA,NA,NA,NA,NA,NA,NA,NA,NA,NA,279.1748,285.3695,NA,NA,NA,NA,NA,NA,NA,NA
885953,NA,NA,NA,NA,NA,NA,NA,NA,NA,NA,NA,NA,NA,NA,NA,NA,NA,NA,NA,NA,285.3957,293.3655,NA,NA,NA,NA,NA,NA,NA,NA
885953,NA,NA,NA,NA,NA,NA,NA,NA,NA,NA,NA,NA,NA,NA,NA,NA,NA,NA,NA,NA,NA,NA,293.3658,296.715,3.3274,NA,NA,NA,NA,NA
885953,NA,NA,NA,NA,NA,NA,NA,NA,NA,NA,NA,NA,NA,NA,NA,NA,NA,NA,NA,NA,296.718,302.7792,NA,NA,NA,NA,NA,NA,NA,NA
885953,NA,NA,NA,NA,NA,NA,NA,NA,NA,NA,NA,NA,NA,NA,NA,NA,NA,NA,NA,NA,302.8017,309.1271,NA,NA,NA,NA,NA,NA,NA,NA
885953,NA,NA,NA,NA,NA,NA,NA,NA,NA,NA,NA,NA,NA,NA,NA,NA,NA,NA,NA,NA,NA,NA,309.1274,311.4762,2.3199,NA,NA,NA,NA,NA
885953,NA,NA,NA,NA,NA,NA,NA,NA,NA,NA,NA,NA,NA,NA,NA,NA,NA,NA,NA,NA,311.4799,317.4241,NA,NA,NA,NA,NA,NA,NA,NA
885953,NA,NA,NA,NA,NA,NA,NA,NA,NA,NA,NA,NA,NA,NA,NA,NA,NA,NA,NA,NA,317.4449,323.6563,NA,NA,NA,NA,NA,NA,NA,NA
885953,NA,NA,NA,NA,NA,NA,NA,NA,NA,NA,NA,NA,NA,NA,NA,NA,NA,NA,NA,NA,NA,NA,323.6565,325.6718,1.9889,NA,NA,NA,NA,NA
885953,NA,NA,NA,NA,NA,NA,NA,NA,NA,NA,NA,NA,NA,NA,NA,NA,NA,NA,NA,NA,325.6741,332.036,NA,NA,NA,NA,NA,NA,NA,NA
885953,NA,NA,NA,NA,NA,NA,NA,NA,NA,NA,NA,NA,NA,NA,NA,NA,NA,NA,NA,NA,332.0564,338.1173,NA,NA,NA,NA,NA,NA,NA,NA
885953,NA,NA,NA,NA,NA,NA,NA,NA,NA,NA,NA,NA,NA,NA,NA,NA,NA,NA,NA,NA,NA,NA,338.1176,340.4834,2.3428,NA,NA,NA,NA,NA
885953,NA,NA,NA,NA,NA,NA,NA,NA,NA,NA,NA,NA,NA,NA,NA,NA,NA,NA,NA,NA,340.4856,346.7145,NA,NA,NA,NA,NA,NA,NA,NA
885953,NA,NA,NA,NA,NA,NA,NA,NA,NA,NA,NA,NA,NA,NA,NA,NA,NA,NA,NA,NA,346.7361,354.4615,NA,NA,NA,NA,NA,NA,NA,NA
885953,NA,NA,NA,NA,NA,NA,NA,NA,NA,NA,NA,NA,NA,NA,NA,NA,NA,NA,NA,NA,NA,NA,354.4619,356.4112,1.918,NA,NA,NA,NA,NA
885953,NA,NA,NA,NA,NA,NA,NA,NA,NA,NA,NA,NA,NA,NA,NA,NA,NA,NA,NA,NA,356.4143,362.3917,NA,NA,NA,NA,NA,NA,NA,NA
885953,NA,NA,NA,NA,NA,NA,NA,NA,NA,NA,NA,NA,NA,NA,NA,NA,NA,NA,NA,NA,362.4,369.5398,NA,NA,NA,NA,NA,NA,NA,NA
885953,NA,NA,NA,NA,NA,NA,NA,NA,NA,NA,NA,NA,NA,NA,NA,NA,NA,NA,NA,NA,NA,NA,369.5401,370.4397,0.8752,NA,NA,NA,NA,NA
885953,NA,NA,NA,NA,NA,NA,NA,NA,NA,NA,NA,NA,NA,NA,NA,NA,NA,NA,NA,NA,370.4423,377.4706,NA,NA,NA,NA,NA,NA,NA,NA
885953,NA,NA,NA,NA,NA,NA,NA,NA,NA,NA,NA,NA,NA,NA,NA,NA,NA,NA,NA,NA,377.4891,384.7182,NA,NA,NA,NA,NA,NA,NA,NA
885953,NA,NA,NA,NA,NA,NA,NA,NA,NA,NA,NA,NA,NA,NA,NA,NA,NA,NA,NA,NA,NA,NA,384.7185,387.2841,2.5493,NA,NA,NA,NA,NA
885953,NA,NA,NA,NA,NA,NA,NA,NA,NA,NA,NA,NA,NA,NA,NA,NA,NA,NA,NA,NA,387.2862,393.498,NA,NA,NA,NA,NA,NA,NA,NA
